"trial_type","trial_index","time_elapsed","internal_node_id","task_version","subject_id","assigned_condition","age","gender","success","timeout","failed_images","failed_audio","failed_video","browser_interaction","rt","stimulus","response","task_part","environment","score","rewardMap","correct","fullState","isCatch","condition","order","trial_num","key_press","ground_truth","bonus"
"pavlovia","0","1420","0.0-0.0","spark_pilot_norest","8435","6","7","Male","","","","","","","","","","","","","","","","","","","","","",""
"preload","1","4167","0.0-1.0","spark_pilot_norest","8435","6","7","Male","true","false","[]","[]","[]","[{""event"":""fullscreenenter"",""trial"":2,""time"":9435},{""event"":""blur"",""trial"":164,""time"":839622},{""event"":""focus"",""trial"":165,""time"":843868}]","","","","","","","","","","","","","","","",""
"fullscreen","2","10401","0.0-2.0","spark_pilot_norest","8435","6","7","Male","true","","","","","","","","","","","","","","","","","","","","",""
"audio-button-response","3","23915","0.0-3.0-0.0-0.0","spark_pilot_norest","8435","6","7","Male","","","","","","","12680","./assets/audio/audiotest/turtle.mp3","4","audio_test","","","","","","","","","","","",""
"audio-button-response","4","72492","0.0-3.0-0.1-0.1","spark_pilot_norest","8435","6","7","Male","","","","","","","47299","./assets/audio/audiotest/turtle.mp3","4","audio_test","","","","","","","","","","","",""
"audio-button-response","5","76676","0.0-3.0-0.2-0.2","spark_pilot_norest","8435","6","7","Male","","","","","","","2309","./assets/audio/audiotest/turtle.mp3","2","audio_test","","","","","","","","","","","",""
"learning-instructions","6","88788","0.0-3.0-1.0-0.0","spark_pilot_norest","8435","6","7","Male","","","","","","","5096.5","<p> Welcome! Please remember to stay in fullscreen mode and don't click away from the experiment. </p>","","instructions","","","","","","","","","","","",""
"learning-instructions","7","100038","0.0-3.0-1.0-0.1","spark_pilot_norest","8435","6","7","Male","","","","","","","2812.4000000003725","<p> Today you will be playing a game to earn treasure. </p>
            <p> At the end of the experiment, you will earn a bonus based on how much treasure you find. </p>
            <img src='./assets/img/instructions/treasure.jpg' class='instructions-image'>","","instructions","","","","","","","","","","","",""
"learning-instructions","8","110032","0.0-3.0-1.0-0.2","spark_pilot_norest","8435","6","7","Male","","","","","","","1666.7999999998137","<p> Animals have hidden treasure in treasure chests. </p>
            <p> You need to first find an animal and then choose which of their treasure chests to search. </p>
            <img src='./assets/img/space/animals/cat.jpg' class='instructions-image'>","","instructions","","","","","","","","","","","",""
"learning-instructions","9","124668","0.0-3.0-1.0-0.3","spark_pilot_norest","8435","6","7","Male","","","","","","","1461.9000000003725","<p> In each round, you will search for treasure in a different place. In the real game, there will be two rounds. </p>
            <p> You will begin with a separate, practice round where you will search for treasure in outer space. </p>
            <img src='./assets/img/space/0.jpg' class='instructions-image'>","","instructions","","","","","","","","","","","",""
"learning-instructions","10","137416","0.0-3.0-1.0-0.4","spark_pilot_norest","8435","6","7","Male","","","","","","","1310.7000000001863","<p> On every turn, you will see a picture of the place that you are in, but the specific image may be different each time. </p>
            <p> For example, both of these images mean you are in outer space. </p>
            <img src='./assets/img/instructions/outerspace.jpg' class='instructions-image'>","","instructions","","","","","","","","","","","",""
"learning-instructions","11","146957","0.0-3.0-1.0-0.5","spark_pilot_norest","8435","6","7","Male","","","","","","","1702","<p> You need to decide which direction to travel in. </p>
            <p> You can choose between going <b>up or down</b> by using the arrow keys. </p>
            <img src='./assets/img/instructions/updown.jpg' class='instructions-image'>","","instructions","","","","","","","","","","","",""
"learning-instructions","12","160325","0.0-3.0-1.0-0.6","spark_pilot_norest","8435","6","7","Male","","","","","","","4529.799999999814","<p> You will have <b>2 seconds</b> to make your choice. </p>
            <p> If you do not make a choice within 2 seconds, you will not find an animal or earn treasure. </p>
            <img src='./assets/img/instructions/2seconds.jpg' class='instructions-image'>","","instructions","","","","","","","","","","","",""
"learning-instructions","13","169354","0.0-3.0-1.0-0.7","spark_pilot_norest","8435","6","7","Male","","","","","","","1970","<p> Let’s try practicing that now! </p>
            <p> When you see a picture of the place you are in, press the <b>up</b> key to travel up. </p>
            <img src='./assets/img/instructions/pressUp.jpg' class='instructions-image'>","","instructions","","","","","","","","","","","",""
"revaluation","14","173393","0.0-3.0-2.0-0.0","spark_pilot_norest","8435","6","7","Male","","false","","","","","[1023.2000000001863]","./assets/img/space/0.jpg","[""ArrowUp""]","first stage practice","space","0","null","null","ArrowUp","false","","","","","",""
"html-keyboard-response","15","173908","0.0-3.0-2.0-1.0","spark_pilot_norest","8435","6","7","Male","","","","","","","null","<div style=""font-size:60px;"">+</div>","null","fixation","","","","","","","","","","","",""
"revaluation","16","177927","0.0-3.0-2.0-0.1","spark_pilot_norest","8435","6","7","Male","","true","","","","","[]","./assets/img/space/1.jpg","[]","first stage practice","space","-5","null","null","","false","","","","","",""
"html-keyboard-response","17","178442","0.0-3.0-2.0-1.1","spark_pilot_norest","8435","6","7","Male","","","","","","","null","<div style=""font-size:60px;"">+</div>","null","fixation","","","","","","","","","","","",""
"revaluation","18","182464","0.0-3.0-2.0-0.2","spark_pilot_norest","8435","6","7","Male","","false","","","","","[319.79999999981374]","./assets/img/space/2.jpg","[""ArrowUp""]","first stage practice","space","0","null","null","ArrowUp","false","","","","","",""
"html-keyboard-response","19","182974","0.0-3.0-2.0-1.2","spark_pilot_norest","8435","6","7","Male","","","","","","","null","<div style=""font-size:60px;"">+</div>","null","fixation","","","","","","","","","","","",""
"learning-instructions","20","189591","0.0-3.0-3.0-0.0","spark_pilot_norest","8435","6","7","Male","","","","","","","1916.4000000003725","<p> Great job! Now try pressing the <b>down</b> key to travel down. </p>
            <img src='./assets/img/instructions/pressDown.jpg' class='instructions-image'>","","instructions","","","","","","","","","","","",""
"revaluation","21","193614","0.0-3.0-4.0-0.0","spark_pilot_norest","8435","6","7","Male","","false","","","","","[1125.2999999998137]","./assets/img/space/3.jpg","[""ArrowDown""]","first stage practice","space","0","null","null","ArrowDown","false","","","","","",""
"html-keyboard-response","22","194125","0.0-3.0-4.0-1.0","spark_pilot_norest","8435","6","7","Male","","","","","","","null","<div style=""font-size:60px;"">+</div>","null","fixation","","","","","","","","","","","",""
"revaluation","23","198146","0.0-3.0-4.0-0.1","spark_pilot_norest","8435","6","7","Male","","false","","","","","[340.5]","./assets/img/space/4.jpg","[""ArrowDown""]","first stage practice","space","0","null","null","ArrowDown","false","","","","","",""
"html-keyboard-response","24","198648","0.0-3.0-4.0-1.1","spark_pilot_norest","8435","6","7","Male","","","","","","","null","<div style=""font-size:60px;"">+</div>","null","fixation","","","","","","","","","","","",""
"revaluation","25","202675","0.0-3.0-4.0-0.2","spark_pilot_norest","8435","6","7","Male","","false","","","","","[667.6000000005588]","./assets/img/space/5.jpg","[""ArrowDown""]","first stage practice","space","0","null","null","ArrowDown","false","","","","","",""
"html-keyboard-response","26","203180","0.0-3.0-4.0-1.2","spark_pilot_norest","8435","6","7","Male","","","","","","","null","<div style=""font-size:60px;"">+</div>","null","fixation","","","","","","","","","","","",""
"learning-instructions","27","216618","0.0-3.0-5.0-0.0","spark_pilot_norest","8435","6","7","Male","","","","","","","3573.2000000001863","<p> The animals don’t move, so the animal in the upper part of a place will stay in the upper part of a place, and the animal in the lower part of a place will stay in the lower part of a place. </p>","","instructions","","","","","","","","","","","",""
"learning-instructions","28","229857","0.0-3.0-5.0-0.1","spark_pilot_norest","8435","6","7","Male","","","","","","","4092.5","<p> Each animal has two treasure chests for you to choose from. </p>
            <p> The amount of treasure in each chest can range from <b> 0 to 40 pieces.</b></p>","","instructions","","","","","","","","","","","",""
"learning-instructions","29","243281","0.0-3.0-5.0-0.2","spark_pilot_norest","8435","6","7","Male","","","","","","","2195.699999999255","<p> You should decide which chest to search for treasure by using the <b>left</b> and <b>right</b> arrow keys. </p>
            <p><b> Pay attention to which animal is on the screen, as the animals have different treasure chests. </b></p>
            <img src='./assets/img/instructions/leftright.jpg' class='instructions-image'>","","instructions","","","","","","","","","","","",""
"learning-instructions","30","250516","0.0-3.0-5.0-0.3","spark_pilot_norest","8435","6","7","Male","","","","","","","851.1000000005588","<p> Let’s try practicing that now. </p>
            <p> When you see an animal, choose which chest to search for treasure. </p>
            <img src='./assets/img/instructions/chooseChest.jpg' class='instructions-image'>","","instructions","","","","","","","","","","","",""
"revaluation","31","254547","0.0-3.0-6.0-0.0","spark_pilot_norest","8435","6","7","Male","","false","","","","","[1199.4000000003725]","./assets/img/space/animals/rabbit.jpg","[""ArrowRight""]","second stage practice","space","23","{""ArrowUp,ArrowLeft"":3,""ArrowUp,ArrowRight"":36,""ArrowDown,ArrowLeft"":15,""ArrowDown,ArrowRight"":23}","true","ArrowDown,ArrowRight","","","","","","",""
"html-keyboard-response","32","255062","0.0-3.0-6.0-1.0","spark_pilot_norest","8435","6","7","Male","","","","","","","null","<div style=""font-size:60px;"">+</div>","null","fixation","","","","","","","","","","","",""
"revaluation","33","259089","0.0-3.0-6.0-0.1","spark_pilot_norest","8435","6","7","Male","","false","","","","","[522.4000000003725]","./assets/img/space/animals/cat.jpg","[""ArrowLeft""]","second stage practice","space","3","{""ArrowUp,ArrowLeft"":3,""ArrowUp,ArrowRight"":36,""ArrowDown,ArrowLeft"":15,""ArrowDown,ArrowRight"":23}","false","ArrowUp,ArrowLeft","","","","","","",""
"html-keyboard-response","34","259631","0.0-3.0-6.0-1.1","spark_pilot_norest","8435","6","7","Male","","","","","","","null","<div style=""font-size:60px;"">+</div>","null","fixation","","","","","","","","","","","",""
"revaluation","35","263648","0.0-3.0-6.0-0.2","spark_pilot_norest","8435","6","7","Male","","false","","","","","[138.8999999994412]","./assets/img/space/animals/rabbit.jpg","[""ArrowRight""]","second stage practice","space","23","{""ArrowUp,ArrowLeft"":3,""ArrowUp,ArrowRight"":36,""ArrowDown,ArrowLeft"":15,""ArrowDown,ArrowRight"":23}","true","ArrowDown,ArrowRight","","","","","","",""
"html-keyboard-response","36","264156","0.0-3.0-6.0-1.2","spark_pilot_norest","8435","6","7","Male","","","","","","","null","<div style=""font-size:60px;"">+</div>","null","fixation","","","","","","","","","","","",""
"revaluation","37","268191","0.0-3.0-6.0-0.3","spark_pilot_norest","8435","6","7","Male","","false","","","","","[260.3999999994412]","./assets/img/space/animals/cat.jpg","[""ArrowRight""]","second stage practice","space","36","{""ArrowUp,ArrowLeft"":3,""ArrowUp,ArrowRight"":36,""ArrowDown,ArrowLeft"":15,""ArrowDown,ArrowRight"":23}","true","ArrowUp,ArrowRight","","","","","","",""
"html-keyboard-response","38","268692","0.0-3.0-6.0-1.3","spark_pilot_norest","8435","6","7","Male","","","","","","","null","<div style=""font-size:60px;"">+</div>","null","fixation","","","","","","","","","","","",""
"learning-instructions","39","294175","0.0-3.0-7.0-0.0","spark_pilot_norest","8435","6","7","Male","","","","","","","8650.5","<p> Great job. Now let’s try putting it together. </p>
            <p> On each turn, you will first see a picture to remind you of the place you are in, and you need to choose whether to go up or down. </p>
            <p> Then you will see an animal and choose which of its chests to search for treasure. </p>","","instructions","","","","","","","","","","","",""
"learning-instructions","40","303557","0.0-3.0-7.0-0.1","spark_pilot_norest","8435","6","7","Male","","","","","","","1092.7000000001863","<p> When you choose whether to go up or down, try to go to the animal with the chest with the most treasure. </p>
            <p> Try practicing that now! </p>","","instructions","","","","","","","","","","","",""
"revaluation","41","309584","0.0-3.0-8.0-0.0","spark_pilot_norest","8435","6","7","Male","","false","","","","","[952.7000000001863,764.6999999992549]","./assets/img/space/6.jpg","[""ArrowUp"",""ArrowRight""]","full practice","space","36","{""ArrowUp,ArrowLeft"":3,""ArrowUp,ArrowRight"":36,""ArrowDown,ArrowLeft"":15,""ArrowDown,ArrowRight"":23}","true","ArrowUp,ArrowRight","false","","","","","",""
"html-keyboard-response","42","310095","0.0-3.0-8.0-1.0","spark_pilot_norest","8435","6","7","Male","","","","","","","null","<div style=""font-size:60px;"">+</div>","null","fixation","","","","","","","","","","","",""
"revaluation","43","316123","0.0-3.0-8.0-0.1","spark_pilot_norest","8435","6","7","Male","","false","","","","","[487.5,530]","./assets/img/space/7.jpg","[""ArrowDown"",""ArrowLeft""]","full practice","space","15","{""ArrowUp,ArrowLeft"":3,""ArrowUp,ArrowRight"":36,""ArrowDown,ArrowLeft"":15,""ArrowDown,ArrowRight"":23}","false","ArrowDown,ArrowLeft","false","","","","","",""
"html-keyboard-response","44","316638","0.0-3.0-8.0-1.1","spark_pilot_norest","8435","6","7","Male","","","","","","","null","<div style=""font-size:60px;"">+</div>","null","fixation","","","","","","","","","","","",""
"revaluation","45","322667","0.0-3.0-8.0-0.2","spark_pilot_norest","8435","6","7","Male","","false","","","","","[405.79999999981374,753.7999999998137]","./assets/img/space/8.jpg","[""ArrowUp"",""ArrowRight""]","full practice","space","36","{""ArrowUp,ArrowLeft"":3,""ArrowUp,ArrowRight"":36,""ArrowDown,ArrowLeft"":15,""ArrowDown,ArrowRight"":23}","true","ArrowUp,ArrowRight","false","","","","","",""
"html-keyboard-response","46","323183","0.0-3.0-8.0-1.2","spark_pilot_norest","8435","6","7","Male","","","","","","","null","<div style=""font-size:60px;"">+</div>","null","fixation","","","","","","","","","","","",""
"revaluation","47","329211","0.0-3.0-8.0-0.3","spark_pilot_norest","8435","6","7","Male","","false","","","","","[220.90000000037253,1010.7000000001863]","./assets/img/space/9.jpg","[""ArrowUp"",""ArrowRight""]","full practice","space","36","{""ArrowUp,ArrowLeft"":3,""ArrowUp,ArrowRight"":36,""ArrowDown,ArrowLeft"":15,""ArrowDown,ArrowRight"":23}","true","ArrowUp,ArrowRight","false","","","","","",""
"html-keyboard-response","48","329713","0.0-3.0-8.0-1.3","spark_pilot_norest","8435","6","7","Male","","","","","","","null","<div style=""font-size:60px;"">+</div>","null","fixation","","","","","","","","","","","",""
"revaluation","49","335723","0.0-3.0-8.0-0.4","spark_pilot_norest","8435","6","7","Male","","false","","","","","[494.90000000037253,637.5]","./assets/img/space/10.jpg","[""ArrowDown"",""ArrowLeft""]","full practice","space","15","{""ArrowUp,ArrowLeft"":3,""ArrowUp,ArrowRight"":36,""ArrowDown,ArrowLeft"":15,""ArrowDown,ArrowRight"":23}","false","ArrowDown,ArrowLeft","false","","","","","",""
"html-keyboard-response","50","336225","0.0-3.0-8.0-1.4","spark_pilot_norest","8435","6","7","Male","","","","","","","null","<div style=""font-size:60px;"">+</div>","null","fixation","","","","","","","","","","","",""
"learning-instructions","51","348041","0.0-3.0-9.0-0.0","spark_pilot_norest","8435","6","7","Male","","","","","","","1411.2000000001863","<p> One last thing: sometimes, you will see a robber. The robber can be anywhere in the picture. </p>
            <p> If you do not stop them, you will lose treasure. </p>
            <img src='./assets/img/instructions/robber.jpg' class='instructions-image'>","","instructions","","","","","","","","","","","",""
"learning-instructions","52","356074","0.0-3.0-9.0-0.1","spark_pilot_norest","8435","6","7","Male","","","","","","","855.5","<p> If you see the robber, you should <b>press the space bar</b> rather than using the arrow keys. </p>
            <p> Try practicing that now! </p>","","instructions","","","","","","","","","","","",""
"revaluation","53","360098","0.0-3.0-10.0-0.0","spark_pilot_norest","8435","6","7","Male","","true","","","","","[]","./assets/img/space/catch/0.jpg","[]","catch practice","space","-5","{""ArrowUp,ArrowLeft"":3,""ArrowUp,ArrowRight"":36,""ArrowDown,ArrowLeft"":15,""ArrowDown,ArrowRight"":23}","false","","true","","","","","",""
"html-keyboard-response","54","360599","0.0-3.0-10.0-1.0","spark_pilot_norest","8435","6","7","Male","","","","","","","null","<div style=""font-size:60px;"">+</div>","null","fixation","","","","","","","","","","","",""
"revaluation","55","364605","0.0-3.0-10.0-0.1","spark_pilot_norest","8435","6","7","Male","","true","","","","","[]","./assets/img/space/catch/1.jpg","[]","catch practice","space","-5","{""ArrowUp,ArrowLeft"":3,""ArrowUp,ArrowRight"":36,""ArrowDown,ArrowLeft"":15,""ArrowDown,ArrowRight"":23}","false","","true","","","","","",""
"html-keyboard-response","56","365108","0.0-3.0-10.0-1.1","spark_pilot_norest","8435","6","7","Male","","","","","","","null","<div style=""font-size:60px;"">+</div>","null","fixation","","","","","","","","","","","",""
"revaluation","57","369126","0.0-3.0-10.0-0.2","spark_pilot_norest","8435","6","7","Male","","false","","","","","[1871.2999999998137]","./assets/img/space/catch/2.jpg","[""ArrowDown""]","catch practice","space","-10","{""ArrowUp,ArrowLeft"":3,""ArrowUp,ArrowRight"":36,""ArrowDown,ArrowLeft"":15,""ArrowDown,ArrowRight"":23}","false","ArrowDown","true","","","","","",""
"html-keyboard-response","58","369631","0.0-3.0-10.0-1.2","spark_pilot_norest","8435","6","7","Male","","","","","","","null","<div style=""font-size:60px;"">+</div>","null","fixation","","","","","","","","","","","",""
"learning-instructions","59","378061","0.0-3.0-11.0-0.0-0.0","spark_pilot_norest","8435","6","7","Male","","","","","","","3163.5","<p> Now, you will practice a shortened version of the game to get a sense of how it all fits together. </p>","","instructions","","","","","","","","","","","",""
"learning-instructions","60","384545","0.0-3.0-11.0-0.0-0.1","spark_pilot_norest","8435","6","7","Male","","","","","","","3256.600000000559","<p>This time you are searching for treasure in outer space.</p>","","instructions","","","","","","","","","","","",""
"learning-instructions","61","401285","0.0-3.0-11.0-1.0-0.0","spark_pilot_norest","8435","6","7","Male","","","","","","","1947.4000000003725","<p> Remember, when you see a picture of the place, use the up and down keys to <b>find an animal</b>.</p>
            <p> When you encounter an animal, you should use the left and right keys to <b>select a treasure chest</b>.</p>
            <p> Don't forget to look out for the robber! </p>","","instructions","","","","","","","","","","","",""
"revaluation","62","407311","0.0-3.0-11.0-2.0-0.0","spark_pilot_norest","8435","6","7","Male","","false","","","","","[1607.5,996.8999999994412]","./assets/img/space/11.jpg","[""ArrowDown"",""ArrowRight""]","practice block","space","23","{""ArrowUp,ArrowLeft"":3,""ArrowUp,ArrowRight"":36,""ArrowDown,ArrowLeft"":15,""ArrowDown,ArrowRight"":23}","false","ArrowDown,ArrowRight","false","","","","","",""
"html-keyboard-response","63","407820","0.0-3.0-11.0-2.0-1.0","spark_pilot_norest","8435","6","7","Male","","","","","","","null","<div style=""font-size:60px;"">+</div>","null","fixation","","","","","","","","","","","",""
"revaluation","64","413849","0.0-3.0-11.0-2.0-0.1","spark_pilot_norest","8435","6","7","Male","","false","","","","","[525.4000000003725,887.7000000001863]","./assets/img/space/12.jpg","[""ArrowUp"",""ArrowRight""]","practice block","space","36","{""ArrowUp,ArrowLeft"":3,""ArrowUp,ArrowRight"":36,""ArrowDown,ArrowLeft"":15,""ArrowDown,ArrowRight"":23}","true","ArrowUp,ArrowRight","false","","","","","",""
"html-keyboard-response","65","414364","0.0-3.0-11.0-2.0-1.1","spark_pilot_norest","8435","6","7","Male","","","","","","","null","<div style=""font-size:60px;"">+</div>","null","fixation","","","","","","","","","","","",""
"revaluation","66","420379","0.0-3.0-11.0-2.0-0.2","spark_pilot_norest","8435","6","7","Male","","false","","","","","[723.5,907.6999999992549]","./assets/img/space/13.jpg","[""ArrowUp"",""ArrowLeft""]","practice block","space","3","{""ArrowUp,ArrowLeft"":3,""ArrowUp,ArrowRight"":36,""ArrowDown,ArrowLeft"":15,""ArrowDown,ArrowRight"":23}","false","ArrowUp,ArrowLeft","false","","","","","",""
"html-keyboard-response","67","420892","0.0-3.0-11.0-2.0-1.2","spark_pilot_norest","8435","6","7","Male","","","","","","","null","<div style=""font-size:60px;"">+</div>","null","fixation","","","","","","","","","","","",""
"revaluation","68","426920","0.0-3.0-11.0-2.0-0.3","spark_pilot_norest","8435","6","7","Male","","false","","","","","[1308.3999999994412,597.5]","./assets/img/space/14.jpg","[""ArrowUp"",""ArrowRight""]","practice block","space","36","{""ArrowUp,ArrowLeft"":3,""ArrowUp,ArrowRight"":36,""ArrowDown,ArrowLeft"":15,""ArrowDown,ArrowRight"":23}","true","ArrowUp,ArrowRight","false","","","","","",""
"html-keyboard-response","69","427436","0.0-3.0-11.0-2.0-1.3","spark_pilot_norest","8435","6","7","Male","","","","","","","null","<div style=""font-size:60px;"">+</div>","null","fixation","","","","","","","","","","","",""
"revaluation","70","433445","0.0-3.0-11.0-2.0-0.4","spark_pilot_norest","8435","6","7","Male","","false","","","","","[284.40000000037253,618.3000000007451]","./assets/img/space/11.jpg","[""ArrowDown"",""ArrowRight""]","practice block","space","23","{""ArrowUp,ArrowLeft"":3,""ArrowUp,ArrowRight"":36,""ArrowDown,ArrowLeft"":15,""ArrowDown,ArrowRight"":23}","false","ArrowDown,ArrowRight","false","","","","","",""
"html-keyboard-response","71","433947","0.0-3.0-11.0-2.0-1.4","spark_pilot_norest","8435","6","7","Male","","","","","","","null","<div style=""font-size:60px;"">+</div>","null","fixation","","","","","","","","","","","",""
"revaluation","72","439954","0.0-3.0-11.0-2.0-0.5","spark_pilot_norest","8435","6","7","Male","","false","","","","","[340.8999999994412,559.9000000003725]","./assets/img/space/12.jpg","[""ArrowDown"",""ArrowRight""]","practice block","space","23","{""ArrowUp,ArrowLeft"":3,""ArrowUp,ArrowRight"":36,""ArrowDown,ArrowLeft"":15,""ArrowDown,ArrowRight"":23}","false","ArrowDown,ArrowRight","false","","","","","",""
"html-keyboard-response","73","440456","0.0-3.0-11.0-2.0-1.5","spark_pilot_norest","8435","6","7","Male","","","","","","","null","<div style=""font-size:60px;"">+</div>","null","fixation","","","","","","","","","","","",""
"revaluation","74","446463","0.0-3.0-11.0-2.0-0.6","spark_pilot_norest","8435","6","7","Male","","false","","","","","[283,621.2000000001863]","./assets/img/space/13.jpg","[""ArrowDown"",""ArrowRight""]","practice block","space","23","{""ArrowUp,ArrowLeft"":3,""ArrowUp,ArrowRight"":36,""ArrowDown,ArrowLeft"":15,""ArrowDown,ArrowRight"":23}","false","ArrowDown,ArrowRight","false","","","","","",""
"html-keyboard-response","75","446987","0.0-3.0-11.0-2.0-1.6","spark_pilot_norest","8435","6","7","Male","","","","","","","null","<div style=""font-size:60px;"">+</div>","null","fixation","","","","","","","","","","","",""
"revaluation","76","452995","0.0-3.0-11.0-2.0-0.7","spark_pilot_norest","8435","6","7","Male","","false","","","","","[1207.5,728.3000000007451]","./assets/img/space/14.jpg","[""ArrowDown"",""ArrowLeft""]","practice block","space","15","{""ArrowUp,ArrowLeft"":3,""ArrowUp,ArrowRight"":36,""ArrowDown,ArrowLeft"":15,""ArrowDown,ArrowRight"":23}","false","ArrowDown,ArrowLeft","false","","","","","",""
"html-keyboard-response","77","453497","0.0-3.0-11.0-2.0-1.7","spark_pilot_norest","8435","6","7","Male","","","","","","","null","<div style=""font-size:60px;"">+</div>","null","fixation","","","","","","","","","","","",""
"revaluation","78","457506","0.0-3.0-11.0-2.0-0.8","spark_pilot_norest","8435","6","7","Male","","false","","","","","[1512.5999999996275]","./assets/img/space/catch/3.jpg","[""ArrowDown""]","practice block","space","-10","{""ArrowUp,ArrowLeft"":3,""ArrowUp,ArrowRight"":36,""ArrowDown,ArrowLeft"":15,""ArrowDown,ArrowRight"":23}","false","ArrowDown","true","","","","","",""
"html-keyboard-response","79","458015","0.0-3.0-11.0-2.0-1.8","spark_pilot_norest","8435","6","7","Male","","","","","","","null","<div style=""font-size:60px;"">+</div>","null","fixation","","","","","","","","","","","",""
"learning-instructions","80","477035","0.0-3.0-11.0-3.0-0.0","spark_pilot_norest","8435","6","7","Male","","","","","","","5257.700000000186","<p> Now, you will travel with a friend who will choose whether you go up or down first. </p>
            <p> On these turns, you will just see the animal that they found. You will still get to choose which chest to search for treasure.</p>","","instructions","","","","","","","","","","","",""
"revaluation","81","481056","0.0-3.0-11.0-4.0-0.0","spark_pilot_norest","8435","6","7","Male","","false","","","","","[1157.2000000001863]","./assets/img/space/animals/cat.jpg","[""ArrowRight""]","practice block","space","36","{""ArrowUp,ArrowLeft"":3,""ArrowUp,ArrowRight"":36,""ArrowDown,ArrowLeft"":15,""ArrowDown,ArrowRight"":23}","true","ArrowUp,ArrowRight","","","","","","",""
"html-keyboard-response","82","481570","0.0-3.0-11.0-4.0-1.0","spark_pilot_norest","8435","6","7","Male","","","","","","","null","<div style=""font-size:60px;"">+</div>","null","fixation","","","","","","","","","","","",""
"revaluation","83","485602","0.0-3.0-11.0-4.0-0.1","spark_pilot_norest","8435","6","7","Male","","false","","","","","[596.2000000001863]","./assets/img/space/animals/cat.jpg","[""ArrowRight""]","practice block","space","36","{""ArrowUp,ArrowLeft"":3,""ArrowUp,ArrowRight"":36,""ArrowDown,ArrowLeft"":15,""ArrowDown,ArrowRight"":23}","true","ArrowUp,ArrowRight","","","","","","",""
"html-keyboard-response","84","486115","0.0-3.0-11.0-4.0-1.1","spark_pilot_norest","8435","6","7","Male","","","","","","","null","<div style=""font-size:60px;"">+</div>","null","fixation","","","","","","","","","","","",""
"revaluation","85","490162","0.0-3.0-11.0-4.0-0.2","spark_pilot_norest","8435","6","7","Male","","false","","","","","[461.5]","./assets/img/space/animals/rabbit.jpg","[""ArrowRight""]","practice block","space","23","{""ArrowUp,ArrowLeft"":3,""ArrowUp,ArrowRight"":36,""ArrowDown,ArrowLeft"":15,""ArrowDown,ArrowRight"":23}","true","ArrowDown,ArrowRight","","","","","","",""
"html-keyboard-response","86","490669","0.0-3.0-11.0-4.0-1.2","spark_pilot_norest","8435","6","7","Male","","","","","","","null","<div style=""font-size:60px;"">+</div>","null","fixation","","","","","","","","","","","",""
"revaluation","87","494688","0.0-3.0-11.0-4.0-0.3","spark_pilot_norest","8435","6","7","Male","","false","","","","","[585]","./assets/img/space/animals/rabbit.jpg","[""ArrowRight""]","practice block","space","23","{""ArrowUp,ArrowLeft"":3,""ArrowUp,ArrowRight"":36,""ArrowDown,ArrowLeft"":15,""ArrowDown,ArrowRight"":23}","true","ArrowDown,ArrowRight","","","","","","",""
"html-keyboard-response","88","495202","0.0-3.0-11.0-4.0-1.3","spark_pilot_norest","8435","6","7","Male","","","","","","","null","<div style=""font-size:60px;"">+</div>","null","fixation","","","","","","","","","","","",""
"learning-instructions","89","503353","0.0-3.0-11.0-5.0-0.0","spark_pilot_norest","8435","6","7","Male","","","","","","","null","<p> You have almost finished this part of the game! </p>
            <p> We are going to ask you to make a few more choices. </p>","","instructions","","","","","","","","","","","",""
"learning-instructions","90","519404","0.0-3.0-11.0-5.0-0.1","spark_pilot_norest","8435","6","7","Male","","","","","","","null","<p> First, you need to decide whether to go up or down. When you see each picture, use the arrow keys to make your choice. </p>
            <p><b>You will not see which animal you found, but try to get to the one that will give you the most treasure.</b></p>","","instructions","","","","","","","","","","","",""
"html-keyboard-response","91","520415","0.0-3.0-11.0-6.0-0.0","spark_pilot_norest","8435","6","7","Male","","","","","","","null","<div style=""font-size:100px;color:red;"">Starting in...</div>","null","","","","","","","","","","","","",""
"html-keyboard-response","92","521417","0.0-3.0-11.0-6.0-1.0","spark_pilot_norest","8435","6","7","Male","","","","","","","null","<div style=""font-size:200px;color:red;"">3</div>","null","","","","","","","","","","","","",""
"html-keyboard-response","93","522418","0.0-3.0-11.0-6.0-2.0","spark_pilot_norest","8435","6","7","Male","","","","","","","null","<div style=""font-size:200px;color:red;"">2</div>","null","","","","","","","","","","","","",""
"html-keyboard-response","94","523432","0.0-3.0-11.0-6.0-3.0","spark_pilot_norest","8435","6","7","Male","","","","","","","null","<div style=""font-size:200px;color:red;"">1</div>","null","","","","","","","","","","","","",""
"revaluation","95","524084","0.0-3.0-11.0-7.0","spark_pilot_norest","8435","6","7","Male","","false","","","","","[647.3000000007451]","./assets/img/space/15.jpg","[""ArrowDown""]","practice block","space","0","{""ArrowUp,ArrowLeft"":3,""ArrowUp,ArrowRight"":36,""ArrowDown,ArrowLeft"":15,""ArrowDown,ArrowRight"":23}","false","ArrowDown","false","","","","","",""
"html-keyboard-response","96","524588","0.0-3.0-11.0-8.0","spark_pilot_norest","8435","6","7","Male","","","","","","","null","<div style=""font-size:60px;"">+</div>","null","fixation","","","","","","","","","","","",""
"learning-instructions","97","537988","0.0-3.0-11.0-9.0-0.0","spark_pilot_norest","8435","6","7","Male","","","","","","","null","<p> Now you will see the animals again and can search their chests for treasure. </p>
            <p> This time, you will not see how much treasure you earned, but you will earn more bonus money for making better choices. </p>","","instructions","","","","","","","","","","","",""
"html-keyboard-response","98","539003","0.0-3.0-11.0-10.0-0.0","spark_pilot_norest","8435","6","7","Male","","","","","","","null","<div style=""font-size:100px;color:red;"">Starting in...</div>","null","","","","","","","","","","","","",""
"html-keyboard-response","99","540017","0.0-3.0-11.0-10.0-1.0","spark_pilot_norest","8435","6","7","Male","","","","","","","null","<div style=""font-size:200px;color:red;"">3</div>","null","","","","","","","","","","","","",""
"html-keyboard-response","100","541033","0.0-3.0-11.0-10.0-2.0","spark_pilot_norest","8435","6","7","Male","","","","","","","null","<div style=""font-size:200px;color:red;"">2</div>","null","","","","","","","","","","","","",""
"html-keyboard-response","101","542037","0.0-3.0-11.0-10.0-3.0","spark_pilot_norest","8435","6","7","Male","","","","","","","null","<div style=""font-size:200px;color:red;"">1</div>","null","","","","","","","","","","","","",""
"revaluation","102","542501","0.0-3.0-11.0-11.0-0.0","spark_pilot_norest","8435","6","7","Male","","false","","","","","[459.5]","./assets/img/space/animals/cat.jpg","[""ArrowRight""]","practice block","space","0","{""ArrowUp,ArrowLeft"":3,""ArrowUp,ArrowRight"":36,""ArrowDown,ArrowLeft"":15,""ArrowDown,ArrowRight"":23}","true","ArrowUp,ArrowRight","","","","","","",""
"html-keyboard-response","103","543007","0.0-3.0-11.0-11.0-1.0","spark_pilot_norest","8435","6","7","Male","","","","","","","null","<div style=""font-size:60px;"">+</div>","null","fixation","","","","","","","","","","","",""
"revaluation","104","543114","0.0-3.0-11.0-11.0-0.1","spark_pilot_norest","8435","6","7","Male","","false","","","","","[104.09999999962747]","./assets/img/space/animals/rabbit.jpg","[""ArrowRight""]","practice block","space","0","{""ArrowUp,ArrowLeft"":3,""ArrowUp,ArrowRight"":36,""ArrowDown,ArrowLeft"":15,""ArrowDown,ArrowRight"":23}","true","ArrowDown,ArrowRight","","","","","","",""
"html-keyboard-response","105","543628","0.0-3.0-11.0-11.0-1.1","spark_pilot_norest","8435","6","7","Male","","","","","","","null","<div style=""font-size:60px;"">+</div>","null","fixation","","","","","","","","","","","",""
"learning-instructions","106","553624","0.0-3.0-12.0-0.0","spark_pilot_norest","8435","6","7","Male","","","","","","","5386.5","<p> Before you start, we're going to ask you a few questions about how the game works. </p>","","instructions","","","","","","","","","","","",""
"comp-q","107","562418","0.0-3.0-13.0-0.0-0.0","spark_pilot_norest","8435","6","7","Male","","","","","","","3177.399999999441","<p> <b> True or False? </b> </p>
            <p> There can be 50 pieces of treasure in a given animal's chest. </p>","0","comp_question","","","","false","","","","","","","",""
"comp-q","108","571421","0.0-3.0-13.0-0.0-1.0","spark_pilot_norest","8435","6","7","Male","","","","","","","2463.2000000001863","<p> <b>Incorrect.</b> The amount of treasure in each chest can range from 0 to 40 pieces. </p>","0","comp_answer","","","","","","","","","","","",""
"comp-q","109","579059","0.0-3.0-13.0-0.1-0.1","spark_pilot_norest","8435","6","7","Male","","","","","","","2080.9000000003725","<p> <b> True or False? </b> </p>
            <p> There can be 50 pieces of treasure in a given animal's chest. </p>","1","comp_question","","","","true","","","","","","","",""
"comp-q","110","587569","0.0-3.0-13.0-0.1-1.1","spark_pilot_norest","8435","6","7","Male","","","","","","","1830.7999999998137","<p> <b> That's right! </b> The amount of treasure in each chest can range from 0 to 40 pieces. </p>","0","comp_answer","","","","","","","","","","","",""
"comp-q","111","597926","0.0-3.0-13.0-0.2-0.2","spark_pilot_norest","8435","6","7","Male","","","","","","","3227.899999999441","<p> <b> True or False? </b> </p><p> In this game, all animals have the same amount of treasure in their left and right chests. </p>","1","comp_question","","","","true","","","","","","","",""
"comp-q","112","606905","0.0-3.0-13.0-0.2-1.2","spark_pilot_norest","8435","6","7","Male","","","","","","","3727.7999999998137","<p> <b> That's right! </b> Animals have different amounts of treasure in their treasure chests. </p>","0","comp_answer","","","","","","","","","","","",""
"comp-q","113","616180","0.0-3.0-13.0-0.3-0.3","spark_pilot_norest","8435","6","7","Male","","","","","","","3422.2999999998137","<p> <b> True or False? </b> </p><p> The same animal will always be there if you go up in the same place. </p>","0","comp_question","","","","true","","","","","","","",""
"comp-q","114","624182","0.0-3.0-13.0-0.3-1.3","spark_pilot_norest","8435","6","7","Male","","","","","","","1524.5","<p> <b> That's right! </b> One animal lives in the upper part and one lives in the lower part of every place. </p>","0","comp_answer","","","","","","","","","","","",""
"comp-q","115","631865","0.0-3.0-13.0-0.4-0.4","spark_pilot_norest","8435","6","7","Male","","","","","","","2147.600000000559","<p> <b> True or False? </b> </p><p> If you see a different picture, it means you are in a new place. </p>","1","comp_question","","","","true","","","","","","","",""
"comp-q","116","649005","0.0-3.0-13.0-0.4-1.4","spark_pilot_norest","8435","6","7","Male","","","","","","","5887.5","<p> <b> That's right! </b> Lots of different images may show the same place. For example,  you may see three different images that all remind you that you are in outer space. </p>","0","comp_answer","","","","","","","","","","","",""
"learning-instructions","117","661515","0.0-3.0-14.0-0.0","spark_pilot_norest","8435","6","7","Male","","","","","","","2617.7999999998137","<p> Good job. Remember to do your best because the amount of treasure you earn will be converted into bonus money. </p>
            <p> It’s time to start the real game! </p>","","instructions","","","","","","","","","","","",""
"learning-instructions","118","665752","0.0-4.0-0.0-0.0","spark_pilot_norest","8435","6","7","Male","","","","","","","1454.5999999996275","<p> This time you are searching for treasure in the <b>canyon</b>.</p>","","instructions","","","","","","","","","","","",""
"learning-instructions","119","684754","0.0-4.0-0.0-0.1","spark_pilot_norest","8435","6","7","Male","","","","","","","1616.7000000001863","<p><b>New</b> animals with <b>new</b> treasure chests live here. You need to explore to discover where the animal with the best treasure chest is.</p>
                    <p> Like before, once you figure out which animal has the chest with the most treasure, you should try to get to that animal and select that chest! </p>","","instructions","","","","","","","","","","","",""
"learning-instructions","120","702437","0.0-4.0-1.0-0.0","spark_pilot_norest","8435","6","7","Male","","","","","","","2958.899999999441","<p> Remember, when you see a picture of the place, use the up and down keys to <b>find an animal</b>.</p>
            <p> When you encounter an animal, you should use the left and right keys to <b>select a treasure chest</b>.</p>
            <p> Don't forget to look out for the robber! </p>","","instructions","","","","","","","","","","","",""
"revaluation","121","708471","0.0-4.0-2.0-0.0","spark_pilot_norest","8435","6","7","Male","","false","","","","","[1271.8999999994412,528]","./assets/img/canyon/memory/31.jpg","[""ArrowDown"",""ArrowRight""]","value training","canyon","30","{""ArrowUp,ArrowLeft"":23,""ArrowUp,ArrowRight"":10,""ArrowDown,ArrowLeft"":8,""ArrowDown,ArrowRight"":30}","true","ArrowDown,ArrowRight","false","revaluation","1","0","","",""
"html-keyboard-response","122","708977","0.0-4.0-2.0-1.0","spark_pilot_norest","8435","6","7","Male","","","","","","","null","<div style=""font-size:60px;"">+</div>","null","fixation","","","","","","","","","1","","",""
"revaluation","123","715003","0.0-4.0-2.0-0.1","spark_pilot_norest","8435","6","7","Male","","false","","","","","[493.20000000018626,741.5]","./assets/img/canyon/memory/36.jpg","[""ArrowUp"",""ArrowLeft""]","value training","canyon","23","{""ArrowUp,ArrowLeft"":23,""ArrowUp,ArrowRight"":10,""ArrowDown,ArrowLeft"":8,""ArrowDown,ArrowRight"":30}","false","ArrowUp,ArrowLeft","false","revaluation","1","2","","",""
"html-keyboard-response","124","715506","0.0-4.0-2.0-1.1","spark_pilot_norest","8435","6","7","Male","","","","","","","null","<div style=""font-size:60px;"">+</div>","null","fixation","","","","","","","","","3","","",""
"revaluation","125","721536","0.0-4.0-2.0-0.2","spark_pilot_norest","8435","6","7","Male","","false","","","","","[284.6000000005588,758.2000000001863]","./assets/img/canyon/memory/3.jpg","[""ArrowDown"",""ArrowRight""]","value training","canyon","30","{""ArrowUp,ArrowLeft"":23,""ArrowUp,ArrowRight"":10,""ArrowDown,ArrowLeft"":8,""ArrowDown,ArrowRight"":30}","true","ArrowDown,ArrowRight","false","revaluation","1","4","","",""
"html-keyboard-response","126","722046","0.0-4.0-2.0-1.2","spark_pilot_norest","8435","6","7","Male","","","","","","","null","<div style=""font-size:60px;"">+</div>","null","fixation","","","","","","","","","5","","",""
"revaluation","127","728082","0.0-4.0-2.0-0.3","spark_pilot_norest","8435","6","7","Male","","false","","","","","[123.20000000018626,448.09999999962747]","./assets/img/canyon/memory/31.jpg","[""ArrowUp"",""ArrowRight""]","value training","canyon","10","{""ArrowUp,ArrowLeft"":23,""ArrowUp,ArrowRight"":10,""ArrowDown,ArrowLeft"":8,""ArrowDown,ArrowRight"":30}","false","ArrowUp,ArrowRight","false","revaluation","1","6","","",""
"html-keyboard-response","128","728596","0.0-4.0-2.0-1.3","spark_pilot_norest","8435","6","7","Male","","","","","","","null","<div style=""font-size:60px;"">+</div>","null","fixation","","","","","","","","","7","","",""
"revaluation","129","734606","0.0-4.0-2.0-0.4","spark_pilot_norest","8435","6","7","Male","","false","","","","","[799.1999999992549,1361.7999999998137]","./assets/img/canyon/memory/15.jpg","[""ArrowDown"",""ArrowLeft""]","value training","canyon","8","{""ArrowUp,ArrowLeft"":23,""ArrowUp,ArrowRight"":10,""ArrowDown,ArrowLeft"":8,""ArrowDown,ArrowRight"":30}","false","ArrowDown,ArrowLeft","false","revaluation","1","8","","",""
"html-keyboard-response","130","735113","0.0-4.0-2.0-1.4","spark_pilot_norest","8435","6","7","Male","","","","","","","null","<div style=""font-size:60px;"">+</div>","null","fixation","","","","","","","","","9","","",""
"revaluation","131","741119","0.0-4.0-2.0-0.5","spark_pilot_norest","8435","6","7","Male","","false","","","","","[1202.4000000003725,554.1000000005588]","./assets/img/canyon/memory/2.jpg","[""ArrowUp"",""ArrowRight""]","value training","canyon","10","{""ArrowUp,ArrowLeft"":23,""ArrowUp,ArrowRight"":10,""ArrowDown,ArrowLeft"":8,""ArrowDown,ArrowRight"":30}","false","ArrowUp,ArrowRight","false","revaluation","1","10","","",""
"html-keyboard-response","132","741621","0.0-4.0-2.0-1.5","spark_pilot_norest","8435","6","7","Male","","","","","","","null","<div style=""font-size:60px;"">+</div>","null","fixation","","","","","","","","","11","","",""
"revaluation","133","745632","0.0-4.0-2.0-0.6","spark_pilot_norest","8435","6","7","Male","","false","","","","","[1028]","./assets/img/canyon/catch/3.jpg","[""spaceBar""]","value training","canyon","0","{""ArrowUp,ArrowLeft"":23,""ArrowUp,ArrowRight"":10,""ArrowDown,ArrowLeft"":8,""ArrowDown,ArrowRight"":30}","true","spaceBar","true","revaluation","1","12","","",""
"html-keyboard-response","134","746140","0.0-4.0-2.0-1.6","spark_pilot_norest","8435","6","7","Male","","","","","","","null","<div style=""font-size:60px;"">+</div>","null","fixation","","","","","","","","","13","","",""
"revaluation","135","752147","0.0-4.0-2.0-0.7","spark_pilot_norest","8435","6","7","Male","","false","","","","","[1039.8999999994412,1014.7000000001863]","./assets/img/canyon/memory/24.jpg","[""ArrowDown"",""ArrowRight""]","value training","canyon","30","{""ArrowUp,ArrowLeft"":23,""ArrowUp,ArrowRight"":10,""ArrowDown,ArrowLeft"":8,""ArrowDown,ArrowRight"":30}","true","ArrowDown,ArrowRight","false","revaluation","1","14","","",""
"html-keyboard-response","136","752648","0.0-4.0-2.0-1.7","spark_pilot_norest","8435","6","7","Male","","","","","","","null","<div style=""font-size:60px;"">+</div>","null","fixation","","","","","","","","","15","","",""
"revaluation","137","758654","0.0-4.0-2.0-0.8","spark_pilot_norest","8435","6","7","Male","","false","","","","","[872.2999999998137,671.2000000001863]","./assets/img/canyon/memory/27.jpg","[""ArrowDown"",""ArrowLeft""]","value training","canyon","8","{""ArrowUp,ArrowLeft"":23,""ArrowUp,ArrowRight"":10,""ArrowDown,ArrowLeft"":8,""ArrowDown,ArrowRight"":30}","false","ArrowDown,ArrowLeft","false","revaluation","1","16","","",""
"html-keyboard-response","138","759155","0.0-4.0-2.0-1.8","spark_pilot_norest","8435","6","7","Male","","","","","","","null","<div style=""font-size:60px;"">+</div>","null","fixation","","","","","","","","","17","","",""
"revaluation","139","765161","0.0-4.0-2.0-0.9","spark_pilot_norest","8435","6","7","Male","","false","","","","","[1520.800000000745,772.6000000005588]","./assets/img/canyon/memory/25.jpg","[""ArrowDown"",""ArrowLeft""]","value training","canyon","8","{""ArrowUp,ArrowLeft"":23,""ArrowUp,ArrowRight"":10,""ArrowDown,ArrowLeft"":8,""ArrowDown,ArrowRight"":30}","false","ArrowDown,ArrowLeft","false","revaluation","1","18","","",""
"html-keyboard-response","140","765662","0.0-4.0-2.0-1.9","spark_pilot_norest","8435","6","7","Male","","","","","","","null","<div style=""font-size:60px;"">+</div>","null","fixation","","","","","","","","","19","","",""
"revaluation","141","771668","0.0-4.0-2.0-0.10","spark_pilot_norest","8435","6","7","Male","","false","","","","","[771.7000000001863,616.4000000003725]","./assets/img/canyon/memory/0.jpg","[""ArrowDown"",""ArrowRight""]","value training","canyon","30","{""ArrowUp,ArrowLeft"":23,""ArrowUp,ArrowRight"":10,""ArrowDown,ArrowLeft"":8,""ArrowDown,ArrowRight"":30}","true","ArrowDown,ArrowRight","false","revaluation","1","20","","",""
"html-keyboard-response","142","772170","0.0-4.0-2.0-1.10","spark_pilot_norest","8435","6","7","Male","","","","","","","null","<div style=""font-size:60px;"">+</div>","null","fixation","","","","","","","","","21","","",""
"revaluation","143","778191","0.0-4.0-2.0-0.11","spark_pilot_norest","8435","6","7","Male","","false","","","","","[652.6999999992549,74.40000000037253]","./assets/img/canyon/memory/9.jpg","[""ArrowDown"",""ArrowRight""]","value training","canyon","30","{""ArrowUp,ArrowLeft"":23,""ArrowUp,ArrowRight"":10,""ArrowDown,ArrowLeft"":8,""ArrowDown,ArrowRight"":30}","true","ArrowDown,ArrowRight","false","revaluation","1","22","","",""
"html-keyboard-response","144","778693","0.0-4.0-2.0-1.11","spark_pilot_norest","8435","6","7","Male","","","","","","","null","<div style=""font-size:60px;"">+</div>","null","fixation","","","","","","","","","23","","",""
"revaluation","145","784699","0.0-4.0-2.0-0.12","spark_pilot_norest","8435","6","7","Male","","false","","","","","[614.5,479.29999999981374]","./assets/img/canyon/memory/9.jpg","[""ArrowDown"",""ArrowRight""]","value training","canyon","30","{""ArrowUp,ArrowLeft"":23,""ArrowUp,ArrowRight"":10,""ArrowDown,ArrowLeft"":8,""ArrowDown,ArrowRight"":30}","true","ArrowDown,ArrowRight","false","revaluation","1","24","","",""
"html-keyboard-response","146","785200","0.0-4.0-2.0-1.12","spark_pilot_norest","8435","6","7","Male","","","","","","","null","<div style=""font-size:60px;"">+</div>","null","fixation","","","","","","","","","25","","",""
"revaluation","147","791208","0.0-4.0-2.0-0.13","spark_pilot_norest","8435","6","7","Male","","false","","","","","[1683.3999999994412,619.1000000005588]","./assets/img/canyon/memory/14.jpg","[""ArrowDown"",""ArrowRight""]","value training","canyon","30","{""ArrowUp,ArrowLeft"":23,""ArrowUp,ArrowRight"":10,""ArrowDown,ArrowLeft"":8,""ArrowDown,ArrowRight"":30}","true","ArrowDown,ArrowRight","false","revaluation","1","26","","",""
"html-keyboard-response","148","791720","0.0-4.0-2.0-1.13","spark_pilot_norest","8435","6","7","Male","","","","","","","null","<div style=""font-size:60px;"">+</div>","null","fixation","","","","","","","","","27","","",""
"revaluation","149","797726","0.0-4.0-2.0-0.14","spark_pilot_norest","8435","6","7","Male","","false","","","","","[959.8999999994412,550.5]","./assets/img/canyon/memory/32.jpg","[""ArrowDown"",""ArrowRight""]","value training","canyon","30","{""ArrowUp,ArrowLeft"":23,""ArrowUp,ArrowRight"":10,""ArrowDown,ArrowLeft"":8,""ArrowDown,ArrowRight"":30}","true","ArrowDown,ArrowRight","false","revaluation","1","28","","",""
"html-keyboard-response","150","798229","0.0-4.0-2.0-1.14","spark_pilot_norest","8435","6","7","Male","","","","","","","null","<div style=""font-size:60px;"">+</div>","null","fixation","","","","","","","","","29","","",""
"revaluation","151","802238","0.0-4.0-2.0-0.15","spark_pilot_norest","8435","6","7","Male","","true","","","","","[]","./assets/img/canyon/catch/4.jpg","[]","value training","canyon","-5","{""ArrowUp,ArrowLeft"":23,""ArrowUp,ArrowRight"":10,""ArrowDown,ArrowLeft"":8,""ArrowDown,ArrowRight"":30}","false","","true","revaluation","1","30","","",""
"html-keyboard-response","152","802739","0.0-4.0-2.0-1.15","spark_pilot_norest","8435","6","7","Male","","","","","","","null","<div style=""font-size:60px;"">+</div>","null","fixation","","","","","","","","","31","","",""
"revaluation","153","808745","0.0-4.0-2.0-0.16","spark_pilot_norest","8435","6","7","Male","","false","","","","","[1210,755.5]","./assets/img/canyon/memory/12.jpg","[""ArrowDown"",""ArrowRight""]","value training","canyon","30","{""ArrowUp,ArrowLeft"":23,""ArrowUp,ArrowRight"":10,""ArrowDown,ArrowLeft"":8,""ArrowDown,ArrowRight"":30}","true","ArrowDown,ArrowRight","false","revaluation","1","32","","",""
"html-keyboard-response","154","809246","0.0-4.0-2.0-1.16","spark_pilot_norest","8435","6","7","Male","","","","","","","null","<div style=""font-size:60px;"">+</div>","null","fixation","","","","","","","","","33","","",""
"revaluation","155","815256","0.0-4.0-2.0-0.17","spark_pilot_norest","8435","6","7","Male","","false","","","","","[1048.9000000003725,669.3999999994412]","./assets/img/canyon/memory/14.jpg","[""ArrowDown"",""ArrowRight""]","value training","canyon","30","{""ArrowUp,ArrowLeft"":23,""ArrowUp,ArrowRight"":10,""ArrowDown,ArrowLeft"":8,""ArrowDown,ArrowRight"":30}","true","ArrowDown,ArrowRight","false","revaluation","1","34","","",""
"html-keyboard-response","156","815758","0.0-4.0-2.0-1.17","spark_pilot_norest","8435","6","7","Male","","","","","","","null","<div style=""font-size:60px;"">+</div>","null","fixation","","","","","","","","","35","","",""
"revaluation","157","821768","0.0-4.0-2.0-0.18","spark_pilot_norest","8435","6","7","Male","","false","","","","","[498.80000000074506,732]","./assets/img/canyon/memory/1.jpg","[""ArrowDown"",""ArrowRight""]","value training","canyon","30","{""ArrowUp,ArrowLeft"":23,""ArrowUp,ArrowRight"":10,""ArrowDown,ArrowLeft"":8,""ArrowDown,ArrowRight"":30}","true","ArrowDown,ArrowRight","false","revaluation","1","36","","",""
"html-keyboard-response","158","822271","0.0-4.0-2.0-1.18","spark_pilot_norest","8435","6","7","Male","","","","","","","null","<div style=""font-size:60px;"">+</div>","null","fixation","","","","","","","","","37","","",""
"revaluation","159","828276","0.0-4.0-2.0-0.19","spark_pilot_norest","8435","6","7","Male","","false","","","","","[562.4000000003725,965.7999999998137]","./assets/img/canyon/memory/15.jpg","[""ArrowDown"",""ArrowRight""]","value training","canyon","30","{""ArrowUp,ArrowLeft"":23,""ArrowUp,ArrowRight"":10,""ArrowDown,ArrowLeft"":8,""ArrowDown,ArrowRight"":30}","true","ArrowDown,ArrowRight","false","revaluation","1","38","","",""
"html-keyboard-response","160","828779","0.0-4.0-2.0-1.19","spark_pilot_norest","8435","6","7","Male","","","","","","","null","<div style=""font-size:60px;"">+</div>","null","fixation","","","","","","","","","39","","",""
"revaluation","161","834786","0.0-4.0-2.0-0.20","spark_pilot_norest","8435","6","7","Male","","false","","","","","[39,571.6000000005588]","./assets/img/canyon/memory/26.jpg","[""ArrowUp"",""ArrowRight""]","value training","canyon","10","{""ArrowUp,ArrowLeft"":23,""ArrowUp,ArrowRight"":10,""ArrowDown,ArrowLeft"":8,""ArrowDown,ArrowRight"":30}","false","ArrowUp,ArrowRight","false","revaluation","1","40","","",""
"html-keyboard-response","162","835288","0.0-4.0-2.0-1.20","spark_pilot_norest","8435","6","7","Male","","","","","","","null","<div style=""font-size:60px;"">+</div>","null","fixation","","","","","","","","","41","","",""
"revaluation","163","839296","0.0-4.0-2.0-0.21","spark_pilot_norest","8435","6","7","Male","","true","","","","[{""event"":""fullscreenenter"",""trial"":2,""time"":9435},{""event"":""blur"",""trial"":164,""time"":839622},{""event"":""focus"",""trial"":165,""time"":843868}]","[]","./assets/img/canyon/memory/12.jpg","[]","value training","canyon","-5","{""ArrowUp,ArrowLeft"":23,""ArrowUp,ArrowRight"":10,""ArrowDown,ArrowLeft"":8,""ArrowDown,ArrowRight"":30}","false","","false","revaluation","1","42","","",""
"html-keyboard-response","164","839809","0.0-4.0-2.0-1.21","spark_pilot_norest","8435","6","7","Male","","","","","","[{""event"":""fullscreenenter"",""trial"":2,""time"":9435},{""event"":""blur"",""trial"":164,""time"":839622},{""event"":""focus"",""trial"":165,""time"":843868}]","null","<div style=""font-size:60px;"">+</div>","null","fixation","","","","","","","","","43","","",""
"revaluation","165","843871","0.0-4.0-2.0-0.22","spark_pilot_norest","8435","6","7","Male","","true","","","","","[]","./assets/img/canyon/memory/41.jpg","[]","value training","canyon","-5","{""ArrowUp,ArrowLeft"":23,""ArrowUp,ArrowRight"":10,""ArrowDown,ArrowLeft"":8,""ArrowDown,ArrowRight"":30}","false","","false","revaluation","1","44","","",""
"html-keyboard-response","166","844375","0.0-4.0-2.0-1.22","spark_pilot_norest","8435","6","7","Male","","","","","","","null","<div style=""font-size:60px;"">+</div>","null","fixation","","","","","","","","","45","","",""
"revaluation","167","848382","0.0-4.0-2.0-0.23","spark_pilot_norest","8435","6","7","Male","","false","","","","","[1100.7000000001863]","./assets/img/canyon/catch/2.jpg","[""ArrowUp""]","value training","canyon","-10","{""ArrowUp,ArrowLeft"":23,""ArrowUp,ArrowRight"":10,""ArrowDown,ArrowLeft"":8,""ArrowDown,ArrowRight"":30}","false","ArrowUp","true","revaluation","1","46","","",""
"html-keyboard-response","168","848884","0.0-4.0-2.0-1.23","spark_pilot_norest","8435","6","7","Male","","","","","","","null","<div style=""font-size:60px;"">+</div>","null","fixation","","","","","","","","","47","","",""
"revaluation","169","854890","0.0-4.0-2.0-0.24","spark_pilot_norest","8435","6","7","Male","","false","","","","","[1044.0999999996275,1018.4000000003725]","./assets/img/canyon/memory/24.jpg","[""ArrowUp"",""ArrowRight""]","value training","canyon","10","{""ArrowUp,ArrowLeft"":23,""ArrowUp,ArrowRight"":10,""ArrowDown,ArrowLeft"":8,""ArrowDown,ArrowRight"":30}","false","ArrowUp,ArrowRight","false","revaluation","1","48","","",""
"html-keyboard-response","170","855392","0.0-4.0-2.0-1.24","spark_pilot_norest","8435","6","7","Male","","","","","","","null","<div style=""font-size:60px;"">+</div>","null","fixation","","","","","","","","","49","","",""
"revaluation","171","861404","0.0-4.0-2.0-0.25","spark_pilot_norest","8435","6","7","Male","","false","","","","","[926.7000000001863,1099.5]","./assets/img/canyon/memory/11.jpg","[""ArrowUp"",""ArrowRight""]","value training","canyon","10","{""ArrowUp,ArrowLeft"":23,""ArrowUp,ArrowRight"":10,""ArrowDown,ArrowLeft"":8,""ArrowDown,ArrowRight"":30}","false","ArrowUp,ArrowRight","false","revaluation","1","50","","",""
"html-keyboard-response","172","861905","0.0-4.0-2.0-1.25","spark_pilot_norest","8435","6","7","Male","","","","","","","null","<div style=""font-size:60px;"">+</div>","null","fixation","","","","","","","","","51","","",""
"revaluation","173","867912","0.0-4.0-2.0-0.26","spark_pilot_norest","8435","6","7","Male","","false","","","","","[1029.5,734.5]","./assets/img/canyon/memory/32.jpg","[""ArrowDown"",""ArrowRight""]","value training","canyon","30","{""ArrowUp,ArrowLeft"":23,""ArrowUp,ArrowRight"":10,""ArrowDown,ArrowLeft"":8,""ArrowDown,ArrowRight"":30}","true","ArrowDown,ArrowRight","false","revaluation","1","52","","",""
"html-keyboard-response","174","868415","0.0-4.0-2.0-1.26","spark_pilot_norest","8435","6","7","Male","","","","","","","null","<div style=""font-size:60px;"">+</div>","null","fixation","","","","","","","","","53","","",""
"revaluation","175","872422","0.0-4.0-2.0-0.27","spark_pilot_norest","8435","6","7","Male","","true","","","","","[]","./assets/img/canyon/catch/5.jpg","[]","value training","canyon","-5","{""ArrowUp,ArrowLeft"":23,""ArrowUp,ArrowRight"":10,""ArrowDown,ArrowLeft"":8,""ArrowDown,ArrowRight"":30}","false","","true","revaluation","1","54","","",""
"html-keyboard-response","176","872923","0.0-4.0-2.0-1.27","spark_pilot_norest","8435","6","7","Male","","","","","","","null","<div style=""font-size:60px;"">+</div>","null","fixation","","","","","","","","","55","","",""
"revaluation","177","878929","0.0-4.0-2.0-0.28","spark_pilot_norest","8435","6","7","Male","","false","","","","","[316.29999999981374,835.0999999996275]","./assets/img/canyon/memory/22.jpg","[""ArrowDown"",""ArrowRight""]","value training","canyon","30","{""ArrowUp,ArrowLeft"":23,""ArrowUp,ArrowRight"":10,""ArrowDown,ArrowLeft"":8,""ArrowDown,ArrowRight"":30}","true","ArrowDown,ArrowRight","false","revaluation","1","56","","",""
"html-keyboard-response","178","879431","0.0-4.0-2.0-1.28","spark_pilot_norest","8435","6","7","Male","","","","","","","null","<div style=""font-size:60px;"">+</div>","null","fixation","","","","","","","","","57","","",""
"revaluation","179","885436","0.0-4.0-2.0-0.29","spark_pilot_norest","8435","6","7","Male","","false","","","","","[1036.7000000001863,123.70000000018626]","./assets/img/canyon/memory/20.jpg","[""ArrowDown"",""ArrowRight""]","value training","canyon","30","{""ArrowUp,ArrowLeft"":23,""ArrowUp,ArrowRight"":10,""ArrowDown,ArrowLeft"":8,""ArrowDown,ArrowRight"":30}","true","ArrowDown,ArrowRight","false","revaluation","1","58","","",""
"html-keyboard-response","180","885938","0.0-4.0-2.0-1.29","spark_pilot_norest","8435","6","7","Male","","","","","","","null","<div style=""font-size:60px;"">+</div>","null","fixation","","","","","","","","","59","","",""
"revaluation","181","891945","0.0-4.0-2.0-0.30","spark_pilot_norest","8435","6","7","Male","","false","","","","","[533.2999999998137,398.40000000037253]","./assets/img/canyon/memory/26.jpg","[""ArrowDown"",""ArrowRight""]","value training","canyon","30","{""ArrowUp,ArrowLeft"":23,""ArrowUp,ArrowRight"":10,""ArrowDown,ArrowLeft"":8,""ArrowDown,ArrowRight"":30}","true","ArrowDown,ArrowRight","false","revaluation","1","60","","",""
"html-keyboard-response","182","892447","0.0-4.0-2.0-1.30","spark_pilot_norest","8435","6","7","Male","","","","","","","null","<div style=""font-size:60px;"">+</div>","null","fixation","","","","","","","","","61","","",""
"revaluation","183","898454","0.0-4.0-2.0-0.31","spark_pilot_norest","8435","6","7","Male","","false","","","","","[956.8999999994412,418.09999999962747]","./assets/img/canyon/memory/22.jpg","[""ArrowDown"",""ArrowRight""]","value training","canyon","30","{""ArrowUp,ArrowLeft"":23,""ArrowUp,ArrowRight"":10,""ArrowDown,ArrowLeft"":8,""ArrowDown,ArrowRight"":30}","true","ArrowDown,ArrowRight","false","revaluation","1","62","","",""
"html-keyboard-response","184","898956","0.0-4.0-2.0-1.31","spark_pilot_norest","8435","6","7","Male","","","","","","","null","<div style=""font-size:60px;"">+</div>","null","fixation","","","","","","","","","63","","",""
"revaluation","185","904992","0.0-4.0-2.0-0.32","spark_pilot_norest","8435","6","7","Male","","false","","","","","[63.30000000074506,501.20000000018626]","./assets/img/canyon/memory/41.jpg","[""ArrowDown"",""ArrowRight""]","value training","canyon","30","{""ArrowUp,ArrowLeft"":23,""ArrowUp,ArrowRight"":10,""ArrowDown,ArrowLeft"":8,""ArrowDown,ArrowRight"":30}","true","ArrowDown,ArrowRight","false","revaluation","1","64","","",""
"html-keyboard-response","186","905494","0.0-4.0-2.0-1.32","spark_pilot_norest","8435","6","7","Male","","","","","","","null","<div style=""font-size:60px;"">+</div>","null","fixation","","","","","","","","","65","","",""
"revaluation","187","911501","0.0-4.0-2.0-0.33","spark_pilot_norest","8435","6","7","Male","","false","","","","","[131.79999999981374,1667.4000000003725]","./assets/img/canyon/memory/20.jpg","[""ArrowDown"",""ArrowRight""]","value training","canyon","30","{""ArrowUp,ArrowLeft"":23,""ArrowUp,ArrowRight"":10,""ArrowDown,ArrowLeft"":8,""ArrowDown,ArrowRight"":30}","true","ArrowDown,ArrowRight","false","revaluation","1","66","","",""
"html-keyboard-response","188","912002","0.0-4.0-2.0-1.33","spark_pilot_norest","8435","6","7","Male","","","","","","","null","<div style=""font-size:60px;"">+</div>","null","fixation","","","","","","","","","67","","",""
"revaluation","189","916009","0.0-4.0-2.0-0.34","spark_pilot_norest","8435","6","7","Male","","false","","","","","[8.900000000372529]","./assets/img/canyon/catch/0.jpg","[""ArrowDown""]","value training","canyon","-10","{""ArrowUp,ArrowLeft"":23,""ArrowUp,ArrowRight"":10,""ArrowDown,ArrowLeft"":8,""ArrowDown,ArrowRight"":30}","false","ArrowDown","true","revaluation","1","68","","",""
"html-keyboard-response","190","916512","0.0-4.0-2.0-1.34","spark_pilot_norest","8435","6","7","Male","","","","","","","null","<div style=""font-size:60px;"">+</div>","null","fixation","","","","","","","","","69","","",""
"revaluation","191","920519","0.0-4.0-2.0-0.35","spark_pilot_norest","8435","6","7","Male","","true","","","","","[]","./assets/img/canyon/catch/6.jpg","[]","value training","canyon","-5","{""ArrowUp,ArrowLeft"":23,""ArrowUp,ArrowRight"":10,""ArrowDown,ArrowLeft"":8,""ArrowDown,ArrowRight"":30}","false","","true","revaluation","1","70","","",""
"html-keyboard-response","192","921020","0.0-4.0-2.0-1.35","spark_pilot_norest","8435","6","7","Male","","","","","","","null","<div style=""font-size:60px;"">+</div>","null","fixation","","","","","","","","","71","","",""
"revaluation","193","927027","0.0-4.0-2.0-0.36","spark_pilot_norest","8435","6","7","Male","","false","","","","","[1575.6000000005588,587.2999999998137]","./assets/img/canyon/memory/0.jpg","[""ArrowDown"",""ArrowRight""]","value training","canyon","30","{""ArrowUp,ArrowLeft"":23,""ArrowUp,ArrowRight"":10,""ArrowDown,ArrowLeft"":8,""ArrowDown,ArrowRight"":30}","true","ArrowDown,ArrowRight","false","revaluation","1","72","","",""
"html-keyboard-response","194","927529","0.0-4.0-2.0-1.36","spark_pilot_norest","8435","6","7","Male","","","","","","","null","<div style=""font-size:60px;"">+</div>","null","fixation","","","","","","","","","73","","",""
"revaluation","195","933536","0.0-4.0-2.0-0.37","spark_pilot_norest","8435","6","7","Male","","false","","","","","[897.5,553.2000000001863]","./assets/img/canyon/memory/25.jpg","[""ArrowDown"",""ArrowRight""]","value training","canyon","30","{""ArrowUp,ArrowLeft"":23,""ArrowUp,ArrowRight"":10,""ArrowDown,ArrowLeft"":8,""ArrowDown,ArrowRight"":30}","true","ArrowDown,ArrowRight","false","revaluation","1","74","","",""
"html-keyboard-response","196","934038","0.0-4.0-2.0-1.37","spark_pilot_norest","8435","6","7","Male","","","","","","","null","<div style=""font-size:60px;"">+</div>","null","fixation","","","","","","","","","75","","",""
"revaluation","197","940046","0.0-4.0-2.0-0.38","spark_pilot_norest","8435","6","7","Male","","false","","","","","[1372.6000000005588,558.9000000003725]","./assets/img/canyon/memory/11.jpg","[""ArrowDown"",""ArrowRight""]","value training","canyon","30","{""ArrowUp,ArrowLeft"":23,""ArrowUp,ArrowRight"":10,""ArrowDown,ArrowLeft"":8,""ArrowDown,ArrowRight"":30}","true","ArrowDown,ArrowRight","false","revaluation","1","76","","",""
"html-keyboard-response","198","940556","0.0-4.0-2.0-1.38","spark_pilot_norest","8435","6","7","Male","","","","","","","null","<div style=""font-size:60px;"">+</div>","null","fixation","","","","","","","","","77","","",""
"revaluation","199","946568","0.0-4.0-2.0-0.39","spark_pilot_norest","8435","6","7","Male","","false","","","","","[633.5,514]","./assets/img/canyon/memory/36.jpg","[""ArrowDown"",""ArrowRight""]","value training","canyon","30","{""ArrowUp,ArrowLeft"":23,""ArrowUp,ArrowRight"":10,""ArrowDown,ArrowLeft"":8,""ArrowDown,ArrowRight"":30}","true","ArrowDown,ArrowRight","false","revaluation","1","78","","",""
"html-keyboard-response","200","947070","0.0-4.0-2.0-1.39","spark_pilot_norest","8435","6","7","Male","","","","","","","null","<div style=""font-size:60px;"">+</div>","null","fixation","","","","","","","","","79","","",""
"revaluation","201","953079","0.0-4.0-2.0-0.40","spark_pilot_norest","8435","6","7","Male","","false","","","","","[660.8999999994412,1453.7000000001863]","./assets/img/canyon/memory/2.jpg","[""ArrowDown"",""ArrowRight""]","value training","canyon","30","{""ArrowUp,ArrowLeft"":23,""ArrowUp,ArrowRight"":10,""ArrowDown,ArrowLeft"":8,""ArrowDown,ArrowRight"":30}","true","ArrowDown,ArrowRight","false","revaluation","1","80","","",""
"html-keyboard-response","202","953580","0.0-4.0-2.0-1.40","spark_pilot_norest","8435","6","7","Male","","","","","","","null","<div style=""font-size:60px;"">+</div>","null","fixation","","","","","","","","","81","","",""
"revaluation","203","957590","0.0-4.0-2.0-0.41","spark_pilot_norest","8435","6","7","Male","","true","","","","","[]","./assets/img/canyon/catch/7.jpg","[]","value training","canyon","-5","{""ArrowUp,ArrowLeft"":23,""ArrowUp,ArrowRight"":10,""ArrowDown,ArrowLeft"":8,""ArrowDown,ArrowRight"":30}","false","","true","revaluation","1","82","","",""
"html-keyboard-response","204","958092","0.0-4.0-2.0-1.41","spark_pilot_norest","8435","6","7","Male","","","","","","","null","<div style=""font-size:60px;"">+</div>","null","fixation","","","","","","","","","83","","",""
"revaluation","205","964098","0.0-4.0-2.0-0.42","spark_pilot_norest","8435","6","7","Male","","false","","","","","[1761.8999999994412,719.1000000005588]","./assets/img/canyon/memory/1.jpg","[""ArrowDown"",""ArrowRight""]","value training","canyon","30","{""ArrowUp,ArrowLeft"":23,""ArrowUp,ArrowRight"":10,""ArrowDown,ArrowLeft"":8,""ArrowDown,ArrowRight"":30}","true","ArrowDown,ArrowRight","false","revaluation","1","84","","",""
"html-keyboard-response","206","964600","0.0-4.0-2.0-1.42","spark_pilot_norest","8435","6","7","Male","","","","","","","null","<div style=""font-size:60px;"">+</div>","null","fixation","","","","","","","","","85","","",""
"revaluation","207","970615","0.0-4.0-2.0-0.43","spark_pilot_norest","8435","6","7","Male","","false","","","","","[383.5,481.6000000005588]","./assets/img/canyon/memory/3.jpg","[""ArrowDown"",""ArrowRight""]","value training","canyon","30","{""ArrowUp,ArrowLeft"":23,""ArrowUp,ArrowRight"":10,""ArrowDown,ArrowLeft"":8,""ArrowDown,ArrowRight"":30}","true","ArrowDown,ArrowRight","false","revaluation","1","86","","",""
"html-keyboard-response","208","971118","0.0-4.0-2.0-1.43","spark_pilot_norest","8435","6","7","Male","","","","","","","null","<div style=""font-size:60px;"">+</div>","null","fixation","","","","","","","","","87","","",""
"revaluation","209","975122","0.0-4.0-2.0-0.44","spark_pilot_norest","8435","6","7","Male","","false","","","","","[1626.5]","./assets/img/canyon/catch/1.jpg","[""ArrowDown""]","value training","canyon","-10","{""ArrowUp,ArrowLeft"":23,""ArrowUp,ArrowRight"":10,""ArrowDown,ArrowLeft"":8,""ArrowDown,ArrowRight"":30}","false","ArrowDown","true","revaluation","1","88","","",""
"html-keyboard-response","210","975623","0.0-4.0-2.0-1.44","spark_pilot_norest","8435","6","7","Male","","","","","","","null","<div style=""font-size:60px;"">+</div>","null","fixation","","","","","","","","","89","","",""
"revaluation","211","981635","0.0-4.0-2.0-0.45","spark_pilot_norest","8435","6","7","Male","","false","","","","","[1289.0999999996275,804.5]","./assets/img/canyon/memory/38.jpg","[""ArrowDown"",""ArrowRight""]","value training","canyon","30","{""ArrowUp,ArrowLeft"":23,""ArrowUp,ArrowRight"":10,""ArrowDown,ArrowLeft"":8,""ArrowDown,ArrowRight"":30}","true","ArrowDown,ArrowRight","false","revaluation","1","90","","",""
"html-keyboard-response","212","982138","0.0-4.0-2.0-1.45","spark_pilot_norest","8435","6","7","Male","","","","","","","null","<div style=""font-size:60px;"">+</div>","null","fixation","","","","","","","","","91","","",""
"revaluation","213","988143","0.0-4.0-2.0-0.46","spark_pilot_norest","8435","6","7","Male","","false","","","","","[821.5999999996275,741.6000000005588]","./assets/img/canyon/memory/27.jpg","[""ArrowDown"",""ArrowRight""]","value training","canyon","30","{""ArrowUp,ArrowLeft"":23,""ArrowUp,ArrowRight"":10,""ArrowDown,ArrowLeft"":8,""ArrowDown,ArrowRight"":30}","true","ArrowDown,ArrowRight","false","revaluation","1","92","","",""
"html-keyboard-response","214","988645","0.0-4.0-2.0-1.46","spark_pilot_norest","8435","6","7","Male","","","","","","","null","<div style=""font-size:60px;"">+</div>","null","fixation","","","","","","","","","93","","",""
"revaluation","215","994670","0.0-4.0-2.0-0.47","spark_pilot_norest","8435","6","7","Male","","false","","","","","[211.5,574.7999999998137]","./assets/img/canyon/memory/23.jpg","[""ArrowDown"",""ArrowRight""]","value training","canyon","30","{""ArrowUp,ArrowLeft"":23,""ArrowUp,ArrowRight"":10,""ArrowDown,ArrowLeft"":8,""ArrowDown,ArrowRight"":30}","true","ArrowDown,ArrowRight","false","revaluation","1","94","","",""
"html-keyboard-response","216","995172","0.0-4.0-2.0-1.47","spark_pilot_norest","8435","6","7","Male","","","","","","","null","<div style=""font-size:60px;"">+</div>","null","fixation","","","","","","","","","95","","",""
"revaluation","217","1001185","0.0-4.0-2.0-0.48","spark_pilot_norest","8435","6","7","Male","","false","","","","","[935.1999999992549,569.8999999994412]","./assets/img/canyon/memory/23.jpg","[""ArrowDown"",""ArrowRight""]","value training","canyon","30","{""ArrowUp,ArrowLeft"":23,""ArrowUp,ArrowRight"":10,""ArrowDown,ArrowLeft"":8,""ArrowDown,ArrowRight"":30}","true","ArrowDown,ArrowRight","false","revaluation","1","96","","",""
"html-keyboard-response","218","1001687","0.0-4.0-2.0-1.48","spark_pilot_norest","8435","6","7","Male","","","","","","","null","<div style=""font-size:60px;"">+</div>","null","fixation","","","","","","","","","97","","",""
"revaluation","219","1007695","0.0-4.0-2.0-0.49","spark_pilot_norest","8435","6","7","Male","","false","","","","","[659.7000000001863,1548.0999999996275]","./assets/img/canyon/memory/38.jpg","[""ArrowDown"",""ArrowRight""]","value training","canyon","30","{""ArrowUp,ArrowLeft"":23,""ArrowUp,ArrowRight"":10,""ArrowDown,ArrowLeft"":8,""ArrowDown,ArrowRight"":30}","true","ArrowDown,ArrowRight","false","revaluation","1","98","","",""
"html-keyboard-response","220","1008197","0.0-4.0-2.0-1.49","spark_pilot_norest","8435","6","7","Male","","","","","","","null","<div style=""font-size:60px;"">+</div>","null","fixation","","","","","","","","","99","","",""
"learning-instructions","221","1025783","0.0-4.0-3.0-0.0","spark_pilot_norest","8435","6","7","Male","","","","","","","3998.600000000559","<p> Now, you will travel with a friend who will choose whether you go up or down first. </p>
            <p> On these turns, you will just see the animal that they found. You will still get to choose which chest to search for treasure.</p>","","instructions","","","","","","","","","","","",""
"revaluation","222","1029787","0.0-4.0-4.0-0.0","spark_pilot_norest","8435","6","7","Male","","false","","","","","[1750]","./assets/img/canyon/animals/lion.jpg","[""ArrowRight""]","revaluation","canyon","7","{""ArrowUp,ArrowLeft"":27,""ArrowUp,ArrowRight"":15,""ArrowDown,ArrowLeft"":21,""ArrowDown,ArrowRight"":7}","false","ArrowDown,ArrowRight","","revaluation","1","0","","",""
"html-keyboard-response","223","1030303","0.0-4.0-4.0-1.0","spark_pilot_norest","8435","6","7","Male","","","","","","","null","<div style=""font-size:60px;"">+</div>","null","fixation","","","","","","","","","1","","",""
"revaluation","224","1034311","0.0-4.0-4.0-0.1","spark_pilot_norest","8435","6","7","Male","","false","","","","","[916.7000000001863]","./assets/img/canyon/animals/giraffe.jpg","[""ArrowLeft""]","revaluation","canyon","27","{""ArrowUp,ArrowLeft"":27,""ArrowUp,ArrowRight"":15,""ArrowDown,ArrowLeft"":21,""ArrowDown,ArrowRight"":7}","true","ArrowUp,ArrowLeft","","revaluation","1","2","","",""
"html-keyboard-response","225","1034826","0.0-4.0-4.0-1.1","spark_pilot_norest","8435","6","7","Male","","","","","","","null","<div style=""font-size:60px;"">+</div>","null","fixation","","","","","","","","","3","","",""
"revaluation","226","1038852","0.0-4.0-4.0-0.2","spark_pilot_norest","8435","6","7","Male","","false","","","","","[622.7999999998137]","./assets/img/canyon/animals/giraffe.jpg","[""ArrowLeft""]","revaluation","canyon","27","{""ArrowUp,ArrowLeft"":27,""ArrowUp,ArrowRight"":15,""ArrowDown,ArrowLeft"":21,""ArrowDown,ArrowRight"":7}","true","ArrowUp,ArrowLeft","","revaluation","1","4","","",""
"html-keyboard-response","227","1039360","0.0-4.0-4.0-1.2","spark_pilot_norest","8435","6","7","Male","","","","","","","null","<div style=""font-size:60px;"">+</div>","null","fixation","","","","","","","","","5","","",""
"revaluation","228","1043388","0.0-4.0-4.0-0.3","spark_pilot_norest","8435","6","7","Male","","false","","","","","[69.19999999925494]","./assets/img/canyon/animals/giraffe.jpg","[""ArrowLeft""]","revaluation","canyon","27","{""ArrowUp,ArrowLeft"":27,""ArrowUp,ArrowRight"":15,""ArrowDown,ArrowLeft"":21,""ArrowDown,ArrowRight"":7}","true","ArrowUp,ArrowLeft","","revaluation","1","6","","",""
"html-keyboard-response","229","1043889","0.0-4.0-4.0-1.3","spark_pilot_norest","8435","6","7","Male","","","","","","","null","<div style=""font-size:60px;"">+</div>","null","fixation","","","","","","","","","7","","",""
"revaluation","230","1047908","0.0-4.0-4.0-0.4","spark_pilot_norest","8435","6","7","Male","","false","","","","","[34.5]","./assets/img/canyon/animals/giraffe.jpg","[""ArrowLeft""]","revaluation","canyon","27","{""ArrowUp,ArrowLeft"":27,""ArrowUp,ArrowRight"":15,""ArrowDown,ArrowLeft"":21,""ArrowDown,ArrowRight"":7}","true","ArrowUp,ArrowLeft","","revaluation","1","8","","",""
"html-keyboard-response","231","1048423","0.0-4.0-4.0-1.4","spark_pilot_norest","8435","6","7","Male","","","","","","","null","<div style=""font-size:60px;"">+</div>","null","fixation","","","","","","","","","9","","",""
"revaluation","232","1052437","0.0-4.0-4.0-0.5","spark_pilot_norest","8435","6","7","Male","","false","","","","","[313]","./assets/img/canyon/animals/lion.jpg","[""ArrowLeft""]","revaluation","canyon","21","{""ArrowUp,ArrowLeft"":27,""ArrowUp,ArrowRight"":15,""ArrowDown,ArrowLeft"":21,""ArrowDown,ArrowRight"":7}","true","ArrowDown,ArrowLeft","","revaluation","1","10","","",""
"html-keyboard-response","233","1052940","0.0-4.0-4.0-1.5","spark_pilot_norest","8435","6","7","Male","","","","","","","null","<div style=""font-size:60px;"">+</div>","null","fixation","","","","","","","","","11","","",""
"revaluation","234","1056956","0.0-4.0-4.0-0.6","spark_pilot_norest","8435","6","7","Male","","false","","","","","[517.1999999992549]","./assets/img/canyon/animals/lion.jpg","[""ArrowLeft""]","revaluation","canyon","21","{""ArrowUp,ArrowLeft"":27,""ArrowUp,ArrowRight"":15,""ArrowDown,ArrowLeft"":21,""ArrowDown,ArrowRight"":7}","true","ArrowDown,ArrowLeft","","revaluation","1","12","","",""
"html-keyboard-response","235","1057457","0.0-4.0-4.0-1.6","spark_pilot_norest","8435","6","7","Male","","","","","","","null","<div style=""font-size:60px;"">+</div>","null","fixation","","","","","","","","","13","","",""
"revaluation","236","1061468","0.0-4.0-4.0-0.7","spark_pilot_norest","8435","6","7","Male","","false","","","","","[320]","./assets/img/canyon/animals/lion.jpg","[""ArrowLeft""]","revaluation","canyon","21","{""ArrowUp,ArrowLeft"":27,""ArrowUp,ArrowRight"":15,""ArrowDown,ArrowLeft"":21,""ArrowDown,ArrowRight"":7}","true","ArrowDown,ArrowLeft","","revaluation","1","14","","",""
"html-keyboard-response","237","1061969","0.0-4.0-4.0-1.7","spark_pilot_norest","8435","6","7","Male","","","","","","","null","<div style=""font-size:60px;"">+</div>","null","fixation","","","","","","","","","15","","",""
"revaluation","238","1065975","0.0-4.0-4.0-0.8","spark_pilot_norest","8435","6","7","Male","","false","","","","","[127.29999999981374]","./assets/img/canyon/animals/giraffe.jpg","[""ArrowLeft""]","revaluation","canyon","27","{""ArrowUp,ArrowLeft"":27,""ArrowUp,ArrowRight"":15,""ArrowDown,ArrowLeft"":21,""ArrowDown,ArrowRight"":7}","true","ArrowUp,ArrowLeft","","revaluation","1","16","","",""
"html-keyboard-response","239","1066478","0.0-4.0-4.0-1.8","spark_pilot_norest","8435","6","7","Male","","","","","","","null","<div style=""font-size:60px;"">+</div>","null","fixation","","","","","","","","","17","","",""
"revaluation","240","1070485","0.0-4.0-4.0-0.9","spark_pilot_norest","8435","6","7","Male","","false","","","","","[1021.2000000001863]","./assets/img/canyon/animals/giraffe.jpg","[""ArrowLeft""]","revaluation","canyon","27","{""ArrowUp,ArrowLeft"":27,""ArrowUp,ArrowRight"":15,""ArrowDown,ArrowLeft"":21,""ArrowDown,ArrowRight"":7}","true","ArrowUp,ArrowLeft","","revaluation","1","18","","",""
"html-keyboard-response","241","1070986","0.0-4.0-4.0-1.9","spark_pilot_norest","8435","6","7","Male","","","","","","","null","<div style=""font-size:60px;"">+</div>","null","fixation","","","","","","","","","19","","",""
"revaluation","242","1074993","0.0-4.0-4.0-0.10","spark_pilot_norest","8435","6","7","Male","","false","","","","","[360.09999999962747]","./assets/img/canyon/animals/lion.jpg","[""ArrowLeft""]","revaluation","canyon","21","{""ArrowUp,ArrowLeft"":27,""ArrowUp,ArrowRight"":15,""ArrowDown,ArrowLeft"":21,""ArrowDown,ArrowRight"":7}","true","ArrowDown,ArrowLeft","","revaluation","1","20","","",""
"html-keyboard-response","243","1075495","0.0-4.0-4.0-1.10","spark_pilot_norest","8435","6","7","Male","","","","","","","null","<div style=""font-size:60px;"">+</div>","null","fixation","","","","","","","","","21","","",""
"revaluation","244","1079502","0.0-4.0-4.0-0.11","spark_pilot_norest","8435","6","7","Male","","false","","","","","[466.1000000005588]","./assets/img/canyon/animals/lion.jpg","[""ArrowLeft""]","revaluation","canyon","21","{""ArrowUp,ArrowLeft"":27,""ArrowUp,ArrowRight"":15,""ArrowDown,ArrowLeft"":21,""ArrowDown,ArrowRight"":7}","true","ArrowDown,ArrowLeft","","revaluation","1","22","","",""
"html-keyboard-response","245","1080005","0.0-4.0-4.0-1.11","spark_pilot_norest","8435","6","7","Male","","","","","","","null","<div style=""font-size:60px;"">+</div>","null","fixation","","","","","","","","","23","","",""
"revaluation","246","1084012","0.0-4.0-4.0-0.12","spark_pilot_norest","8435","6","7","Male","","false","","","","","[479]","./assets/img/canyon/animals/lion.jpg","[""ArrowLeft""]","revaluation","canyon","21","{""ArrowUp,ArrowLeft"":27,""ArrowUp,ArrowRight"":15,""ArrowDown,ArrowLeft"":21,""ArrowDown,ArrowRight"":7}","true","ArrowDown,ArrowLeft","","revaluation","1","24","","",""
"html-keyboard-response","247","1084514","0.0-4.0-4.0-1.12","spark_pilot_norest","8435","6","7","Male","","","","","","","null","<div style=""font-size:60px;"">+</div>","null","fixation","","","","","","","","","25","","",""
"revaluation","248","1088522","0.0-4.0-4.0-0.13","spark_pilot_norest","8435","6","7","Male","","false","","","","","[730.9000000003725]","./assets/img/canyon/animals/lion.jpg","[""ArrowLeft""]","revaluation","canyon","21","{""ArrowUp,ArrowLeft"":27,""ArrowUp,ArrowRight"":15,""ArrowDown,ArrowLeft"":21,""ArrowDown,ArrowRight"":7}","true","ArrowDown,ArrowLeft","","revaluation","1","26","","",""
"html-keyboard-response","249","1089029","0.0-4.0-4.0-1.13","spark_pilot_norest","8435","6","7","Male","","","","","","","null","<div style=""font-size:60px;"">+</div>","null","fixation","","","","","","","","","27","","",""
"revaluation","250","1093038","0.0-4.0-4.0-0.14","spark_pilot_norest","8435","6","7","Male","","false","","","","","[973.7000000001863]","./assets/img/canyon/animals/giraffe.jpg","[""ArrowLeft""]","revaluation","canyon","27","{""ArrowUp,ArrowLeft"":27,""ArrowUp,ArrowRight"":15,""ArrowDown,ArrowLeft"":21,""ArrowDown,ArrowRight"":7}","true","ArrowUp,ArrowLeft","","revaluation","1","28","","",""
"html-keyboard-response","251","1093541","0.0-4.0-4.0-1.14","spark_pilot_norest","8435","6","7","Male","","","","","","","null","<div style=""font-size:60px;"">+</div>","null","fixation","","","","","","","","","29","","",""
"revaluation","252","1097550","0.0-4.0-4.0-0.15","spark_pilot_norest","8435","6","7","Male","","false","","","","","[870.4000000003725]","./assets/img/canyon/animals/giraffe.jpg","[""ArrowLeft""]","revaluation","canyon","27","{""ArrowUp,ArrowLeft"":27,""ArrowUp,ArrowRight"":15,""ArrowDown,ArrowLeft"":21,""ArrowDown,ArrowRight"":7}","true","ArrowUp,ArrowLeft","","revaluation","1","30","","",""
"html-keyboard-response","253","1098051","0.0-4.0-4.0-1.15","spark_pilot_norest","8435","6","7","Male","","","","","","","null","<div style=""font-size:60px;"">+</div>","null","fixation","","","","","","","","","31","","",""
"revaluation","254","1102062","0.0-4.0-4.0-0.16","spark_pilot_norest","8435","6","7","Male","","false","","","","","[716.7999999998137]","./assets/img/canyon/animals/lion.jpg","[""ArrowLeft""]","revaluation","canyon","21","{""ArrowUp,ArrowLeft"":27,""ArrowUp,ArrowRight"":15,""ArrowDown,ArrowLeft"":21,""ArrowDown,ArrowRight"":7}","true","ArrowDown,ArrowLeft","","revaluation","1","32","","",""
"html-keyboard-response","255","1102566","0.0-4.0-4.0-1.16","spark_pilot_norest","8435","6","7","Male","","","","","","","null","<div style=""font-size:60px;"">+</div>","null","fixation","","","","","","","","","33","","",""
"revaluation","256","1106575","0.0-4.0-4.0-0.17","spark_pilot_norest","8435","6","7","Male","","false","","","","","[866.7000000001863]","./assets/img/canyon/animals/giraffe.jpg","[""ArrowLeft""]","revaluation","canyon","27","{""ArrowUp,ArrowLeft"":27,""ArrowUp,ArrowRight"":15,""ArrowDown,ArrowLeft"":21,""ArrowDown,ArrowRight"":7}","true","ArrowUp,ArrowLeft","","revaluation","1","34","","",""
"html-keyboard-response","257","1107078","0.0-4.0-4.0-1.17","spark_pilot_norest","8435","6","7","Male","","","","","","","null","<div style=""font-size:60px;"">+</div>","null","fixation","","","","","","","","","35","","",""
"learning-instructions","258","1115972","0.0-4.0-5.0-0.0","spark_pilot_norest","8435","6","7","Male","","","","","","","null","<p> You have almost finished this part of the game! </p>
            <p> We are going to ask you to make a few more choices. </p>","","instructions","","","","","","","","","","","",""
"learning-instructions","259","1131960","0.0-4.0-5.0-0.1","spark_pilot_norest","8435","6","7","Male","","","","","","","null","<p> First, you need to decide whether to go up or down. When you see each picture, use the arrow keys to make your choice. </p>
            <p><b>You will not see which animal you found, but try to get to the one that will give you the most treasure.</b></p>","","instructions","","","","","","","","","","","",""
"html-keyboard-response","260","1132967","0.0-4.0-6.0-0.0","spark_pilot_norest","8435","6","7","Male","","","","","","","null","<div style=""font-size:100px;color:red;"">Starting in...</div>","null","","","","","","","","","","","","",""
"html-keyboard-response","261","1133974","0.0-4.0-6.0-1.0","spark_pilot_norest","8435","6","7","Male","","","","","","","null","<div style=""font-size:200px;color:red;"">3</div>","null","","","","","","","","","","","","",""
"html-keyboard-response","262","1134982","0.0-4.0-6.0-2.0","spark_pilot_norest","8435","6","7","Male","","","","","","","null","<div style=""font-size:200px;color:red;"">2</div>","null","","","","","","","","","","","","",""
"html-keyboard-response","263","1135997","0.0-4.0-6.0-3.0","spark_pilot_norest","8435","6","7","Male","","","","","","","null","<div style=""font-size:200px;color:red;"">1</div>","null","","","","","","","","","","","","",""
"revaluation","264","1136642","0.0-4.0-7.0-0.0","spark_pilot_norest","8435","6","7","Male","","false","","","","","[639.7000000001863]","./assets/img/canyon/test/1.jpg","[""ArrowDown""]","first stage test","canyon","0","{""ArrowUp,ArrowLeft"":27,""ArrowUp,ArrowRight"":15,""ArrowDown,ArrowLeft"":21,""ArrowDown,ArrowRight"":7}","false","ArrowDown","false","revaluation","1","","","",""
"html-keyboard-response","265","1137154","0.0-4.0-7.0-1.0","spark_pilot_norest","8435","6","7","Male","","","","","","","null","<div style=""font-size:60px;"">+</div>","null","fixation","","","","","","","","","","","",""
"revaluation","266","1137838","0.0-4.0-7.0-0.1","spark_pilot_norest","8435","6","7","Male","","false","","","","","[679.9000000003725]","./assets/img/canyon/test/3.jpg","[""ArrowDown""]","first stage test","canyon","0","{""ArrowUp,ArrowLeft"":27,""ArrowUp,ArrowRight"":15,""ArrowDown,ArrowLeft"":21,""ArrowDown,ArrowRight"":7}","false","ArrowDown","false","revaluation","1","","","",""
"html-keyboard-response","267","1138347","0.0-4.0-7.0-1.1","spark_pilot_norest","8435","6","7","Male","","","","","","","null","<div style=""font-size:60px;"">+</div>","null","fixation","","","","","","","","","","","",""
"revaluation","268","1138677","0.0-4.0-7.0-0.2","spark_pilot_norest","8435","6","7","Male","","false","","","","","[325.20000000018626]","./assets/img/canyon/test/2.jpg","[""ArrowUp""]","first stage test","canyon","0","{""ArrowUp,ArrowLeft"":27,""ArrowUp,ArrowRight"":15,""ArrowDown,ArrowLeft"":21,""ArrowDown,ArrowRight"":7}","true","ArrowUp","false","revaluation","1","","","",""
"html-keyboard-response","269","1139188","0.0-4.0-7.0-1.2","spark_pilot_norest","8435","6","7","Male","","","","","","","null","<div style=""font-size:60px;"">+</div>","null","fixation","","","","","","","","","","","",""
"revaluation","270","1139200","0.0-4.0-7.0-0.3","spark_pilot_norest","8435","6","7","Male","","false","","","","","[8.900000000372529]","./assets/img/canyon/test/0.jpg","[""ArrowDown""]","first stage test","canyon","0","{""ArrowUp,ArrowLeft"":27,""ArrowUp,ArrowRight"":15,""ArrowDown,ArrowLeft"":21,""ArrowDown,ArrowRight"":7}","false","ArrowDown","false","revaluation","1","","","",""
"html-keyboard-response","271","1139704","0.0-4.0-7.0-1.3","spark_pilot_norest","8435","6","7","Male","","","","","","","null","<div style=""font-size:60px;"">+</div>","null","fixation","","","","","","","","","","","",""
"learning-instructions","272","1153041","0.0-4.0-8.0-0.0","spark_pilot_norest","8435","6","7","Male","","","","","","","null","<p> Now you will see the animals again and can search their chests for treasure. </p>
            <p> This time, you will not see how much treasure you earned, but you will earn more bonus money for making better choices. </p>","","instructions","","","","","","","","","","","",""
"html-keyboard-response","273","1154043","0.0-4.0-9.0-0.0","spark_pilot_norest","8435","6","7","Male","","","","","","","null","<div style=""font-size:100px;color:red;"">Starting in...</div>","null","","","","","","","","","","","","",""
"html-keyboard-response","274","1155045","0.0-4.0-9.0-1.0","spark_pilot_norest","8435","6","7","Male","","","","","","","null","<div style=""font-size:200px;color:red;"">3</div>","null","","","","","","","","","","","","",""
"html-keyboard-response","275","1156046","0.0-4.0-9.0-2.0","spark_pilot_norest","8435","6","7","Male","","","","","","","null","<div style=""font-size:200px;color:red;"">2</div>","null","","","","","","","","","","","","",""
"html-keyboard-response","276","1157058","0.0-4.0-9.0-3.0","spark_pilot_norest","8435","6","7","Male","","","","","","","null","<div style=""font-size:200px;color:red;"">1</div>","null","","","","","","","","","","","","",""
"revaluation","277","1157877","0.0-4.0-10.0-0.0","spark_pilot_norest","8435","6","7","Male","","false","","","","","[813.5]","./assets/img/canyon/animals/giraffe.jpg","[""ArrowRight""]","second stage test","canyon","0","{""ArrowUp,ArrowLeft"":27,""ArrowUp,ArrowRight"":15,""ArrowDown,ArrowLeft"":21,""ArrowDown,ArrowRight"":7}","false","ArrowUp,ArrowRight","","revaluation","1","","","",""
"html-keyboard-response","278","1158378","0.0-4.0-10.0-1.0","spark_pilot_norest","8435","6","7","Male","","","","","","","null","<div style=""font-size:60px;"">+</div>","null","fixation","","","","","","","","","","","",""
"revaluation","279","1158786","0.0-4.0-10.0-0.1","spark_pilot_norest","8435","6","7","Male","","false","","","","","[404.8999999994412]","./assets/img/canyon/animals/giraffe.jpg","[""ArrowLeft""]","second stage test","canyon","0","{""ArrowUp,ArrowLeft"":27,""ArrowUp,ArrowRight"":15,""ArrowDown,ArrowLeft"":21,""ArrowDown,ArrowRight"":7}","true","ArrowUp,ArrowLeft","","revaluation","1","","","",""
"html-keyboard-response","280","1159301","0.0-4.0-10.0-1.1","spark_pilot_norest","8435","6","7","Male","","","","","","","null","<div style=""font-size:60px;"">+</div>","null","fixation","","","","","","","","","","","",""
"revaluation","281","1159464","0.0-4.0-10.0-0.2","spark_pilot_norest","8435","6","7","Male","","false","","","","","[159]","./assets/img/canyon/animals/giraffe.jpg","[""ArrowRight""]","second stage test","canyon","0","{""ArrowUp,ArrowLeft"":27,""ArrowUp,ArrowRight"":15,""ArrowDown,ArrowLeft"":21,""ArrowDown,ArrowRight"":7}","false","ArrowUp,ArrowRight","","revaluation","1","","","",""
"html-keyboard-response","282","1159965","0.0-4.0-10.0-1.2","spark_pilot_norest","8435","6","7","Male","","","","","","","null","<div style=""font-size:60px;"">+</div>","null","fixation","","","","","","","","","","","",""
"revaluation","283","1160018","0.0-4.0-10.0-0.3","spark_pilot_norest","8435","6","7","Male","","false","","","","","[48.299999999813735]","./assets/img/canyon/animals/giraffe.jpg","[""ArrowRight""]","second stage test","canyon","0","{""ArrowUp,ArrowLeft"":27,""ArrowUp,ArrowRight"":15,""ArrowDown,ArrowLeft"":21,""ArrowDown,ArrowRight"":7}","false","ArrowUp,ArrowRight","","revaluation","1","","","",""
"html-keyboard-response","284","1160533","0.0-4.0-10.0-1.3","spark_pilot_norest","8435","6","7","Male","","","","","","","null","<div style=""font-size:60px;"">+</div>","null","fixation","","","","","","","","","","","",""
"revaluation","285","1160657","0.0-4.0-10.0-0.4","spark_pilot_norest","8435","6","7","Male","","false","","","","","[119.6000000005588]","./assets/img/canyon/animals/lion.jpg","[""ArrowRight""]","second stage test","canyon","0","{""ArrowUp,ArrowLeft"":27,""ArrowUp,ArrowRight"":15,""ArrowDown,ArrowLeft"":21,""ArrowDown,ArrowRight"":7}","false","ArrowDown,ArrowRight","","revaluation","1","","","",""
"html-keyboard-response","286","1161159","0.0-4.0-10.0-1.4","spark_pilot_norest","8435","6","7","Male","","","","","","","null","<div style=""font-size:60px;"">+</div>","null","fixation","","","","","","","","","","","",""
"revaluation","287","1161195","0.0-4.0-10.0-0.5","spark_pilot_norest","8435","6","7","Male","","false","","","","","[33.39999999944121]","./assets/img/canyon/animals/lion.jpg","[""ArrowRight""]","second stage test","canyon","0","{""ArrowUp,ArrowLeft"":27,""ArrowUp,ArrowRight"":15,""ArrowDown,ArrowLeft"":21,""ArrowDown,ArrowRight"":7}","false","ArrowDown,ArrowRight","","revaluation","1","","","",""
"html-keyboard-response","288","1161697","0.0-4.0-10.0-1.5","spark_pilot_norest","8435","6","7","Male","","","","","","","null","<div style=""font-size:60px;"">+</div>","null","fixation","","","","","","","","","","","",""
"revaluation","289","1161803","0.0-4.0-10.0-0.6","spark_pilot_norest","8435","6","7","Male","","false","","","","","[102]","./assets/img/canyon/animals/lion.jpg","[""ArrowRight""]","second stage test","canyon","0","{""ArrowUp,ArrowLeft"":27,""ArrowUp,ArrowRight"":15,""ArrowDown,ArrowLeft"":21,""ArrowDown,ArrowRight"":7}","false","ArrowDown,ArrowRight","","revaluation","1","","","",""
"html-keyboard-response","290","1162318","0.0-4.0-10.0-1.6","spark_pilot_norest","8435","6","7","Male","","","","","","","null","<div style=""font-size:60px;"">+</div>","null","fixation","","","","","","","","","","","",""
"revaluation","291","1163504","0.0-4.0-10.0-0.7","spark_pilot_norest","8435","6","7","Male","","false","","","","","[1182.2999999998137]","./assets/img/canyon/animals/lion.jpg","[""ArrowLeft""]","second stage test","canyon","0","{""ArrowUp,ArrowLeft"":27,""ArrowUp,ArrowRight"":15,""ArrowDown,ArrowLeft"":21,""ArrowDown,ArrowRight"":7}","true","ArrowDown,ArrowLeft","","revaluation","1","","","",""
"html-keyboard-response","292","1164015","0.0-4.0-10.0-1.7","spark_pilot_norest","8435","6","7","Male","","","","","","","null","<div style=""font-size:60px;"">+</div>","null","fixation","","","","","","","","","","","",""
"learning-instructions","293","1169902","0.0-4.0-0.1-0.2","spark_pilot_norest","8435","6","7","Male","","","","","","","3184.2999999998137","<p> This time you are searching for treasure in the <b>ocean</b>.</p>","","instructions","","","","","","","","","","","",""
"learning-instructions","294","1195898","0.0-4.0-0.1-0.3","spark_pilot_norest","8435","6","7","Male","","","","","","","8749.799999999814","<p><b>New</b> animals with <b>new</b> treasure chests live here. You need to explore to discover where the animal with the best treasure chest is.</p>
                    <p> Like before, once you figure out which animal has the chest with the most treasure, you should try to get to that animal and select that chest! </p>","","instructions","","","","","","","","","","","",""
"learning-instructions","295","1214326","0.0-4.0-1.1-0.1","spark_pilot_norest","8435","6","7","Male","","","","","","","3697.7999999998137","<p> Remember, when you see a picture of the place, use the up and down keys to <b>find an animal</b>.</p>
            <p> When you encounter an animal, you should use the left and right keys to <b>select a treasure chest</b>.</p>
            <p> Don't forget to look out for the robber! </p>","","instructions","","","","","","","","","","","",""
"revaluation","296","1220340","0.0-4.0-2.1-0.50","spark_pilot_norest","8435","6","7","Male","","false","","","","","[1818.5,822.5999999996275]","./assets/img/ocean/memory/27.jpg","[""ArrowDown"",""ArrowRight""]","value training","ocean","17","{""ArrowUp,ArrowLeft"":26,""ArrowUp,ArrowRight"":10,""ArrowDown,ArrowLeft"":5,""ArrowDown,ArrowRight"":17}","false","ArrowDown,ArrowRight","false","original","2","0","","",""
"html-keyboard-response","297","1220843","0.0-4.0-2.1-1.50","spark_pilot_norest","8435","6","7","Male","","","","","","","null","<div style=""font-size:60px;"">+</div>","null","fixation","","","","","","","","","1","","",""
"revaluation","298","1226882","0.0-4.0-2.1-0.51","spark_pilot_norest","8435","6","7","Male","","false","","","","","[1368.300000000745,920.5]","./assets/img/ocean/memory/1.jpg","[""ArrowUp"",""ArrowLeft""]","value training","ocean","26","{""ArrowUp,ArrowLeft"":26,""ArrowUp,ArrowRight"":10,""ArrowDown,ArrowLeft"":5,""ArrowDown,ArrowRight"":17}","true","ArrowUp,ArrowLeft","false","original","2","2","","",""
"html-keyboard-response","299","1227397","0.0-4.0-2.1-1.51","spark_pilot_norest","8435","6","7","Male","","","","","","","null","<div style=""font-size:60px;"">+</div>","null","fixation","","","","","","","","","3","","",""
"revaluation","300","1233431","0.0-4.0-2.1-0.52","spark_pilot_norest","8435","6","7","Male","","false","","","","","[500.79999999981374,1271.7999999998137]","./assets/img/ocean/memory/2.jpg","[""ArrowDown"",""ArrowRight""]","value training","ocean","17","{""ArrowUp,ArrowLeft"":26,""ArrowUp,ArrowRight"":10,""ArrowDown,ArrowLeft"":5,""ArrowDown,ArrowRight"":17}","false","ArrowDown,ArrowRight","false","original","2","4","","",""
"html-keyboard-response","301","1233945","0.0-4.0-2.1-1.52","spark_pilot_norest","8435","6","7","Male","","","","","","","null","<div style=""font-size:60px;"">+</div>","null","fixation","","","","","","","","","5","","",""
"revaluation","302","1239988","0.0-4.0-2.1-0.53","spark_pilot_norest","8435","6","7","Male","","false","","","","","[1399.4000000003725,1214]","./assets/img/ocean/memory/0.jpg","[""ArrowUp"",""ArrowLeft""]","value training","ocean","26","{""ArrowUp,ArrowLeft"":26,""ArrowUp,ArrowRight"":10,""ArrowDown,ArrowLeft"":5,""ArrowDown,ArrowRight"":17}","true","ArrowUp,ArrowLeft","false","original","2","6","","",""
"html-keyboard-response","303","1240504","0.0-4.0-2.1-1.53","spark_pilot_norest","8435","6","7","Male","","","","","","","null","<div style=""font-size:60px;"">+</div>","null","fixation","","","","","","","","","7","","",""
"revaluation","304","1246511","0.0-4.0-2.1-0.54","spark_pilot_norest","8435","6","7","Male","","false","","","","","[464.20000000018626,1781.2999999998137]","./assets/img/ocean/memory/20.jpg","[""ArrowDown"",""ArrowLeft""]","value training","ocean","5","{""ArrowUp,ArrowLeft"":26,""ArrowUp,ArrowRight"":10,""ArrowDown,ArrowLeft"":5,""ArrowDown,ArrowRight"":17}","false","ArrowDown,ArrowLeft","false","original","2","8","","",""
"html-keyboard-response","305","1247013","0.0-4.0-2.1-1.54","spark_pilot_norest","8435","6","7","Male","","","","","","","null","<div style=""font-size:60px;"">+</div>","null","fixation","","","","","","","","","9","","",""
"revaluation","306","1253021","0.0-4.0-2.1-0.55","spark_pilot_norest","8435","6","7","Male","","false","","","","","[1322.699999999255,638]","./assets/img/ocean/memory/14.jpg","[""ArrowDown"",""ArrowRight""]","value training","ocean","17","{""ArrowUp,ArrowLeft"":26,""ArrowUp,ArrowRight"":10,""ArrowDown,ArrowLeft"":5,""ArrowDown,ArrowRight"":17}","false","ArrowDown,ArrowRight","false","original","2","10","","",""
"html-keyboard-response","307","1253554","0.0-4.0-2.1-1.55","spark_pilot_norest","8435","6","7","Male","","","","","","","null","<div style=""font-size:60px;"">+</div>","null","fixation","","","","","","","","","11","","",""
"revaluation","308","1259564","0.0-4.0-2.1-0.56","spark_pilot_norest","8435","6","7","Male","","false","","","","","[571.3000000007451,645.7999999998137]","./assets/img/ocean/memory/25.jpg","[""ArrowDown"",""ArrowRight""]","value training","ocean","17","{""ArrowUp,ArrowLeft"":26,""ArrowUp,ArrowRight"":10,""ArrowDown,ArrowLeft"":5,""ArrowDown,ArrowRight"":17}","false","ArrowDown,ArrowRight","false","original","2","12","","",""
"html-keyboard-response","309","1260066","0.0-4.0-2.1-1.56","spark_pilot_norest","8435","6","7","Male","","","","","","","null","<div style=""font-size:60px;"">+</div>","null","fixation","","","","","","","","","13","","",""
"revaluation","310","1266072","0.0-4.0-2.1-0.57","spark_pilot_norest","8435","6","7","Male","","false","","","","","[457.20000000018626,965.4000000003725]","./assets/img/ocean/memory/11.jpg","[""ArrowDown"",""ArrowLeft""]","value training","ocean","5","{""ArrowUp,ArrowLeft"":26,""ArrowUp,ArrowRight"":10,""ArrowDown,ArrowLeft"":5,""ArrowDown,ArrowRight"":17}","false","ArrowDown,ArrowLeft","false","original","2","14","","",""
"html-keyboard-response","311","1266574","0.0-4.0-2.1-1.57","spark_pilot_norest","8435","6","7","Male","","","","","","","null","<div style=""font-size:60px;"">+</div>","null","fixation","","","","","","","","","15","","",""
"revaluation","312","1272580","0.0-4.0-2.1-0.58","spark_pilot_norest","8435","6","7","Male","","false","","","","","[534.7999999998137,599.2999999998137]","./assets/img/ocean/memory/20.jpg","[""ArrowDown"",""ArrowRight""]","value training","ocean","17","{""ArrowUp,ArrowLeft"":26,""ArrowUp,ArrowRight"":10,""ArrowDown,ArrowLeft"":5,""ArrowDown,ArrowRight"":17}","false","ArrowDown,ArrowRight","false","original","2","16","","",""
"html-keyboard-response","313","1273081","0.0-4.0-2.1-1.58","spark_pilot_norest","8435","6","7","Male","","","","","","","null","<div style=""font-size:60px;"">+</div>","null","fixation","","","","","","","","","17","","",""
