"trial_type","trial_index","time_elapsed","internal_node_id","task_version","subject_id","assigned_condition","age","gender","success","timeout","failed_images","failed_audio","failed_video","browser_interaction","rt","stimulus","response","task_part","environment","score","rewardMap","correct","fullState","isCatch","condition","order","trial_num","key_press","ground_truth","bonus"
"pavlovia","0","1641","0.0-0.0","spark_pilot_norest","8171","8","10","Female","","","","","","","","","","","","","","","","","","","","","",""
"preload","1","57644","0.0-1.0","spark_pilot_norest","8171","8","10","Female","true","false","[]","[]","[]","","","","","","","","","","","","","","","","",""
"fullscreen","2","68651","0.0-2.0","spark_pilot_norest","8171","8","10","Female","true","","","","","[{""event"":""fullscreenenter"",""trial"":3,""time"":68881}]","","","","","","","","","","","","","","","",""
"audio-button-response","3","72706","0.0-3.0-0.0-0.0","spark_pilot_norest","8171","8","10","Female","","","","","","","1581","./assets/audio/audiotest/turtle.mp3","2","audio_test","","","","","","","","","","","",""
"learning-instructions","4","82477","0.0-3.0-1.0-0.0","spark_pilot_norest","8171","8","10","Female","","","","","","","2732.300000190735","<p> Welcome! Please remember to stay in fullscreen mode and don't click away from the experiment. </p>","","instructions","","","","","","","","","","","",""
"learning-instructions","5","92896","0.0-3.0-1.0-0.1","spark_pilot_norest","8171","8","10","Female","","","","","","","1955.0999999046326","<p> Today you will be playing a game to earn treasure. </p>
            <p> At the end of the experiment, you will earn a bonus based on how much treasure you find. </p>
            <img src='./assets/img/instructions/treasure.jpg' class='instructions-image'>","","instructions","","","","","","","","","","","",""
"learning-instructions","6","102994","0.0-3.0-1.0-0.2","spark_pilot_norest","8171","8","10","Female","","","","","","","1782.5","<p> Animals have hidden treasure in treasure chests. </p>
            <p> You need to first find an animal and then choose which of their treasure chests to search. </p>
            <img src='./assets/img/space/animals/cat.jpg' class='instructions-image'>","","instructions","","","","","","","","","","","",""
"learning-instructions","7","118866","0.0-3.0-1.0-0.3","spark_pilot_norest","8171","8","10","Female","","","","","","","2642.2999999523163","<p> In each round, you will search for treasure in a different place. In the real game, there will be two rounds. </p>
            <p> You will begin with a separate, practice round where you will search for treasure in outer space. </p>
            <img src='./assets/img/space/0.jpg' class='instructions-image'>","","instructions","","","","","","","","","","","",""
"learning-instructions","8","131187","0.0-3.0-1.0-0.4","spark_pilot_norest","8171","8","10","Female","","","","","","","822.3000001907349","<p> On every turn, you will see a picture of the place that you are in, but the specific image may be different each time. </p>
            <p> For example, both of these images mean you are in outer space. </p>
            <img src='./assets/img/instructions/outerspace.jpg' class='instructions-image'>","","instructions","","","","","","","","","","","",""
"learning-instructions","9","140240","0.0-3.0-1.0-0.5","spark_pilot_norest","8171","8","10","Female","","","","","","","1184.7999999523163","<p> You need to decide which direction to travel in. </p>
            <p> You can choose between going <b>up or down</b> by using the arrow keys. </p>
            <img src='./assets/img/instructions/updown.jpg' class='instructions-image'>","","instructions","","","","","","","","","","","",""
"learning-instructions","10","151169","0.0-3.0-1.0-0.6","spark_pilot_norest","8171","8","10","Female","","","","","","","2064.199999809265","<p> You will have <b>2 seconds</b> to make your choice. </p>
            <p> If you do not make a choice within 2 seconds, you will not find an animal or earn treasure. </p>
            <img src='./assets/img/instructions/2seconds.jpg' class='instructions-image'>","","instructions","","","","","","","","","","","",""
"learning-instructions","11","159838","0.0-3.0-1.0-0.7","spark_pilot_norest","8171","8","10","Female","","","","","","","1592.9000000953674","<p> Let’s try practicing that now! </p>
            <p> When you see a picture of the place you are in, press the <b>up</b> key to travel up. </p>
            <img src='./assets/img/instructions/pressUp.jpg' class='instructions-image'>","","instructions","","","","","","","","","","","",""
"revaluation","12","163893","0.0-3.0-2.0-0.0","spark_pilot_norest","8171","8","10","Female","","true","","","","","[]","./assets/img/space/0.jpg","[]","first stage practice","space","-5","null","null","","false","","","","","",""
"html-keyboard-response","13","164402","0.0-3.0-2.0-1.0","spark_pilot_norest","8171","8","10","Female","","","","","","","null","<div style=""font-size:60px;"">+</div>","null","fixation","","","","","","","","","","","",""
"revaluation","14","168442","0.0-3.0-2.0-0.1","spark_pilot_norest","8171","8","10","Female","","false","","","","","[914.5]","./assets/img/space/1.jpg","[""ArrowUp""]","first stage practice","space","0","null","null","ArrowUp","false","","","","","",""
"html-keyboard-response","15","168952","0.0-3.0-2.0-1.1","spark_pilot_norest","8171","8","10","Female","","","","","","","null","<div style=""font-size:60px;"">+</div>","null","fixation","","","","","","","","","","","",""
"revaluation","16","172972","0.0-3.0-2.0-0.2","spark_pilot_norest","8171","8","10","Female","","false","","","","","[1182.2999999523163]","./assets/img/space/2.jpg","[""ArrowUp""]","first stage practice","space","0","null","null","ArrowUp","false","","","","","",""
"html-keyboard-response","17","173482","0.0-3.0-2.0-1.2","spark_pilot_norest","8171","8","10","Female","","","","","","","null","<div style=""font-size:60px;"">+</div>","null","fixation","","","","","","","","","","","",""
"learning-instructions","18","179075","0.0-3.0-3.0-0.0","spark_pilot_norest","8171","8","10","Female","","","","","","","869.6000001430511","<p> Great job! Now try pressing the <b>down</b> key to travel down. </p>
            <img src='./assets/img/instructions/pressDown.jpg' class='instructions-image'>","","instructions","","","","","","","","","","","",""
"revaluation","19","183103","0.0-3.0-4.0-0.0","spark_pilot_norest","8171","8","10","Female","","false","","","","","[629.7000000476837]","./assets/img/space/3.jpg","[""ArrowDown""]","first stage practice","space","0","null","null","ArrowDown","false","","","","","",""
"html-keyboard-response","20","183612","0.0-3.0-4.0-1.0","spark_pilot_norest","8171","8","10","Female","","","","","","","null","<div style=""font-size:60px;"">+</div>","null","fixation","","","","","","","","","","","",""
"revaluation","21","187652","0.0-3.0-4.0-0.1","spark_pilot_norest","8171","8","10","Female","","false","","","","","[386.7999999523163]","./assets/img/space/4.jpg","[""ArrowDown""]","first stage practice","space","0","null","null","ArrowDown","false","","","","","",""
"html-keyboard-response","22","188172","0.0-3.0-4.0-1.1","spark_pilot_norest","8171","8","10","Female","","","","","","","null","<div style=""font-size:60px;"">+</div>","null","fixation","","","","","","","","","","","",""
"revaluation","23","192213","0.0-3.0-4.0-0.2","spark_pilot_norest","8171","8","10","Female","","false","","","","","[586.5]","./assets/img/space/5.jpg","[""ArrowDown""]","first stage practice","space","0","null","null","ArrowDown","false","","","","","",""
"html-keyboard-response","24","192722","0.0-3.0-4.0-1.2","spark_pilot_norest","8171","8","10","Female","","","","","","","null","<div style=""font-size:60px;"">+</div>","null","fixation","","","","","","","","","","","",""
"learning-instructions","25","203971","0.0-3.0-5.0-0.0","spark_pilot_norest","8171","8","10","Female","","","","","","","1344.6000001430511","<p> The animals don’t move, so the animal in the upper part of a place will stay in the upper part of a place, and the animal in the lower part of a place will stay in the lower part of a place. </p>","","instructions","","","","","","","","","","","",""
"learning-instructions","26","214312","0.0-3.0-5.0-0.1","spark_pilot_norest","8171","8","10","Female","","","","","","","1145.7000000476837","<p> Each animal has two treasure chests for you to choose from. </p>
            <p> The amount of treasure in each chest can range from <b> 0 to 40 pieces.</b></p>","","instructions","","","","","","","","","","","",""
"learning-instructions","27","227402","0.0-3.0-5.0-0.2","spark_pilot_norest","8171","8","10","Female","","","","","","","1833.5","<p> You should decide which chest to search for treasure by using the <b>left</b> and <b>right</b> arrow keys. </p>
            <p><b> Pay attention to which animal is on the screen, as the animals have different treasure chests. </b></p>
            <img src='./assets/img/instructions/leftright.jpg' class='instructions-image'>","","instructions","","","","","","","","","","","",""
"learning-instructions","28","236095","0.0-3.0-5.0-0.3","spark_pilot_norest","8171","8","10","Female","","","","","","","2287.4000000953674","<p> Let’s try practicing that now. </p>
            <p> When you see an animal, choose which chest to search for treasure. </p>
            <img src='./assets/img/instructions/chooseChest.jpg' class='instructions-image'>","","instructions","","","","","","","","","","","",""
"revaluation","29","240130","0.0-3.0-6.0-0.0","spark_pilot_norest","8171","8","10","Female","","false","","","","","[962.8999998569489]","./assets/img/space/animals/cat.jpg","[""ArrowRight""]","second stage practice","space","36","{""ArrowUp,ArrowLeft"":3,""ArrowUp,ArrowRight"":36,""ArrowDown,ArrowLeft"":15,""ArrowDown,ArrowRight"":23}","true","ArrowUp,ArrowRight","","","","","","",""
"html-keyboard-response","30","240634","0.0-3.0-6.0-1.0","spark_pilot_norest","8171","8","10","Female","","","","","","","null","<div style=""font-size:60px;"">+</div>","null","fixation","","","","","","","","","","","",""
"revaluation","31","244655","0.0-3.0-6.0-0.1","spark_pilot_norest","8171","8","10","Female","","false","","","","","[480.10000014305115]","./assets/img/space/animals/rabbit.jpg","[""ArrowLeft""]","second stage practice","space","15","{""ArrowUp,ArrowLeft"":3,""ArrowUp,ArrowRight"":36,""ArrowDown,ArrowLeft"":15,""ArrowDown,ArrowRight"":23}","false","ArrowDown,ArrowLeft","","","","","","",""
"html-keyboard-response","32","245174","0.0-3.0-6.0-1.1","spark_pilot_norest","8171","8","10","Female","","","","","","","null","<div style=""font-size:60px;"">+</div>","null","fixation","","","","","","","","","","","",""
"revaluation","33","249205","0.0-3.0-6.0-0.2","spark_pilot_norest","8171","8","10","Female","","false","","","","","[603.0999999046326]","./assets/img/space/animals/cat.jpg","[""ArrowLeft""]","second stage practice","space","3","{""ArrowUp,ArrowLeft"":3,""ArrowUp,ArrowRight"":36,""ArrowDown,ArrowLeft"":15,""ArrowDown,ArrowRight"":23}","false","ArrowUp,ArrowLeft","","","","","","",""
"html-keyboard-response","34","249715","0.0-3.0-6.0-1.2","spark_pilot_norest","8171","8","10","Female","","","","","","","null","<div style=""font-size:60px;"">+</div>","null","fixation","","","","","","","","","","","",""
"revaluation","35","253765","0.0-3.0-6.0-0.3","spark_pilot_norest","8171","8","10","Female","","false","","","","","[927.7000000476837]","./assets/img/space/animals/rabbit.jpg","[""ArrowRight""]","second stage practice","space","23","{""ArrowUp,ArrowLeft"":3,""ArrowUp,ArrowRight"":36,""ArrowDown,ArrowLeft"":15,""ArrowDown,ArrowRight"":23}","true","ArrowDown,ArrowRight","","","","","","",""
"html-keyboard-response","36","254284","0.0-3.0-6.0-1.3","spark_pilot_norest","8171","8","10","Female","","","","","","","null","<div style=""font-size:60px;"">+</div>","null","fixation","","","","","","","","","","","",""
"learning-instructions","37","272949","0.0-3.0-7.0-0.0","spark_pilot_norest","8171","8","10","Female","","","","","","","1770.4000000953674","<p> Great job. Now let’s try putting it together. </p>
            <p> On each turn, you will first see a picture to remind you of the place you are in, and you need to choose whether to go up or down. </p>
            <p> Then you will see an animal and choose which of its chests to search for treasure. </p>","","instructions","","","","","","","","","","","",""
"learning-instructions","38","282342","0.0-3.0-7.0-0.1","spark_pilot_norest","8171","8","10","Female","","","","","","","1083.7000000476837","<p> When you choose whether to go up or down, try to go to the animal with the chest with the most treasure. </p>
            <p> Try practicing that now! </p>","","instructions","","","","","","","","","","","",""
"revaluation","39","288387","0.0-3.0-8.0-0.0","spark_pilot_norest","8171","8","10","Female","","false","","","","","[591.5,460.89999985694885]","./assets/img/space/6.jpg","[""ArrowUp"",""ArrowRight""]","full practice","space","36","{""ArrowUp,ArrowLeft"":3,""ArrowUp,ArrowRight"":36,""ArrowDown,ArrowLeft"":15,""ArrowDown,ArrowRight"":23}","true","ArrowUp,ArrowRight","false","","","","","",""
"html-keyboard-response","40","288896","0.0-3.0-8.0-1.0","spark_pilot_norest","8171","8","10","Female","","","","","","","null","<div style=""font-size:60px;"">+</div>","null","fixation","","","","","","","","","","","",""
"revaluation","41","294928","0.0-3.0-8.0-0.1","spark_pilot_norest","8171","8","10","Female","","false","","","","","[1284.5,621.3999998569489]","./assets/img/space/7.jpg","[""ArrowUp"",""ArrowRight""]","full practice","space","36","{""ArrowUp,ArrowLeft"":3,""ArrowUp,ArrowRight"":36,""ArrowDown,ArrowLeft"":15,""ArrowDown,ArrowRight"":23}","true","ArrowUp,ArrowRight","false","","","","","",""
"html-keyboard-response","42","295446","0.0-3.0-8.0-1.1","spark_pilot_norest","8171","8","10","Female","","","","","","","null","<div style=""font-size:60px;"">+</div>","null","fixation","","","","","","","","","","","",""
"revaluation","43","301477","0.0-3.0-8.0-0.2","spark_pilot_norest","8171","8","10","Female","","false","","","","","[428.40000009536743,369.7999999523163]","./assets/img/space/8.jpg","[""ArrowUp"",""ArrowRight""]","full practice","space","36","{""ArrowUp,ArrowLeft"":3,""ArrowUp,ArrowRight"":36,""ArrowDown,ArrowLeft"":15,""ArrowDown,ArrowRight"":23}","true","ArrowUp,ArrowRight","false","","","","","",""
"html-keyboard-response","44","301997","0.0-3.0-8.0-1.2","spark_pilot_norest","8171","8","10","Female","","","","","","","null","<div style=""font-size:60px;"">+</div>","null","fixation","","","","","","","","","","","",""
"revaluation","45","308067","0.0-3.0-8.0-0.3","spark_pilot_norest","8171","8","10","Female","","false","","","","","[458,471.39999985694885]","./assets/img/space/9.jpg","[""ArrowUp"",""ArrowRight""]","full practice","space","36","{""ArrowUp,ArrowLeft"":3,""ArrowUp,ArrowRight"":36,""ArrowDown,ArrowLeft"":15,""ArrowDown,ArrowRight"":23}","true","ArrowUp,ArrowRight","false","","","","","",""
"html-keyboard-response","46","308586","0.0-3.0-8.0-1.3","spark_pilot_norest","8171","8","10","Female","","","","","","","null","<div style=""font-size:60px;"">+</div>","null","fixation","","","","","","","","","","","",""
"revaluation","47","314609","0.0-3.0-8.0-0.4","spark_pilot_norest","8171","8","10","Female","","false","","","","","[558,587.6999998092651]","./assets/img/space/10.jpg","[""ArrowUp"",""ArrowRight""]","full practice","space","36","{""ArrowUp,ArrowLeft"":3,""ArrowUp,ArrowRight"":36,""ArrowDown,ArrowLeft"":15,""ArrowDown,ArrowRight"":23}","true","ArrowUp,ArrowRight","false","","","","","",""
"html-keyboard-response","48","315111","0.0-3.0-8.0-1.4","spark_pilot_norest","8171","8","10","Female","","","","","","","null","<div style=""font-size:60px;"">+</div>","null","fixation","","","","","","","","","","","",""
"learning-instructions","49","327242","0.0-3.0-9.0-0.0","spark_pilot_norest","8171","8","10","Female","","","","","","","1739.7000000476837","<p> One last thing: sometimes, you will see a robber. The robber can be anywhere in the picture. </p>
            <p> If you do not stop them, you will lose treasure. </p>
            <img src='./assets/img/instructions/robber.jpg' class='instructions-image'>","","instructions","","","","","","","","","","","",""
"learning-instructions","50","334978","0.0-3.0-9.0-0.1","spark_pilot_norest","8171","8","10","Female","","","","","","","525.6999998092651","<p> If you see the robber, you should <b>press the space bar</b> rather than using the arrow keys. </p>
            <p> Try practicing that now! </p>","","instructions","","","","","","","","","","","",""
"revaluation","51","338989","0.0-3.0-10.0-0.0","spark_pilot_norest","8171","8","10","Female","","false","","","","","[893.2999999523163]","./assets/img/space/catch/0.jpg","[""spaceBar""]","catch practice","space","0","{""ArrowUp,ArrowLeft"":3,""ArrowUp,ArrowRight"":36,""ArrowDown,ArrowLeft"":15,""ArrowDown,ArrowRight"":23}","true","spaceBar","true","","","","","",""
"html-keyboard-response","52","339499","0.0-3.0-10.0-1.0","spark_pilot_norest","8171","8","10","Female","","","","","","","null","<div style=""font-size:60px;"">+</div>","null","fixation","","","","","","","","","","","",""
"revaluation","53","343539","0.0-3.0-10.0-0.1","spark_pilot_norest","8171","8","10","Female","","false","","","","","[1106.9000000953674]","./assets/img/space/catch/1.jpg","[""spaceBar""]","catch practice","space","0","{""ArrowUp,ArrowLeft"":3,""ArrowUp,ArrowRight"":36,""ArrowDown,ArrowLeft"":15,""ArrowDown,ArrowRight"":23}","true","spaceBar","true","","","","","",""
"html-keyboard-response","54","344047","0.0-3.0-10.0-1.1","spark_pilot_norest","8171","8","10","Female","","","","","","","null","<div style=""font-size:60px;"">+</div>","null","fixation","","","","","","","","","","","",""
"revaluation","55","348070","0.0-3.0-10.0-0.2","spark_pilot_norest","8171","8","10","Female","","false","","","","","[647]","./assets/img/space/catch/2.jpg","[""spaceBar""]","catch practice","space","0","{""ArrowUp,ArrowLeft"":3,""ArrowUp,ArrowRight"":36,""ArrowDown,ArrowLeft"":15,""ArrowDown,ArrowRight"":23}","true","spaceBar","true","","","","","",""
"html-keyboard-response","56","348589","0.0-3.0-10.0-1.2","spark_pilot_norest","8171","8","10","Female","","","","","","","null","<div style=""font-size:60px;"">+</div>","null","fixation","","","","","","","","","","","",""
"learning-instructions","57","354710","0.0-3.0-11.0-0.0-0.0","spark_pilot_norest","8171","8","10","Female","","","","","","","797.7000000476837","<p> Now, you will practice a shortened version of the game to get a sense of how it all fits together. </p>","","instructions","","","","","","","","","","","",""
"learning-instructions","58","359045","0.0-3.0-11.0-0.0-0.1","spark_pilot_norest","8171","8","10","Female","","","","","","","1122.4000000953674","<p>This time you are searching for treasure in outer space.</p>","","instructions","","","","","","","","","","","",""
"learning-instructions","59","375141","0.0-3.0-11.0-1.0-0.0","spark_pilot_norest","8171","8","10","Female","","","","","","","1247.4000000953674","<p> Remember, when you see a picture of the place, use the up and down keys to <b>find an animal</b>.</p>
            <p> When you encounter an animal, you should use the left and right keys to <b>select a treasure chest</b>.</p>
            <p> Don't forget to look out for the robber! </p>","","instructions","","","","","","","","","","","",""
"revaluation","60","381171","0.0-3.0-11.0-2.0-0.0","spark_pilot_norest","8171","8","10","Female","","false","","","","","[1576.3999998569489,574]","./assets/img/space/11.jpg","[""ArrowUp"",""ArrowRight""]","practice block","space","36","{""ArrowUp,ArrowLeft"":3,""ArrowUp,ArrowRight"":36,""ArrowDown,ArrowLeft"":15,""ArrowDown,ArrowRight"":23}","true","ArrowUp,ArrowRight","false","","","","","",""
"html-keyboard-response","61","381680","0.0-3.0-11.0-2.0-1.0","spark_pilot_norest","8171","8","10","Female","","","","","","","null","<div style=""font-size:60px;"">+</div>","null","fixation","","","","","","","","","","","",""
"revaluation","62","387721","0.0-3.0-11.0-2.0-0.1","spark_pilot_norest","8171","8","10","Female","","false","","","","","[1614.2000000476837,495.7000000476837]","./assets/img/space/12.jpg","[""ArrowUp"",""ArrowRight""]","practice block","space","36","{""ArrowUp,ArrowLeft"":3,""ArrowUp,ArrowRight"":36,""ArrowDown,ArrowLeft"":15,""ArrowDown,ArrowRight"":23}","true","ArrowUp,ArrowRight","false","","","","","",""
"html-keyboard-response","63","388231","0.0-3.0-11.0-2.0-1.1","spark_pilot_norest","8171","8","10","Female","","","","","","","null","<div style=""font-size:60px;"">+</div>","null","fixation","","","","","","","","","","","",""
"revaluation","64","394271","0.0-3.0-11.0-2.0-0.2","spark_pilot_norest","8171","8","10","Female","","false","","","","","[671.7999999523163,1033.5]","./assets/img/space/13.jpg","[""ArrowUp"",""ArrowRight""]","practice block","space","36","{""ArrowUp,ArrowLeft"":3,""ArrowUp,ArrowRight"":36,""ArrowDown,ArrowLeft"":15,""ArrowDown,ArrowRight"":23}","true","ArrowUp,ArrowRight","false","","","","","",""
"html-keyboard-response","65","394785","0.0-3.0-11.0-2.0-1.2","spark_pilot_norest","8171","8","10","Female","","","","","","","null","<div style=""font-size:60px;"">+</div>","null","fixation","","","","","","","","","","","",""
"revaluation","66","400822","0.0-3.0-11.0-2.0-0.3","spark_pilot_norest","8171","8","10","Female","","false","","","","","[598.5,528.4000000953674]","./assets/img/space/14.jpg","[""ArrowUp"",""ArrowRight""]","practice block","space","36","{""ArrowUp,ArrowLeft"":3,""ArrowUp,ArrowRight"":36,""ArrowDown,ArrowLeft"":15,""ArrowDown,ArrowRight"":23}","true","ArrowUp,ArrowRight","false","","","","","",""
"html-keyboard-response","67","401331","0.0-3.0-11.0-2.0-1.3","spark_pilot_norest","8171","8","10","Female","","","","","","","null","<div style=""font-size:60px;"">+</div>","null","fixation","","","","","","","","","","","",""
"revaluation","68","407343","0.0-3.0-11.0-2.0-0.4","spark_pilot_norest","8171","8","10","Female","","false","","","","","[683.8000001907349,424.2999999523163]","./assets/img/space/11.jpg","[""ArrowUp"",""ArrowRight""]","practice block","space","36","{""ArrowUp,ArrowLeft"":3,""ArrowUp,ArrowRight"":36,""ArrowDown,ArrowLeft"":15,""ArrowDown,ArrowRight"":23}","true","ArrowUp,ArrowRight","false","","","","","",""
"html-keyboard-response","69","407845","0.0-3.0-11.0-2.0-1.4","spark_pilot_norest","8171","8","10","Female","","","","","","","null","<div style=""font-size:60px;"">+</div>","null","fixation","","","","","","","","","","","",""
"revaluation","70","413854","0.0-3.0-11.0-2.0-0.5","spark_pilot_norest","8171","8","10","Female","","false","","","","","[843.6000001430511,521.5999999046326]","./assets/img/space/12.jpg","[""ArrowUp"",""ArrowRight""]","practice block","space","36","{""ArrowUp,ArrowLeft"":3,""ArrowUp,ArrowRight"":36,""ArrowDown,ArrowLeft"":15,""ArrowDown,ArrowRight"":23}","true","ArrowUp,ArrowRight","false","","","","","",""
"html-keyboard-response","71","414356","0.0-3.0-11.0-2.0-1.5","spark_pilot_norest","8171","8","10","Female","","","","","","","null","<div style=""font-size:60px;"">+</div>","null","fixation","","","","","","","","","","","",""
"revaluation","72","420365","0.0-3.0-11.0-2.0-0.6","spark_pilot_norest","8171","8","10","Female","","false","","","","","[636.5,482.90000009536743]","./assets/img/space/13.jpg","[""ArrowUp"",""ArrowRight""]","practice block","space","36","{""ArrowUp,ArrowLeft"":3,""ArrowUp,ArrowRight"":36,""ArrowDown,ArrowLeft"":15,""ArrowDown,ArrowRight"":23}","true","ArrowUp,ArrowRight","false","","","","","",""
"html-keyboard-response","73","420867","0.0-3.0-11.0-2.0-1.6","spark_pilot_norest","8171","8","10","Female","","","","","","","null","<div style=""font-size:60px;"">+</div>","null","fixation","","","","","","","","","","","",""
"revaluation","74","426878","0.0-3.0-11.0-2.0-0.7","spark_pilot_norest","8171","8","10","Female","","false","","","","","[997,513.2999999523163]","./assets/img/space/14.jpg","[""ArrowUp"",""ArrowRight""]","practice block","space","36","{""ArrowUp,ArrowLeft"":3,""ArrowUp,ArrowRight"":36,""ArrowDown,ArrowLeft"":15,""ArrowDown,ArrowRight"":23}","true","ArrowUp,ArrowRight","false","","","","","",""
"html-keyboard-response","75","427380","0.0-3.0-11.0-2.0-1.7","spark_pilot_norest","8171","8","10","Female","","","","","","","null","<div style=""font-size:60px;"">+</div>","null","fixation","","","","","","","","","","","",""
"revaluation","76","431388","0.0-3.0-11.0-2.0-0.8","spark_pilot_norest","8171","8","10","Female","","false","","","","","[685.9000000953674]","./assets/img/space/catch/3.jpg","[""spaceBar""]","practice block","space","0","{""ArrowUp,ArrowLeft"":3,""ArrowUp,ArrowRight"":36,""ArrowDown,ArrowLeft"":15,""ArrowDown,ArrowRight"":23}","true","spaceBar","true","","","","","",""
"html-keyboard-response","77","431890","0.0-3.0-11.0-2.0-1.8","spark_pilot_norest","8171","8","10","Female","","","","","","","null","<div style=""font-size:60px;"">+</div>","null","fixation","","","","","","","","","","","",""
"learning-instructions","78","446037","0.0-3.0-11.0-3.0-0.0","spark_pilot_norest","8171","8","10","Female","","","","","","","891.2000000476837","<p> Now, you will travel with a friend who will choose whether you go up or down first. </p>
            <p> On these turns, you will just see the animal that they found. You will still get to choose which chest to search for treasure.</p>","","instructions","","","","","","","","","","","",""
"revaluation","79","450050","0.0-3.0-11.0-4.0-0.0","spark_pilot_norest","8171","8","10","Female","","false","","","","","[1261.5999999046326]","./assets/img/space/animals/cat.jpg","[""ArrowRight""]","practice block","space","36","{""ArrowUp,ArrowLeft"":3,""ArrowUp,ArrowRight"":36,""ArrowDown,ArrowLeft"":15,""ArrowDown,ArrowRight"":23}","true","ArrowUp,ArrowRight","","","","","","",""
"html-keyboard-response","80","450563","0.0-3.0-11.0-4.0-1.0","spark_pilot_norest","8171","8","10","Female","","","","","","","null","<div style=""font-size:60px;"">+</div>","null","fixation","","","","","","","","","","","",""
"revaluation","81","454593","0.0-3.0-11.0-4.0-0.1","spark_pilot_norest","8171","8","10","Female","","false","","","","","[647.4000000953674]","./assets/img/space/animals/rabbit.jpg","[""ArrowRight""]","practice block","space","23","{""ArrowUp,ArrowLeft"":3,""ArrowUp,ArrowRight"":36,""ArrowDown,ArrowLeft"":15,""ArrowDown,ArrowRight"":23}","true","ArrowDown,ArrowRight","","","","","","",""
"html-keyboard-response","82","455112","0.0-3.0-11.0-4.0-1.1","spark_pilot_norest","8171","8","10","Female","","","","","","","null","<div style=""font-size:60px;"">+</div>","null","fixation","","","","","","","","","","","",""
"revaluation","83","459143","0.0-3.0-11.0-4.0-0.2","spark_pilot_norest","8171","8","10","Female","","false","","","","","[606.7000000476837]","./assets/img/space/animals/rabbit.jpg","[""ArrowRight""]","practice block","space","23","{""ArrowUp,ArrowLeft"":3,""ArrowUp,ArrowRight"":36,""ArrowDown,ArrowLeft"":15,""ArrowDown,ArrowRight"":23}","true","ArrowDown,ArrowRight","","","","","","",""
"html-keyboard-response","84","459653","0.0-3.0-11.0-4.0-1.2","spark_pilot_norest","8171","8","10","Female","","","","","","","null","<div style=""font-size:60px;"">+</div>","null","fixation","","","","","","","","","","","",""
"revaluation","85","463684","0.0-3.0-11.0-4.0-0.3","spark_pilot_norest","8171","8","10","Female","","false","","","","","[394.5]","./assets/img/space/animals/cat.jpg","[""ArrowRight""]","practice block","space","36","{""ArrowUp,ArrowLeft"":3,""ArrowUp,ArrowRight"":36,""ArrowDown,ArrowLeft"":15,""ArrowDown,ArrowRight"":23}","true","ArrowUp,ArrowRight","","","","","","",""
"html-keyboard-response","86","464193","0.0-3.0-11.0-4.0-1.3","spark_pilot_norest","8171","8","10","Female","","","","","","","null","<div style=""font-size:60px;"">+</div>","null","fixation","","","","","","","","","","","",""
"learning-instructions","87","472357","0.0-3.0-11.0-5.0-0.0","spark_pilot_norest","8171","8","10","Female","","","","","","","null","<p> You have almost finished this part of the game! </p>
            <p> We are going to ask you to make a few more choices. </p>","","instructions","","","","","","","","","","","",""
"learning-instructions","88","488465","0.0-3.0-11.0-5.0-0.1","spark_pilot_norest","8171","8","10","Female","","","","","","","null","<p> First, you need to decide whether to go up or down. When you see each picture, use the arrow keys to make your choice. </p>
            <p><b>You will not see which animal you found, but try to get to the one that will give you the most treasure.</b></p>","","instructions","","","","","","","","","","","",""
"html-keyboard-response","89","489474","0.0-3.0-11.0-6.0-0.0","spark_pilot_norest","8171","8","10","Female","","","","","","","null","<div style=""font-size:100px;color:red;"">Starting in...</div>","null","","","","","","","","","","","","",""
"html-keyboard-response","90","490494","0.0-3.0-11.0-6.0-1.0","spark_pilot_norest","8171","8","10","Female","","","","","","","null","<div style=""font-size:200px;color:red;"">3</div>","null","","","","","","","","","","","","",""
"html-keyboard-response","91","491504","0.0-3.0-11.0-6.0-2.0","spark_pilot_norest","8171","8","10","Female","","","","","","","null","<div style=""font-size:200px;color:red;"">2</div>","null","","","","","","","","","","","","",""
"html-keyboard-response","92","492515","0.0-3.0-11.0-6.0-3.0","spark_pilot_norest","8171","8","10","Female","","","","","","","null","<div style=""font-size:200px;color:red;"">1</div>","null","","","","","","","","","","","","",""
"revaluation","93","493201","0.0-3.0-11.0-7.0","spark_pilot_norest","8171","8","10","Female","","false","","","","","[679.2999999523163]","./assets/img/space/15.jpg","[""ArrowUp""]","practice block","space","0","{""ArrowUp,ArrowLeft"":3,""ArrowUp,ArrowRight"":36,""ArrowDown,ArrowLeft"":15,""ArrowDown,ArrowRight"":23}","true","ArrowUp","false","","","","","",""
"html-keyboard-response","94","493715","0.0-3.0-11.0-8.0","spark_pilot_norest","8171","8","10","Female","","","","","","","null","<div style=""font-size:60px;"">+</div>","null","fixation","","","","","","","","","","","",""
"learning-instructions","95","507165","0.0-3.0-11.0-9.0-0.0","spark_pilot_norest","8171","8","10","Female","","","","","","","null","<p> Now you will see the animals again and can search their chests for treasure. </p>
            <p> This time, you will not see how much treasure you earned, but you will earn more bonus money for making better choices. </p>","","instructions","","","","","","","","","","","",""
"html-keyboard-response","96","508185","0.0-3.0-11.0-10.0-0.0","spark_pilot_norest","8171","8","10","Female","","","","","","","null","<div style=""font-size:100px;color:red;"">Starting in...</div>","null","","","","","","","","","","","","",""
"html-keyboard-response","97","509195","0.0-3.0-11.0-10.0-1.0","spark_pilot_norest","8171","8","10","Female","","","","","","","null","<div style=""font-size:200px;color:red;"">3</div>","null","","","","","","","","","","","","",""
"html-keyboard-response","98","510205","0.0-3.0-11.0-10.0-2.0","spark_pilot_norest","8171","8","10","Female","","","","","","","null","<div style=""font-size:200px;color:red;"">2</div>","null","","","","","","","","","","","","",""
"html-keyboard-response","99","511215","0.0-3.0-11.0-10.0-3.0","spark_pilot_norest","8171","8","10","Female","","","","","","","null","<div style=""font-size:200px;color:red;"">1</div>","null","","","","","","","","","","","","",""
"revaluation","100","511610","0.0-3.0-11.0-11.0-0.0","spark_pilot_norest","8171","8","10","Female","","false","","","","","[387.2000000476837]","./assets/img/space/animals/cat.jpg","[""ArrowRight""]","practice block","space","0","{""ArrowUp,ArrowLeft"":3,""ArrowUp,ArrowRight"":36,""ArrowDown,ArrowLeft"":15,""ArrowDown,ArrowRight"":23}","true","ArrowUp,ArrowRight","","","","","","",""
"html-keyboard-response","101","512115","0.0-3.0-11.0-11.0-1.0","spark_pilot_norest","8171","8","10","Female","","","","","","","null","<div style=""font-size:60px;"">+</div>","null","fixation","","","","","","","","","","","",""
"revaluation","102","512985","0.0-3.0-11.0-11.0-0.1","spark_pilot_norest","8171","8","10","Female","","false","","","","","[861.2000000476837]","./assets/img/space/animals/rabbit.jpg","[""ArrowRight""]","practice block","space","0","{""ArrowUp,ArrowLeft"":3,""ArrowUp,ArrowRight"":36,""ArrowDown,ArrowLeft"":15,""ArrowDown,ArrowRight"":23}","true","ArrowDown,ArrowRight","","","","","","",""
"html-keyboard-response","103","513506","0.0-3.0-11.0-11.0-1.1","spark_pilot_norest","8171","8","10","Female","","","","","","","null","<div style=""font-size:60px;"">+</div>","null","fixation","","","","","","","","","","","",""
"learning-instructions","104","531852","0.0-3.0-12.0-0.0","spark_pilot_norest","8171","8","10","Female","","","","","","","13743.799999952316","<p> Before you start, we're going to ask you a few questions about how the game works. </p>","","instructions","","","","","","","","","","","",""
"comp-q","105","539975","0.0-3.0-13.0-0.0-0.0","spark_pilot_norest","8171","8","10","Female","","","","","","","2500.699999809265","<p> <b> True or False? </b> </p>
            <p> There can be 50 pieces of treasure in a given animal's chest. </p>","0","comp_question","","","","false","","","","","","","",""
"comp-q","106","547610","0.0-3.0-13.0-0.0-1.0","spark_pilot_norest","8171","8","10","Female","","","","","","","1080.4000000953674","<p> <b>Incorrect.</b> The amount of treasure in each chest can range from 0 to 40 pieces. </p>","0","comp_answer","","","","","","","","","","","",""
"comp-q","107","554369","0.0-3.0-13.0-0.1-0.1","spark_pilot_norest","8171","8","10","Female","","","","","","","1199.3000001907349","<p> <b> True or False? </b> </p>
            <p> There can be 50 pieces of treasure in a given animal's chest. </p>","1","comp_question","","","","true","","","","","","","",""
"comp-q","108","562188","0.0-3.0-13.0-0.1-1.1","spark_pilot_norest","8171","8","10","Female","","","","","","","1128.1000001430511","<p> <b> That's right! </b> The amount of treasure in each chest can range from 0 to 40 pieces. </p>","0","comp_answer","","","","","","","","","","","",""
"comp-q","109","571522","0.0-3.0-13.0-0.2-0.2","spark_pilot_norest","8171","8","10","Female","","","","","","","2181.600000143051","<p> <b> True or False? </b> </p><p> In this game, all animals have the same amount of treasure in their left and right chests. </p>","0","comp_question","","","","false","","","","","","","",""
"comp-q","110","578053","0.0-3.0-13.0-0.2-1.2","spark_pilot_norest","8171","8","10","Female","","","","","","","1402.9000000953674","<p> <b>Incorrect.</b> Animals have different amounts of treasure in their treasure chests. </p>","0","comp_answer","","","","","","","","","","","",""
"comp-q","111","585952","0.0-3.0-13.0-0.3-0.3","spark_pilot_norest","8171","8","10","Female","","","","","","","811.0999999046326","<p> <b> True or False? </b> </p><p> In this game, all animals have the same amount of treasure in their left and right chests. </p>","1","comp_question","","","","true","","","","","","","",""
"comp-q","112","593096","0.0-3.0-13.0-0.3-1.3","spark_pilot_norest","8171","8","10","Female","","","","","","","1885.7999999523163","<p> <b> That's right! </b> Animals have different amounts of treasure in their treasure chests. </p>","0","comp_answer","","","","","","","","","","","",""
"comp-q","113","599786","0.0-3.0-13.0-0.4-0.4","spark_pilot_norest","8171","8","10","Female","","","","","","","815.3999998569489","<p> <b> True or False? </b> </p><p> The same animal will always be there if you go up in the same place. </p>","0","comp_question","","","","true","","","","","","","",""
"comp-q","114","607942","0.0-3.0-13.0-0.4-1.4","spark_pilot_norest","8171","8","10","Female","","","","","","","1680.2999999523163","<p> <b> That's right! </b> One animal lives in the upper part and one lives in the lower part of every place. </p>","0","comp_answer","","","","","","","","","","","",""
"comp-q","115","614467","0.0-3.0-13.0-0.5-0.5","spark_pilot_norest","8171","8","10","Female","","","","","","","975.1000001430511","<p> <b> True or False? </b> </p><p> If you see a different picture, it means you are in a new place. </p>","1","comp_question","","","","true","","","","","","","",""
"comp-q","116","627083","0.0-3.0-13.0-0.5-1.5","spark_pilot_norest","8171","8","10","Female","","","","","","","1320.9000000953674","<p> <b> That's right! </b> Lots of different images may show the same place. For example,  you may see three different images that all remind you that you are in outer space. </p>","0","comp_answer","","","","","","","","","","","",""
"learning-instructions","117","640971","0.0-3.0-14.0-0.0","spark_pilot_norest","8171","8","10","Female","","","","","","","3988.7000000476837","<p> Good job. Remember to do your best because the amount of treasure you earn will be converted into bonus money. </p>
            <p> It’s time to start the real game! </p>","","instructions","","","","","","","","","","","",""
"learning-instructions","118","647079","0.0-4.0-0.0-0.0","spark_pilot_norest","8171","8","10","Female","","","","","","","3306.9000000953674","<p> This time you are searching for treasure in the <b>canyon</b>.</p>","","instructions","","","","","","","","","","","",""
"learning-instructions","119","669993","0.0-4.0-0.0-0.1","spark_pilot_norest","8171","8","10","Female","","","","","","","5530.399999856949","<p><b>New</b> animals with <b>new</b> treasure chests live here. You need to explore to discover where the animal with the best treasure chest is.</p>
                    <p> Like before, once you figure out which animal has the chest with the most treasure, you should try to get to that animal and select that chest! </p>","","instructions","","","","","","","","","","","",""
"learning-instructions","120","686337","0.0-4.0-1.0-0.0","spark_pilot_norest","8171","8","10","Female","","","","","","","1613.7999999523163","<p> Remember, when you see a picture of the place, use the up and down keys to <b>find an animal</b>.</p>
            <p> When you encounter an animal, you should use the left and right keys to <b>select a treasure chest</b>.</p>
            <p> Don't forget to look out for the robber! </p>","","instructions","","","","","","","","","","","",""
"revaluation","121","692382","0.0-4.0-2.0-0.0","spark_pilot_norest","8171","8","10","Female","","false","","","","","[1231.7999999523163,998.4000000953674]","./assets/img/canyon/memory/31.jpg","[""ArrowUp"",""ArrowRight""]","value training","canyon","10","{""ArrowUp,ArrowLeft"":26,""ArrowUp,ArrowRight"":10,""ArrowDown,ArrowLeft"":5,""ArrowDown,ArrowRight"":17}","false","ArrowUp,ArrowRight","false","revaluation","1","0","","",""
"html-keyboard-response","122","692901","0.0-4.0-2.0-1.0","spark_pilot_norest","8171","8","10","Female","","","","","","","null","<div style=""font-size:60px;"">+</div>","null","fixation","","","","","","","","","1","","",""
"revaluation","123","698951","0.0-4.0-2.0-0.1","spark_pilot_norest","8171","8","10","Female","","false","","","","","[466,646.2000000476837]","./assets/img/canyon/memory/2.jpg","[""ArrowDown"",""ArrowLeft""]","value training","canyon","5","{""ArrowUp,ArrowLeft"":26,""ArrowUp,ArrowRight"":10,""ArrowDown,ArrowLeft"":5,""ArrowDown,ArrowRight"":17}","false","ArrowDown,ArrowLeft","false","revaluation","1","2","","",""
"html-keyboard-response","124","699461","0.0-4.0-2.0-1.1","spark_pilot_norest","8171","8","10","Female","","","","","","","null","<div style=""font-size:60px;"">+</div>","null","fixation","","","","","","","","","3","","",""
"revaluation","125","703482","0.0-4.0-2.0-0.2","spark_pilot_norest","8171","8","10","Female","","false","","","","","[459]","./assets/img/canyon/catch/3.jpg","[""ArrowUp""]","value training","canyon","-10","{""ArrowUp,ArrowLeft"":26,""ArrowUp,ArrowRight"":10,""ArrowDown,ArrowLeft"":5,""ArrowDown,ArrowRight"":17}","false","ArrowUp","true","revaluation","1","4","","",""
"html-keyboard-response","126","704001","0.0-4.0-2.0-1.2","spark_pilot_norest","8171","8","10","Female","","","","","","","null","<div style=""font-size:60px;"">+</div>","null","fixation","","","","","","","","","5","","",""
"revaluation","127","710051","0.0-4.0-2.0-0.3","spark_pilot_norest","8171","8","10","Female","","false","","","","","[1247.0999999046326,809]","./assets/img/canyon/memory/9.jpg","[""ArrowUp"",""ArrowRight""]","value training","canyon","10","{""ArrowUp,ArrowLeft"":26,""ArrowUp,ArrowRight"":10,""ArrowDown,ArrowLeft"":5,""ArrowDown,ArrowRight"":17}","false","ArrowUp,ArrowRight","false","revaluation","1","6","","",""
"html-keyboard-response","128","710562","0.0-4.0-2.0-1.3","spark_pilot_norest","8171","8","10","Female","","","","","","","null","<div style=""font-size:60px;"">+</div>","null","fixation","","","","","","","","","7","","",""
"revaluation","129","716594","0.0-4.0-2.0-0.4","spark_pilot_norest","8171","8","10","Female","","false","","","","","[910.0999999046326,465.5]","./assets/img/canyon/memory/36.jpg","[""ArrowUp"",""ArrowLeft""]","value training","canyon","26","{""ArrowUp,ArrowLeft"":26,""ArrowUp,ArrowRight"":10,""ArrowDown,ArrowLeft"":5,""ArrowDown,ArrowRight"":17}","true","ArrowUp,ArrowLeft","false","revaluation","1","8","","",""
"html-keyboard-response","130","717096","0.0-4.0-2.0-1.4","spark_pilot_norest","8171","8","10","Female","","","","","","","null","<div style=""font-size:60px;"">+</div>","null","fixation","","","","","","","","","9","","",""
"revaluation","131","723105","0.0-4.0-2.0-0.5","spark_pilot_norest","8171","8","10","Female","","false","","","","","[353.89999985694885,625.1000001430511]","./assets/img/canyon/memory/24.jpg","[""ArrowDown"",""ArrowLeft""]","value training","canyon","5","{""ArrowUp,ArrowLeft"":26,""ArrowUp,ArrowRight"":10,""ArrowDown,ArrowLeft"":5,""ArrowDown,ArrowRight"":17}","false","ArrowDown,ArrowLeft","false","revaluation","1","10","","",""
"html-keyboard-response","132","723608","0.0-4.0-2.0-1.5","spark_pilot_norest","8171","8","10","Female","","","","","","","null","<div style=""font-size:60px;"">+</div>","null","fixation","","","","","","","","","11","","",""
"revaluation","133","729618","0.0-4.0-2.0-0.6","spark_pilot_norest","8171","8","10","Female","","false","","","","","[882,409.59999990463257]","./assets/img/canyon/memory/1.jpg","[""ArrowDown"",""ArrowRight""]","value training","canyon","17","{""ArrowUp,ArrowLeft"":26,""ArrowUp,ArrowRight"":10,""ArrowDown,ArrowLeft"":5,""ArrowDown,ArrowRight"":17}","false","ArrowDown,ArrowRight","false","revaluation","1","12","","",""
"html-keyboard-response","134","730121","0.0-4.0-2.0-1.6","spark_pilot_norest","8171","8","10","Female","","","","","","","null","<div style=""font-size:60px;"">+</div>","null","fixation","","","","","","","","","13","","",""
"revaluation","135","736130","0.0-4.0-2.0-0.7","spark_pilot_norest","8171","8","10","Female","","false","","","","","[506.09999990463257,536.8000001907349]","./assets/img/canyon/memory/37.jpg","[""ArrowUp"",""ArrowLeft""]","value training","canyon","26","{""ArrowUp,ArrowLeft"":26,""ArrowUp,ArrowRight"":10,""ArrowDown,ArrowLeft"":5,""ArrowDown,ArrowRight"":17}","true","ArrowUp,ArrowLeft","false","revaluation","1","14","","",""
"html-keyboard-response","136","736634","0.0-4.0-2.0-1.7","spark_pilot_norest","8171","8","10","Female","","","","","","","null","<div style=""font-size:60px;"">+</div>","null","fixation","","","","","","","","","15","","",""
"revaluation","137","742645","0.0-4.0-2.0-0.8","spark_pilot_norest","8171","8","10","Female","","false","","","","","[824.2000000476837,966.5]","./assets/img/canyon/memory/35.jpg","[""ArrowUp"",""ArrowLeft""]","value training","canyon","26","{""ArrowUp,ArrowLeft"":26,""ArrowUp,ArrowRight"":10,""ArrowDown,ArrowLeft"":5,""ArrowDown,ArrowRight"":17}","true","ArrowUp,ArrowLeft","false","revaluation","1","16","","",""
"html-keyboard-response","138","743148","0.0-4.0-2.0-1.8","spark_pilot_norest","8171","8","10","Female","","","","","","","null","<div style=""font-size:60px;"">+</div>","null","fixation","","","","","","","","","17","","",""
"revaluation","139","749159","0.0-4.0-2.0-0.9","spark_pilot_norest","8171","8","10","Female","","false","","","","","[588.1000001430511,428.59999990463257]","./assets/img/canyon/memory/17.jpg","[""ArrowUp"",""ArrowLeft""]","value training","canyon","26","{""ArrowUp,ArrowLeft"":26,""ArrowUp,ArrowRight"":10,""ArrowDown,ArrowLeft"":5,""ArrowDown,ArrowRight"":17}","true","ArrowUp,ArrowLeft","false","revaluation","1","18","","",""
"html-keyboard-response","140","749662","0.0-4.0-2.0-1.9","spark_pilot_norest","8171","8","10","Female","","","","","","","null","<div style=""font-size:60px;"">+</div>","null","fixation","","","","","","","","","19","","",""
"revaluation","141","755672","0.0-4.0-2.0-0.10","spark_pilot_norest","8171","8","10","Female","","false","","","","","[1092.4000000953674,715.4000000953674]","./assets/img/canyon/memory/16.jpg","[""ArrowUp"",""ArrowLeft""]","value training","canyon","26","{""ArrowUp,ArrowLeft"":26,""ArrowUp,ArrowRight"":10,""ArrowDown,ArrowLeft"":5,""ArrowDown,ArrowRight"":17}","true","ArrowUp,ArrowLeft","false","revaluation","1","20","","",""
"html-keyboard-response","142","756175","0.0-4.0-2.0-1.10","spark_pilot_norest","8171","8","10","Female","","","","","","","null","<div style=""font-size:60px;"">+</div>","null","fixation","","","","","","","","","21","","",""
"revaluation","143","762184","0.0-4.0-2.0-0.11","spark_pilot_norest","8171","8","10","Female","","false","","","","","[621.1999998092651,515.2999999523163]","./assets/img/canyon/memory/36.jpg","[""ArrowUp"",""ArrowLeft""]","value training","canyon","26","{""ArrowUp,ArrowLeft"":26,""ArrowUp,ArrowRight"":10,""ArrowDown,ArrowLeft"":5,""ArrowDown,ArrowRight"":17}","true","ArrowUp,ArrowLeft","false","revaluation","1","22","","",""
"html-keyboard-response","144","762687","0.0-4.0-2.0-1.11","spark_pilot_norest","8171","8","10","Female","","","","","","","null","<div style=""font-size:60px;"">+</div>","null","fixation","","","","","","","","","23","","",""
"revaluation","145","768701","0.0-4.0-2.0-0.12","spark_pilot_norest","8171","8","10","Female","","false","","","","","[691.6000001430511,414.7999999523163]","./assets/img/canyon/memory/21.jpg","[""ArrowUp"",""ArrowLeft""]","value training","canyon","26","{""ArrowUp,ArrowLeft"":26,""ArrowUp,ArrowRight"":10,""ArrowDown,ArrowLeft"":5,""ArrowDown,ArrowRight"":17}","true","ArrowUp,ArrowLeft","false","revaluation","1","24","","",""
"html-keyboard-response","146","769204","0.0-4.0-2.0-1.12","spark_pilot_norest","8171","8","10","Female","","","","","","","null","<div style=""font-size:60px;"">+</div>","null","fixation","","","","","","","","","25","","",""
"revaluation","147","773215","0.0-4.0-2.0-0.13","spark_pilot_norest","8171","8","10","Female","","false","","","","","[639.1999998092651]","./assets/img/canyon/catch/6.jpg","[""spaceBar""]","value training","canyon","0","{""ArrowUp,ArrowLeft"":26,""ArrowUp,ArrowRight"":10,""ArrowDown,ArrowLeft"":5,""ArrowDown,ArrowRight"":17}","true","spaceBar","true","revaluation","1","26","","",""
"html-keyboard-response","148","773717","0.0-4.0-2.0-1.13","spark_pilot_norest","8171","8","10","Female","","","","","","","null","<div style=""font-size:60px;"">+</div>","null","fixation","","","","","","","","","27","","",""
"revaluation","149","779727","0.0-4.0-2.0-0.14","spark_pilot_norest","8171","8","10","Female","","false","","","","","[791.2999999523163,381.7000000476837]","./assets/img/canyon/memory/30.jpg","[""ArrowUp"",""ArrowLeft""]","value training","canyon","26","{""ArrowUp,ArrowLeft"":26,""ArrowUp,ArrowRight"":10,""ArrowDown,ArrowLeft"":5,""ArrowDown,ArrowRight"":17}","true","ArrowUp,ArrowLeft","false","revaluation","1","28","","",""
"html-keyboard-response","150","780230","0.0-4.0-2.0-1.14","spark_pilot_norest","8171","8","10","Female","","","","","","","null","<div style=""font-size:60px;"">+</div>","null","fixation","","","","","","","","","29","","",""
"revaluation","151","786241","0.0-4.0-2.0-0.15","spark_pilot_norest","8171","8","10","Female","","false","","","","","[741.5,524.5]","./assets/img/canyon/memory/3.jpg","[""ArrowUp"",""ArrowLeft""]","value training","canyon","26","{""ArrowUp,ArrowLeft"":26,""ArrowUp,ArrowRight"":10,""ArrowDown,ArrowLeft"":5,""ArrowDown,ArrowRight"":17}","true","ArrowUp,ArrowLeft","false","revaluation","1","30","","",""
"html-keyboard-response","152","786743","0.0-4.0-2.0-1.15","spark_pilot_norest","8171","8","10","Female","","","","","","","null","<div style=""font-size:60px;"">+</div>","null","fixation","","","","","","","","","31","","",""
"revaluation","153","792750","0.0-4.0-2.0-0.16","spark_pilot_norest","8171","8","10","Female","","false","","","","","[592,485.7999999523163]","./assets/img/canyon/memory/27.jpg","[""ArrowUp"",""ArrowLeft""]","value training","canyon","26","{""ArrowUp,ArrowLeft"":26,""ArrowUp,ArrowRight"":10,""ArrowDown,ArrowLeft"":5,""ArrowDown,ArrowRight"":17}","true","ArrowUp,ArrowLeft","false","revaluation","1","32","","",""
"html-keyboard-response","154","793252","0.0-4.0-2.0-1.16","spark_pilot_norest","8171","8","10","Female","","","","","","","null","<div style=""font-size:60px;"">+</div>","null","fixation","","","","","","","","","33","","",""
"revaluation","155","799263","0.0-4.0-2.0-0.17","spark_pilot_norest","8171","8","10","Female","","false","","","","","[928,525.5]","./assets/img/canyon/memory/2.jpg","[""ArrowUp"",""ArrowLeft""]","value training","canyon","26","{""ArrowUp,ArrowLeft"":26,""ArrowUp,ArrowRight"":10,""ArrowDown,ArrowLeft"":5,""ArrowDown,ArrowRight"":17}","true","ArrowUp,ArrowLeft","false","revaluation","1","34","","",""
"html-keyboard-response","156","799765","0.0-4.0-2.0-1.17","spark_pilot_norest","8171","8","10","Female","","","","","","","null","<div style=""font-size:60px;"">+</div>","null","fixation","","","","","","","","","35","","",""
"revaluation","157","805776","0.0-4.0-2.0-0.18","spark_pilot_norest","8171","8","10","Female","","false","","","","","[622.2000000476837,581.2999999523163]","./assets/img/canyon/memory/39.jpg","[""ArrowUp"",""ArrowLeft""]","value training","canyon","26","{""ArrowUp,ArrowLeft"":26,""ArrowUp,ArrowRight"":10,""ArrowDown,ArrowLeft"":5,""ArrowDown,ArrowRight"":17}","true","ArrowUp,ArrowLeft","false","revaluation","1","36","","",""
"html-keyboard-response","158","806279","0.0-4.0-2.0-1.18","spark_pilot_norest","8171","8","10","Female","","","","","","","null","<div style=""font-size:60px;"">+</div>","null","fixation","","","","","","","","","37","","",""
"revaluation","159","812286","0.0-4.0-2.0-0.19","spark_pilot_norest","8171","8","10","Female","","false","","","","","[584.5,535.6000001430511]","./assets/img/canyon/memory/15.jpg","[""ArrowUp"",""ArrowLeft""]","value training","canyon","26","{""ArrowUp,ArrowLeft"":26,""ArrowUp,ArrowRight"":10,""ArrowDown,ArrowLeft"":5,""ArrowDown,ArrowRight"":17}","true","ArrowUp,ArrowLeft","false","revaluation","1","38","","",""
"html-keyboard-response","160","812788","0.0-4.0-2.0-1.19","spark_pilot_norest","8171","8","10","Female","","","","","","","null","<div style=""font-size:60px;"">+</div>","null","fixation","","","","","","","","","39","","",""
"revaluation","161","816797","0.0-4.0-2.0-0.20","spark_pilot_norest","8171","8","10","Female","","false","","","","","[808.5]","./assets/img/canyon/catch/2.jpg","[""spaceBar""]","value training","canyon","0","{""ArrowUp,ArrowLeft"":26,""ArrowUp,ArrowRight"":10,""ArrowDown,ArrowLeft"":5,""ArrowDown,ArrowRight"":17}","true","spaceBar","true","revaluation","1","40","","",""
"html-keyboard-response","162","817299","0.0-4.0-2.0-1.20","spark_pilot_norest","8171","8","10","Female","","","","","","","null","<div style=""font-size:60px;"">+</div>","null","fixation","","","","","","","","","41","","",""
"revaluation","163","823310","0.0-4.0-2.0-0.21","spark_pilot_norest","8171","8","10","Female","","false","","","","","[425.09999990463257,319.89999985694885]","./assets/img/canyon/memory/30.jpg","[""ArrowUp"",""ArrowLeft""]","value training","canyon","26","{""ArrowUp,ArrowLeft"":26,""ArrowUp,ArrowRight"":10,""ArrowDown,ArrowLeft"":5,""ArrowDown,ArrowRight"":17}","true","ArrowUp,ArrowLeft","false","revaluation","1","42","","",""
"html-keyboard-response","164","823813","0.0-4.0-2.0-1.21","spark_pilot_norest","8171","8","10","Female","","","","","","","null","<div style=""font-size:60px;"">+</div>","null","fixation","","","","","","","","","43","","",""
"revaluation","165","829823","0.0-4.0-2.0-0.22","spark_pilot_norest","8171","8","10","Female","","false","","","","","[585.7000000476837,438.80000019073486]","./assets/img/canyon/memory/9.jpg","[""ArrowUp"",""ArrowLeft""]","value training","canyon","26","{""ArrowUp,ArrowLeft"":26,""ArrowUp,ArrowRight"":10,""ArrowDown,ArrowLeft"":5,""ArrowDown,ArrowRight"":17}","true","ArrowUp,ArrowLeft","false","revaluation","1","44","","",""
"html-keyboard-response","166","830332","0.0-4.0-2.0-1.22","spark_pilot_norest","8171","8","10","Female","","","","","","","null","<div style=""font-size:60px;"">+</div>","null","fixation","","","","","","","","","45","","",""
"revaluation","167","834340","0.0-4.0-2.0-0.23","spark_pilot_norest","8171","8","10","Female","","false","","","","","[801.4000000953674]","./assets/img/canyon/catch/1.jpg","[""spaceBar""]","value training","canyon","0","{""ArrowUp,ArrowLeft"":26,""ArrowUp,ArrowRight"":10,""ArrowDown,ArrowLeft"":5,""ArrowDown,ArrowRight"":17}","true","spaceBar","true","revaluation","1","46","","",""
"html-keyboard-response","168","834843","0.0-4.0-2.0-1.23","spark_pilot_norest","8171","8","10","Female","","","","","","","null","<div style=""font-size:60px;"">+</div>","null","fixation","","","","","","","","","47","","",""
"revaluation","169","840855","0.0-4.0-2.0-0.24","spark_pilot_norest","8171","8","10","Female","","false","","","","","[754.2000000476837,352.39999985694885]","./assets/img/canyon/memory/0.jpg","[""ArrowUp"",""ArrowLeft""]","value training","canyon","26","{""ArrowUp,ArrowLeft"":26,""ArrowUp,ArrowRight"":10,""ArrowDown,ArrowLeft"":5,""ArrowDown,ArrowRight"":17}","true","ArrowUp,ArrowLeft","false","revaluation","1","48","","",""
"html-keyboard-response","170","841357","0.0-4.0-2.0-1.24","spark_pilot_norest","8171","8","10","Female","","","","","","","null","<div style=""font-size:60px;"">+</div>","null","fixation","","","","","","","","","49","","",""
"revaluation","171","847365","0.0-4.0-2.0-0.25","spark_pilot_norest","8171","8","10","Female","","false","","","","","[737.0999999046326,663.1000001430511]","./assets/img/canyon/memory/24.jpg","[""ArrowUp"",""ArrowLeft""]","value training","canyon","26","{""ArrowUp,ArrowLeft"":26,""ArrowUp,ArrowRight"":10,""ArrowDown,ArrowLeft"":5,""ArrowDown,ArrowRight"":17}","true","ArrowUp,ArrowLeft","false","revaluation","1","50","","",""
"html-keyboard-response","172","847868","0.0-4.0-2.0-1.25","spark_pilot_norest","8171","8","10","Female","","","","","","","null","<div style=""font-size:60px;"">+</div>","null","fixation","","","","","","","","","51","","",""
"revaluation","173","853882","0.0-4.0-2.0-0.26","spark_pilot_norest","8171","8","10","Female","","false","","","","","[498.7000000476837,496.60000014305115]","./assets/img/canyon/memory/3.jpg","[""ArrowUp"",""ArrowLeft""]","value training","canyon","26","{""ArrowUp,ArrowLeft"":26,""ArrowUp,ArrowRight"":10,""ArrowDown,ArrowLeft"":5,""ArrowDown,ArrowRight"":17}","true","ArrowUp,ArrowLeft","false","revaluation","1","52","","",""
"html-keyboard-response","174","854384","0.0-4.0-2.0-1.26","spark_pilot_norest","8171","8","10","Female","","","","","","","null","<div style=""font-size:60px;"">+</div>","null","fixation","","","","","","","","","53","","",""
"revaluation","175","860394","0.0-4.0-2.0-0.27","spark_pilot_norest","8171","8","10","Female","","false","","","","","[822.4000000953674,526.1999998092651]","./assets/img/canyon/memory/39.jpg","[""ArrowUp"",""ArrowLeft""]","value training","canyon","26","{""ArrowUp,ArrowLeft"":26,""ArrowUp,ArrowRight"":10,""ArrowDown,ArrowLeft"":5,""ArrowDown,ArrowRight"":17}","true","ArrowUp,ArrowLeft","false","revaluation","1","54","","",""
"html-keyboard-response","176","860908","0.0-4.0-2.0-1.27","spark_pilot_norest","8171","8","10","Female","","","","","","","null","<div style=""font-size:60px;"">+</div>","null","fixation","","","","","","","","","55","","",""
"revaluation","177","866917","0.0-4.0-2.0-0.28","spark_pilot_norest","8171","8","10","Female","","false","","","","","[730.5999999046326,562.5999999046326]","./assets/img/canyon/memory/40.jpg","[""ArrowUp"",""ArrowLeft""]","value training","canyon","26","{""ArrowUp,ArrowLeft"":26,""ArrowUp,ArrowRight"":10,""ArrowDown,ArrowLeft"":5,""ArrowDown,ArrowRight"":17}","true","ArrowUp,ArrowLeft","false","revaluation","1","56","","",""
"html-keyboard-response","178","867419","0.0-4.0-2.0-1.28","spark_pilot_norest","8171","8","10","Female","","","","","","","null","<div style=""font-size:60px;"">+</div>","null","fixation","","","","","","","","","57","","",""
"revaluation","179","873429","0.0-4.0-2.0-0.29","spark_pilot_norest","8171","8","10","Female","","false","","","","","[715.1000001430511,226.29999995231628]","./assets/img/canyon/memory/31.jpg","[""ArrowUp"",""ArrowLeft""]","value training","canyon","26","{""ArrowUp,ArrowLeft"":26,""ArrowUp,ArrowRight"":10,""ArrowDown,ArrowLeft"":5,""ArrowDown,ArrowRight"":17}","true","ArrowUp,ArrowLeft","false","revaluation","1","58","","",""
"html-keyboard-response","180","873931","0.0-4.0-2.0-1.29","spark_pilot_norest","8171","8","10","Female","","","","","","","null","<div style=""font-size:60px;"">+</div>","null","fixation","","","","","","","","","59","","",""
"revaluation","181","877940","0.0-4.0-2.0-0.30","spark_pilot_norest","8171","8","10","Female","","false","","","","","[572.5999999046326]","./assets/img/canyon/catch/5.jpg","[""spaceBar""]","value training","canyon","0","{""ArrowUp,ArrowLeft"":26,""ArrowUp,ArrowRight"":10,""ArrowDown,ArrowLeft"":5,""ArrowDown,ArrowRight"":17}","true","spaceBar","true","revaluation","1","60","","",""
"html-keyboard-response","182","878443","0.0-4.0-2.0-1.30","spark_pilot_norest","8171","8","10","Female","","","","","","","null","<div style=""font-size:60px;"">+</div>","null","fixation","","","","","","","","","61","","",""
"revaluation","183","884457","0.0-4.0-2.0-0.31","spark_pilot_norest","8171","8","10","Female","","false","","","","","[852.5999999046326,452.60000014305115]","./assets/img/canyon/memory/26.jpg","[""ArrowUp"",""ArrowLeft""]","value training","canyon","26","{""ArrowUp,ArrowLeft"":26,""ArrowUp,ArrowRight"":10,""ArrowDown,ArrowLeft"":5,""ArrowDown,ArrowRight"":17}","true","ArrowUp,ArrowLeft","false","revaluation","1","62","","",""
"html-keyboard-response","184","884959","0.0-4.0-2.0-1.31","spark_pilot_norest","8171","8","10","Female","","","","","","","null","<div style=""font-size:60px;"">+</div>","null","fixation","","","","","","","","","63","","",""
"revaluation","185","890974","0.0-4.0-2.0-0.32","spark_pilot_norest","8171","8","10","Female","","false","","","","","[711.9000000953674,422.89999985694885]","./assets/img/canyon/memory/0.jpg","[""ArrowUp"",""ArrowLeft""]","value training","canyon","26","{""ArrowUp,ArrowLeft"":26,""ArrowUp,ArrowRight"":10,""ArrowDown,ArrowLeft"":5,""ArrowDown,ArrowRight"":17}","true","ArrowUp,ArrowLeft","false","revaluation","1","64","","",""
"html-keyboard-response","186","891477","0.0-4.0-2.0-1.32","spark_pilot_norest","8171","8","10","Female","","","","","","","null","<div style=""font-size:60px;"">+</div>","null","fixation","","","","","","","","","65","","",""
"revaluation","187","897486","0.0-4.0-2.0-0.33","spark_pilot_norest","8171","8","10","Female","","false","","","","","[523.2999999523163,354]","./assets/img/canyon/memory/35.jpg","[""ArrowUp"",""ArrowLeft""]","value training","canyon","26","{""ArrowUp,ArrowLeft"":26,""ArrowUp,ArrowRight"":10,""ArrowDown,ArrowLeft"":5,""ArrowDown,ArrowRight"":17}","true","ArrowUp,ArrowLeft","false","revaluation","1","66","","",""
"html-keyboard-response","188","897989","0.0-4.0-2.0-1.33","spark_pilot_norest","8171","8","10","Female","","","","","","","null","<div style=""font-size:60px;"">+</div>","null","fixation","","","","","","","","","67","","",""
"revaluation","189","903999","0.0-4.0-2.0-0.34","spark_pilot_norest","8171","8","10","Female","","false","","","","","[804.1000001430511,578.1000001430511]","./assets/img/canyon/memory/40.jpg","[""ArrowUp"",""ArrowLeft""]","value training","canyon","26","{""ArrowUp,ArrowLeft"":26,""ArrowUp,ArrowRight"":10,""ArrowDown,ArrowLeft"":5,""ArrowDown,ArrowRight"":17}","true","ArrowUp,ArrowLeft","false","revaluation","1","68","","",""
"html-keyboard-response","190","904502","0.0-4.0-2.0-1.34","spark_pilot_norest","8171","8","10","Female","","","","","","","null","<div style=""font-size:60px;"">+</div>","null","fixation","","","","","","","","","69","","",""
"revaluation","191","910526","0.0-4.0-2.0-0.35","spark_pilot_norest","8171","8","10","Female","","false","","","","","[1505,658.2000000476837]","./assets/img/canyon/memory/20.jpg","[""ArrowUp"",""ArrowLeft""]","value training","canyon","26","{""ArrowUp,ArrowLeft"":26,""ArrowUp,ArrowRight"":10,""ArrowDown,ArrowLeft"":5,""ArrowDown,ArrowRight"":17}","true","ArrowUp,ArrowLeft","false","revaluation","1","70","","",""
"html-keyboard-response","192","911029","0.0-4.0-2.0-1.35","spark_pilot_norest","8171","8","10","Female","","","","","","","null","<div style=""font-size:60px;"">+</div>","null","fixation","","","","","","","","","71","","",""
"revaluation","193","915038","0.0-4.0-2.0-0.36","spark_pilot_norest","8171","8","10","Female","","false","","","","","[549]","./assets/img/canyon/catch/0.jpg","[""spaceBar""]","value training","canyon","0","{""ArrowUp,ArrowLeft"":26,""ArrowUp,ArrowRight"":10,""ArrowDown,ArrowLeft"":5,""ArrowDown,ArrowRight"":17}","true","spaceBar","true","revaluation","1","72","","",""
"html-keyboard-response","194","915541","0.0-4.0-2.0-1.36","spark_pilot_norest","8171","8","10","Female","","","","","","","null","<div style=""font-size:60px;"">+</div>","null","fixation","","","","","","","","","73","","",""
"revaluation","195","921550","0.0-4.0-2.0-0.37","spark_pilot_norest","8171","8","10","Female","","false","","","","","[795.7999999523163,466.2999999523163]","./assets/img/canyon/memory/20.jpg","[""ArrowUp"",""ArrowLeft""]","value training","canyon","26","{""ArrowUp,ArrowLeft"":26,""ArrowUp,ArrowRight"":10,""ArrowDown,ArrowLeft"":5,""ArrowDown,ArrowRight"":17}","true","ArrowUp,ArrowLeft","false","revaluation","1","74","","",""
"html-keyboard-response","196","922052","0.0-4.0-2.0-1.37","spark_pilot_norest","8171","8","10","Female","","","","","","","null","<div style=""font-size:60px;"">+</div>","null","fixation","","","","","","","","","75","","",""
"revaluation","197","928069","0.0-4.0-2.0-0.38","spark_pilot_norest","8171","8","10","Female","","false","","","","","[653.5,445.39999985694885]","./assets/img/canyon/memory/16.jpg","[""ArrowUp"",""ArrowLeft""]","value training","canyon","26","{""ArrowUp,ArrowLeft"":26,""ArrowUp,ArrowRight"":10,""ArrowDown,ArrowLeft"":5,""ArrowDown,ArrowRight"":17}","true","ArrowUp,ArrowLeft","false","revaluation","1","76","","",""
"html-keyboard-response","198","928572","0.0-4.0-2.0-1.38","spark_pilot_norest","8171","8","10","Female","","","","","","","null","<div style=""font-size:60px;"">+</div>","null","fixation","","","","","","","","","77","","",""
"revaluation","199","934582","0.0-4.0-2.0-0.39","spark_pilot_norest","8171","8","10","Female","","false","","","","","[492.59999990463257,643.2999999523163]","./assets/img/canyon/memory/22.jpg","[""ArrowUp"",""ArrowLeft""]","value training","canyon","26","{""ArrowUp,ArrowLeft"":26,""ArrowUp,ArrowRight"":10,""ArrowDown,ArrowLeft"":5,""ArrowDown,ArrowRight"":17}","true","ArrowUp,ArrowLeft","false","revaluation","1","78","","",""
"html-keyboard-response","200","935098","0.0-4.0-2.0-1.39","spark_pilot_norest","8171","8","10","Female","","","","","","","null","<div style=""font-size:60px;"">+</div>","null","fixation","","","","","","","","","79","","",""
"revaluation","201","941109","0.0-4.0-2.0-0.40","spark_pilot_norest","8171","8","10","Female","","false","","","","","[685.2000000476837,627.8000001907349]","./assets/img/canyon/memory/22.jpg","[""ArrowUp"",""ArrowLeft""]","value training","canyon","26","{""ArrowUp,ArrowLeft"":26,""ArrowUp,ArrowRight"":10,""ArrowDown,ArrowLeft"":5,""ArrowDown,ArrowRight"":17}","true","ArrowUp,ArrowLeft","false","revaluation","1","80","","",""
"html-keyboard-response","202","941610","0.0-4.0-2.0-1.40","spark_pilot_norest","8171","8","10","Female","","","","","","","null","<div style=""font-size:60px;"">+</div>","null","fixation","","","","","","","","","81","","",""
"revaluation","203","947621","0.0-4.0-2.0-0.41","spark_pilot_norest","8171","8","10","Female","","false","","","","","[740.6000001430511,515]","./assets/img/canyon/memory/27.jpg","[""ArrowUp"",""ArrowLeft""]","value training","canyon","26","{""ArrowUp,ArrowLeft"":26,""ArrowUp,ArrowRight"":10,""ArrowDown,ArrowLeft"":5,""ArrowDown,ArrowRight"":17}","true","ArrowUp,ArrowLeft","false","revaluation","1","82","","",""
"html-keyboard-response","204","948123","0.0-4.0-2.0-1.41","spark_pilot_norest","8171","8","10","Female","","","","","","","null","<div style=""font-size:60px;"">+</div>","null","fixation","","","","","","","","","83","","",""
"revaluation","205","954133","0.0-4.0-2.0-0.42","spark_pilot_norest","8171","8","10","Female","","false","","","","","[1053.7000000476837,660.3999998569489]","./assets/img/canyon/memory/26.jpg","[""ArrowUp"",""ArrowLeft""]","value training","canyon","26","{""ArrowUp,ArrowLeft"":26,""ArrowUp,ArrowRight"":10,""ArrowDown,ArrowLeft"":5,""ArrowDown,ArrowRight"":17}","true","ArrowUp,ArrowLeft","false","revaluation","1","84","","",""
"html-keyboard-response","206","954638","0.0-4.0-2.0-1.42","spark_pilot_norest","8171","8","10","Female","","","","","","","null","<div style=""font-size:60px;"">+</div>","null","fixation","","","","","","","","","85","","",""
"revaluation","207","958647","0.0-4.0-2.0-0.43","spark_pilot_norest","8171","8","10","Female","","false","","","","","[664.3999998569489]","./assets/img/canyon/catch/4.jpg","[""spaceBar""]","value training","canyon","0","{""ArrowUp,ArrowLeft"":26,""ArrowUp,ArrowRight"":10,""ArrowDown,ArrowLeft"":5,""ArrowDown,ArrowRight"":17}","true","spaceBar","true","revaluation","1","86","","",""
"html-keyboard-response","208","959150","0.0-4.0-2.0-1.43","spark_pilot_norest","8171","8","10","Female","","","","","","","null","<div style=""font-size:60px;"">+</div>","null","fixation","","","","","","","","","87","","",""
"revaluation","209","965160","0.0-4.0-2.0-0.44","spark_pilot_norest","8171","8","10","Female","","false","","","","","[428.7000000476837,386.5]","./assets/img/canyon/memory/1.jpg","[""ArrowUp"",""ArrowLeft""]","value training","canyon","26","{""ArrowUp,ArrowLeft"":26,""ArrowUp,ArrowRight"":10,""ArrowDown,ArrowLeft"":5,""ArrowDown,ArrowRight"":17}","true","ArrowUp,ArrowLeft","false","revaluation","1","88","","",""
"html-keyboard-response","210","965662","0.0-4.0-2.0-1.44","spark_pilot_norest","8171","8","10","Female","","","","","","","null","<div style=""font-size:60px;"">+</div>","null","fixation","","","","","","","","","89","","",""
"revaluation","211","971671","0.0-4.0-2.0-0.45","spark_pilot_norest","8171","8","10","Female","","false","","","","","[506.2000000476837,362.10000014305115]","./assets/img/canyon/memory/37.jpg","[""ArrowUp"",""ArrowLeft""]","value training","canyon","26","{""ArrowUp,ArrowLeft"":26,""ArrowUp,ArrowRight"":10,""ArrowDown,ArrowLeft"":5,""ArrowDown,ArrowRight"":17}","true","ArrowUp,ArrowLeft","false","revaluation","1","90","","",""
"html-keyboard-response","212","972173","0.0-4.0-2.0-1.45","spark_pilot_norest","8171","8","10","Female","","","","","","","null","<div style=""font-size:60px;"">+</div>","null","fixation","","","","","","","","","91","","",""
"revaluation","213","978183","0.0-4.0-2.0-0.46","spark_pilot_norest","8171","8","10","Female","","false","","","","","[613.0999999046326,3.799999952316284]","./assets/img/canyon/memory/15.jpg","[""ArrowUp"",""ArrowLeft""]","value training","canyon","26","{""ArrowUp,ArrowLeft"":26,""ArrowUp,ArrowRight"":10,""ArrowDown,ArrowLeft"":5,""ArrowDown,ArrowRight"":17}","true","ArrowUp,ArrowLeft","false","revaluation","1","92","","",""
"html-keyboard-response","214","978686","0.0-4.0-2.0-1.46","spark_pilot_norest","8171","8","10","Female","","","","","","","null","<div style=""font-size:60px;"">+</div>","null","fixation","","","","","","","","","93","","",""
"revaluation","215","984698","0.0-4.0-2.0-0.47","spark_pilot_norest","8171","8","10","Female","","false","","","","","[370.2999999523163,617.7000000476837]","./assets/img/canyon/memory/17.jpg","[""ArrowUp"",""ArrowLeft""]","value training","canyon","26","{""ArrowUp,ArrowLeft"":26,""ArrowUp,ArrowRight"":10,""ArrowDown,ArrowLeft"":5,""ArrowDown,ArrowRight"":17}","true","ArrowUp,ArrowLeft","false","revaluation","1","94","","",""
"html-keyboard-response","216","985201","0.0-4.0-2.0-1.47","spark_pilot_norest","8171","8","10","Female","","","","","","","null","<div style=""font-size:60px;"">+</div>","null","fixation","","","","","","","","","95","","",""
"revaluation","217","989210","0.0-4.0-2.0-0.48","spark_pilot_norest","8171","8","10","Female","","false","","","","","[666.2999999523163]","./assets/img/canyon/catch/7.jpg","[""spaceBar""]","value training","canyon","0","{""ArrowUp,ArrowLeft"":26,""ArrowUp,ArrowRight"":10,""ArrowDown,ArrowLeft"":5,""ArrowDown,ArrowRight"":17}","true","spaceBar","true","revaluation","1","96","","",""
"html-keyboard-response","218","989713","0.0-4.0-2.0-1.48","spark_pilot_norest","8171","8","10","Female","","","","","","","null","<div style=""font-size:60px;"">+</div>","null","fixation","","","","","","","","","97","","",""
"revaluation","219","995724","0.0-4.0-2.0-0.49","spark_pilot_norest","8171","8","10","Female","","false","","","","","[486.5,605.2999999523163]","./assets/img/canyon/memory/21.jpg","[""ArrowUp"",""ArrowLeft""]","value training","canyon","26","{""ArrowUp,ArrowLeft"":26,""ArrowUp,ArrowRight"":10,""ArrowDown,ArrowLeft"":5,""ArrowDown,ArrowRight"":17}","true","ArrowUp,ArrowLeft","false","revaluation","1","98","","",""
"html-keyboard-response","220","996228","0.0-4.0-2.0-1.49","spark_pilot_norest","8171","8","10","Female","","","","","","","null","<div style=""font-size:60px;"">+</div>","null","fixation","","","","","","","","","99","","",""
"learning-instructions","221","1082577","0.0-4.0-3.0-0.0","spark_pilot_norest","8171","8","10","Female","","","","","","","73183.30000019073","<p> Now, you will travel with a friend who will choose whether you go up or down first. </p>
            <p> On these turns, you will just see the animal that they found. You will still get to choose which chest to search for treasure.</p>","","instructions","","","","","","","","","","","",""
"revaluation","222","1086584","0.0-4.0-4.0-0.0","spark_pilot_norest","8171","8","10","Female","","false","","","","","[1263]","./assets/img/canyon/animals/lion.jpg","[""ArrowRight""]","revaluation","canyon","27","{""ArrowUp,ArrowLeft"":2,""ArrowUp,ArrowRight"":11,""ArrowDown,ArrowLeft"":8,""ArrowDown,ArrowRight"":27}","true","ArrowDown,ArrowRight","","revaluation","1","0","","",""
"html-keyboard-response","223","1087092","0.0-4.0-4.0-1.0","spark_pilot_norest","8171","8","10","Female","","","","","","","null","<div style=""font-size:60px;"">+</div>","null","fixation","","","","","","","","","1","","",""
"revaluation","224","1091100","0.0-4.0-4.0-0.1","spark_pilot_norest","8171","8","10","Female","","false","","","","","[457.5]","./assets/img/canyon/animals/giraffe.jpg","[""ArrowLeft""]","revaluation","canyon","2","{""ArrowUp,ArrowLeft"":2,""ArrowUp,ArrowRight"":11,""ArrowDown,ArrowLeft"":8,""ArrowDown,ArrowRight"":27}","false","ArrowUp,ArrowLeft","","revaluation","1","2","","",""
"html-keyboard-response","225","1091602","0.0-4.0-4.0-1.1","spark_pilot_norest","8171","8","10","Female","","","","","","","null","<div style=""font-size:60px;"">+</div>","null","fixation","","","","","","","","","3","","",""
"revaluation","226","1095612","0.0-4.0-4.0-0.2","spark_pilot_norest","8171","8","10","Female","","false","","","","","[362.7000000476837]","./assets/img/canyon/animals/giraffe.jpg","[""ArrowLeft""]","revaluation","canyon","2","{""ArrowUp,ArrowLeft"":2,""ArrowUp,ArrowRight"":11,""ArrowDown,ArrowLeft"":8,""ArrowDown,ArrowRight"":27}","false","ArrowUp,ArrowLeft","","revaluation","1","4","","",""
"html-keyboard-response","227","1096116","0.0-4.0-4.0-1.2","spark_pilot_norest","8171","8","10","Female","","","","","","","null","<div style=""font-size:60px;"">+</div>","null","fixation","","","","","","","","","5","","",""
"revaluation","228","1100124","0.0-4.0-4.0-0.3","spark_pilot_norest","8171","8","10","Female","","false","","","","","[514]","./assets/img/canyon/animals/lion.jpg","[""ArrowRight""]","revaluation","canyon","27","{""ArrowUp,ArrowLeft"":2,""ArrowUp,ArrowRight"":11,""ArrowDown,ArrowLeft"":8,""ArrowDown,ArrowRight"":27}","true","ArrowDown,ArrowRight","","revaluation","1","6","","",""
"html-keyboard-response","229","1100626","0.0-4.0-4.0-1.3","spark_pilot_norest","8171","8","10","Female","","","","","","","null","<div style=""font-size:60px;"">+</div>","null","fixation","","","","","","","","","7","","",""
"revaluation","230","1104634","0.0-4.0-4.0-0.4","spark_pilot_norest","8171","8","10","Female","","false","","","","","[571.7000000476837]","./assets/img/canyon/animals/lion.jpg","[""ArrowLeft""]","revaluation","canyon","8","{""ArrowUp,ArrowLeft"":2,""ArrowUp,ArrowRight"":11,""ArrowDown,ArrowLeft"":8,""ArrowDown,ArrowRight"":27}","false","ArrowDown,ArrowLeft","","revaluation","1","8","","",""
"html-keyboard-response","231","1105137","0.0-4.0-4.0-1.4","spark_pilot_norest","8171","8","10","Female","","","","","","","null","<div style=""font-size:60px;"">+</div>","null","fixation","","","","","","","","","9","","",""
"revaluation","232","1109146","0.0-4.0-4.0-0.5","spark_pilot_norest","8171","8","10","Female","","false","","","","","[430]","./assets/img/canyon/animals/lion.jpg","[""ArrowRight""]","revaluation","canyon","27","{""ArrowUp,ArrowLeft"":2,""ArrowUp,ArrowRight"":11,""ArrowDown,ArrowLeft"":8,""ArrowDown,ArrowRight"":27}","true","ArrowDown,ArrowRight","","revaluation","1","10","","",""
"html-keyboard-response","233","1109649","0.0-4.0-4.0-1.5","spark_pilot_norest","8171","8","10","Female","","","","","","","null","<div style=""font-size:60px;"">+</div>","null","fixation","","","","","","","","","11","","",""
"revaluation","234","1113657","0.0-4.0-4.0-0.6","spark_pilot_norest","8171","8","10","Female","","false","","","","","[757.5]","./assets/img/canyon/animals/lion.jpg","[""ArrowRight""]","revaluation","canyon","27","{""ArrowUp,ArrowLeft"":2,""ArrowUp,ArrowRight"":11,""ArrowDown,ArrowLeft"":8,""ArrowDown,ArrowRight"":27}","true","ArrowDown,ArrowRight","","revaluation","1","12","","",""
"html-keyboard-response","235","1114160","0.0-4.0-4.0-1.6","spark_pilot_norest","8171","8","10","Female","","","","","","","null","<div style=""font-size:60px;"">+</div>","null","fixation","","","","","","","","","13","","",""
"revaluation","236","1118170","0.0-4.0-4.0-0.7","spark_pilot_norest","8171","8","10","Female","","false","","","","","[653]","./assets/img/canyon/animals/giraffe.jpg","[""ArrowRight""]","revaluation","canyon","11","{""ArrowUp,ArrowLeft"":2,""ArrowUp,ArrowRight"":11,""ArrowDown,ArrowLeft"":8,""ArrowDown,ArrowRight"":27}","true","ArrowUp,ArrowRight","","revaluation","1","14","","",""
"html-keyboard-response","237","1118672","0.0-4.0-4.0-1.7","spark_pilot_norest","8171","8","10","Female","","","","","","","null","<div style=""font-size:60px;"">+</div>","null","fixation","","","","","","","","","15","","",""
"revaluation","238","1122680","0.0-4.0-4.0-0.8","spark_pilot_norest","8171","8","10","Female","","false","","","","","[511]","./assets/img/canyon/animals/giraffe.jpg","[""ArrowRight""]","revaluation","canyon","11","{""ArrowUp,ArrowLeft"":2,""ArrowUp,ArrowRight"":11,""ArrowDown,ArrowLeft"":8,""ArrowDown,ArrowRight"":27}","true","ArrowUp,ArrowRight","","revaluation","1","16","","",""
"html-keyboard-response","239","1123182","0.0-4.0-4.0-1.8","spark_pilot_norest","8171","8","10","Female","","","","","","","null","<div style=""font-size:60px;"">+</div>","null","fixation","","","","","","","","","17","","",""
"revaluation","240","1127190","0.0-4.0-4.0-0.9","spark_pilot_norest","8171","8","10","Female","","false","","","","","[786.6000001430511]","./assets/img/canyon/animals/giraffe.jpg","[""ArrowLeft""]","revaluation","canyon","2","{""ArrowUp,ArrowLeft"":2,""ArrowUp,ArrowRight"":11,""ArrowDown,ArrowLeft"":8,""ArrowDown,ArrowRight"":27}","false","ArrowUp,ArrowLeft","","revaluation","1","18","","",""
"html-keyboard-response","241","1127701","0.0-4.0-4.0-1.9","spark_pilot_norest","8171","8","10","Female","","","","","","","null","<div style=""font-size:60px;"">+</div>","null","fixation","","","","","","","","","19","","",""
"revaluation","242","1131709","0.0-4.0-4.0-0.10","spark_pilot_norest","8171","8","10","Female","","false","","","","","[506.40000009536743]","./assets/img/canyon/animals/lion.jpg","[""ArrowRight""]","revaluation","canyon","27","{""ArrowUp,ArrowLeft"":2,""ArrowUp,ArrowRight"":11,""ArrowDown,ArrowLeft"":8,""ArrowDown,ArrowRight"":27}","true","ArrowDown,ArrowRight","","revaluation","1","20","","",""
"html-keyboard-response","243","1132221","0.0-4.0-4.0-1.10","spark_pilot_norest","8171","8","10","Female","","","","","","","null","<div style=""font-size:60px;"">+</div>","null","fixation","","","","","","","","","21","","",""
"revaluation","244","1136229","0.0-4.0-4.0-0.11","spark_pilot_norest","8171","8","10","Female","","false","","","","","[674.5]","./assets/img/canyon/animals/lion.jpg","[""ArrowRight""]","revaluation","canyon","27","{""ArrowUp,ArrowLeft"":2,""ArrowUp,ArrowRight"":11,""ArrowDown,ArrowLeft"":8,""ArrowDown,ArrowRight"":27}","true","ArrowDown,ArrowRight","","revaluation","1","22","","",""
"html-keyboard-response","245","1136731","0.0-4.0-4.0-1.11","spark_pilot_norest","8171","8","10","Female","","","","","","","null","<div style=""font-size:60px;"">+</div>","null","fixation","","","","","","","","","23","","",""
"revaluation","246","1140740","0.0-4.0-4.0-0.12","spark_pilot_norest","8171","8","10","Female","","false","","","","","[404.90000009536743]","./assets/img/canyon/animals/giraffe.jpg","[""ArrowRight""]","revaluation","canyon","11","{""ArrowUp,ArrowLeft"":2,""ArrowUp,ArrowRight"":11,""ArrowDown,ArrowLeft"":8,""ArrowDown,ArrowRight"":27}","true","ArrowUp,ArrowRight","","revaluation","1","24","","",""
"html-keyboard-response","247","1141242","0.0-4.0-4.0-1.12","spark_pilot_norest","8171","8","10","Female","","","","","","","null","<div style=""font-size:60px;"">+</div>","null","fixation","","","","","","","","","25","","",""
"revaluation","248","1145251","0.0-4.0-4.0-0.13","spark_pilot_norest","8171","8","10","Female","","false","","","","","[548.5]","./assets/img/canyon/animals/lion.jpg","[""ArrowRight""]","revaluation","canyon","27","{""ArrowUp,ArrowLeft"":2,""ArrowUp,ArrowRight"":11,""ArrowDown,ArrowLeft"":8,""ArrowDown,ArrowRight"":27}","true","ArrowDown,ArrowRight","","revaluation","1","26","","",""
"html-keyboard-response","249","1145753","0.0-4.0-4.0-1.13","spark_pilot_norest","8171","8","10","Female","","","","","","","null","<div style=""font-size:60px;"">+</div>","null","fixation","","","","","","","","","27","","",""
"revaluation","250","1149763","0.0-4.0-4.0-0.14","spark_pilot_norest","8171","8","10","Female","","false","","","","","[477.7000000476837]","./assets/img/canyon/animals/giraffe.jpg","[""ArrowRight""]","revaluation","canyon","11","{""ArrowUp,ArrowLeft"":2,""ArrowUp,ArrowRight"":11,""ArrowDown,ArrowLeft"":8,""ArrowDown,ArrowRight"":27}","true","ArrowUp,ArrowRight","","revaluation","1","28","","",""
"html-keyboard-response","251","1150265","0.0-4.0-4.0-1.14","spark_pilot_norest","8171","8","10","Female","","","","","","","null","<div style=""font-size:60px;"">+</div>","null","fixation","","","","","","","","","29","","",""
"revaluation","252","1154274","0.0-4.0-4.0-0.15","spark_pilot_norest","8171","8","10","Female","","false","","","","","[135.59999990463257]","./assets/img/canyon/animals/giraffe.jpg","[""ArrowRight""]","revaluation","canyon","11","{""ArrowUp,ArrowLeft"":2,""ArrowUp,ArrowRight"":11,""ArrowDown,ArrowLeft"":8,""ArrowDown,ArrowRight"":27}","true","ArrowUp,ArrowRight","","revaluation","1","30","","",""
"html-keyboard-response","253","1154776","0.0-4.0-4.0-1.15","spark_pilot_norest","8171","8","10","Female","","","","","","","null","<div style=""font-size:60px;"">+</div>","null","fixation","","","","","","","","","31","","",""
"revaluation","254","1158785","0.0-4.0-4.0-0.16","spark_pilot_norest","8171","8","10","Female","","false","","","","","[552.1000001430511]","./assets/img/canyon/animals/giraffe.jpg","[""ArrowRight""]","revaluation","canyon","11","{""ArrowUp,ArrowLeft"":2,""ArrowUp,ArrowRight"":11,""ArrowDown,ArrowLeft"":8,""ArrowDown,ArrowRight"":27}","true","ArrowUp,ArrowRight","","revaluation","1","32","","",""
"html-keyboard-response","255","1159288","0.0-4.0-4.0-1.16","spark_pilot_norest","8171","8","10","Female","","","","","","","null","<div style=""font-size:60px;"">+</div>","null","fixation","","","","","","","","","33","","",""
"revaluation","256","1163295","0.0-4.0-4.0-0.17","spark_pilot_norest","8171","8","10","Female","","false","","","","","[464.90000009536743]","./assets/img/canyon/animals/lion.jpg","[""ArrowRight""]","revaluation","canyon","27","{""ArrowUp,ArrowLeft"":2,""ArrowUp,ArrowRight"":11,""ArrowDown,ArrowLeft"":8,""ArrowDown,ArrowRight"":27}","true","ArrowDown,ArrowRight","","revaluation","1","34","","",""
"html-keyboard-response","257","1163797","0.0-4.0-4.0-1.17","spark_pilot_norest","8171","8","10","Female","","","","","","","null","<div style=""font-size:60px;"">+</div>","null","fixation","","","","","","","","","35","","",""
"learning-instructions","258","1172216","0.0-4.0-5.0-0.0","spark_pilot_norest","8171","8","10","Female","","","","","","","null","<p> You have almost finished this part of the game! </p>
            <p> We are going to ask you to make a few more choices. </p>","","instructions","","","","","","","","","","","",""
"learning-instructions","259","1188196","0.0-4.0-5.0-0.1","spark_pilot_norest","8171","8","10","Female","","","","","","","null","<p> First, you need to decide whether to go up or down. When you see each picture, use the arrow keys to make your choice. </p>
            <p><b>You will not see which animal you found, but try to get to the one that will give you the most treasure.</b></p>","","instructions","","","","","","","","","","","",""
"html-keyboard-response","260","1189206","0.0-4.0-6.0-0.0","spark_pilot_norest","8171","8","10","Female","","","","","","","null","<div style=""font-size:100px;color:red;"">Starting in...</div>","null","","","","","","","","","","","","",""
"html-keyboard-response","261","1190226","0.0-4.0-6.0-1.0","spark_pilot_norest","8171","8","10","Female","","","","","","","null","<div style=""font-size:200px;color:red;"">3</div>","null","","","","","","","","","","","","",""
"html-keyboard-response","262","1191237","0.0-4.0-6.0-2.0","spark_pilot_norest","8171","8","10","Female","","","","","","","null","<div style=""font-size:200px;color:red;"">2</div>","null","","","","","","","","","","","","",""
"html-keyboard-response","263","1192244","0.0-4.0-6.0-3.0","spark_pilot_norest","8171","8","10","Female","","","","","","","null","<div style=""font-size:200px;color:red;"">1</div>","null","","","","","","","","","","","","",""
"revaluation","264","1192831","0.0-4.0-7.0-0.0","spark_pilot_norest","8171","8","10","Female","","false","","","","","[580.5999999046326]","./assets/img/canyon/test/1.jpg","[""ArrowUp""]","first stage test","canyon","0","{""ArrowUp,ArrowLeft"":2,""ArrowUp,ArrowRight"":11,""ArrowDown,ArrowLeft"":8,""ArrowDown,ArrowRight"":27}","false","ArrowUp","false","revaluation","1","","","",""
"html-keyboard-response","265","1193345","0.0-4.0-7.0-1.0","spark_pilot_norest","8171","8","10","Female","","","","","","","null","<div style=""font-size:60px;"">+</div>","null","fixation","","","","","","","","","","","",""
"revaluation","266","1194727","0.0-4.0-7.0-0.1","spark_pilot_norest","8171","8","10","Female","","false","","","","","[1374]","./assets/img/canyon/test/3.jpg","[""ArrowDown""]","first stage test","canyon","0","{""ArrowUp,ArrowLeft"":2,""ArrowUp,ArrowRight"":11,""ArrowDown,ArrowLeft"":8,""ArrowDown,ArrowRight"":27}","true","ArrowDown","false","revaluation","1","","","",""
"html-keyboard-response","267","1195237","0.0-4.0-7.0-1.1","spark_pilot_norest","8171","8","10","Female","","","","","","","null","<div style=""font-size:60px;"">+</div>","null","fixation","","","","","","","","","","","",""
"revaluation","268","1196383","0.0-4.0-7.0-0.2","spark_pilot_norest","8171","8","10","Female","","false","","","","","[1139.3999998569489]","./assets/img/canyon/test/0.jpg","[""ArrowDown""]","first stage test","canyon","0","{""ArrowUp,ArrowLeft"":2,""ArrowUp,ArrowRight"":11,""ArrowDown,ArrowLeft"":8,""ArrowDown,ArrowRight"":27}","true","ArrowDown","false","revaluation","1","","","",""
"html-keyboard-response","269","1196896","0.0-4.0-7.0-1.2","spark_pilot_norest","8171","8","10","Female","","","","","","","null","<div style=""font-size:60px;"">+</div>","null","fixation","","","","","","","","","","","",""
"revaluation","270","1197790","0.0-4.0-7.0-0.3","spark_pilot_norest","8171","8","10","Female","","false","","","","","[886.5999999046326]","./assets/img/canyon/test/2.jpg","[""ArrowUp""]","first stage test","canyon","0","{""ArrowUp,ArrowLeft"":2,""ArrowUp,ArrowRight"":11,""ArrowDown,ArrowLeft"":8,""ArrowDown,ArrowRight"":27}","false","ArrowUp","false","revaluation","1","","","",""
"html-keyboard-response","271","1198307","0.0-4.0-7.0-1.3","spark_pilot_norest","8171","8","10","Female","","","","","","","null","<div style=""font-size:60px;"">+</div>","null","fixation","","","","","","","","","","","",""
"learning-instructions","272","1211657","0.0-4.0-8.0-0.0","spark_pilot_norest","8171","8","10","Female","","","","","","","null","<p> Now you will see the animals again and can search their chests for treasure. </p>
            <p> This time, you will not see how much treasure you earned, but you will earn more bonus money for making better choices. </p>","","instructions","","","","","","","","","","","",""
"html-keyboard-response","273","1212678","0.0-4.0-9.0-0.0","spark_pilot_norest","8171","8","10","Female","","","","","","","null","<div style=""font-size:100px;color:red;"">Starting in...</div>","null","","","","","","","","","","","","",""
"html-keyboard-response","274","1213688","0.0-4.0-9.0-1.0","spark_pilot_norest","8171","8","10","Female","","","","","","","null","<div style=""font-size:200px;color:red;"">3</div>","null","","","","","","","","","","","","",""
"html-keyboard-response","275","1214693","0.0-4.0-9.0-2.0","spark_pilot_norest","8171","8","10","Female","","","","","","","null","<div style=""font-size:200px;color:red;"">2</div>","null","","","","","","","","","","","","",""
"html-keyboard-response","276","1215708","0.0-4.0-9.0-3.0","spark_pilot_norest","8171","8","10","Female","","","","","","","null","<div style=""font-size:200px;color:red;"">1</div>","null","","","","","","","","","","","","",""
"revaluation","277","1216585","0.0-4.0-10.0-0.0","spark_pilot_norest","8171","8","10","Female","","false","","","","","[869.7999999523163]","./assets/img/canyon/animals/giraffe.jpg","[""ArrowRight""]","second stage test","canyon","0","{""ArrowUp,ArrowLeft"":2,""ArrowUp,ArrowRight"":11,""ArrowDown,ArrowLeft"":8,""ArrowDown,ArrowRight"":27}","true","ArrowUp,ArrowRight","","revaluation","1","","","",""
"html-keyboard-response","278","1217098","0.0-4.0-10.0-1.0","spark_pilot_norest","8171","8","10","Female","","","","","","","null","<div style=""font-size:60px;"">+</div>","null","fixation","","","","","","","","","","","",""
"revaluation","279","1217872","0.0-4.0-10.0-0.1","spark_pilot_norest","8171","8","10","Female","","false","","","","","[768.5]","./assets/img/canyon/animals/giraffe.jpg","[""ArrowRight""]","second stage test","canyon","0","{""ArrowUp,ArrowLeft"":2,""ArrowUp,ArrowRight"":11,""ArrowDown,ArrowLeft"":8,""ArrowDown,ArrowRight"":27}","true","ArrowUp,ArrowRight","","revaluation","1","","","",""
"html-keyboard-response","280","1218378","0.0-4.0-10.0-1.1","spark_pilot_norest","8171","8","10","Female","","","","","","","null","<div style=""font-size:60px;"">+</div>","null","fixation","","","","","","","","","","","",""
"revaluation","281","1218992","0.0-4.0-10.0-0.2","spark_pilot_norest","8171","8","10","Female","","false","","","","","[606.5999999046326]","./assets/img/canyon/animals/giraffe.jpg","[""ArrowRight""]","second stage test","canyon","0","{""ArrowUp,ArrowLeft"":2,""ArrowUp,ArrowRight"":11,""ArrowDown,ArrowLeft"":8,""ArrowDown,ArrowRight"":27}","true","ArrowUp,ArrowRight","","revaluation","1","","","",""
"html-keyboard-response","282","1219497","0.0-4.0-10.0-1.2","spark_pilot_norest","8171","8","10","Female","","","","","","","null","<div style=""font-size:60px;"">+</div>","null","fixation","","","","","","","","","","","",""
"revaluation","283","1220057","0.0-4.0-10.0-0.3","spark_pilot_norest","8171","8","10","Female","","false","","","","","[552.5999999046326]","./assets/img/canyon/animals/giraffe.jpg","[""ArrowRight""]","second stage test","canyon","0","{""ArrowUp,ArrowLeft"":2,""ArrowUp,ArrowRight"":11,""ArrowDown,ArrowLeft"":8,""ArrowDown,ArrowRight"":27}","true","ArrowUp,ArrowRight","","revaluation","1","","","",""
"html-keyboard-response","284","1220578","0.0-4.0-10.0-1.3","spark_pilot_norest","8171","8","10","Female","","","","","","","null","<div style=""font-size:60px;"">+</div>","null","fixation","","","","","","","","","","","",""
"revaluation","285","1221320","0.0-4.0-10.0-0.4","spark_pilot_norest","8171","8","10","Female","","false","","","","","[734.7999999523163]","./assets/img/canyon/animals/lion.jpg","[""ArrowRight""]","second stage test","canyon","0","{""ArrowUp,ArrowLeft"":2,""ArrowUp,ArrowRight"":11,""ArrowDown,ArrowLeft"":8,""ArrowDown,ArrowRight"":27}","true","ArrowDown,ArrowRight","","revaluation","1","","","",""
"html-keyboard-response","286","1221828","0.0-4.0-10.0-1.4","spark_pilot_norest","8171","8","10","Female","","","","","","","null","<div style=""font-size:60px;"">+</div>","null","fixation","","","","","","","","","","","",""
"revaluation","287","1222369","0.0-4.0-10.0-0.5","spark_pilot_norest","8171","8","10","Female","","false","","","","","[534.0999999046326]","./assets/img/canyon/animals/lion.jpg","[""ArrowRight""]","second stage test","canyon","0","{""ArrowUp,ArrowLeft"":2,""ArrowUp,ArrowRight"":11,""ArrowDown,ArrowLeft"":8,""ArrowDown,ArrowRight"":27}","true","ArrowDown,ArrowRight","","revaluation","1","","","",""
"html-keyboard-response","288","1222877","0.0-4.0-10.0-1.5","spark_pilot_norest","8171","8","10","Female","","","","","","","null","<div style=""font-size:60px;"">+</div>","null","fixation","","","","","","","","","","","",""
"revaluation","289","1223544","0.0-4.0-10.0-0.6","spark_pilot_norest","8171","8","10","Female","","false","","","","","[659.7000000476837]","./assets/img/canyon/animals/lion.jpg","[""ArrowRight""]","second stage test","canyon","0","{""ArrowUp,ArrowLeft"":2,""ArrowUp,ArrowRight"":11,""ArrowDown,ArrowLeft"":8,""ArrowDown,ArrowRight"":27}","true","ArrowDown,ArrowRight","","revaluation","1","","","",""
"html-keyboard-response","290","1224058","0.0-4.0-10.0-1.6","spark_pilot_norest","8171","8","10","Female","","","","","","","null","<div style=""font-size:60px;"">+</div>","null","fixation","","","","","","","","","","","",""
"revaluation","291","1224505","0.0-4.0-10.0-0.7","spark_pilot_norest","8171","8","10","Female","","false","","","","","[440.5]","./assets/img/canyon/animals/lion.jpg","[""ArrowRight""]","second stage test","canyon","0","{""ArrowUp,ArrowLeft"":2,""ArrowUp,ArrowRight"":11,""ArrowDown,ArrowLeft"":8,""ArrowDown,ArrowRight"":27}","true","ArrowDown,ArrowRight","","revaluation","1","","","",""
"html-keyboard-response","292","1225007","0.0-4.0-10.0-1.7","spark_pilot_norest","8171","8","10","Female","","","","","","","null","<div style=""font-size:60px;"">+</div>","null","fixation","","","","","","","","","","","",""
"learning-instructions","293","1236776","0.0-4.0-0.1-0.2","spark_pilot_norest","8171","8","10","Female","","","","","","","9044.399999856949","<p> This time you are searching for treasure in the <b>ocean</b>.</p>","","instructions","","","","","","","","","","","",""
"learning-instructions","294","1255054","0.0-4.0-0.1-0.3","spark_pilot_norest","8171","8","10","Female","","","","","","","1022","<p><b>New</b> animals with <b>new</b> treasure chests live here. You need to explore to discover where the animal with the best treasure chest is.</p>
                    <p> Like before, once you figure out which animal has the chest with the most treasure, you should try to get to that animal and select that chest! </p>","","instructions","","","","","","","","","","","",""
"learning-instructions","295","1270940","0.0-4.0-1.1-0.1","spark_pilot_norest","8171","8","10","Female","","","","","","","1147.5999999046326","<p> Remember, when you see a picture of the place, use the up and down keys to <b>find an animal</b>.</p>
            <p> When you encounter an animal, you should use the left and right keys to <b>select a treasure chest</b>.</p>
            <p> Don't forget to look out for the robber! </p>","","instructions","","","","","","","","","","","",""
"revaluation","296","1276994","0.0-4.0-2.1-0.50","spark_pilot_norest","8171","8","10","Female","","false","","","","","[777.6000001430511,841.6000001430511]","./assets/img/ocean/memory/2.jpg","[""ArrowUp"",""ArrowRight""]","value training","ocean","10","{""ArrowUp,ArrowLeft"":23,""ArrowUp,ArrowRight"":10,""ArrowDown,ArrowLeft"":8,""ArrowDown,ArrowRight"":30}","false","ArrowUp,ArrowRight","false","original","2","0","","",""
"html-keyboard-response","297","1277498","0.0-4.0-2.1-1.50","spark_pilot_norest","8171","8","10","Female","","","","","","","null","<div style=""font-size:60px;"">+</div>","null","fixation","","","","","","","","","1","","",""
"revaluation","298","1283529","0.0-4.0-2.1-0.51","spark_pilot_norest","8171","8","10","Female","","false","","","","","[374.89999985694885,387.89999985694885]","./assets/img/ocean/memory/15.jpg","[""ArrowUp"",""ArrowLeft""]","value training","ocean","23","{""ArrowUp,ArrowLeft"":23,""ArrowUp,ArrowRight"":10,""ArrowDown,ArrowLeft"":8,""ArrowDown,ArrowRight"":30}","false","ArrowUp,ArrowLeft","false","original","2","2","","",""
"html-keyboard-response","299","1284049","0.0-4.0-2.1-1.51","spark_pilot_norest","8171","8","10","Female","","","","","","","null","<div style=""font-size:60px;"">+</div>","null","fixation","","","","","","","","","3","","",""
"revaluation","300","1290090","0.0-4.0-2.1-0.52","spark_pilot_norest","8171","8","10","Female","","false","","","","","[521.2999999523163,566.3999998569489]","./assets/img/ocean/memory/9.jpg","[""ArrowDown"",""ArrowLeft""]","value training","ocean","8","{""ArrowUp,ArrowLeft"":23,""ArrowUp,ArrowRight"":10,""ArrowDown,ArrowLeft"":8,""ArrowDown,ArrowRight"":30}","false","ArrowDown,ArrowLeft","false","original","2","4","","",""
"html-keyboard-response","301","1290599","0.0-4.0-2.1-1.52","spark_pilot_norest","8171","8","10","Female","","","","","","","null","<div style=""font-size:60px;"">+</div>","null","fixation","","","","","","","","","5","","",""
"revaluation","302","1296650","0.0-4.0-2.1-0.53","spark_pilot_norest","8171","8","10","Female","","false","","","","","[491.5,543.4000000953674]","./assets/img/ocean/memory/3.jpg","[""ArrowDown"",""ArrowRight""]","value training","ocean","30","{""ArrowUp,ArrowLeft"":23,""ArrowUp,ArrowRight"":10,""ArrowDown,ArrowLeft"":8,""ArrowDown,ArrowRight"":30}","true","ArrowDown,ArrowRight","false","original","2","6","","",""
"html-keyboard-response","303","1297169","0.0-4.0-2.1-1.53","spark_pilot_norest","8171","8","10","Female","","","","","","","null","<div style=""font-size:60px;"">+</div>","null","fixation","","","","","","","","","7","","",""
"revaluation","304","1301181","0.0-4.0-2.1-0.54","spark_pilot_norest","8171","8","10","Female","","false","","","","","[610.5]","./assets/img/ocean/catch/0.jpg","[""spaceBar""]","value training","ocean","0","{""ArrowUp,ArrowLeft"":23,""ArrowUp,ArrowRight"":10,""ArrowDown,ArrowLeft"":8,""ArrowDown,ArrowRight"":30}","true","spaceBar","true","original","2","8","","",""
"html-keyboard-response","305","1301685","0.0-4.0-2.1-1.54","spark_pilot_norest","8171","8","10","Female","","","","","","","null","<div style=""font-size:60px;"">+</div>","null","fixation","","","","","","","","","9","","",""
"revaluation","306","1307695","0.0-4.0-2.1-0.55","spark_pilot_norest","8171","8","10","Female","","false","","","","","[663.5,351]","./assets/img/ocean/memory/31.jpg","[""ArrowDown"",""ArrowRight""]","value training","ocean","30","{""ArrowUp,ArrowLeft"":23,""ArrowUp,ArrowRight"":10,""ArrowDown,ArrowLeft"":8,""ArrowDown,ArrowRight"":30}","true","ArrowDown,ArrowRight","false","original","2","10","","",""
"html-keyboard-response","307","1308198","0.0-4.0-2.1-1.55","spark_pilot_norest","8171","8","10","Female","","","","","","","null","<div style=""font-size:60px;"">+</div>","null","fixation","","","","","","","","","11","","",""
"revaluation","308","1312207","0.0-4.0-2.1-0.56","spark_pilot_norest","8171","8","10","Female","","false","","","","","[719.0999999046326]","./assets/img/ocean/catch/5.jpg","[""ArrowDown""]","value training","ocean","-10","{""ArrowUp,ArrowLeft"":23,""ArrowUp,ArrowRight"":10,""ArrowDown,ArrowLeft"":8,""ArrowDown,ArrowRight"":30}","false","ArrowDown","true","original","2","12","","",""
"html-keyboard-response","309","1312709","0.0-4.0-2.1-1.56","spark_pilot_norest","8171","8","10","Female","","","","","","","null","<div style=""font-size:60px;"">+</div>","null","fixation","","","","","","","","","13","","",""
"revaluation","310","1318730","0.0-4.0-2.1-0.57","spark_pilot_norest","8171","8","10","Female","","false","","","","","[573.6000001430511,508.5]","./assets/img/ocean/memory/27.jpg","[""ArrowDown"",""ArrowRight""]","value training","ocean","30","{""ArrowUp,ArrowLeft"":23,""ArrowUp,ArrowRight"":10,""ArrowDown,ArrowLeft"":8,""ArrowDown,ArrowRight"":30}","true","ArrowDown,ArrowRight","false","original","2","14","","",""
"html-keyboard-response","311","1319233","0.0-4.0-2.1-1.57","spark_pilot_norest","8171","8","10","Female","","","","","","","null","<div style=""font-size:60px;"">+</div>","null","fixation","","","","","","","","","15","","",""
