"trial_type","trial_index","time_elapsed","internal_node_id","task_version","subject_id","assigned_condition","age","gender","success","timeout","failed_images","failed_audio","failed_video","browser_interaction","rt","stimulus","response","task_part","environment","score","rewardMap","correct","fullState","isCatch","condition","order","trial_num","key_press","ground_truth","bonus"
"pavlovia","0","1656","0.0-0.0","spark_pilot_norest","9150","6","14","Male","","","","","","","","","","","","","","","","","","","","","",""
"preload","1","17237","0.0-1.0","spark_pilot_norest","9150","6","14","Male","true","false","[]","[]","[]","[{""event"":""fullscreenenter"",""trial"":2,""time"":23898}]","","","","","","","","","","","","","","","",""
"fullscreen","2","24891","0.0-2.0","spark_pilot_norest","9150","6","14","Male","true","","","","","","","","","","","","","","","","","","","","",""
"audio-button-response","3","29167","0.0-3.0-0.0-0.0","spark_pilot_norest","9150","6","14","Male","","","","","","","4208","./assets/audio/audiotest/turtle.mp3","4","audio_test","","","","","","","","","","","",""
"audio-button-response","4","31211","0.0-3.0-0.1-0.1","spark_pilot_norest","9150","6","14","Male","","","","","","","1035","./assets/audio/audiotest/turtle.mp3","2","audio_test","","","","","","","","","","","",""
"learning-instructions","5","41629","0.0-3.0-1.0-0.0","spark_pilot_norest","9150","6","14","Male","","","","","","","3414.800000190735","<p> Welcome! Please remember to stay in fullscreen mode and don't click away from the experiment. </p>","","instructions","","","","","","","","","","","",""
"learning-instructions","6","52929","0.0-3.0-1.0-0.1","spark_pilot_norest","9150","6","14","Male","","","","","","","2858.399999856949","<p> Today you will be playing a game to earn treasure. </p>
            <p> At the end of the experiment, you will earn a bonus based on how much treasure you find. </p>
            <img src='./assets/img/instructions/treasure.jpg' class='instructions-image'>","","instructions","","","","","","","","","","","",""
"learning-instructions","7","63585","0.0-3.0-1.0-0.2","spark_pilot_norest","9150","6","14","Male","","","","","","","2368.7999999523163","<p> Animals have hidden treasure in treasure chests. </p>
            <p> You need to first find an animal and then choose which of their treasure chests to search. </p>
            <img src='./assets/img/space/animals/cat.jpg' class='instructions-image'>","","instructions","","","","","","","","","","","",""
"learning-instructions","8","78624","0.0-3.0-1.0-0.3","spark_pilot_norest","9150","6","14","Male","","","","","","","1856.5999999046326","<p> In each round, you will search for treasure in a different place. In the real game, there will be two rounds. </p>
            <p> You will begin with a separate, practice round where you will search for treasure in outer space. </p>
            <img src='./assets/img/space/0.jpg' class='instructions-image'>","","instructions","","","","","","","","","","","",""
"learning-instructions","9","93280","0.0-3.0-1.0-0.4","spark_pilot_norest","9150","6","14","Male","","","","","","","3221.5","<p> On every turn, you will see a picture of the place that you are in, but the specific image may be different each time. </p>
            <p> For example, both of these images mean you are in outer space. </p>
            <img src='./assets/img/instructions/outerspace.jpg' class='instructions-image'>","","instructions","","","","","","","","","","","",""
"learning-instructions","10","102601","0.0-3.0-1.0-0.5","spark_pilot_norest","9150","6","14","Male","","","","","","","1456.7999999523163","<p> You need to decide which direction to travel in. </p>
            <p> You can choose between going <b>up or down</b> by using the arrow keys. </p>
            <img src='./assets/img/instructions/updown.jpg' class='instructions-image'>","","instructions","","","","","","","","","","","",""
"learning-instructions","11","114886","0.0-3.0-1.0-0.6","spark_pilot_norest","9150","6","14","Male","","","","","","","3438.199999809265","<p> You will have <b>2 seconds</b> to make your choice. </p>
            <p> If you do not make a choice within 2 seconds, you will not find an animal or earn treasure. </p>
            <img src='./assets/img/instructions/2seconds.jpg' class='instructions-image'>","","instructions","","","","","","","","","","","",""
"learning-instructions","12","126052","0.0-3.0-1.0-0.7","spark_pilot_norest","9150","6","14","Male","","","","","","","4060.9000000953674","<p> Let’s try practicing that now! </p>
            <p> When you see a picture of the place you are in, press the <b>up</b> key to travel up. </p>
            <img src='./assets/img/instructions/pressUp.jpg' class='instructions-image'>","","instructions","","","","","","","","","","","",""
"revaluation","13","130086","0.0-3.0-2.0-0.0","spark_pilot_norest","9150","6","14","Male","","true","","","","","[]","./assets/img/space/0.jpg","[]","first stage practice","space","-5","null","null","","false","","","","","",""
"html-keyboard-response","14","130597","0.0-3.0-2.0-1.0","spark_pilot_norest","9150","6","14","Male","","","","","","","null","<div style=""font-size:60px;"">+</div>","null","fixation","","","","","","","","","","","",""
"revaluation","15","134620","0.0-3.0-2.0-0.1","spark_pilot_norest","9150","6","14","Male","","false","","","","","[653.7000000476837]","./assets/img/space/1.jpg","[""ArrowUp""]","first stage practice","space","0","null","null","ArrowUp","false","","","","","",""
"html-keyboard-response","16","135126","0.0-3.0-2.0-1.1","spark_pilot_norest","9150","6","14","Male","","","","","","","null","<div style=""font-size:60px;"">+</div>","null","fixation","","","","","","","","","","","",""
"revaluation","17","139147","0.0-3.0-2.0-0.2","spark_pilot_norest","9150","6","14","Male","","true","","","","","[]","./assets/img/space/2.jpg","[]","first stage practice","space","-5","null","null","","false","","","","","",""
"html-keyboard-response","18","139652","0.0-3.0-2.0-1.2","spark_pilot_norest","9150","6","14","Male","","","","","","","null","<div style=""font-size:60px;"">+</div>","null","fixation","","","","","","","","","","","",""
"learning-instructions","19","145813","0.0-3.0-3.0-0.0","spark_pilot_norest","9150","6","14","Male","","","","","","","1438.5","<p> Great job! Now try pressing the <b>down</b> key to travel down. </p>
            <img src='./assets/img/instructions/pressDown.jpg' class='instructions-image'>","","instructions","","","","","","","","","","","",""
"revaluation","20","149834","0.0-3.0-4.0-0.0","spark_pilot_norest","9150","6","14","Male","","false","","","","","[108.39999985694885]","./assets/img/space/3.jpg","[""ArrowDown""]","first stage practice","space","0","null","null","ArrowDown","false","","","","","",""
"html-keyboard-response","21","150342","0.0-3.0-4.0-1.0","spark_pilot_norest","9150","6","14","Male","","","","","","","null","<div style=""font-size:60px;"">+</div>","null","fixation","","","","","","","","","","","",""
"revaluation","22","154356","0.0-3.0-4.0-0.1","spark_pilot_norest","9150","6","14","Male","","false","","","","","[259.59999990463257]","./assets/img/space/4.jpg","[""ArrowDown""]","first stage practice","space","0","null","null","ArrowDown","false","","","","","",""
"html-keyboard-response","23","154868","0.0-3.0-4.0-1.1","spark_pilot_norest","9150","6","14","Male","","","","","","","null","<div style=""font-size:60px;"">+</div>","null","fixation","","","","","","","","","","","",""
"revaluation","24","158908","0.0-3.0-4.0-0.2","spark_pilot_norest","9150","6","14","Male","","false","","","","","[719.7999999523163]","./assets/img/space/5.jpg","[""ArrowDown""]","first stage practice","space","0","null","null","ArrowDown","false","","","","","",""
"html-keyboard-response","25","159418","0.0-3.0-4.0-1.2","spark_pilot_norest","9150","6","14","Male","","","","","","","null","<div style=""font-size:60px;"">+</div>","null","fixation","","","","","","","","","","","",""
"learning-instructions","26","181604","0.0-3.0-5.0-0.0","spark_pilot_norest","9150","6","14","Male","","","","","","","12288.799999952316","<p> The animals don’t move, so the animal in the upper part of a place will stay in the upper part of a place, and the animal in the lower part of a place will stay in the lower part of a place. </p>","","instructions","","","","","","","","","","","",""
"learning-instructions","27","191891","0.0-3.0-5.0-0.1","spark_pilot_norest","9150","6","14","Male","","","","","","","1118.9000000953674","<p> Each animal has two treasure chests for you to choose from. </p>
            <p> The amount of treasure in each chest can range from <b> 0 to 40 pieces.</b></p>","","instructions","","","","","","","","","","","",""
"learning-instructions","28","203775","0.0-3.0-5.0-0.2","spark_pilot_norest","9150","6","14","Male","","","","","","","673.7999999523163","<p> You should decide which chest to search for treasure by using the <b>left</b> and <b>right</b> arrow keys. </p>
            <p><b> Pay attention to which animal is on the screen, as the animals have different treasure chests. </b></p>
            <img src='./assets/img/instructions/leftright.jpg' class='instructions-image'>","","instructions","","","","","","","","","","","",""
"learning-instructions","29","211042","0.0-3.0-5.0-0.3","spark_pilot_norest","9150","6","14","Male","","","","","","","873.9000000953674","<p> Let’s try practicing that now. </p>
            <p> When you see an animal, choose which chest to search for treasure. </p>
            <img src='./assets/img/instructions/chooseChest.jpg' class='instructions-image'>","","instructions","","","","","","","","","","","",""
"revaluation","30","215063","0.0-3.0-6.0-0.0","spark_pilot_norest","9150","6","14","Male","","false","","","","","[723.5999999046326]","./assets/img/space/animals/cat.jpg","[""ArrowLeft""]","second stage practice","space","3","{""ArrowUp,ArrowLeft"":3,""ArrowUp,ArrowRight"":36,""ArrowDown,ArrowLeft"":15,""ArrowDown,ArrowRight"":23}","false","ArrowUp,ArrowLeft","","","","","","",""
"html-keyboard-response","31","215568","0.0-3.0-6.0-1.0","spark_pilot_norest","9150","6","14","Male","","","","","","","null","<div style=""font-size:60px;"">+</div>","null","fixation","","","","","","","","","","","",""
"revaluation","32","219585","0.0-3.0-6.0-0.1","spark_pilot_norest","9150","6","14","Male","","false","","","","","[983.0999999046326]","./assets/img/space/animals/rabbit.jpg","[""ArrowRight""]","second stage practice","space","23","{""ArrowUp,ArrowLeft"":3,""ArrowUp,ArrowRight"":36,""ArrowDown,ArrowLeft"":15,""ArrowDown,ArrowRight"":23}","true","ArrowDown,ArrowRight","","","","","","",""
"html-keyboard-response","33","220096","0.0-3.0-6.0-1.1","spark_pilot_norest","9150","6","14","Male","","","","","","","null","<div style=""font-size:60px;"">+</div>","null","fixation","","","","","","","","","","","",""
"revaluation","34","224113","0.0-3.0-6.0-0.2","spark_pilot_norest","9150","6","14","Male","","false","","","","","[775.6000001430511]","./assets/img/space/animals/rabbit.jpg","[""ArrowRight""]","second stage practice","space","23","{""ArrowUp,ArrowLeft"":3,""ArrowUp,ArrowRight"":36,""ArrowDown,ArrowLeft"":15,""ArrowDown,ArrowRight"":23}","true","ArrowDown,ArrowRight","","","","","","",""
"html-keyboard-response","35","224624","0.0-3.0-6.0-1.2","spark_pilot_norest","9150","6","14","Male","","","","","","","null","<div style=""font-size:60px;"">+</div>","null","fixation","","","","","","","","","","","",""
"revaluation","36","228640","0.0-3.0-6.0-0.3","spark_pilot_norest","9150","6","14","Male","","false","","","","","[989.6000001430511]","./assets/img/space/animals/cat.jpg","[""ArrowRight""]","second stage practice","space","36","{""ArrowUp,ArrowLeft"":3,""ArrowUp,ArrowRight"":36,""ArrowDown,ArrowLeft"":15,""ArrowDown,ArrowRight"":23}","true","ArrowUp,ArrowRight","","","","","","",""
"html-keyboard-response","37","229151","0.0-3.0-6.0-1.3","spark_pilot_norest","9150","6","14","Male","","","","","","","null","<div style=""font-size:60px;"">+</div>","null","fixation","","","","","","","","","","","",""
"learning-instructions","38","248019","0.0-3.0-7.0-0.0","spark_pilot_norest","9150","6","14","Male","","","","","","","2008.2999999523163","<p> Great job. Now let’s try putting it together. </p>
            <p> On each turn, you will first see a picture to remind you of the place you are in, and you need to choose whether to go up or down. </p>
            <p> Then you will see an animal and choose which of its chests to search for treasure. </p>","","instructions","","","","","","","","","","","",""
"learning-instructions","39","256537","0.0-3.0-7.0-0.1","spark_pilot_norest","9150","6","14","Male","","","","","","","221","<p> When you choose whether to go up or down, try to go to the animal with the chest with the most treasure. </p>
            <p> Try practicing that now! </p>","","instructions","","","","","","","","","","","",""
"revaluation","40","262558","0.0-3.0-8.0-0.0","spark_pilot_norest","9150","6","14","Male","","false","","","","","[1544,1290.9000000953674]","./assets/img/space/6.jpg","[""ArrowUp"",""ArrowLeft""]","full practice","space","3","{""ArrowUp,ArrowLeft"":3,""ArrowUp,ArrowRight"":36,""ArrowDown,ArrowLeft"":15,""ArrowDown,ArrowRight"":23}","false","ArrowUp,ArrowLeft","false","","","","","",""
"html-keyboard-response","41","263069","0.0-3.0-8.0-1.0","spark_pilot_norest","9150","6","14","Male","","","","","","","null","<div style=""font-size:60px;"">+</div>","null","fixation","","","","","","","","","","","",""
"revaluation","42","269091","0.0-3.0-8.0-0.1","spark_pilot_norest","9150","6","14","Male","","false","","","","","[766.5999999046326,606.7999999523163]","./assets/img/space/7.jpg","[""ArrowDown"",""ArrowRight""]","full practice","space","23","{""ArrowUp,ArrowLeft"":3,""ArrowUp,ArrowRight"":36,""ArrowDown,ArrowLeft"":15,""ArrowDown,ArrowRight"":23}","false","ArrowDown,ArrowRight","false","","","","","",""
"html-keyboard-response","43","269597","0.0-3.0-8.0-1.1","spark_pilot_norest","9150","6","14","Male","","","","","","","null","<div style=""font-size:60px;"">+</div>","null","fixation","","","","","","","","","","","",""
"revaluation","44","275619","0.0-3.0-8.0-0.2","spark_pilot_norest","9150","6","14","Male","","false","","","","","[378.7000000476837,486.80000019073486]","./assets/img/space/8.jpg","[""ArrowUp"",""ArrowRight""]","full practice","space","36","{""ArrowUp,ArrowLeft"":3,""ArrowUp,ArrowRight"":36,""ArrowDown,ArrowLeft"":15,""ArrowDown,ArrowRight"":23}","true","ArrowUp,ArrowRight","false","","","","","",""
"html-keyboard-response","45","276124","0.0-3.0-8.0-1.2","spark_pilot_norest","9150","6","14","Male","","","","","","","null","<div style=""font-size:60px;"">+</div>","null","fixation","","","","","","","","","","","",""
"revaluation","46","282147","0.0-3.0-8.0-0.3","spark_pilot_norest","9150","6","14","Male","","false","","","","","[347.30000019073486,629.9000000953674]","./assets/img/space/9.jpg","[""ArrowUp"",""ArrowRight""]","full practice","space","36","{""ArrowUp,ArrowLeft"":3,""ArrowUp,ArrowRight"":36,""ArrowDown,ArrowLeft"":15,""ArrowDown,ArrowRight"":23}","true","ArrowUp,ArrowRight","false","","","","","",""
"html-keyboard-response","47","282652","0.0-3.0-8.0-1.3","spark_pilot_norest","9150","6","14","Male","","","","","","","null","<div style=""font-size:60px;"">+</div>","null","fixation","","","","","","","","","","","",""
"revaluation","48","288678","0.0-3.0-8.0-0.4","spark_pilot_norest","9150","6","14","Male","","false","","","","","[541.1000001430511,563.7999999523163]","./assets/img/space/10.jpg","[""ArrowDown"",""ArrowLeft""]","full practice","space","15","{""ArrowUp,ArrowLeft"":3,""ArrowUp,ArrowRight"":36,""ArrowDown,ArrowLeft"":15,""ArrowDown,ArrowRight"":23}","false","ArrowDown,ArrowLeft","false","","","","","",""
"html-keyboard-response","49","289187","0.0-3.0-8.0-1.4","spark_pilot_norest","9150","6","14","Male","","","","","","","null","<div style=""font-size:60px;"">+</div>","null","fixation","","","","","","","","","","","",""
"learning-instructions","50","301440","0.0-3.0-9.0-0.0","spark_pilot_norest","9150","6","14","Male","","","","","","","1859.2000000476837","<p> One last thing: sometimes, you will see a robber. The robber can be anywhere in the picture. </p>
            <p> If you do not stop them, you will lose treasure. </p>
            <img src='./assets/img/instructions/robber.jpg' class='instructions-image'>","","instructions","","","","","","","","","","","",""
"learning-instructions","51","310745","0.0-3.0-9.0-0.1","spark_pilot_norest","9150","6","14","Male","","","","","","","2109.4000000953674","<p> If you see the robber, you should <b>press the space bar</b> rather than using the arrow keys. </p>
            <p> Try practicing that now! </p>","","instructions","","","","","","","","","","","",""
"revaluation","52","314763","0.0-3.0-10.0-0.0","spark_pilot_norest","9150","6","14","Male","","false","","","","","[664.5]","./assets/img/space/catch/0.jpg","[""ArrowUp""]","catch practice","space","-10","{""ArrowUp,ArrowLeft"":3,""ArrowUp,ArrowRight"":36,""ArrowDown,ArrowLeft"":15,""ArrowDown,ArrowRight"":23}","false","ArrowUp","true","","","","","",""
"html-keyboard-response","53","315274","0.0-3.0-10.0-1.0","spark_pilot_norest","9150","6","14","Male","","","","","","","null","<div style=""font-size:60px;"">+</div>","null","fixation","","","","","","","","","","","",""
"revaluation","54","319290","0.0-3.0-10.0-0.1","spark_pilot_norest","9150","6","14","Male","","false","","","","","[1032.2999999523163]","./assets/img/space/catch/1.jpg","[""ArrowUp""]","catch practice","space","-10","{""ArrowUp,ArrowLeft"":3,""ArrowUp,ArrowRight"":36,""ArrowDown,ArrowLeft"":15,""ArrowDown,ArrowRight"":23}","false","ArrowUp","true","","","","","",""
"html-keyboard-response","55","319802","0.0-3.0-10.0-1.1","spark_pilot_norest","9150","6","14","Male","","","","","","","null","<div style=""font-size:60px;"">+</div>","null","fixation","","","","","","","","","","","",""
"revaluation","56","323818","0.0-3.0-10.0-0.2","spark_pilot_norest","9150","6","14","Male","","false","","","","","[598.5]","./assets/img/space/catch/2.jpg","[""ArrowDown""]","catch practice","space","-10","{""ArrowUp,ArrowLeft"":3,""ArrowUp,ArrowRight"":36,""ArrowDown,ArrowLeft"":15,""ArrowDown,ArrowRight"":23}","false","ArrowDown","true","","","","","",""
"html-keyboard-response","57","324330","0.0-3.0-10.0-1.2","spark_pilot_norest","9150","6","14","Male","","","","","","","null","<div style=""font-size:60px;"">+</div>","null","fixation","","","","","","","","","","","",""
"learning-instructions","58","331062","0.0-3.0-11.0-0.0-0.0","spark_pilot_norest","9150","6","14","Male","","","","","","","1462.2999999523163","<p> Now, you will practice a shortened version of the game to get a sense of how it all fits together. </p>","","instructions","","","","","","","","","","","",""
"learning-instructions","59","335572","0.0-3.0-11.0-0.0-0.1","spark_pilot_norest","9150","6","14","Male","","","","","","","1299.9000000953674","<p>This time you are searching for treasure in outer space.</p>","","instructions","","","","","","","","","","","",""
"learning-instructions","60","351287","0.0-3.0-11.0-1.0-0.0","spark_pilot_norest","9150","6","14","Male","","","","","","","909.6000001430511","<p> Remember, when you see a picture of the place, use the up and down keys to <b>find an animal</b>.</p>
            <p> When you encounter an animal, you should use the left and right keys to <b>select a treasure chest</b>.</p>
            <p> Don't forget to look out for the robber! </p>","","instructions","","","","","","","","","","","",""
"revaluation","61","357312","0.0-3.0-11.0-2.0-0.0","spark_pilot_norest","9150","6","14","Male","","false","","","","","[1090.2000000476837,525.3999998569489]","./assets/img/space/11.jpg","[""ArrowUp"",""ArrowRight""]","practice block","space","36","{""ArrowUp,ArrowLeft"":3,""ArrowUp,ArrowRight"":36,""ArrowDown,ArrowLeft"":15,""ArrowDown,ArrowRight"":23}","true","ArrowUp,ArrowRight","false","","","","","",""
"html-keyboard-response","62","357821","0.0-3.0-11.0-2.0-1.0","spark_pilot_norest","9150","6","14","Male","","","","","","","null","<div style=""font-size:60px;"">+</div>","null","fixation","","","","","","","","","","","",""
"revaluation","63","363851","0.0-3.0-11.0-2.0-0.1","spark_pilot_norest","9150","6","14","Male","","false","","","","","[999.7000000476837,912.6000001430511]","./assets/img/space/12.jpg","[""ArrowDown"",""ArrowRight""]","practice block","space","23","{""ArrowUp,ArrowLeft"":3,""ArrowUp,ArrowRight"":36,""ArrowDown,ArrowLeft"":15,""ArrowDown,ArrowRight"":23}","false","ArrowDown,ArrowRight","false","","","","","",""
"html-keyboard-response","64","364360","0.0-3.0-11.0-2.0-1.1","spark_pilot_norest","9150","6","14","Male","","","","","","","null","<div style=""font-size:60px;"">+</div>","null","fixation","","","","","","","","","","","",""
"revaluation","65","370381","0.0-3.0-11.0-2.0-0.2","spark_pilot_norest","9150","6","14","Male","","false","","","","","[838.4000000953674,688.5999999046326]","./assets/img/space/13.jpg","[""ArrowUp"",""ArrowRight""]","practice block","space","36","{""ArrowUp,ArrowLeft"":3,""ArrowUp,ArrowRight"":36,""ArrowDown,ArrowLeft"":15,""ArrowDown,ArrowRight"":23}","true","ArrowUp,ArrowRight","false","","","","","",""
"html-keyboard-response","66","370887","0.0-3.0-11.0-2.0-1.2","spark_pilot_norest","9150","6","14","Male","","","","","","","null","<div style=""font-size:60px;"">+</div>","null","fixation","","","","","","","","","","","",""
"revaluation","67","376909","0.0-3.0-11.0-2.0-0.3","spark_pilot_norest","9150","6","14","Male","","false","","","","","[639.0999999046326,835.9000000953674]","./assets/img/space/14.jpg","[""ArrowDown"",""ArrowRight""]","practice block","space","23","{""ArrowUp,ArrowLeft"":3,""ArrowUp,ArrowRight"":36,""ArrowDown,ArrowLeft"":15,""ArrowDown,ArrowRight"":23}","false","ArrowDown,ArrowRight","false","","","","","",""
"html-keyboard-response","68","377416","0.0-3.0-11.0-2.0-1.3","spark_pilot_norest","9150","6","14","Male","","","","","","","null","<div style=""font-size:60px;"">+</div>","null","fixation","","","","","","","","","","","",""
"revaluation","69","383438","0.0-3.0-11.0-2.0-0.4","spark_pilot_norest","9150","6","14","Male","","false","","","","","[993.4000000953674,902.5999999046326]","./assets/img/space/11.jpg","[""ArrowUp"",""ArrowRight""]","practice block","space","36","{""ArrowUp,ArrowLeft"":3,""ArrowUp,ArrowRight"":36,""ArrowDown,ArrowLeft"":15,""ArrowDown,ArrowRight"":23}","true","ArrowUp,ArrowRight","false","","","","","",""
"html-keyboard-response","70","383942","0.0-3.0-11.0-2.0-1.4","spark_pilot_norest","9150","6","14","Male","","","","","","","null","<div style=""font-size:60px;"">+</div>","null","fixation","","","","","","","","","","","",""
"revaluation","71","389965","0.0-3.0-11.0-2.0-0.5","spark_pilot_norest","9150","6","14","Male","","false","","","","","[708.6000001430511,553.4000000953674]","./assets/img/space/12.jpg","[""ArrowDown"",""ArrowRight""]","practice block","space","23","{""ArrowUp,ArrowLeft"":3,""ArrowUp,ArrowRight"":36,""ArrowDown,ArrowLeft"":15,""ArrowDown,ArrowRight"":23}","false","ArrowDown,ArrowRight","false","","","","","",""
"html-keyboard-response","72","390471","0.0-3.0-11.0-2.0-1.5","spark_pilot_norest","9150","6","14","Male","","","","","","","null","<div style=""font-size:60px;"">+</div>","null","fixation","","","","","","","","","","","",""
"revaluation","73","396503","0.0-3.0-11.0-2.0-0.6","spark_pilot_norest","9150","6","14","Male","","false","","","","","[656.0999999046326,641.0999999046326]","./assets/img/space/13.jpg","[""ArrowUp"",""ArrowRight""]","practice block","space","36","{""ArrowUp,ArrowLeft"":3,""ArrowUp,ArrowRight"":36,""ArrowDown,ArrowLeft"":15,""ArrowDown,ArrowRight"":23}","true","ArrowUp,ArrowRight","false","","","","","",""
"html-keyboard-response","74","397015","0.0-3.0-11.0-2.0-1.6","spark_pilot_norest","9150","6","14","Male","","","","","","","null","<div style=""font-size:60px;"">+</div>","null","fixation","","","","","","","","","","","",""
"revaluation","75","403036","0.0-3.0-11.0-2.0-0.7","spark_pilot_norest","9150","6","14","Male","","false","","","","","[926.0999999046326,699.2999999523163]","./assets/img/space/14.jpg","[""ArrowUp"",""ArrowRight""]","practice block","space","36","{""ArrowUp,ArrowLeft"":3,""ArrowUp,ArrowRight"":36,""ArrowDown,ArrowLeft"":15,""ArrowDown,ArrowRight"":23}","true","ArrowUp,ArrowRight","false","","","","","",""
"html-keyboard-response","76","403543","0.0-3.0-11.0-2.0-1.7","spark_pilot_norest","9150","6","14","Male","","","","","","","null","<div style=""font-size:60px;"">+</div>","null","fixation","","","","","","","","","","","",""
"revaluation","77","407564","0.0-3.0-11.0-2.0-0.8","spark_pilot_norest","9150","6","14","Male","","false","","","","","[747]","./assets/img/space/catch/3.jpg","[""spaceBar""]","practice block","space","0","{""ArrowUp,ArrowLeft"":3,""ArrowUp,ArrowRight"":36,""ArrowDown,ArrowLeft"":15,""ArrowDown,ArrowRight"":23}","true","spaceBar","true","","","","","",""
"html-keyboard-response","78","408070","0.0-3.0-11.0-2.0-1.8","spark_pilot_norest","9150","6","14","Male","","","","","","","null","<div style=""font-size:60px;"">+</div>","null","fixation","","","","","","","","","","","",""
"learning-instructions","79","423821","0.0-3.0-11.0-3.0-0.0","spark_pilot_norest","9150","6","14","Male","","","","","","","2751","<p> Now, you will travel with a friend who will choose whether you go up or down first. </p>
            <p> On these turns, you will just see the animal that they found. You will still get to choose which chest to search for treasure.</p>","","instructions","","","","","","","","","","","",""
"revaluation","80","427836","0.0-3.0-11.0-4.0-0.0","spark_pilot_norest","9150","6","14","Male","","false","","","","","[590]","./assets/img/space/animals/rabbit.jpg","[""ArrowRight""]","practice block","space","23","{""ArrowUp,ArrowLeft"":3,""ArrowUp,ArrowRight"":36,""ArrowDown,ArrowLeft"":15,""ArrowDown,ArrowRight"":23}","true","ArrowDown,ArrowRight","","","","","","",""
"html-keyboard-response","81","428345","0.0-3.0-11.0-4.0-1.0","spark_pilot_norest","9150","6","14","Male","","","","","","","null","<div style=""font-size:60px;"">+</div>","null","fixation","","","","","","","","","","","",""
"revaluation","82","432361","0.0-3.0-11.0-4.0-0.1","spark_pilot_norest","9150","6","14","Male","","false","","","","","[864.6000001430511]","./assets/img/space/animals/rabbit.jpg","[""ArrowRight""]","practice block","space","23","{""ArrowUp,ArrowLeft"":3,""ArrowUp,ArrowRight"":36,""ArrowDown,ArrowLeft"":15,""ArrowDown,ArrowRight"":23}","true","ArrowDown,ArrowRight","","","","","","",""
"html-keyboard-response","83","432867","0.0-3.0-11.0-4.0-1.1","spark_pilot_norest","9150","6","14","Male","","","","","","","null","<div style=""font-size:60px;"">+</div>","null","fixation","","","","","","","","","","","",""
"revaluation","84","436884","0.0-3.0-11.0-4.0-0.2","spark_pilot_norest","9150","6","14","Male","","false","","","","","[554.1000001430511]","./assets/img/space/animals/cat.jpg","[""ArrowRight""]","practice block","space","36","{""ArrowUp,ArrowLeft"":3,""ArrowUp,ArrowRight"":36,""ArrowDown,ArrowLeft"":15,""ArrowDown,ArrowRight"":23}","true","ArrowUp,ArrowRight","","","","","","",""
"html-keyboard-response","85","437395","0.0-3.0-11.0-4.0-1.2","spark_pilot_norest","9150","6","14","Male","","","","","","","null","<div style=""font-size:60px;"">+</div>","null","fixation","","","","","","","","","","","",""
"revaluation","86","441417","0.0-3.0-11.0-4.0-0.3","spark_pilot_norest","9150","6","14","Male","","false","","","","","[567.2999999523163]","./assets/img/space/animals/cat.jpg","[""ArrowRight""]","practice block","space","36","{""ArrowUp,ArrowLeft"":3,""ArrowUp,ArrowRight"":36,""ArrowDown,ArrowLeft"":15,""ArrowDown,ArrowRight"":23}","true","ArrowUp,ArrowRight","","","","","","",""
"html-keyboard-response","87","441924","0.0-3.0-11.0-4.0-1.3","spark_pilot_norest","9150","6","14","Male","","","","","","","null","<div style=""font-size:60px;"">+</div>","null","fixation","","","","","","","","","","","",""
"learning-instructions","88","450074","0.0-3.0-11.0-5.0-0.0","spark_pilot_norest","9150","6","14","Male","","","","","","","null","<p> You have almost finished this part of the game! </p>
            <p> We are going to ask you to make a few more choices. </p>","","instructions","","","","","","","","","","","",""
"learning-instructions","89","466129","0.0-3.0-11.0-5.0-0.1","spark_pilot_norest","9150","6","14","Male","","","","","","","null","<p> First, you need to decide whether to go up or down. When you see each picture, use the arrow keys to make your choice. </p>
            <p><b>You will not see which animal you found, but try to get to the one that will give you the most treasure.</b></p>","","instructions","","","","","","","","","","","",""
"html-keyboard-response","90","467137","0.0-3.0-11.0-6.0-0.0","spark_pilot_norest","9150","6","14","Male","","","","","","","null","<div style=""font-size:100px;color:red;"">Starting in...</div>","null","","","","","","","","","","","","",""
"html-keyboard-response","91","468145","0.0-3.0-11.0-6.0-1.0","spark_pilot_norest","9150","6","14","Male","","","","","","","null","<div style=""font-size:200px;color:red;"">3</div>","null","","","","","","","","","","","","",""
"html-keyboard-response","92","469154","0.0-3.0-11.0-6.0-2.0","spark_pilot_norest","9150","6","14","Male","","","","","","","null","<div style=""font-size:200px;color:red;"">2</div>","null","","","","","","","","","","","","",""
"html-keyboard-response","93","470161","0.0-3.0-11.0-6.0-3.0","spark_pilot_norest","9150","6","14","Male","","","","","","","null","<div style=""font-size:200px;color:red;"">1</div>","null","","","","","","","","","","","","",""
"revaluation","94","470564","0.0-3.0-11.0-7.0","spark_pilot_norest","9150","6","14","Male","","false","","","","","[398.10000014305115]","./assets/img/space/15.jpg","[""ArrowUp""]","practice block","space","0","{""ArrowUp,ArrowLeft"":3,""ArrowUp,ArrowRight"":36,""ArrowDown,ArrowLeft"":15,""ArrowDown,ArrowRight"":23}","true","ArrowUp","false","","","","","",""
"html-keyboard-response","95","471073","0.0-3.0-11.0-8.0","spark_pilot_norest","9150","6","14","Male","","","","","","","null","<div style=""font-size:60px;"">+</div>","null","fixation","","","","","","","","","","","",""
"learning-instructions","96","484486","0.0-3.0-11.0-9.0-0.0","spark_pilot_norest","9150","6","14","Male","","","","","","","null","<p> Now you will see the animals again and can search their chests for treasure. </p>
            <p> This time, you will not see how much treasure you earned, but you will earn more bonus money for making better choices. </p>","","instructions","","","","","","","","","","","",""
"html-keyboard-response","97","485494","0.0-3.0-11.0-10.0-0.0","spark_pilot_norest","9150","6","14","Male","","","","","","","null","<div style=""font-size:100px;color:red;"">Starting in...</div>","null","","","","","","","","","","","","",""
"html-keyboard-response","98","486505","0.0-3.0-11.0-10.0-1.0","spark_pilot_norest","9150","6","14","Male","","","","","","","null","<div style=""font-size:200px;color:red;"">3</div>","null","","","","","","","","","","","","",""
"html-keyboard-response","99","487513","0.0-3.0-11.0-10.0-2.0","spark_pilot_norest","9150","6","14","Male","","","","","","","null","<div style=""font-size:200px;color:red;"">2</div>","null","","","","","","","","","","","","",""
"html-keyboard-response","100","488519","0.0-3.0-11.0-10.0-3.0","spark_pilot_norest","9150","6","14","Male","","","","","","","null","<div style=""font-size:200px;color:red;"">1</div>","null","","","","","","","","","","","","",""
"revaluation","101","489186","0.0-3.0-11.0-11.0-0.0","spark_pilot_norest","9150","6","14","Male","","false","","","","","[665.6000001430511]","./assets/img/space/animals/cat.jpg","[""ArrowRight""]","practice block","space","0","{""ArrowUp,ArrowLeft"":3,""ArrowUp,ArrowRight"":36,""ArrowDown,ArrowLeft"":15,""ArrowDown,ArrowRight"":23}","true","ArrowUp,ArrowRight","","","","","","",""
"html-keyboard-response","102","489696","0.0-3.0-11.0-11.0-1.0","spark_pilot_norest","9150","6","14","Male","","","","","","","null","<div style=""font-size:60px;"">+</div>","null","fixation","","","","","","","","","","","",""
"revaluation","103","490374","0.0-3.0-11.0-11.0-0.1","spark_pilot_norest","9150","6","14","Male","","false","","","","","[674.2000000476837]","./assets/img/space/animals/rabbit.jpg","[""ArrowRight""]","practice block","space","0","{""ArrowUp,ArrowLeft"":3,""ArrowUp,ArrowRight"":36,""ArrowDown,ArrowLeft"":15,""ArrowDown,ArrowRight"":23}","true","ArrowDown,ArrowRight","","","","","","",""
"html-keyboard-response","104","490880","0.0-3.0-11.0-11.0-1.1","spark_pilot_norest","9150","6","14","Male","","","","","","","null","<div style=""font-size:60px;"">+</div>","null","fixation","","","","","","","","","","","",""
"learning-instructions","105","496804","0.0-3.0-12.0-0.0","spark_pilot_norest","9150","6","14","Male","","","","","","","1323.5999999046326","<p> Before you start, we're going to ask you a few questions about how the game works. </p>","","instructions","","","","","","","","","","","",""
"comp-q","106","503099","0.0-3.0-13.0-0.0-0.0","spark_pilot_norest","9150","6","14","Male","","","","","","","667.5","<p> <b> True or False? </b> </p>
            <p> There can be 50 pieces of treasure in a given animal's chest. </p>","1","comp_question","","","","true","","","","","","","",""
"comp-q","107","510651","0.0-3.0-13.0-0.0-1.0","spark_pilot_norest","9150","6","14","Male","","","","","","","872.1999998092651","<p> <b> That's right! </b> The amount of treasure in each chest can range from 0 to 40 pieces. </p>","0","comp_answer","","","","","","","","","","","",""
"comp-q","108","518521","0.0-3.0-13.0-0.1-0.1","spark_pilot_norest","9150","6","14","Male","","","","","","","721.2000000476837","<p> <b> True or False? </b> </p><p> In this game, all animals have the same amount of treasure in their left and right chests. </p>","1","comp_question","","","","true","","","","","","","",""
"comp-q","109","524742","0.0-3.0-13.0-0.1-1.1","spark_pilot_norest","9150","6","14","Male","","","","","","","953.2000000476837","<p> <b> That's right! </b> Animals have different amounts of treasure in their treasure chests. </p>","0","comp_answer","","","","","","","","","","","",""
"comp-q","110","531237","0.0-3.0-13.0-0.2-0.2","spark_pilot_norest","9150","6","14","Male","","","","","","","622.8999998569489","<p> <b> True or False? </b> </p><p> The same animal will always be there if you go up in the same place. </p>","1","comp_question","","","","false","","","","","","","",""
"comp-q","111","538404","0.0-3.0-13.0-0.2-1.2","spark_pilot_norest","9150","6","14","Male","","","","","","","835.2999999523163","<p> <b>Incorrect.</b> One animal lives in the upper part and one lives in the lower part of every place. </p>","0","comp_answer","","","","","","","","","","","",""
"comp-q","112","545355","0.0-3.0-13.0-0.3-0.3","spark_pilot_norest","9150","6","14","Male","","","","","","","1124.1000001430511","<p> <b> True or False? </b> </p><p> The same animal will always be there if you go up in the same place. </p>","0","comp_question","","","","true","","","","","","","",""
"comp-q","113","553305","0.0-3.0-13.0-0.3-1.3","spark_pilot_norest","9150","6","14","Male","","","","","","","1480.5999999046326","<p> <b> That's right! </b> One animal lives in the upper part and one lives in the lower part of every place. </p>","0","comp_answer","","","","","","","","","","","",""
"comp-q","114","559164","0.0-3.0-13.0-0.4-0.4","spark_pilot_norest","9150","6","14","Male","","","","","","","309.90000009536743","<p> <b> True or False? </b> </p><p> If you see a different picture, it means you are in a new place. </p>","0","comp_question","","","","false","","","","","","","",""
"comp-q","115","570872","0.0-3.0-13.0-0.4-1.4","spark_pilot_norest","9150","6","14","Male","","","","","","","579.1000001430511","<p> <b>Incorrect.</b> Lots of different images may show the same place. For example,  you may see three different images that all remind you that you are in outer space. </p>","0","comp_answer","","","","","","","","","","","",""
"comp-q","116","576768","0.0-3.0-13.0-0.5-0.5","spark_pilot_norest","9150","6","14","Male","","","","","","","390","<p> <b> True or False? </b> </p><p> If you see a different picture, it means you are in a new place. </p>","1","comp_question","","","","true","","","","","","","",""
"comp-q","117","589814","0.0-3.0-13.0-0.5-1.5","spark_pilot_norest","9150","6","14","Male","","","","","","","1772.7999999523163","<p> <b> That's right! </b> Lots of different images may show the same place. For example,  you may see three different images that all remind you that you are in outer space. </p>","0","comp_answer","","","","","","","","","","","",""
"learning-instructions","118","601030","0.0-3.0-14.0-0.0","spark_pilot_norest","9150","6","14","Male","","","","","","","1325.7999999523163","<p> Good job. Remember to do your best because the amount of treasure you earn will be converted into bonus money. </p>
            <p> It’s time to start the real game! </p>","","instructions","","","","","","","","","","","",""
"learning-instructions","119","604916","0.0-4.0-0.0-0.0","spark_pilot_norest","9150","6","14","Male","","","","","","","1095.2000000476837","<p> This time you are searching for treasure in the <b>canyon</b>.</p>","","instructions","","","","","","","","","","","",""
"learning-instructions","120","624637","0.0-4.0-0.0-0.1","spark_pilot_norest","9150","6","14","Male","","","","","","","2374.2000000476837","<p><b>New</b> animals with <b>new</b> treasure chests live here. You need to explore to discover where the animal with the best treasure chest is.</p>
                    <p> Like before, once you figure out which animal has the chest with the most treasure, you should try to get to that animal and select that chest! </p>","","instructions","","","","","","","","","","","",""
"learning-instructions","121","640919","0.0-4.0-1.0-0.0","spark_pilot_norest","9150","6","14","Male","","","","","","","1553.5999999046326","<p> Remember, when you see a picture of the place, use the up and down keys to <b>find an animal</b>.</p>
            <p> When you encounter an animal, you should use the left and right keys to <b>select a treasure chest</b>.</p>
            <p> Don't forget to look out for the robber! </p>","","instructions","","","","","","","","","","","",""
"revaluation","122","646941","0.0-4.0-2.0-0.0","spark_pilot_norest","9150","6","14","Male","","false","","","","","[1060.7000000476837,912.3999998569489]","./assets/img/canyon/memory/33.jpg","[""ArrowUp"",""ArrowRight""]","value training","canyon","10","{""ArrowUp,ArrowLeft"":23,""ArrowUp,ArrowRight"":10,""ArrowDown,ArrowLeft"":8,""ArrowDown,ArrowRight"":30}","false","ArrowUp,ArrowRight","false","revaluation","1","0","","",""
"html-keyboard-response","123","647456","0.0-4.0-2.0-1.0","spark_pilot_norest","9150","6","14","Male","","","","","","","null","<div style=""font-size:60px;"">+</div>","null","fixation","","","","","","","","","1","","",""
"revaluation","124","653485","0.0-4.0-2.0-0.1","spark_pilot_norest","9150","6","14","Male","","false","","","","","[345.7000000476837,426.2000000476837]","./assets/img/canyon/memory/17.jpg","[""ArrowUp"",""ArrowLeft""]","value training","canyon","23","{""ArrowUp,ArrowLeft"":23,""ArrowUp,ArrowRight"":10,""ArrowDown,ArrowLeft"":8,""ArrowDown,ArrowRight"":30}","false","ArrowUp,ArrowLeft","false","revaluation","1","2","","",""
"html-keyboard-response","125","653990","0.0-4.0-2.0-1.1","spark_pilot_norest","9150","6","14","Male","","","","","","","null","<div style=""font-size:60px;"">+</div>","null","fixation","","","","","","","","","3","","",""
"revaluation","126","660015","0.0-4.0-2.0-0.2","spark_pilot_norest","9150","6","14","Male","","false","","","","","[573.6999998092651,410.7999999523163]","./assets/img/canyon/memory/0.jpg","[""ArrowUp"",""ArrowLeft""]","value training","canyon","23","{""ArrowUp,ArrowLeft"":23,""ArrowUp,ArrowRight"":10,""ArrowDown,ArrowLeft"":8,""ArrowDown,ArrowRight"":30}","false","ArrowUp,ArrowLeft","false","revaluation","1","4","","",""
"html-keyboard-response","127","660518","0.0-4.0-2.0-1.2","spark_pilot_norest","9150","6","14","Male","","","","","","","null","<div style=""font-size:60px;"">+</div>","null","fixation","","","","","","","","","5","","",""
"revaluation","128","666540","0.0-4.0-2.0-0.3","spark_pilot_norest","9150","6","14","Male","","false","","","","","[288.59999990463257,381.90000009536743]","./assets/img/canyon/memory/32.jpg","[""ArrowUp"",""ArrowLeft""]","value training","canyon","23","{""ArrowUp,ArrowLeft"":23,""ArrowUp,ArrowRight"":10,""ArrowDown,ArrowLeft"":8,""ArrowDown,ArrowRight"":30}","false","ArrowUp,ArrowLeft","false","revaluation","1","6","","",""
"html-keyboard-response","129","667046","0.0-4.0-2.0-1.3","spark_pilot_norest","9150","6","14","Male","","","","","","","null","<div style=""font-size:60px;"">+</div>","null","fixation","","","","","","","","","7","","",""
"revaluation","130","671062","0.0-4.0-2.0-0.4","spark_pilot_norest","9150","6","14","Male","","false","","","","","[285.2999999523163]","./assets/img/canyon/catch/6.jpg","[""ArrowDown""]","value training","canyon","-10","{""ArrowUp,ArrowLeft"":23,""ArrowUp,ArrowRight"":10,""ArrowDown,ArrowLeft"":8,""ArrowDown,ArrowRight"":30}","false","ArrowDown","true","revaluation","1","8","","",""
"html-keyboard-response","131","671574","0.0-4.0-2.0-1.4","spark_pilot_norest","9150","6","14","Male","","","","","","","null","<div style=""font-size:60px;"">+</div>","null","fixation","","","","","","","","","9","","",""
"revaluation","132","675590","0.0-4.0-2.0-0.5","spark_pilot_norest","9150","6","14","Male","","false","","","","","[515.7999999523163]","./assets/img/canyon/catch/3.jpg","[""spaceBar""]","value training","canyon","0","{""ArrowUp,ArrowLeft"":23,""ArrowUp,ArrowRight"":10,""ArrowDown,ArrowLeft"":8,""ArrowDown,ArrowRight"":30}","true","spaceBar","true","revaluation","1","10","","",""
"html-keyboard-response","133","676101","0.0-4.0-2.0-1.5","spark_pilot_norest","9150","6","14","Male","","","","","","","null","<div style=""font-size:60px;"">+</div>","null","fixation","","","","","","","","","11","","",""
"revaluation","134","682127","0.0-4.0-2.0-0.6","spark_pilot_norest","9150","6","14","Male","","false","","","","","[1145.8000001907349,962.2000000476837]","./assets/img/canyon/memory/24.jpg","[""ArrowDown"",""ArrowRight""]","value training","canyon","30","{""ArrowUp,ArrowLeft"":23,""ArrowUp,ArrowRight"":10,""ArrowDown,ArrowLeft"":8,""ArrowDown,ArrowRight"":30}","true","ArrowDown,ArrowRight","false","revaluation","1","12","","",""
"html-keyboard-response","135","682639","0.0-4.0-2.0-1.6","spark_pilot_norest","9150","6","14","Male","","","","","","","null","<div style=""font-size:60px;"">+</div>","null","fixation","","","","","","","","","13","","",""
"revaluation","136","688671","0.0-4.0-2.0-0.7","spark_pilot_norest","9150","6","14","Male","","false","","","","","[855.1000001430511,411.10000014305115]","./assets/img/canyon/memory/1.jpg","[""ArrowUp"",""ArrowLeft""]","value training","canyon","23","{""ArrowUp,ArrowLeft"":23,""ArrowUp,ArrowRight"":10,""ArrowDown,ArrowLeft"":8,""ArrowDown,ArrowRight"":30}","false","ArrowUp,ArrowLeft","false","revaluation","1","14","","",""
"html-keyboard-response","137","689182","0.0-4.0-2.0-1.7","spark_pilot_norest","9150","6","14","Male","","","","","","","null","<div style=""font-size:60px;"">+</div>","null","fixation","","","","","","","","","15","","",""
"revaluation","138","695214","0.0-4.0-2.0-0.8","spark_pilot_norest","9150","6","14","Male","","false","","","","","[1033,850.9000000953674]","./assets/img/canyon/memory/40.jpg","[""ArrowUp"",""ArrowLeft""]","value training","canyon","23","{""ArrowUp,ArrowLeft"":23,""ArrowUp,ArrowRight"":10,""ArrowDown,ArrowLeft"":8,""ArrowDown,ArrowRight"":30}","false","ArrowUp,ArrowLeft","false","revaluation","1","16","","",""
"html-keyboard-response","139","695726","0.0-4.0-2.0-1.8","spark_pilot_norest","9150","6","14","Male","","","","","","","null","<div style=""font-size:60px;"">+</div>","null","fixation","","","","","","","","","17","","",""
"revaluation","140","701748","0.0-4.0-2.0-0.9","spark_pilot_norest","9150","6","14","Male","","false","","","","","[538.8999998569489,104.19999980926514]","./assets/img/canyon/memory/28.jpg","[""ArrowUp"",""ArrowLeft""]","value training","canyon","23","{""ArrowUp,ArrowLeft"":23,""ArrowUp,ArrowRight"":10,""ArrowDown,ArrowLeft"":8,""ArrowDown,ArrowRight"":30}","false","ArrowUp,ArrowLeft","false","revaluation","1","18","","",""
"html-keyboard-response","141","702253","0.0-4.0-2.0-1.9","spark_pilot_norest","9150","6","14","Male","","","","","","","null","<div style=""font-size:60px;"">+</div>","null","fixation","","","","","","","","","19","","",""
"revaluation","142","708276","0.0-4.0-2.0-0.10","spark_pilot_norest","9150","6","14","Male","","false","","","","","[587.2000000476837,29.799999952316284]","./assets/img/canyon/memory/35.jpg","[""ArrowUp"",""ArrowLeft""]","value training","canyon","23","{""ArrowUp,ArrowLeft"":23,""ArrowUp,ArrowRight"":10,""ArrowDown,ArrowLeft"":8,""ArrowDown,ArrowRight"":30}","false","ArrowUp,ArrowLeft","false","revaluation","1","20","","",""
"html-keyboard-response","143","708787","0.0-4.0-2.0-1.10","spark_pilot_norest","9150","6","14","Male","","","","","","","null","<div style=""font-size:60px;"">+</div>","null","fixation","","","","","","","","","21","","",""
"revaluation","144","714813","0.0-4.0-2.0-0.11","spark_pilot_norest","9150","6","14","Male","","false","","","","","[436.2999999523163,1.5999999046325684]","./assets/img/canyon/memory/14.jpg","[""ArrowUp"",""ArrowLeft""]","value training","canyon","23","{""ArrowUp,ArrowLeft"":23,""ArrowUp,ArrowRight"":10,""ArrowDown,ArrowLeft"":8,""ArrowDown,ArrowRight"":30}","false","ArrowUp,ArrowLeft","false","revaluation","1","22","","",""
"html-keyboard-response","145","715324","0.0-4.0-2.0-1.11","spark_pilot_norest","9150","6","14","Male","","","","","","","null","<div style=""font-size:60px;"">+</div>","null","fixation","","","","","","","","","23","","",""
"revaluation","146","719341","0.0-4.0-2.0-0.12","spark_pilot_norest","9150","6","14","Male","","false","","","","","[874.8999998569489]","./assets/img/canyon/catch/1.jpg","[""spaceBar""]","value training","canyon","0","{""ArrowUp,ArrowLeft"":23,""ArrowUp,ArrowRight"":10,""ArrowDown,ArrowLeft"":8,""ArrowDown,ArrowRight"":30}","true","spaceBar","true","revaluation","1","24","","",""
"html-keyboard-response","147","719852","0.0-4.0-2.0-1.12","spark_pilot_norest","9150","6","14","Male","","","","","","","null","<div style=""font-size:60px;"">+</div>","null","fixation","","","","","","","","","25","","",""
"revaluation","148","725875","0.0-4.0-2.0-0.13","spark_pilot_norest","9150","6","14","Male","","false","","","","","[1104.5,140.39999985694885]","./assets/img/canyon/memory/37.jpg","[""ArrowUp"",""ArrowLeft""]","value training","canyon","23","{""ArrowUp,ArrowLeft"":23,""ArrowUp,ArrowRight"":10,""ArrowDown,ArrowLeft"":8,""ArrowDown,ArrowRight"":30}","false","ArrowUp,ArrowLeft","false","revaluation","1","26","","",""
"html-keyboard-response","149","726386","0.0-4.0-2.0-1.13","spark_pilot_norest","9150","6","14","Male","","","","","","","null","<div style=""font-size:60px;"">+</div>","null","fixation","","","","","","","","","27","","",""
"revaluation","150","732412","0.0-4.0-2.0-0.14","spark_pilot_norest","9150","6","14","Male","","false","","","","","[713.3000001907349,103.40000009536743]","./assets/img/canyon/memory/0.jpg","[""ArrowUp"",""ArrowLeft""]","value training","canyon","23","{""ArrowUp,ArrowLeft"":23,""ArrowUp,ArrowRight"":10,""ArrowDown,ArrowLeft"":8,""ArrowDown,ArrowRight"":30}","false","ArrowUp,ArrowLeft","false","revaluation","1","28","","",""
"html-keyboard-response","151","732919","0.0-4.0-2.0-1.14","spark_pilot_norest","9150","6","14","Male","","","","","","","null","<div style=""font-size:60px;"">+</div>","null","fixation","","","","","","","","","29","","",""
"revaluation","152","738946","0.0-4.0-2.0-0.15","spark_pilot_norest","9150","6","14","Male","","false","","","","","[996.7000000476837,12.599999904632568]","./assets/img/canyon/memory/14.jpg","[""ArrowUp"",""ArrowLeft""]","value training","canyon","23","{""ArrowUp,ArrowLeft"":23,""ArrowUp,ArrowRight"":10,""ArrowDown,ArrowLeft"":8,""ArrowDown,ArrowRight"":30}","false","ArrowUp,ArrowLeft","false","revaluation","1","30","","",""
"html-keyboard-response","153","739458","0.0-4.0-2.0-1.15","spark_pilot_norest","9150","6","14","Male","","","","","","","null","<div style=""font-size:60px;"">+</div>","null","fixation","","","","","","","","","31","","",""
"revaluation","154","745483","0.0-4.0-2.0-0.16","spark_pilot_norest","9150","6","14","Male","","false","","","","","[802.2000000476837,335.59999990463257]","./assets/img/canyon/memory/22.jpg","[""ArrowDown"",""ArrowLeft""]","value training","canyon","8","{""ArrowUp,ArrowLeft"":23,""ArrowUp,ArrowRight"":10,""ArrowDown,ArrowLeft"":8,""ArrowDown,ArrowRight"":30}","false","ArrowDown,ArrowLeft","false","revaluation","1","32","","",""
"html-keyboard-response","155","745995","0.0-4.0-2.0-1.16","spark_pilot_norest","9150","6","14","Male","","","","","","","null","<div style=""font-size:60px;"">+</div>","null","fixation","","","","","","","","","33","","",""
"revaluation","156","750018","0.0-4.0-2.0-0.17","spark_pilot_norest","9150","6","14","Male","","false","","","","","[564.0999999046326]","./assets/img/canyon/catch/4.jpg","[""spaceBar""]","value training","canyon","0","{""ArrowUp,ArrowLeft"":23,""ArrowUp,ArrowRight"":10,""ArrowDown,ArrowLeft"":8,""ArrowDown,ArrowRight"":30}","true","spaceBar","true","revaluation","1","34","","",""
"html-keyboard-response","157","750529","0.0-4.0-2.0-1.17","spark_pilot_norest","9150","6","14","Male","","","","","","","null","<div style=""font-size:60px;"">+</div>","null","fixation","","","","","","","","","35","","",""
"revaluation","158","754545","0.0-4.0-2.0-0.18","spark_pilot_norest","9150","6","14","Male","","false","","","","","[375.2999999523163]","./assets/img/canyon/catch/0.jpg","[""ArrowDown""]","value training","canyon","-10","{""ArrowUp,ArrowLeft"":23,""ArrowUp,ArrowRight"":10,""ArrowDown,ArrowLeft"":8,""ArrowDown,ArrowRight"":30}","false","ArrowDown","true","revaluation","1","36","","",""
"html-keyboard-response","159","755057","0.0-4.0-2.0-1.18","spark_pilot_norest","9150","6","14","Male","","","","","","","null","<div style=""font-size:60px;"">+</div>","null","fixation","","","","","","","","","37","","",""
"revaluation","160","761082","0.0-4.0-2.0-0.19","spark_pilot_norest","9150","6","14","Male","","false","","","","","[837.2000000476837,809.5]","./assets/img/canyon/memory/24.jpg","[""ArrowDown"",""ArrowRight""]","value training","canyon","30","{""ArrowUp,ArrowLeft"":23,""ArrowUp,ArrowRight"":10,""ArrowDown,ArrowLeft"":8,""ArrowDown,ArrowRight"":30}","true","ArrowDown,ArrowRight","false","revaluation","1","38","","",""
"html-keyboard-response","161","761594","0.0-4.0-2.0-1.19","spark_pilot_norest","9150","6","14","Male","","","","","","","null","<div style=""font-size:60px;"">+</div>","null","fixation","","","","","","","","","39","","",""
"revaluation","162","767626","0.0-4.0-2.0-0.20","spark_pilot_norest","9150","6","14","Male","","false","","","","","[1009.1000001430511,7.699999809265137]","./assets/img/canyon/memory/34.jpg","[""ArrowUp"",""ArrowLeft""]","value training","canyon","23","{""ArrowUp,ArrowLeft"":23,""ArrowUp,ArrowRight"":10,""ArrowDown,ArrowLeft"":8,""ArrowDown,ArrowRight"":30}","false","ArrowUp,ArrowLeft","false","revaluation","1","40","","",""
"html-keyboard-response","163","768137","0.0-4.0-2.0-1.20","spark_pilot_norest","9150","6","14","Male","","","","","","","null","<div style=""font-size:60px;"">+</div>","null","fixation","","","","","","","","","41","","",""
"revaluation","164","774160","0.0-4.0-2.0-0.21","spark_pilot_norest","9150","6","14","Male","","false","","","","","[766.5,287.7999999523163]","./assets/img/canyon/memory/37.jpg","[""ArrowUp"",""ArrowLeft""]","value training","canyon","23","{""ArrowUp,ArrowLeft"":23,""ArrowUp,ArrowRight"":10,""ArrowDown,ArrowLeft"":8,""ArrowDown,ArrowRight"":30}","false","ArrowUp,ArrowLeft","false","revaluation","1","42","","",""
"html-keyboard-response","165","774665","0.0-4.0-2.0-1.21","spark_pilot_norest","9150","6","14","Male","","","","","","","null","<div style=""font-size:60px;"">+</div>","null","fixation","","","","","","","","","43","","",""
"revaluation","166","780688","0.0-4.0-2.0-0.22","spark_pilot_norest","9150","6","14","Male","","false","","","","","[666.2999999523163,65.79999995231628]","./assets/img/canyon/memory/28.jpg","[""ArrowUp"",""ArrowLeft""]","value training","canyon","23","{""ArrowUp,ArrowLeft"":23,""ArrowUp,ArrowRight"":10,""ArrowDown,ArrowLeft"":8,""ArrowDown,ArrowRight"":30}","false","ArrowUp,ArrowLeft","false","revaluation","1","44","","",""
"html-keyboard-response","167","781199","0.0-4.0-2.0-1.22","spark_pilot_norest","9150","6","14","Male","","","","","","","null","<div style=""font-size:60px;"">+</div>","null","fixation","","","","","","","","","45","","",""
"revaluation","168","787225","0.0-4.0-2.0-0.23","spark_pilot_norest","9150","6","14","Male","","false","","","","","[631.0999999046326,78.09999990463257]","./assets/img/canyon/memory/17.jpg","[""ArrowUp"",""ArrowLeft""]","value training","canyon","23","{""ArrowUp,ArrowLeft"":23,""ArrowUp,ArrowRight"":10,""ArrowDown,ArrowLeft"":8,""ArrowDown,ArrowRight"":30}","false","ArrowUp,ArrowLeft","false","revaluation","1","46","","",""
"html-keyboard-response","169","787737","0.0-4.0-2.0-1.23","spark_pilot_norest","9150","6","14","Male","","","","","","","null","<div style=""font-size:60px;"">+</div>","null","fixation","","","","","","","","","47","","",""
"revaluation","170","793759","0.0-4.0-2.0-0.24","spark_pilot_norest","9150","6","14","Male","","false","","","","","[726.5,109.90000009536743]","./assets/img/canyon/memory/2.jpg","[""ArrowUp"",""ArrowLeft""]","value training","canyon","23","{""ArrowUp,ArrowLeft"":23,""ArrowUp,ArrowRight"":10,""ArrowDown,ArrowLeft"":8,""ArrowDown,ArrowRight"":30}","false","ArrowUp,ArrowLeft","false","revaluation","1","48","","",""
"html-keyboard-response","171","794270","0.0-4.0-2.0-1.24","spark_pilot_norest","9150","6","14","Male","","","","","","","null","<div style=""font-size:60px;"">+</div>","null","fixation","","","","","","","","","49","","",""
"revaluation","172","800296","0.0-4.0-2.0-0.25","spark_pilot_norest","9150","6","14","Male","","false","","","","","[685.6000001430511,29.40000009536743]","./assets/img/canyon/memory/1.jpg","[""ArrowUp"",""ArrowLeft""]","value training","canyon","23","{""ArrowUp,ArrowLeft"":23,""ArrowUp,ArrowRight"":10,""ArrowDown,ArrowLeft"":8,""ArrowDown,ArrowRight"":30}","false","ArrowUp,ArrowLeft","false","revaluation","1","50","","",""
"html-keyboard-response","173","800808","0.0-4.0-2.0-1.25","spark_pilot_norest","9150","6","14","Male","","","","","","","null","<div style=""font-size:60px;"">+</div>","null","fixation","","","","","","","","","51","","",""
"revaluation","174","806839","0.0-4.0-2.0-0.26","spark_pilot_norest","9150","6","14","Male","","false","","","","","[852,131.40000009536743]","./assets/img/canyon/memory/39.jpg","[""ArrowUp"",""ArrowLeft""]","value training","canyon","23","{""ArrowUp,ArrowLeft"":23,""ArrowUp,ArrowRight"":10,""ArrowDown,ArrowLeft"":8,""ArrowDown,ArrowRight"":30}","false","ArrowUp,ArrowLeft","false","revaluation","1","52","","",""
"html-keyboard-response","175","807351","0.0-4.0-2.0-1.26","spark_pilot_norest","9150","6","14","Male","","","","","","","null","<div style=""font-size:60px;"">+</div>","null","fixation","","","","","","","","","53","","",""
"revaluation","176","813384","0.0-4.0-2.0-0.27","spark_pilot_norest","9150","6","14","Male","","false","","","","","[759.2000000476837,281.5]","./assets/img/canyon/memory/18.jpg","[""ArrowUp"",""ArrowLeft""]","value training","canyon","23","{""ArrowUp,ArrowLeft"":23,""ArrowUp,ArrowRight"":10,""ArrowDown,ArrowLeft"":8,""ArrowDown,ArrowRight"":30}","false","ArrowUp,ArrowLeft","false","revaluation","1","54","","",""
"html-keyboard-response","177","813895","0.0-4.0-2.0-1.27","spark_pilot_norest","9150","6","14","Male","","","","","","","null","<div style=""font-size:60px;"">+</div>","null","fixation","","","","","","","","","55","","",""
"revaluation","178","819918","0.0-4.0-2.0-0.28","spark_pilot_norest","9150","6","14","Male","","false","","","","","[724.2999999523163,146.39999985694885]","./assets/img/canyon/memory/23.jpg","[""ArrowUp"",""ArrowLeft""]","value training","canyon","23","{""ArrowUp,ArrowLeft"":23,""ArrowUp,ArrowRight"":10,""ArrowDown,ArrowLeft"":8,""ArrowDown,ArrowRight"":30}","false","ArrowUp,ArrowLeft","false","revaluation","1","56","","",""
"html-keyboard-response","179","820429","0.0-4.0-2.0-1.28","spark_pilot_norest","9150","6","14","Male","","","","","","","null","<div style=""font-size:60px;"">+</div>","null","fixation","","","","","","","","","57","","",""
"revaluation","180","826454","0.0-4.0-2.0-0.29","spark_pilot_norest","9150","6","14","Male","","false","","","","","[607.7999999523163,329.2999999523163]","./assets/img/canyon/memory/2.jpg","[""ArrowUp"",""ArrowLeft""]","value training","canyon","23","{""ArrowUp,ArrowLeft"":23,""ArrowUp,ArrowRight"":10,""ArrowDown,ArrowLeft"":8,""ArrowDown,ArrowRight"":30}","false","ArrowUp,ArrowLeft","false","revaluation","1","58","","",""
"html-keyboard-response","181","826966","0.0-4.0-2.0-1.29","spark_pilot_norest","9150","6","14","Male","","","","","","","null","<div style=""font-size:60px;"">+</div>","null","fixation","","","","","","","","","59","","",""
"revaluation","182","832989","0.0-4.0-2.0-0.30","spark_pilot_norest","9150","6","14","Male","","false","","","","","[612.4000000953674,99.19999980926514]","./assets/img/canyon/memory/19.jpg","[""ArrowUp"",""ArrowLeft""]","value training","canyon","23","{""ArrowUp,ArrowLeft"":23,""ArrowUp,ArrowRight"":10,""ArrowDown,ArrowLeft"":8,""ArrowDown,ArrowRight"":30}","false","ArrowUp,ArrowLeft","false","revaluation","1","60","","",""
"html-keyboard-response","183","833500","0.0-4.0-2.0-1.30","spark_pilot_norest","9150","6","14","Male","","","","","","","null","<div style=""font-size:60px;"">+</div>","null","fixation","","","","","","","","","61","","",""
"revaluation","184","839534","0.0-4.0-2.0-0.31","spark_pilot_norest","9150","6","14","Male","","false","","","","","[602.2999999523163,50.09999990463257]","./assets/img/canyon/memory/18.jpg","[""ArrowUp"",""ArrowLeft""]","value training","canyon","23","{""ArrowUp,ArrowLeft"":23,""ArrowUp,ArrowRight"":10,""ArrowDown,ArrowLeft"":8,""ArrowDown,ArrowRight"":30}","false","ArrowUp,ArrowLeft","false","revaluation","1","62","","",""
"html-keyboard-response","185","840044","0.0-4.0-2.0-1.31","spark_pilot_norest","9150","6","14","Male","","","","","","","null","<div style=""font-size:60px;"">+</div>","null","fixation","","","","","","","","","63","","",""
"revaluation","186","846060","0.0-4.0-2.0-0.32","spark_pilot_norest","9150","6","14","Male","","false","","","","","[594.7000000476837,229.40000009536743]","./assets/img/canyon/memory/41.jpg","[""ArrowUp"",""ArrowLeft""]","value training","canyon","23","{""ArrowUp,ArrowLeft"":23,""ArrowUp,ArrowRight"":10,""ArrowDown,ArrowLeft"":8,""ArrowDown,ArrowRight"":30}","false","ArrowUp,ArrowLeft","false","revaluation","1","64","","",""
"html-keyboard-response","187","846571","0.0-4.0-2.0-1.32","spark_pilot_norest","9150","6","14","Male","","","","","","","null","<div style=""font-size:60px;"">+</div>","null","fixation","","","","","","","","","65","","",""
"revaluation","188","852593","0.0-4.0-2.0-0.33","spark_pilot_norest","9150","6","14","Male","","false","","","","","[534.3000001907349,28.799999952316284]","./assets/img/canyon/memory/40.jpg","[""ArrowUp"",""ArrowLeft""]","value training","canyon","23","{""ArrowUp,ArrowLeft"":23,""ArrowUp,ArrowRight"":10,""ArrowDown,ArrowLeft"":8,""ArrowDown,ArrowRight"":30}","false","ArrowUp,ArrowLeft","false","revaluation","1","66","","",""
"html-keyboard-response","189","853099","0.0-4.0-2.0-1.33","spark_pilot_norest","9150","6","14","Male","","","","","","","null","<div style=""font-size:60px;"">+</div>","null","fixation","","","","","","","","","67","","",""
"revaluation","190","859125","0.0-4.0-2.0-0.34","spark_pilot_norest","9150","6","14","Male","","false","","","","","[706.2000000476837,124]","./assets/img/canyon/memory/30.jpg","[""ArrowUp"",""ArrowLeft""]","value training","canyon","23","{""ArrowUp,ArrowLeft"":23,""ArrowUp,ArrowRight"":10,""ArrowDown,ArrowLeft"":8,""ArrowDown,ArrowRight"":30}","false","ArrowUp,ArrowLeft","false","revaluation","1","68","","",""
"html-keyboard-response","191","859636","0.0-4.0-2.0-1.34","spark_pilot_norest","9150","6","14","Male","","","","","","","null","<div style=""font-size:60px;"">+</div>","null","fixation","","","","","","","","","69","","",""
"revaluation","192","865668","0.0-4.0-2.0-0.35","spark_pilot_norest","9150","6","14","Male","","false","","","","","[761.9000000953674,157.40000009536743]","./assets/img/canyon/memory/30.jpg","[""ArrowUp"",""ArrowLeft""]","value training","canyon","23","{""ArrowUp,ArrowLeft"":23,""ArrowUp,ArrowRight"":10,""ArrowDown,ArrowLeft"":8,""ArrowDown,ArrowRight"":30}","false","ArrowUp,ArrowLeft","false","revaluation","1","70","","",""
"html-keyboard-response","193","866180","0.0-4.0-2.0-1.35","spark_pilot_norest","9150","6","14","Male","","","","","","","null","<div style=""font-size:60px;"">+</div>","null","fixation","","","","","","","","","71","","",""
"revaluation","194","872212","0.0-4.0-2.0-0.36","spark_pilot_norest","9150","6","14","Male","","false","","","","","[967.2999999523163,175.5]","./assets/img/canyon/memory/22.jpg","[""ArrowUp"",""ArrowLeft""]","value training","canyon","23","{""ArrowUp,ArrowLeft"":23,""ArrowUp,ArrowRight"":10,""ArrowDown,ArrowLeft"":8,""ArrowDown,ArrowRight"":30}","false","ArrowUp,ArrowLeft","false","revaluation","1","72","","",""
"html-keyboard-response","195","872723","0.0-4.0-2.0-1.36","spark_pilot_norest","9150","6","14","Male","","","","","","","null","<div style=""font-size:60px;"">+</div>","null","fixation","","","","","","","","","73","","",""
"revaluation","196","878746","0.0-4.0-2.0-0.37","spark_pilot_norest","9150","6","14","Male","","false","","","","","[557.7000000476837,4.099999904632568]","./assets/img/canyon/memory/34.jpg","[""ArrowUp"",""ArrowLeft""]","value training","canyon","23","{""ArrowUp,ArrowLeft"":23,""ArrowUp,ArrowRight"":10,""ArrowDown,ArrowLeft"":8,""ArrowDown,ArrowRight"":30}","false","ArrowUp,ArrowLeft","false","revaluation","1","74","","",""
"html-keyboard-response","197","879258","0.0-4.0-2.0-1.37","spark_pilot_norest","9150","6","14","Male","","","","","","","null","<div style=""font-size:60px;"">+</div>","null","fixation","","","","","","","","","75","","",""
"revaluation","198","885284","0.0-4.0-2.0-0.38","spark_pilot_norest","9150","6","14","Male","","false","","","","","[498.7999999523163,154.60000014305115]","./assets/img/canyon/memory/33.jpg","[""ArrowUp"",""ArrowLeft""]","value training","canyon","23","{""ArrowUp,ArrowLeft"":23,""ArrowUp,ArrowRight"":10,""ArrowDown,ArrowLeft"":8,""ArrowDown,ArrowRight"":30}","false","ArrowUp,ArrowLeft","false","revaluation","1","76","","",""
"html-keyboard-response","199","885795","0.0-4.0-2.0-1.38","spark_pilot_norest","9150","6","14","Male","","","","","","","null","<div style=""font-size:60px;"">+</div>","null","fixation","","","","","","","","","77","","",""
"revaluation","200","891827","0.0-4.0-2.0-0.39","spark_pilot_norest","9150","6","14","Male","","false","","","","","[570,626.4000000953674]","./assets/img/canyon/memory/39.jpg","[""ArrowUp"",""ArrowLeft""]","value training","canyon","23","{""ArrowUp,ArrowLeft"":23,""ArrowUp,ArrowRight"":10,""ArrowDown,ArrowLeft"":8,""ArrowDown,ArrowRight"":30}","false","ArrowUp,ArrowLeft","false","revaluation","1","78","","",""
"html-keyboard-response","201","892338","0.0-4.0-2.0-1.39","spark_pilot_norest","9150","6","14","Male","","","","","","","null","<div style=""font-size:60px;"">+</div>","null","fixation","","","","","","","","","79","","",""
"revaluation","202","896361","0.0-4.0-2.0-0.40","spark_pilot_norest","9150","6","14","Male","","false","","","","","[599.5]","./assets/img/canyon/catch/5.jpg","[""spaceBar""]","value training","canyon","0","{""ArrowUp,ArrowLeft"":23,""ArrowUp,ArrowRight"":10,""ArrowDown,ArrowLeft"":8,""ArrowDown,ArrowRight"":30}","true","spaceBar","true","revaluation","1","80","","",""
"html-keyboard-response","203","896873","0.0-4.0-2.0-1.40","spark_pilot_norest","9150","6","14","Male","","","","","","","null","<div style=""font-size:60px;"">+</div>","null","fixation","","","","","","","","","81","","",""
"revaluation","204","900889","0.0-4.0-2.0-0.41","spark_pilot_norest","9150","6","14","Male","","false","","","","","[681.7999999523163]","./assets/img/canyon/catch/7.jpg","[""spaceBar""]","value training","canyon","0","{""ArrowUp,ArrowLeft"":23,""ArrowUp,ArrowRight"":10,""ArrowDown,ArrowLeft"":8,""ArrowDown,ArrowRight"":30}","true","spaceBar","true","revaluation","1","82","","",""
"html-keyboard-response","205","901400","0.0-4.0-2.0-1.41","spark_pilot_norest","9150","6","14","Male","","","","","","","null","<div style=""font-size:60px;"">+</div>","null","fixation","","","","","","","","","83","","",""
"revaluation","206","907423","0.0-4.0-2.0-0.42","spark_pilot_norest","9150","6","14","Male","","false","","","","","[1020.9000000953674,1834.0999999046326]","./assets/img/canyon/memory/32.jpg","[""ArrowUp"",""ArrowLeft""]","value training","canyon","23","{""ArrowUp,ArrowLeft"":23,""ArrowUp,ArrowRight"":10,""ArrowDown,ArrowLeft"":8,""ArrowDown,ArrowRight"":30}","false","ArrowUp,ArrowLeft","false","revaluation","1","84","","",""
"html-keyboard-response","207","907928","0.0-4.0-2.0-1.42","spark_pilot_norest","9150","6","14","Male","","","","","","","null","<div style=""font-size:60px;"">+</div>","null","fixation","","","","","","","","","85","","",""
"revaluation","208","911944","0.0-4.0-2.0-0.43","spark_pilot_norest","9150","6","14","Male","","false","","","","","[639.7999999523163]","./assets/img/canyon/catch/2.jpg","[""spaceBar""]","value training","canyon","0","{""ArrowUp,ArrowLeft"":23,""ArrowUp,ArrowRight"":10,""ArrowDown,ArrowLeft"":8,""ArrowDown,ArrowRight"":30}","true","spaceBar","true","revaluation","1","86","","",""
"html-keyboard-response","209","912456","0.0-4.0-2.0-1.43","spark_pilot_norest","9150","6","14","Male","","","","","","","null","<div style=""font-size:60px;"">+</div>","null","fixation","","","","","","","","","87","","",""
"revaluation","210","918481","0.0-4.0-2.0-0.44","spark_pilot_norest","9150","6","14","Male","","false","","","","","[850.7999999523163,374.40000009536743]","./assets/img/canyon/memory/9.jpg","[""ArrowUp"",""ArrowLeft""]","value training","canyon","23","{""ArrowUp,ArrowLeft"":23,""ArrowUp,ArrowRight"":10,""ArrowDown,ArrowLeft"":8,""ArrowDown,ArrowRight"":30}","false","ArrowUp,ArrowLeft","false","revaluation","1","88","","",""
"html-keyboard-response","211","918993","0.0-4.0-2.0-1.44","spark_pilot_norest","9150","6","14","Male","","","","","","","null","<div style=""font-size:60px;"">+</div>","null","fixation","","","","","","","","","89","","",""
"revaluation","212","925015","0.0-4.0-2.0-0.45","spark_pilot_norest","9150","6","14","Male","","false","","","","","[637.7000000476837,16.90000009536743]","./assets/img/canyon/memory/9.jpg","[""ArrowUp"",""ArrowLeft""]","value training","canyon","23","{""ArrowUp,ArrowLeft"":23,""ArrowUp,ArrowRight"":10,""ArrowDown,ArrowLeft"":8,""ArrowDown,ArrowRight"":30}","false","ArrowUp,ArrowLeft","false","revaluation","1","90","","",""
"html-keyboard-response","213","925520","0.0-4.0-2.0-1.45","spark_pilot_norest","9150","6","14","Male","","","","","","","null","<div style=""font-size:60px;"">+</div>","null","fixation","","","","","","","","","91","","",""
"revaluation","214","931553","0.0-4.0-2.0-0.46","spark_pilot_norest","9150","6","14","Male","","false","","","","","[569.9000000953674,320.39999985694885]","./assets/img/canyon/memory/41.jpg","[""ArrowUp"",""ArrowLeft""]","value training","canyon","23","{""ArrowUp,ArrowLeft"":23,""ArrowUp,ArrowRight"":10,""ArrowDown,ArrowLeft"":8,""ArrowDown,ArrowRight"":30}","false","ArrowUp,ArrowLeft","false","revaluation","1","92","","",""
"html-keyboard-response","215","932066","0.0-4.0-2.0-1.46","spark_pilot_norest","9150","6","14","Male","","","","","","","null","<div style=""font-size:60px;"">+</div>","null","fixation","","","","","","","","","93","","",""
"revaluation","216","938096","0.0-4.0-2.0-0.47","spark_pilot_norest","9150","6","14","Male","","false","","","","","[556.2000000476837,295.30000019073486]","./assets/img/canyon/memory/35.jpg","[""ArrowUp"",""ArrowLeft""]","value training","canyon","23","{""ArrowUp,ArrowLeft"":23,""ArrowUp,ArrowRight"":10,""ArrowDown,ArrowLeft"":8,""ArrowDown,ArrowRight"":30}","false","ArrowUp,ArrowLeft","false","revaluation","1","94","","",""
"html-keyboard-response","217","938608","0.0-4.0-2.0-1.47","spark_pilot_norest","9150","6","14","Male","","","","","","","null","<div style=""font-size:60px;"">+</div>","null","fixation","","","","","","","","","95","","",""
"revaluation","218","944640","0.0-4.0-2.0-0.48","spark_pilot_norest","9150","6","14","Male","","false","","","","","[475.7999999523163,408.7999999523163]","./assets/img/canyon/memory/19.jpg","[""ArrowDown"",""ArrowRight""]","value training","canyon","30","{""ArrowUp,ArrowLeft"":23,""ArrowUp,ArrowRight"":10,""ArrowDown,ArrowLeft"":8,""ArrowDown,ArrowRight"":30}","true","ArrowDown,ArrowRight","false","revaluation","1","96","","",""
"html-keyboard-response","219","945151","0.0-4.0-2.0-1.48","spark_pilot_norest","9150","6","14","Male","","","","","","","null","<div style=""font-size:60px;"">+</div>","null","fixation","","","","","","","","","97","","",""
"revaluation","220","951174","0.0-4.0-2.0-0.49","spark_pilot_norest","9150","6","14","Male","","false","","","","","[717.5,240.39999985694885]","./assets/img/canyon/memory/23.jpg","[""ArrowDown"",""ArrowRight""]","value training","canyon","30","{""ArrowUp,ArrowLeft"":23,""ArrowUp,ArrowRight"":10,""ArrowDown,ArrowLeft"":8,""ArrowDown,ArrowRight"":30}","true","ArrowDown,ArrowRight","false","revaluation","1","98","","",""
"html-keyboard-response","221","951685","0.0-4.0-2.0-1.49","spark_pilot_norest","9150","6","14","Male","","","","","","","null","<div style=""font-size:60px;"">+</div>","null","fixation","","","","","","","","","99","","",""
"learning-instructions","222","967144","0.0-4.0-3.0-0.0","spark_pilot_norest","9150","6","14","Male","","","","","","","2521.199999809265","<p> Now, you will travel with a friend who will choose whether you go up or down first. </p>
            <p> On these turns, you will just see the animal that they found. You will still get to choose which chest to search for treasure.</p>","","instructions","","","","","","","","","","","",""
"revaluation","223","971162","0.0-4.0-4.0-0.0","spark_pilot_norest","9150","6","14","Male","","false","","","","","[504.09999990463257]","./assets/img/canyon/animals/lion.jpg","[""ArrowRight""]","revaluation","canyon","7","{""ArrowUp,ArrowLeft"":27,""ArrowUp,ArrowRight"":15,""ArrowDown,ArrowLeft"":21,""ArrowDown,ArrowRight"":7}","false","ArrowDown,ArrowRight","","revaluation","1","0","","",""
"html-keyboard-response","224","971677","0.0-4.0-4.0-1.0","spark_pilot_norest","9150","6","14","Male","","","","","","","null","<div style=""font-size:60px;"">+</div>","null","fixation","","","","","","","","","1","","",""
"revaluation","225","975694","0.0-4.0-4.0-0.1","spark_pilot_norest","9150","6","14","Male","","false","","","","","[893.6999998092651]","./assets/img/canyon/animals/giraffe.jpg","[""ArrowLeft""]","revaluation","canyon","27","{""ArrowUp,ArrowLeft"":27,""ArrowUp,ArrowRight"":15,""ArrowDown,ArrowLeft"":21,""ArrowDown,ArrowRight"":7}","true","ArrowUp,ArrowLeft","","revaluation","1","2","","",""
"html-keyboard-response","226","976205","0.0-4.0-4.0-1.1","spark_pilot_norest","9150","6","14","Male","","","","","","","null","<div style=""font-size:60px;"">+</div>","null","fixation","","","","","","","","","3","","",""
"revaluation","227","980228","0.0-4.0-4.0-0.2","spark_pilot_norest","9150","6","14","Male","","false","","","","","[534.4000000953674]","./assets/img/canyon/animals/lion.jpg","[""ArrowLeft""]","revaluation","canyon","21","{""ArrowUp,ArrowLeft"":27,""ArrowUp,ArrowRight"":15,""ArrowDown,ArrowLeft"":21,""ArrowDown,ArrowRight"":7}","true","ArrowDown,ArrowLeft","","revaluation","1","4","","",""
"html-keyboard-response","228","980740","0.0-4.0-4.0-1.2","spark_pilot_norest","9150","6","14","Male","","","","","","","null","<div style=""font-size:60px;"">+</div>","null","fixation","","","","","","","","","5","","",""
"revaluation","229","984764","0.0-4.0-4.0-0.3","spark_pilot_norest","9150","6","14","Male","","false","","","","","[612.5]","./assets/img/canyon/animals/lion.jpg","[""ArrowLeft""]","revaluation","canyon","21","{""ArrowUp,ArrowLeft"":27,""ArrowUp,ArrowRight"":15,""ArrowDown,ArrowLeft"":21,""ArrowDown,ArrowRight"":7}","true","ArrowDown,ArrowLeft","","revaluation","1","6","","",""
"html-keyboard-response","230","985276","0.0-4.0-4.0-1.3","spark_pilot_norest","9150","6","14","Male","","","","","","","null","<div style=""font-size:60px;"">+</div>","null","fixation","","","","","","","","","7","","",""
"revaluation","231","989289","0.0-4.0-4.0-0.4","spark_pilot_norest","9150","6","14","Male","","false","","","","","[511.40000009536743]","./assets/img/canyon/animals/lion.jpg","[""ArrowLeft""]","revaluation","canyon","21","{""ArrowUp,ArrowLeft"":27,""ArrowUp,ArrowRight"":15,""ArrowDown,ArrowLeft"":21,""ArrowDown,ArrowRight"":7}","true","ArrowDown,ArrowLeft","","revaluation","1","8","","",""
"html-keyboard-response","232","989795","0.0-4.0-4.0-1.4","spark_pilot_norest","9150","6","14","Male","","","","","","","null","<div style=""font-size:60px;"">+</div>","null","fixation","","","","","","","","","9","","",""
"revaluation","233","993818","0.0-4.0-4.0-0.5","spark_pilot_norest","9150","6","14","Male","","false","","","","","[493.69999980926514]","./assets/img/canyon/animals/lion.jpg","[""ArrowLeft""]","revaluation","canyon","21","{""ArrowUp,ArrowLeft"":27,""ArrowUp,ArrowRight"":15,""ArrowDown,ArrowLeft"":21,""ArrowDown,ArrowRight"":7}","true","ArrowDown,ArrowLeft","","revaluation","1","10","","",""
"html-keyboard-response","234","994322","0.0-4.0-4.0-1.5","spark_pilot_norest","9150","6","14","Male","","","","","","","null","<div style=""font-size:60px;"">+</div>","null","fixation","","","","","","","","","11","","",""
"revaluation","235","998339","0.0-4.0-4.0-0.6","spark_pilot_norest","9150","6","14","Male","","false","","","","","[933]","./assets/img/canyon/animals/giraffe.jpg","[""ArrowLeft""]","revaluation","canyon","27","{""ArrowUp,ArrowLeft"":27,""ArrowUp,ArrowRight"":15,""ArrowDown,ArrowLeft"":21,""ArrowDown,ArrowRight"":7}","true","ArrowUp,ArrowLeft","","revaluation","1","12","","",""
"html-keyboard-response","236","998850","0.0-4.0-4.0-1.6","spark_pilot_norest","9150","6","14","Male","","","","","","","null","<div style=""font-size:60px;"">+</div>","null","fixation","","","","","","","","","13","","",""
"revaluation","237","1002879","0.0-4.0-4.0-0.7","spark_pilot_norest","9150","6","14","Male","","false","","","","","[418.7999999523163]","./assets/img/canyon/animals/lion.jpg","[""ArrowLeft""]","revaluation","canyon","21","{""ArrowUp,ArrowLeft"":27,""ArrowUp,ArrowRight"":15,""ArrowDown,ArrowLeft"":21,""ArrowDown,ArrowRight"":7}","true","ArrowDown,ArrowLeft","","revaluation","1","14","","",""
"html-keyboard-response","238","1003391","0.0-4.0-4.0-1.7","spark_pilot_norest","9150","6","14","Male","","","","","","","null","<div style=""font-size:60px;"">+</div>","null","fixation","","","","","","","","","15","","",""
"revaluation","239","1007411","0.0-4.0-4.0-0.8","spark_pilot_norest","9150","6","14","Male","","false","","","","","[527.6000001430511]","./assets/img/canyon/animals/giraffe.jpg","[""ArrowLeft""]","revaluation","canyon","27","{""ArrowUp,ArrowLeft"":27,""ArrowUp,ArrowRight"":15,""ArrowDown,ArrowLeft"":21,""ArrowDown,ArrowRight"":7}","true","ArrowUp,ArrowLeft","","revaluation","1","16","","",""
"html-keyboard-response","240","1007922","0.0-4.0-4.0-1.8","spark_pilot_norest","9150","6","14","Male","","","","","","","null","<div style=""font-size:60px;"">+</div>","null","fixation","","","","","","","","","17","","",""
"revaluation","241","1011938","0.0-4.0-4.0-0.9","spark_pilot_norest","9150","6","14","Male","","false","","","","","[910.3999998569489]","./assets/img/canyon/animals/giraffe.jpg","[""ArrowLeft""]","revaluation","canyon","27","{""ArrowUp,ArrowLeft"":27,""ArrowUp,ArrowRight"":15,""ArrowDown,ArrowLeft"":21,""ArrowDown,ArrowRight"":7}","true","ArrowUp,ArrowLeft","","revaluation","1","18","","",""
"html-keyboard-response","242","1012450","0.0-4.0-4.0-1.9","spark_pilot_norest","9150","6","14","Male","","","","","","","null","<div style=""font-size:60px;"">+</div>","null","fixation","","","","","","","","","19","","",""
"revaluation","243","1016466","0.0-4.0-4.0-0.10","spark_pilot_norest","9150","6","14","Male","","false","","","","","[591.3999998569489]","./assets/img/canyon/animals/giraffe.jpg","[""ArrowLeft""]","revaluation","canyon","27","{""ArrowUp,ArrowLeft"":27,""ArrowUp,ArrowRight"":15,""ArrowDown,ArrowLeft"":21,""ArrowDown,ArrowRight"":7}","true","ArrowUp,ArrowLeft","","revaluation","1","20","","",""
"html-keyboard-response","244","1016977","0.0-4.0-4.0-1.10","spark_pilot_norest","9150","6","14","Male","","","","","","","null","<div style=""font-size:60px;"">+</div>","null","fixation","","","","","","","","","21","","",""
"revaluation","245","1020994","0.0-4.0-4.0-0.11","spark_pilot_norest","9150","6","14","Male","","false","","","","","[697.2000000476837]","./assets/img/canyon/animals/lion.jpg","[""ArrowLeft""]","revaluation","canyon","21","{""ArrowUp,ArrowLeft"":27,""ArrowUp,ArrowRight"":15,""ArrowDown,ArrowLeft"":21,""ArrowDown,ArrowRight"":7}","true","ArrowDown,ArrowLeft","","revaluation","1","22","","",""
"html-keyboard-response","246","1021505","0.0-4.0-4.0-1.11","spark_pilot_norest","9150","6","14","Male","","","","","","","null","<div style=""font-size:60px;"">+</div>","null","fixation","","","","","","","","","23","","",""
"revaluation","247","1025521","0.0-4.0-4.0-0.12","spark_pilot_norest","9150","6","14","Male","","false","","","","","[913.8999998569489]","./assets/img/canyon/animals/lion.jpg","[""ArrowLeft""]","revaluation","canyon","21","{""ArrowUp,ArrowLeft"":27,""ArrowUp,ArrowRight"":15,""ArrowDown,ArrowLeft"":21,""ArrowDown,ArrowRight"":7}","true","ArrowDown,ArrowLeft","","revaluation","1","24","","",""
"html-keyboard-response","248","1026033","0.0-4.0-4.0-1.12","spark_pilot_norest","9150","6","14","Male","","","","","","","null","<div style=""font-size:60px;"">+</div>","null","fixation","","","","","","","","","25","","",""
"revaluation","249","1030049","0.0-4.0-4.0-0.13","spark_pilot_norest","9150","6","14","Male","","false","","","","","[795.2999999523163]","./assets/img/canyon/animals/giraffe.jpg","[""ArrowLeft""]","revaluation","canyon","27","{""ArrowUp,ArrowLeft"":27,""ArrowUp,ArrowRight"":15,""ArrowDown,ArrowLeft"":21,""ArrowDown,ArrowRight"":7}","true","ArrowUp,ArrowLeft","","revaluation","1","26","","",""
"html-keyboard-response","250","1030563","0.0-4.0-4.0-1.13","spark_pilot_norest","9150","6","14","Male","","","","","","","null","<div style=""font-size:60px;"">+</div>","null","fixation","","","","","","","","","27","","",""
"revaluation","251","1034577","0.0-4.0-4.0-0.14","spark_pilot_norest","9150","6","14","Male","","false","","","","","[547.2999999523163]","./assets/img/canyon/animals/lion.jpg","[""ArrowLeft""]","revaluation","canyon","21","{""ArrowUp,ArrowLeft"":27,""ArrowUp,ArrowRight"":15,""ArrowDown,ArrowLeft"":21,""ArrowDown,ArrowRight"":7}","true","ArrowDown,ArrowLeft","","revaluation","1","28","","",""
"html-keyboard-response","252","1035088","0.0-4.0-4.0-1.14","spark_pilot_norest","9150","6","14","Male","","","","","","","null","<div style=""font-size:60px;"">+</div>","null","fixation","","","","","","","","","29","","",""
"revaluation","253","1039107","0.0-4.0-4.0-0.15","spark_pilot_norest","9150","6","14","Male","","false","","","","","[528.1999998092651]","./assets/img/canyon/animals/giraffe.jpg","[""ArrowLeft""]","revaluation","canyon","27","{""ArrowUp,ArrowLeft"":27,""ArrowUp,ArrowRight"":15,""ArrowDown,ArrowLeft"":21,""ArrowDown,ArrowRight"":7}","true","ArrowUp,ArrowLeft","","revaluation","1","30","","",""
"html-keyboard-response","254","1039618","0.0-4.0-4.0-1.15","spark_pilot_norest","9150","6","14","Male","","","","","","","null","<div style=""font-size:60px;"">+</div>","null","fixation","","","","","","","","","31","","",""
"revaluation","255","1043632","0.0-4.0-4.0-0.16","spark_pilot_norest","9150","6","14","Male","","false","","","","","[519]","./assets/img/canyon/animals/giraffe.jpg","[""ArrowLeft""]","revaluation","canyon","27","{""ArrowUp,ArrowLeft"":27,""ArrowUp,ArrowRight"":15,""ArrowDown,ArrowLeft"":21,""ArrowDown,ArrowRight"":7}","true","ArrowUp,ArrowLeft","","revaluation","1","32","","",""
"html-keyboard-response","256","1044143","0.0-4.0-4.0-1.16","spark_pilot_norest","9150","6","14","Male","","","","","","","null","<div style=""font-size:60px;"">+</div>","null","fixation","","","","","","","","","33","","",""
"revaluation","257","1048160","0.0-4.0-4.0-0.17","spark_pilot_norest","9150","6","14","Male","","false","","","","","[529.2000000476837]","./assets/img/canyon/animals/giraffe.jpg","[""ArrowLeft""]","revaluation","canyon","27","{""ArrowUp,ArrowLeft"":27,""ArrowUp,ArrowRight"":15,""ArrowDown,ArrowLeft"":21,""ArrowDown,ArrowRight"":7}","true","ArrowUp,ArrowLeft","","revaluation","1","34","","",""
"html-keyboard-response","258","1048673","0.0-4.0-4.0-1.17","spark_pilot_norest","9150","6","14","Male","","","","","","","null","<div style=""font-size:60px;"">+</div>","null","fixation","","","","","","","","","35","","",""
"learning-instructions","259","1056827","0.0-4.0-5.0-0.0","spark_pilot_norest","9150","6","14","Male","","","","","","","null","<p> You have almost finished this part of the game! </p>
            <p> We are going to ask you to make a few more choices. </p>","","instructions","","","","","","","","","","","",""
"learning-instructions","260","1072804","0.0-4.0-5.0-0.1","spark_pilot_norest","9150","6","14","Male","","","","","","","null","<p> First, you need to decide whether to go up or down. When you see each picture, use the arrow keys to make your choice. </p>
            <p><b>You will not see which animal you found, but try to get to the one that will give you the most treasure.</b></p>","","instructions","","","","","","","","","","","",""
"html-keyboard-response","261","1073814","0.0-4.0-6.0-0.0","spark_pilot_norest","9150","6","14","Male","","","","","","","null","<div style=""font-size:100px;color:red;"">Starting in...</div>","null","","","","","","","","","","","","",""
"html-keyboard-response","262","1074824","0.0-4.0-6.0-1.0","spark_pilot_norest","9150","6","14","Male","","","","","","","null","<div style=""font-size:200px;color:red;"">3</div>","null","","","","","","","","","","","","",""
"html-keyboard-response","263","1075828","0.0-4.0-6.0-2.0","spark_pilot_norest","9150","6","14","Male","","","","","","","null","<div style=""font-size:200px;color:red;"">2</div>","null","","","","","","","","","","","","",""
"html-keyboard-response","264","1076835","0.0-4.0-6.0-3.0","spark_pilot_norest","9150","6","14","Male","","","","","","","null","<div style=""font-size:200px;color:red;"">1</div>","null","","","","","","","","","","","","",""
"revaluation","265","1077795","0.0-4.0-7.0-0.0","spark_pilot_norest","9150","6","14","Male","","false","","","","","[956.8000001907349]","./assets/img/canyon/test/1.jpg","[""ArrowUp""]","first stage test","canyon","0","{""ArrowUp,ArrowLeft"":27,""ArrowUp,ArrowRight"":15,""ArrowDown,ArrowLeft"":21,""ArrowDown,ArrowRight"":7}","true","ArrowUp","false","revaluation","1","","","",""
"html-keyboard-response","266","1078302","0.0-4.0-7.0-1.0","spark_pilot_norest","9150","6","14","Male","","","","","","","null","<div style=""font-size:60px;"">+</div>","null","fixation","","","","","","","","","","","",""
"revaluation","267","1079635","0.0-4.0-7.0-0.1","spark_pilot_norest","9150","6","14","Male","","false","","","","","[1329.6999998092651]","./assets/img/canyon/test/3.jpg","[""ArrowUp""]","first stage test","canyon","0","{""ArrowUp,ArrowLeft"":27,""ArrowUp,ArrowRight"":15,""ArrowDown,ArrowLeft"":21,""ArrowDown,ArrowRight"":7}","true","ArrowUp","false","revaluation","1","","","",""
"html-keyboard-response","268","1080146","0.0-4.0-7.0-1.1","spark_pilot_norest","9150","6","14","Male","","","","","","","null","<div style=""font-size:60px;"">+</div>","null","fixation","","","","","","","","","","","",""
"revaluation","269","1081002","0.0-4.0-7.0-0.2","spark_pilot_norest","9150","6","14","Male","","false","","","","","[855]","./assets/img/canyon/test/2.jpg","[""ArrowUp""]","first stage test","canyon","0","{""ArrowUp,ArrowLeft"":27,""ArrowUp,ArrowRight"":15,""ArrowDown,ArrowLeft"":21,""ArrowDown,ArrowRight"":7}","true","ArrowUp","false","revaluation","1","","","",""
"html-keyboard-response","270","1081508","0.0-4.0-7.0-1.2","spark_pilot_norest","9150","6","14","Male","","","","","","","null","<div style=""font-size:60px;"">+</div>","null","fixation","","","","","","","","","","","",""
"revaluation","271","1082077","0.0-4.0-7.0-0.3","spark_pilot_norest","9150","6","14","Male","","false","","","","","[566.5]","./assets/img/canyon/test/0.jpg","[""ArrowUp""]","first stage test","canyon","0","{""ArrowUp,ArrowLeft"":27,""ArrowUp,ArrowRight"":15,""ArrowDown,ArrowLeft"":21,""ArrowDown,ArrowRight"":7}","true","ArrowUp","false","revaluation","1","","","",""
"html-keyboard-response","272","1082580","0.0-4.0-7.0-1.3","spark_pilot_norest","9150","6","14","Male","","","","","","","null","<div style=""font-size:60px;"">+</div>","null","fixation","","","","","","","","","","","",""
"learning-instructions","273","1095933","0.0-4.0-8.0-0.0","spark_pilot_norest","9150","6","14","Male","","","","","","","null","<p> Now you will see the animals again and can search their chests for treasure. </p>
            <p> This time, you will not see how much treasure you earned, but you will earn more bonus money for making better choices. </p>","","instructions","","","","","","","","","","","",""
"html-keyboard-response","274","1096941","0.0-4.0-9.0-0.0","spark_pilot_norest","9150","6","14","Male","","","","","","","null","<div style=""font-size:100px;color:red;"">Starting in...</div>","null","","","","","","","","","","","","",""
"html-keyboard-response","275","1097949","0.0-4.0-9.0-1.0","spark_pilot_norest","9150","6","14","Male","","","","","","","null","<div style=""font-size:200px;color:red;"">3</div>","null","","","","","","","","","","","","",""
"html-keyboard-response","276","1098957","0.0-4.0-9.0-2.0","spark_pilot_norest","9150","6","14","Male","","","","","","","null","<div style=""font-size:200px;color:red;"">2</div>","null","","","","","","","","","","","","",""
"html-keyboard-response","277","1099964","0.0-4.0-9.0-3.0","spark_pilot_norest","9150","6","14","Male","","","","","","","null","<div style=""font-size:200px;color:red;"">1</div>","null","","","","","","","","","","","","",""
"revaluation","278","1100551","0.0-4.0-10.0-0.0","spark_pilot_norest","9150","6","14","Male","","false","","","","","[581.7999999523163]","./assets/img/canyon/animals/giraffe.jpg","[""ArrowLeft""]","second stage test","canyon","0","{""ArrowUp,ArrowLeft"":27,""ArrowUp,ArrowRight"":15,""ArrowDown,ArrowLeft"":21,""ArrowDown,ArrowRight"":7}","true","ArrowUp,ArrowLeft","","revaluation","1","","","",""
"html-keyboard-response","279","1101058","0.0-4.0-10.0-1.0","spark_pilot_norest","9150","6","14","Male","","","","","","","null","<div style=""font-size:60px;"">+</div>","null","fixation","","","","","","","","","","","",""
"revaluation","280","1101592","0.0-4.0-10.0-0.1","spark_pilot_norest","9150","6","14","Male","","false","","","","","[530.5]","./assets/img/canyon/animals/giraffe.jpg","[""ArrowLeft""]","second stage test","canyon","0","{""ArrowUp,ArrowLeft"":27,""ArrowUp,ArrowRight"":15,""ArrowDown,ArrowLeft"":21,""ArrowDown,ArrowRight"":7}","true","ArrowUp,ArrowLeft","","revaluation","1","","","",""
"html-keyboard-response","281","1102099","0.0-4.0-10.0-1.1","spark_pilot_norest","9150","6","14","Male","","","","","","","null","<div style=""font-size:60px;"">+</div>","null","fixation","","","","","","","","","","","",""
"revaluation","282","1102485","0.0-4.0-10.0-0.2","spark_pilot_norest","9150","6","14","Male","","false","","","","","[380.2000000476837]","./assets/img/canyon/animals/giraffe.jpg","[""ArrowLeft""]","second stage test","canyon","0","{""ArrowUp,ArrowLeft"":27,""ArrowUp,ArrowRight"":15,""ArrowDown,ArrowLeft"":21,""ArrowDown,ArrowRight"":7}","true","ArrowUp,ArrowLeft","","revaluation","1","","","",""
"html-keyboard-response","283","1102989","0.0-4.0-10.0-1.2","spark_pilot_norest","9150","6","14","Male","","","","","","","null","<div style=""font-size:60px;"">+</div>","null","fixation","","","","","","","","","","","",""
"revaluation","284","1103386","0.0-4.0-10.0-0.3","spark_pilot_norest","9150","6","14","Male","","false","","","","","[394.7999999523163]","./assets/img/canyon/animals/giraffe.jpg","[""ArrowLeft""]","second stage test","canyon","0","{""ArrowUp,ArrowLeft"":27,""ArrowUp,ArrowRight"":15,""ArrowDown,ArrowLeft"":21,""ArrowDown,ArrowRight"":7}","true","ArrowUp,ArrowLeft","","revaluation","1","","","",""
"html-keyboard-response","285","1103890","0.0-4.0-10.0-1.3","spark_pilot_norest","9150","6","14","Male","","","","","","","null","<div style=""font-size:60px;"">+</div>","null","fixation","","","","","","","","","","","",""
"revaluation","286","1104371","0.0-4.0-10.0-0.4","spark_pilot_norest","9150","6","14","Male","","false","","","","","[478.2999999523163]","./assets/img/canyon/animals/lion.jpg","[""ArrowRight""]","second stage test","canyon","0","{""ArrowUp,ArrowLeft"":27,""ArrowUp,ArrowRight"":15,""ArrowDown,ArrowLeft"":21,""ArrowDown,ArrowRight"":7}","false","ArrowDown,ArrowRight","","revaluation","1","","","",""
"html-keyboard-response","287","1104876","0.0-4.0-10.0-1.4","spark_pilot_norest","9150","6","14","Male","","","","","","","null","<div style=""font-size:60px;"">+</div>","null","fixation","","","","","","","","","","","",""
"revaluation","288","1105256","0.0-4.0-10.0-0.5","spark_pilot_norest","9150","6","14","Male","","false","","","","","[379]","./assets/img/canyon/animals/lion.jpg","[""ArrowLeft""]","second stage test","canyon","0","{""ArrowUp,ArrowLeft"":27,""ArrowUp,ArrowRight"":15,""ArrowDown,ArrowLeft"":21,""ArrowDown,ArrowRight"":7}","true","ArrowDown,ArrowLeft","","revaluation","1","","","",""
"html-keyboard-response","289","1105762","0.0-4.0-10.0-1.5","spark_pilot_norest","9150","6","14","Male","","","","","","","null","<div style=""font-size:60px;"">+</div>","null","fixation","","","","","","","","","","","",""
"revaluation","290","1106079","0.0-4.0-10.0-0.6","spark_pilot_norest","9150","6","14","Male","","false","","","","","[314.59999990463257]","./assets/img/canyon/animals/lion.jpg","[""ArrowLeft""]","second stage test","canyon","0","{""ArrowUp,ArrowLeft"":27,""ArrowUp,ArrowRight"":15,""ArrowDown,ArrowLeft"":21,""ArrowDown,ArrowRight"":7}","true","ArrowDown,ArrowLeft","","revaluation","1","","","",""
"html-keyboard-response","291","1106588","0.0-4.0-10.0-1.6","spark_pilot_norest","9150","6","14","Male","","","","","","","null","<div style=""font-size:60px;"">+</div>","null","fixation","","","","","","","","","","","",""
"revaluation","292","1106899","0.0-4.0-10.0-0.7","spark_pilot_norest","9150","6","14","Male","","false","","","","","[308.2000000476837]","./assets/img/canyon/animals/lion.jpg","[""ArrowLeft""]","second stage test","canyon","0","{""ArrowUp,ArrowLeft"":27,""ArrowUp,ArrowRight"":15,""ArrowDown,ArrowLeft"":21,""ArrowDown,ArrowRight"":7}","true","ArrowDown,ArrowLeft","","revaluation","1","","","",""
"html-keyboard-response","293","1107404","0.0-4.0-10.0-1.7","spark_pilot_norest","9150","6","14","Male","","","","","","","null","<div style=""font-size:60px;"">+</div>","null","fixation","","","","","","","","","","","",""
"learning-instructions","294","1111801","0.0-4.0-0.1-0.2","spark_pilot_norest","9150","6","14","Male","","","","","","","1670.2999999523163","<p> This time you are searching for treasure in the <b>ocean</b>.</p>","","instructions","","","","","","","","","","","",""
"learning-instructions","295","1132324","0.0-4.0-0.1-0.3","spark_pilot_norest","9150","6","14","Male","","","","","","","3271.5","<p><b>New</b> animals with <b>new</b> treasure chests live here. You need to explore to discover where the animal with the best treasure chest is.</p>
                    <p> Like before, once you figure out which animal has the chest with the most treasure, you should try to get to that animal and select that chest! </p>","","instructions","","","","","","","","","","","",""
"learning-instructions","296","1147711","0.0-4.0-1.1-0.1","spark_pilot_norest","9150","6","14","Male","","","","","","","659.1999998092651","<p> Remember, when you see a picture of the place, use the up and down keys to <b>find an animal</b>.</p>
            <p> When you encounter an animal, you should use the left and right keys to <b>select a treasure chest</b>.</p>
            <p> Don't forget to look out for the robber! </p>","","instructions","","","","","","","","","","","",""
"revaluation","297","1153738","0.0-4.0-2.1-0.50","spark_pilot_norest","9150","6","14","Male","","false","","","","","[1093.2999999523163,799.2000000476837]","./assets/img/ocean/memory/2.jpg","[""ArrowUp"",""ArrowRight""]","value training","ocean","10","{""ArrowUp,ArrowLeft"":26,""ArrowUp,ArrowRight"":10,""ArrowDown,ArrowLeft"":5,""ArrowDown,ArrowRight"":17}","false","ArrowUp,ArrowRight","false","original","2","0","","",""
"html-keyboard-response","298","1154250","0.0-4.0-2.1-1.50","spark_pilot_norest","9150","6","14","Male","","","","","","","null","<div style=""font-size:60px;"">+</div>","null","fixation","","","","","","","","","1","","",""
"revaluation","299","1160271","0.0-4.0-2.1-0.51","spark_pilot_norest","9150","6","14","Male","","false","","","","","[783.1000001430511,288.90000009536743]","./assets/img/ocean/memory/39.jpg","[""ArrowUp"",""ArrowLeft""]","value training","ocean","26","{""ArrowUp,ArrowLeft"":26,""ArrowUp,ArrowRight"":10,""ArrowDown,ArrowLeft"":5,""ArrowDown,ArrowRight"":17}","true","ArrowUp,ArrowLeft","false","original","2","2","","",""
"html-keyboard-response","300","1160777","0.0-4.0-2.1-1.51","spark_pilot_norest","9150","6","14","Male","","","","","","","null","<div style=""font-size:60px;"">+</div>","null","fixation","","","","","","","","","3","","",""
"revaluation","301","1166799","0.0-4.0-2.1-0.52","spark_pilot_norest","9150","6","14","Male","","false","","","","","[538.5999999046326,337]","./assets/img/ocean/memory/37.jpg","[""ArrowDown"",""ArrowLeft""]","value training","ocean","5","{""ArrowUp,ArrowLeft"":26,""ArrowUp,ArrowRight"":10,""ArrowDown,ArrowLeft"":5,""ArrowDown,ArrowRight"":17}","false","ArrowDown,ArrowLeft","false","original","2","4","","",""
"html-keyboard-response","302","1167305","0.0-4.0-2.1-1.52","spark_pilot_norest","9150","6","14","Male","","","","","","","null","<div style=""font-size:60px;"">+</div>","null","fixation","","","","","","","","","5","","",""
"revaluation","303","1173327","0.0-4.0-2.1-0.53","spark_pilot_norest","9150","6","14","Male","","false","","","","","[460,216.70000004768372]","./assets/img/ocean/memory/0.jpg","[""ArrowDown"",""ArrowRight""]","value training","ocean","17","{""ArrowUp,ArrowLeft"":26,""ArrowUp,ArrowRight"":10,""ArrowDown,ArrowLeft"":5,""ArrowDown,ArrowRight"":17}","false","ArrowDown,ArrowRight","false","original","2","6","","",""
"html-keyboard-response","304","1173832","0.0-4.0-2.1-1.53","spark_pilot_norest","9150","6","14","Male","","","","","","","null","<div style=""font-size:60px;"">+</div>","null","fixation","","","","","","","","","7","","",""
"revaluation","305","1179856","0.0-4.0-2.1-0.54","spark_pilot_norest","9150","6","14","Male","","false","","","","","[544.9000000953674,307.40000009536743]","./assets/img/ocean/memory/33.jpg","[""ArrowUp"",""ArrowLeft""]","value training","ocean","26","{""ArrowUp,ArrowLeft"":26,""ArrowUp,ArrowRight"":10,""ArrowDown,ArrowLeft"":5,""ArrowDown,ArrowRight"":17}","true","ArrowUp,ArrowLeft","false","original","2","8","","",""
"html-keyboard-response","306","1180367","0.0-4.0-2.1-1.54","spark_pilot_norest","9150","6","14","Male","","","","","","","null","<div style=""font-size:60px;"">+</div>","null","fixation","","","","","","","","","9","","",""
"revaluation","307","1184384","0.0-4.0-2.1-0.55","spark_pilot_norest","9150","6","14","Male","","false","","","","","[669.4000000953674]","./assets/img/ocean/catch/5.jpg","[""ArrowUp""]","value training","ocean","-10","{""ArrowUp,ArrowLeft"":26,""ArrowUp,ArrowRight"":10,""ArrowDown,ArrowLeft"":5,""ArrowDown,ArrowRight"":17}","false","ArrowUp","true","original","2","10","","",""
"html-keyboard-response","308","1184886","0.0-4.0-2.1-1.55","spark_pilot_norest","9150","6","14","Male","","","","","","","null","<div style=""font-size:60px;"">+</div>","null","fixation","","","","","","","","","11","","",""
"revaluation","309","1190911","0.0-4.0-2.1-0.56","spark_pilot_norest","9150","6","14","Male","","false","","","","","[1164.0999999046326,20]","./assets/img/ocean/memory/24.jpg","[""ArrowUp"",""ArrowLeft""]","value training","ocean","26","{""ArrowUp,ArrowLeft"":26,""ArrowUp,ArrowRight"":10,""ArrowDown,ArrowLeft"":5,""ArrowDown,ArrowRight"":17}","true","ArrowUp,ArrowLeft","false","original","2","12","","",""
"html-keyboard-response","310","1191417","0.0-4.0-2.1-1.56","spark_pilot_norest","9150","6","14","Male","","","","","","","null","<div style=""font-size:60px;"">+</div>","null","fixation","","","","","","","","","13","","",""
"revaluation","311","1197450","0.0-4.0-2.1-0.57","spark_pilot_norest","9150","6","14","Male","","false","","","","","[690,8.900000095367432]","./assets/img/ocean/memory/9.jpg","[""ArrowUp"",""ArrowLeft""]","value training","ocean","26","{""ArrowUp,ArrowLeft"":26,""ArrowUp,ArrowRight"":10,""ArrowDown,ArrowLeft"":5,""ArrowDown,ArrowRight"":17}","true","ArrowUp,ArrowLeft","false","original","2","14","","",""
"html-keyboard-response","312","1197961","0.0-4.0-2.1-1.57","spark_pilot_norest","9150","6","14","Male","","","","","","","null","<div style=""font-size:60px;"">+</div>","null","fixation","","","","","","","","","15","","",""
