"trial_type","trial_index","time_elapsed","internal_node_id","task_version","subject_id","assigned_condition","age","gender","success","timeout","failed_images","failed_audio","failed_video","browser_interaction","rt","stimulus","response","task_part","environment","score","rewardMap","correct","fullState","isCatch","condition","order","trial_num","key_press","ground_truth","bonus"
"pavlovia","0","3964","0.0-0.0","spark_pilot_norest","8427","5","11","Male","","","","","","","","","","","","","","","","","","","","","",""
"preload","1","47951","0.0-1.0","spark_pilot_norest","8427","5","11","Male","true","false","[]","[]","[]","[{""event"":""fullscreenenter"",""trial"":2,""time"":52074}]","","","","","","","","","","","","","","","",""
"fullscreen","2","53047","0.0-2.0","spark_pilot_norest","8427","5","11","Male","true","","","","","","","","","","","","","","","","","","","","",""
"audio-button-response","3","56407","0.0-3.0-0.0-0.0","spark_pilot_norest","8427","5","11","Male","","","","","","","1341","./assets/audio/audiotest/turtle.mp3","2","audio_test","","","","","","","","","","","",""
"learning-instructions","4","65550","0.0-3.0-1.0-0.0","spark_pilot_norest","8427","5","11","Male","","","","","","","2158.7000000029802","<p> Welcome! Please remember to stay in fullscreen mode and don't click away from the experiment. </p>","","instructions","","","","","","","","","","","",""
"learning-instructions","5","75183","0.0-3.0-1.0-0.1","spark_pilot_norest","8427","5","11","Male","","","","","","","1225.5","<p> Today you will be playing a game to earn treasure. </p>
            <p> At the end of the experiment, you will earn a bonus based on how much treasure you find. </p>
            <img src='./assets/img/instructions/treasure.jpg' class='instructions-image'>","","instructions","","","","","","","","","","","",""
"learning-instructions","6","84232","0.0-3.0-1.0-0.2","spark_pilot_norest","8427","5","11","Male","","","","","","","793.8999999985099","<p> Animals have hidden treasure in treasure chests. </p>
            <p> You need to first find an animal and then choose which of their treasure chests to search. </p>
            <img src='./assets/img/space/animals/cat.jpg' class='instructions-image'>","","instructions","","","","","","","","","","","",""
"learning-instructions","7","98052","0.0-3.0-1.0-0.3","spark_pilot_norest","8427","5","11","Male","","","","","","","651.7000000029802","<p> In each round, you will search for treasure in a different place. In the real game, there will be two rounds. </p>
            <p> You will begin with a separate, practice round where you will search for treasure in outer space. </p>
            <img src='./assets/img/space/0.jpg' class='instructions-image'>","","instructions","","","","","","","","","","","",""
"learning-instructions","8","111115","0.0-3.0-1.0-0.4","spark_pilot_norest","8427","5","11","Male","","","","","","","1615.6999999955297","<p> On every turn, you will see a picture of the place that you are in, but the specific image may be different each time. </p>
            <p> For example, both of these images mean you are in outer space. </p>
            <img src='./assets/img/instructions/outerspace.jpg' class='instructions-image'>","","instructions","","","","","","","","","","","",""
"learning-instructions","9","119666","0.0-3.0-1.0-0.5","spark_pilot_norest","8427","5","11","Male","","","","","","","705.7999999970198","<p> You need to decide which direction to travel in. </p>
            <p> You can choose between going <b>up or down</b> by using the arrow keys. </p>
            <img src='./assets/img/instructions/updown.jpg' class='instructions-image'>","","instructions","","","","","","","","","","","",""
"learning-instructions","10","129315","0.0-3.0-1.0-0.6","spark_pilot_norest","8427","5","11","Male","","","","","","","815","<p> You will have <b>2 seconds</b> to make your choice. </p>
            <p> If you do not make a choice within 2 seconds, you will not find an animal or earn treasure. </p>
            <img src='./assets/img/instructions/2seconds.jpg' class='instructions-image'>","","instructions","","","","","","","","","","","",""
"learning-instructions","11","137051","0.0-3.0-1.0-0.7","spark_pilot_norest","8427","5","11","Male","","","","","","","669.9000000059605","<p> Let’s try practicing that now! </p>
            <p> When you see a picture of the place you are in, press the <b>up</b> key to travel up. </p>
            <img src='./assets/img/instructions/pressUp.jpg' class='instructions-image'>","","instructions","","","","","","","","","","","",""
"revaluation","12","141091","0.0-3.0-2.0-0.0","spark_pilot_norest","8427","5","11","Male","","false","","","","","[1069.8999999985099]","./assets/img/space/0.jpg","[""ArrowUp""]","first stage practice","space","0","null","null","ArrowUp","false","","","","","",""
"html-keyboard-response","13","141601","0.0-3.0-2.0-1.0","spark_pilot_norest","8427","5","11","Male","","","","","","","null","<div style=""font-size:60px;"">+</div>","null","fixation","","","","","","","","","","","",""
"revaluation","14","145624","0.0-3.0-2.0-0.1","spark_pilot_norest","8427","5","11","Male","","true","","","","","[]","./assets/img/space/1.jpg","[]","first stage practice","space","-5","null","null","","false","","","","","",""
"html-keyboard-response","15","146136","0.0-3.0-2.0-1.1","spark_pilot_norest","8427","5","11","Male","","","","","","","null","<div style=""font-size:60px;"">+</div>","null","fixation","","","","","","","","","","","",""
"revaluation","16","150157","0.0-3.0-2.0-0.2","spark_pilot_norest","8427","5","11","Male","","false","","","","","[1088.4000000059605]","./assets/img/space/2.jpg","[""ArrowUp""]","first stage practice","space","0","null","null","ArrowUp","false","","","","","",""
"html-keyboard-response","17","150673","0.0-3.0-2.0-1.2","spark_pilot_norest","8427","5","11","Male","","","","","","","null","<div style=""font-size:60px;"">+</div>","null","fixation","","","","","","","","","","","",""
"learning-instructions","18","157087","0.0-3.0-3.0-0.0","spark_pilot_norest","8427","5","11","Male","","","","","","","1695.9000000059605","<p> Great job! Now try pressing the <b>down</b> key to travel down. </p>
            <img src='./assets/img/instructions/pressDown.jpg' class='instructions-image'>","","instructions","","","","","","","","","","","",""
"revaluation","19","161109","0.0-3.0-4.0-0.0","spark_pilot_norest","8427","5","11","Male","","false","","","","","[596.3999999985099]","./assets/img/space/3.jpg","[""ArrowDown""]","first stage practice","space","0","null","null","ArrowDown","false","","","","","",""
"html-keyboard-response","20","161623","0.0-3.0-4.0-1.0","spark_pilot_norest","8427","5","11","Male","","","","","","","null","<div style=""font-size:60px;"">+</div>","null","fixation","","","","","","","","","","","",""
"revaluation","21","165642","0.0-3.0-4.0-0.1","spark_pilot_norest","8427","5","11","Male","","false","","","","","[254.60000000149012]","./assets/img/space/4.jpg","[""ArrowDown""]","first stage practice","space","0","null","null","ArrowDown","false","","","","","",""
"html-keyboard-response","22","166151","0.0-3.0-4.0-1.1","spark_pilot_norest","8427","5","11","Male","","","","","","","null","<div style=""font-size:60px;"">+</div>","null","fixation","","","","","","","","","","","",""
"revaluation","23","170169","0.0-3.0-4.0-0.2","spark_pilot_norest","8427","5","11","Male","","false","","","","","[134.40000000596046]","./assets/img/space/5.jpg","[""ArrowDown""]","first stage practice","space","0","null","null","ArrowDown","false","","","","","",""
"html-keyboard-response","24","170673","0.0-3.0-4.0-1.2","spark_pilot_norest","8427","5","11","Male","","","","","","","null","<div style=""font-size:60px;"">+</div>","null","fixation","","","","","","","","","","","",""
"learning-instructions","25","181167","0.0-3.0-5.0-0.0","spark_pilot_norest","8427","5","11","Male","","","","","","","617.6000000014901","<p> The animals don’t move, so the animal in the upper part of a place will stay in the upper part of a place, and the animal in the lower part of a place will stay in the lower part of a place. </p>","","instructions","","","","","","","","","","","",""
"learning-instructions","26","190970","0.0-3.0-5.0-0.1","spark_pilot_norest","8427","5","11","Male","","","","","","","659.1000000014901","<p> Each animal has two treasure chests for you to choose from. </p>
            <p> The amount of treasure in each chest can range from <b> 0 to 40 pieces.</b></p>","","instructions","","","","","","","","","","","",""
"learning-instructions","27","203517","0.0-3.0-5.0-0.2","spark_pilot_norest","8427","5","11","Male","","","","","","","1326.1999999955297","<p> You should decide which chest to search for treasure by using the <b>left</b> and <b>right</b> arrow keys. </p>
            <p><b> Pay attention to which animal is on the screen, as the animals have different treasure chests. </b></p>
            <img src='./assets/img/instructions/leftright.jpg' class='instructions-image'>","","instructions","","","","","","","","","","","",""
"learning-instructions","28","210518","0.0-3.0-5.0-0.3","spark_pilot_norest","8427","5","11","Male","","","","","","","618.7000000029802","<p> Let’s try practicing that now. </p>
            <p> When you see an animal, choose which chest to search for treasure. </p>
            <img src='./assets/img/instructions/chooseChest.jpg' class='instructions-image'>","","instructions","","","","","","","","","","","",""
"revaluation","29","214544","0.0-3.0-6.0-0.0","spark_pilot_norest","8427","5","11","Male","","false","","","","","[508.8999999985099]","./assets/img/space/animals/rabbit.jpg","[""ArrowLeft""]","second stage practice","space","15","{""ArrowUp,ArrowLeft"":3,""ArrowUp,ArrowRight"":36,""ArrowDown,ArrowLeft"":15,""ArrowDown,ArrowRight"":23}","false","ArrowDown,ArrowLeft","","","","","","",""
"html-keyboard-response","30","215048","0.0-3.0-6.0-1.0","spark_pilot_norest","8427","5","11","Male","","","","","","","null","<div style=""font-size:60px;"">+</div>","null","fixation","","","","","","","","","","","",""
"revaluation","31","219085","0.0-3.0-6.0-0.1","spark_pilot_norest","8427","5","11","Male","","false","","","","","[644.3999999985099]","./assets/img/space/animals/cat.jpg","[""ArrowRight""]","second stage practice","space","36","{""ArrowUp,ArrowLeft"":3,""ArrowUp,ArrowRight"":36,""ArrowDown,ArrowLeft"":15,""ArrowDown,ArrowRight"":23}","true","ArrowUp,ArrowRight","","","","","","",""
"html-keyboard-response","32","219597","0.0-3.0-6.0-1.1","spark_pilot_norest","8427","5","11","Male","","","","","","","null","<div style=""font-size:60px;"">+</div>","null","fixation","","","","","","","","","","","",""
"revaluation","33","223625","0.0-3.0-6.0-0.2","spark_pilot_norest","8427","5","11","Male","","false","","","","","[892.3999999985099]","./assets/img/space/animals/rabbit.jpg","[""ArrowRight""]","second stage practice","space","23","{""ArrowUp,ArrowLeft"":3,""ArrowUp,ArrowRight"":36,""ArrowDown,ArrowLeft"":15,""ArrowDown,ArrowRight"":23}","true","ArrowDown,ArrowRight","","","","","","",""
"html-keyboard-response","34","224137","0.0-3.0-6.0-1.2","spark_pilot_norest","8427","5","11","Male","","","","","","","null","<div style=""font-size:60px;"">+</div>","null","fixation","","","","","","","","","","","",""
"revaluation","35","228163","0.0-3.0-6.0-0.3","spark_pilot_norest","8427","5","11","Male","","false","","","","","[977.5]","./assets/img/space/animals/cat.jpg","[""ArrowLeft""]","second stage practice","space","3","{""ArrowUp,ArrowLeft"":3,""ArrowUp,ArrowRight"":36,""ArrowDown,ArrowLeft"":15,""ArrowDown,ArrowRight"":23}","false","ArrowUp,ArrowLeft","","","","","","",""
"html-keyboard-response","36","228670","0.0-3.0-6.0-1.3","spark_pilot_norest","8427","5","11","Male","","","","","","","null","<div style=""font-size:60px;"">+</div>","null","fixation","","","","","","","","","","","",""
"learning-instructions","37","246351","0.0-3.0-7.0-0.0","spark_pilot_norest","8427","5","11","Male","","","","","","","840.9000000059605","<p> Great job. Now let’s try putting it together. </p>
            <p> On each turn, you will first see a picture to remind you of the place you are in, and you need to choose whether to go up or down. </p>
            <p> Then you will see an animal and choose which of its chests to search for treasure. </p>","","instructions","","","","","","","","","","","",""
"learning-instructions","38","255819","0.0-3.0-7.0-0.1","spark_pilot_norest","8427","5","11","Male","","","","","","","1178.5","<p> When you choose whether to go up or down, try to go to the animal with the chest with the most treasure. </p>
            <p> Try practicing that now! </p>","","instructions","","","","","","","","","","","",""
"revaluation","39","261854","0.0-3.0-8.0-0.0","spark_pilot_norest","8427","5","11","Male","","false","","","","","[557.8999999985099,573.5]","./assets/img/space/6.jpg","[""ArrowUp"",""ArrowRight""]","full practice","space","36","{""ArrowUp,ArrowLeft"":3,""ArrowUp,ArrowRight"":36,""ArrowDown,ArrowLeft"":15,""ArrowDown,ArrowRight"":23}","true","ArrowUp,ArrowRight","false","","","","","",""
"html-keyboard-response","40","262370","0.0-3.0-8.0-1.0","spark_pilot_norest","8427","5","11","Male","","","","","","","null","<div style=""font-size:60px;"">+</div>","null","fixation","","","","","","","","","","","",""
"revaluation","41","268406","0.0-3.0-8.0-0.1","spark_pilot_norest","8427","5","11","Male","","false","","","","","[290.3999999985099,438.5]","./assets/img/space/7.jpg","[""ArrowUp"",""ArrowRight""]","full practice","space","36","{""ArrowUp,ArrowLeft"":3,""ArrowUp,ArrowRight"":36,""ArrowDown,ArrowLeft"":15,""ArrowDown,ArrowRight"":23}","true","ArrowUp,ArrowRight","false","","","","","",""
"html-keyboard-response","42","268917","0.0-3.0-8.0-1.1","spark_pilot_norest","8427","5","11","Male","","","","","","","null","<div style=""font-size:60px;"">+</div>","null","fixation","","","","","","","","","","","",""
"revaluation","43","274940","0.0-3.0-8.0-0.2","spark_pilot_norest","8427","5","11","Male","","false","","","","","[321.70000000298023,465]","./assets/img/space/8.jpg","[""ArrowUp"",""ArrowRight""]","full practice","space","36","{""ArrowUp,ArrowLeft"":3,""ArrowUp,ArrowRight"":36,""ArrowDown,ArrowLeft"":15,""ArrowDown,ArrowRight"":23}","true","ArrowUp,ArrowRight","false","","","","","",""
"html-keyboard-response","44","275450","0.0-3.0-8.0-1.2","spark_pilot_norest","8427","5","11","Male","","","","","","","null","<div style=""font-size:60px;"">+</div>","null","fixation","","","","","","","","","","","",""
"revaluation","45","281489","0.0-3.0-8.0-0.3","spark_pilot_norest","8427","5","11","Male","","false","","","","","[334.6000000014901,431.19999999552965]","./assets/img/space/9.jpg","[""ArrowUp"",""ArrowRight""]","full practice","space","36","{""ArrowUp,ArrowLeft"":3,""ArrowUp,ArrowRight"":36,""ArrowDown,ArrowLeft"":15,""ArrowDown,ArrowRight"":23}","true","ArrowUp,ArrowRight","false","","","","","",""
"html-keyboard-response","46","282000","0.0-3.0-8.0-1.3","spark_pilot_norest","8427","5","11","Male","","","","","","","null","<div style=""font-size:60px;"">+</div>","null","fixation","","","","","","","","","","","",""
"revaluation","47","288014","0.0-3.0-8.0-0.4","spark_pilot_norest","8427","5","11","Male","","false","","","","","[548,362.3999999985099]","./assets/img/space/10.jpg","[""ArrowUp"",""ArrowRight""]","full practice","space","36","{""ArrowUp,ArrowLeft"":3,""ArrowUp,ArrowRight"":36,""ArrowDown,ArrowLeft"":15,""ArrowDown,ArrowRight"":23}","true","ArrowUp,ArrowRight","false","","","","","",""
"html-keyboard-response","48","288515","0.0-3.0-8.0-1.4","spark_pilot_norest","8427","5","11","Male","","","","","","","null","<div style=""font-size:60px;"">+</div>","null","fixation","","","","","","","","","","","",""
"learning-instructions","49","299466","0.0-3.0-9.0-0.0","spark_pilot_norest","8427","5","11","Male","","","","","","","582.1999999955297","<p> One last thing: sometimes, you will see a robber. The robber can be anywhere in the picture. </p>
            <p> If you do not stop them, you will lose treasure. </p>
            <img src='./assets/img/instructions/robber.jpg' class='instructions-image'>","","instructions","","","","","","","","","","","",""
"learning-instructions","50","307252","0.0-3.0-9.0-0.1","spark_pilot_norest","8427","5","11","Male","","","","","","","595.7000000029802","<p> If you see the robber, you should <b>press the space bar</b> rather than using the arrow keys. </p>
            <p> Try practicing that now! </p>","","instructions","","","","","","","","","","","",""
"revaluation","51","311275","0.0-3.0-10.0-0.0","spark_pilot_norest","8427","5","11","Male","","false","","","","","[566.8000000044703]","./assets/img/space/catch/0.jpg","[""spaceBar""]","catch practice","space","0","{""ArrowUp,ArrowLeft"":3,""ArrowUp,ArrowRight"":36,""ArrowDown,ArrowLeft"":15,""ArrowDown,ArrowRight"":23}","true","spaceBar","true","","","","","",""
"html-keyboard-response","52","311785","0.0-3.0-10.0-1.0","spark_pilot_norest","8427","5","11","Male","","","","","","","null","<div style=""font-size:60px;"">+</div>","null","fixation","","","","","","","","","","","",""
"revaluation","53","315808","0.0-3.0-10.0-0.1","spark_pilot_norest","8427","5","11","Male","","false","","","","","[449.30000000447035]","./assets/img/space/catch/1.jpg","[""spaceBar""]","catch practice","space","0","{""ArrowUp,ArrowLeft"":3,""ArrowUp,ArrowRight"":36,""ArrowDown,ArrowLeft"":15,""ArrowDown,ArrowRight"":23}","true","spaceBar","true","","","","","",""
"html-keyboard-response","54","316320","0.0-3.0-10.0-1.1","spark_pilot_norest","8427","5","11","Male","","","","","","","null","<div style=""font-size:60px;"">+</div>","null","fixation","","","","","","","","","","","",""
"revaluation","55","320343","0.0-3.0-10.0-0.2","spark_pilot_norest","8427","5","11","Male","","false","","","","","[461.19999999552965]","./assets/img/space/catch/2.jpg","[""spaceBar""]","catch practice","space","0","{""ArrowUp,ArrowLeft"":3,""ArrowUp,ArrowRight"":36,""ArrowDown,ArrowLeft"":15,""ArrowDown,ArrowRight"":23}","true","spaceBar","true","","","","","",""
"html-keyboard-response","56","320855","0.0-3.0-10.0-1.2","spark_pilot_norest","8427","5","11","Male","","","","","","","null","<div style=""font-size:60px;"">+</div>","null","fixation","","","","","","","","","","","",""
"learning-instructions","57","326885","0.0-3.0-11.0-0.0-0.0","spark_pilot_norest","8427","5","11","Male","","","","","","","750.7999999970198","<p> Now, you will practice a shortened version of the game to get a sense of how it all fits together. </p>","","instructions","","","","","","","","","","","",""
"learning-instructions","58","330618","0.0-3.0-11.0-0.0-0.1","spark_pilot_norest","8427","5","11","Male","","","","","","","529.9000000059605","<p>This time you are searching for treasure in outer space.</p>","","instructions","","","","","","","","","","","",""
"learning-instructions","59","346066","0.0-3.0-11.0-1.0-0.0","spark_pilot_norest","8427","5","11","Male","","","","","","","631.8999999985099","<p> Remember, when you see a picture of the place, use the up and down keys to <b>find an animal</b>.</p>
            <p> When you encounter an animal, you should use the left and right keys to <b>select a treasure chest</b>.</p>
            <p> Don't forget to look out for the robber! </p>","","instructions","","","","","","","","","","","",""
"revaluation","60","352103","0.0-3.0-11.0-2.0-0.0","spark_pilot_norest","8427","5","11","Male","","false","","","","","[615.1000000014901,621.6000000014901]","./assets/img/space/11.jpg","[""ArrowUp"",""ArrowRight""]","practice block","space","36","{""ArrowUp,ArrowLeft"":3,""ArrowUp,ArrowRight"":36,""ArrowDown,ArrowLeft"":15,""ArrowDown,ArrowRight"":23}","true","ArrowUp,ArrowRight","false","","","","","",""
"html-keyboard-response","61","352620","0.0-3.0-11.0-2.0-1.0","spark_pilot_norest","8427","5","11","Male","","","","","","","null","<div style=""font-size:60px;"">+</div>","null","fixation","","","","","","","","","","","",""
"revaluation","62","358643","0.0-3.0-11.0-2.0-0.1","spark_pilot_norest","8427","5","11","Male","","false","","","","","[285.5,560.4000000059605]","./assets/img/space/12.jpg","[""ArrowDown"",""ArrowRight""]","practice block","space","23","{""ArrowUp,ArrowLeft"":3,""ArrowUp,ArrowRight"":36,""ArrowDown,ArrowLeft"":15,""ArrowDown,ArrowRight"":23}","false","ArrowDown,ArrowRight","false","","","","","",""
"html-keyboard-response","63","359151","0.0-3.0-11.0-2.0-1.1","spark_pilot_norest","8427","5","11","Male","","","","","","","null","<div style=""font-size:60px;"">+</div>","null","fixation","","","","","","","","","","","",""
"revaluation","64","365174","0.0-3.0-11.0-2.0-0.2","spark_pilot_norest","8427","5","11","Male","","false","","","","","[641.1000000014901,637.7000000029802]","./assets/img/space/13.jpg","[""ArrowUp"",""ArrowRight""]","practice block","space","36","{""ArrowUp,ArrowLeft"":3,""ArrowUp,ArrowRight"":36,""ArrowDown,ArrowLeft"":15,""ArrowDown,ArrowRight"":23}","true","ArrowUp,ArrowRight","false","","","","","",""
"html-keyboard-response","65","365683","0.0-3.0-11.0-2.0-1.2","spark_pilot_norest","8427","5","11","Male","","","","","","","null","<div style=""font-size:60px;"">+</div>","null","fixation","","","","","","","","","","","",""
"revaluation","66","371721","0.0-3.0-11.0-2.0-0.3","spark_pilot_norest","8427","5","11","Male","","false","","","","","[656.1000000014901,630.1000000014901]","./assets/img/space/14.jpg","[""ArrowUp"",""ArrowRight""]","practice block","space","36","{""ArrowUp,ArrowLeft"":3,""ArrowUp,ArrowRight"":36,""ArrowDown,ArrowLeft"":15,""ArrowDown,ArrowRight"":23}","true","ArrowUp,ArrowRight","false","","","","","",""
"html-keyboard-response","67","372224","0.0-3.0-11.0-2.0-1.3","spark_pilot_norest","8427","5","11","Male","","","","","","","null","<div style=""font-size:60px;"">+</div>","null","fixation","","","","","","","","","","","",""
"revaluation","68","378247","0.0-3.0-11.0-2.0-0.4","spark_pilot_norest","8427","5","11","Male","","false","","","","","[938.4000000059605,373.1000000014901]","./assets/img/space/11.jpg","[""ArrowUp"",""ArrowRight""]","practice block","space","36","{""ArrowUp,ArrowLeft"":3,""ArrowUp,ArrowRight"":36,""ArrowDown,ArrowLeft"":15,""ArrowDown,ArrowRight"":23}","true","ArrowUp,ArrowRight","false","","","","","",""
"html-keyboard-response","69","378748","0.0-3.0-11.0-2.0-1.4","spark_pilot_norest","8427","5","11","Male","","","","","","","null","<div style=""font-size:60px;"">+</div>","null","fixation","","","","","","","","","","","",""
"revaluation","70","384758","0.0-3.0-11.0-2.0-0.5","spark_pilot_norest","8427","5","11","Male","","false","","","","","[557.1000000014901,425]","./assets/img/space/12.jpg","[""ArrowUp"",""ArrowRight""]","practice block","space","36","{""ArrowUp,ArrowLeft"":3,""ArrowUp,ArrowRight"":36,""ArrowDown,ArrowLeft"":15,""ArrowDown,ArrowRight"":23}","true","ArrowUp,ArrowRight","false","","","","","",""
"html-keyboard-response","71","385260","0.0-3.0-11.0-2.0-1.5","spark_pilot_norest","8427","5","11","Male","","","","","","","null","<div style=""font-size:60px;"">+</div>","null","fixation","","","","","","","","","","","",""
"revaluation","72","391270","0.0-3.0-11.0-2.0-0.6","spark_pilot_norest","8427","5","11","Male","","false","","","","","[691.1000000014901,402.29999999701977]","./assets/img/space/13.jpg","[""ArrowUp"",""ArrowRight""]","practice block","space","36","{""ArrowUp,ArrowLeft"":3,""ArrowUp,ArrowRight"":36,""ArrowDown,ArrowLeft"":15,""ArrowDown,ArrowRight"":23}","true","ArrowUp,ArrowRight","false","","","","","",""
"html-keyboard-response","73","391772","0.0-3.0-11.0-2.0-1.6","spark_pilot_norest","8427","5","11","Male","","","","","","","null","<div style=""font-size:60px;"">+</div>","null","fixation","","","","","","","","","","","",""
"revaluation","74","397780","0.0-3.0-11.0-2.0-0.7","spark_pilot_norest","8427","5","11","Male","","false","","","","","[992.8999999985099,391.1000000014901]","./assets/img/space/14.jpg","[""ArrowUp"",""ArrowRight""]","practice block","space","36","{""ArrowUp,ArrowLeft"":3,""ArrowUp,ArrowRight"":36,""ArrowDown,ArrowLeft"":15,""ArrowDown,ArrowRight"":23}","true","ArrowUp,ArrowRight","false","","","","","",""
"html-keyboard-response","75","398282","0.0-3.0-11.0-2.0-1.7","spark_pilot_norest","8427","5","11","Male","","","","","","","null","<div style=""font-size:60px;"">+</div>","null","fixation","","","","","","","","","","","",""
"revaluation","76","402288","0.0-3.0-11.0-2.0-0.8","spark_pilot_norest","8427","5","11","Male","","false","","","","","[472.29999999701977]","./assets/img/space/catch/3.jpg","[""ArrowUp""]","practice block","space","-10","{""ArrowUp,ArrowLeft"":3,""ArrowUp,ArrowRight"":36,""ArrowDown,ArrowLeft"":15,""ArrowDown,ArrowRight"":23}","false","ArrowUp","true","","","","","",""
"html-keyboard-response","77","402791","0.0-3.0-11.0-2.0-1.8","spark_pilot_norest","8427","5","11","Male","","","","","","","null","<div style=""font-size:60px;"">+</div>","null","fixation","","","","","","","","","","","",""
"learning-instructions","78","417871","0.0-3.0-11.0-3.0-0.0","spark_pilot_norest","8427","5","11","Male","","","","","","","643.7999999970198","<p> Now, you will travel with a friend who will choose whether you go up or down first. </p>
            <p> On these turns, you will just see the animal that they found. You will still get to choose which chest to search for treasure.</p>","","instructions","","","","","","","","","","","",""
"revaluation","79","421894","0.0-3.0-11.0-4.0-0.0","spark_pilot_norest","8427","5","11","Male","","false","","","","","[738.1000000014901]","./assets/img/space/animals/cat.jpg","[""ArrowRight""]","practice block","space","36","{""ArrowUp,ArrowLeft"":3,""ArrowUp,ArrowRight"":36,""ArrowDown,ArrowLeft"":15,""ArrowDown,ArrowRight"":23}","true","ArrowUp,ArrowRight","","","","","","",""
"html-keyboard-response","80","422401","0.0-3.0-11.0-4.0-1.0","spark_pilot_norest","8427","5","11","Male","","","","","","","null","<div style=""font-size:60px;"">+</div>","null","fixation","","","","","","","","","","","",""
"revaluation","81","426423","0.0-3.0-11.0-4.0-0.1","spark_pilot_norest","8427","5","11","Male","","false","","","","","[641.6999999955297]","./assets/img/space/animals/rabbit.jpg","[""ArrowRight""]","practice block","space","23","{""ArrowUp,ArrowLeft"":3,""ArrowUp,ArrowRight"":36,""ArrowDown,ArrowLeft"":15,""ArrowDown,ArrowRight"":23}","true","ArrowDown,ArrowRight","","","","","","",""
"html-keyboard-response","82","426934","0.0-3.0-11.0-4.0-1.1","spark_pilot_norest","8427","5","11","Male","","","","","","","null","<div style=""font-size:60px;"">+</div>","null","fixation","","","","","","","","","","","",""
"revaluation","83","430957","0.0-3.0-11.0-4.0-0.2","spark_pilot_norest","8427","5","11","Male","","false","","","","","[934.7000000029802]","./assets/img/space/animals/rabbit.jpg","[""ArrowRight""]","practice block","space","23","{""ArrowUp,ArrowLeft"":3,""ArrowUp,ArrowRight"":36,""ArrowDown,ArrowLeft"":15,""ArrowDown,ArrowRight"":23}","true","ArrowDown,ArrowRight","","","","","","",""
"html-keyboard-response","84","431469","0.0-3.0-11.0-4.0-1.2","spark_pilot_norest","8427","5","11","Male","","","","","","","null","<div style=""font-size:60px;"">+</div>","null","fixation","","","","","","","","","","","",""
"revaluation","85","435489","0.0-3.0-11.0-4.0-0.3","spark_pilot_norest","8427","5","11","Male","","false","","","","","[461]","./assets/img/space/animals/cat.jpg","[""ArrowRight""]","practice block","space","36","{""ArrowUp,ArrowLeft"":3,""ArrowUp,ArrowRight"":36,""ArrowDown,ArrowLeft"":15,""ArrowDown,ArrowRight"":23}","true","ArrowUp,ArrowRight","","","","","","",""
"html-keyboard-response","86","436003","0.0-3.0-11.0-4.0-1.3","spark_pilot_norest","8427","5","11","Male","","","","","","","null","<div style=""font-size:60px;"">+</div>","null","fixation","","","","","","","","","","","",""
"learning-instructions","87","444146","0.0-3.0-11.0-5.0-0.0","spark_pilot_norest","8427","5","11","Male","","","","","","","null","<p> You have almost finished this part of the game! </p>
            <p> We are going to ask you to make a few more choices. </p>","","instructions","","","","","","","","","","","",""
"learning-instructions","88","460183","0.0-3.0-11.0-5.0-0.1","spark_pilot_norest","8427","5","11","Male","","","","","","","null","<p> First, you need to decide whether to go up or down. When you see each picture, use the arrow keys to make your choice. </p>
            <p><b>You will not see which animal you found, but try to get to the one that will give you the most treasure.</b></p>","","instructions","","","","","","","","","","","",""
"html-keyboard-response","89","461198","0.0-3.0-11.0-6.0-0.0","spark_pilot_norest","8427","5","11","Male","","","","","","","null","<div style=""font-size:100px;color:red;"">Starting in...</div>","null","","","","","","","","","","","","",""
"html-keyboard-response","90","462204","0.0-3.0-11.0-6.0-1.0","spark_pilot_norest","8427","5","11","Male","","","","","","","null","<div style=""font-size:200px;color:red;"">3</div>","null","","","","","","","","","","","","",""
"html-keyboard-response","91","463215","0.0-3.0-11.0-6.0-2.0","spark_pilot_norest","8427","5","11","Male","","","","","","","null","<div style=""font-size:200px;color:red;"">2</div>","null","","","","","","","","","","","","",""
"html-keyboard-response","92","464231","0.0-3.0-11.0-6.0-3.0","spark_pilot_norest","8427","5","11","Male","","","","","","","null","<div style=""font-size:200px;color:red;"">1</div>","null","","","","","","","","","","","","",""
"revaluation","93","464574","0.0-3.0-11.0-7.0","spark_pilot_norest","8427","5","11","Male","","false","","","","","[337.69999999552965]","./assets/img/space/15.jpg","[""ArrowUp""]","practice block","space","0","{""ArrowUp,ArrowLeft"":3,""ArrowUp,ArrowRight"":36,""ArrowDown,ArrowLeft"":15,""ArrowDown,ArrowRight"":23}","true","ArrowUp","false","","","","","",""
"html-keyboard-response","94","465087","0.0-3.0-11.0-8.0","spark_pilot_norest","8427","5","11","Male","","","","","","","null","<div style=""font-size:60px;"">+</div>","null","fixation","","","","","","","","","","","",""
"learning-instructions","95","478496","0.0-3.0-11.0-9.0-0.0","spark_pilot_norest","8427","5","11","Male","","","","","","","null","<p> Now you will see the animals again and can search their chests for treasure. </p>
            <p> This time, you will not see how much treasure you earned, but you will earn more bonus money for making better choices. </p>","","instructions","","","","","","","","","","","",""
"html-keyboard-response","96","479512","0.0-3.0-11.0-10.0-0.0","spark_pilot_norest","8427","5","11","Male","","","","","","","null","<div style=""font-size:100px;color:red;"">Starting in...</div>","null","","","","","","","","","","","","",""
"html-keyboard-response","97","480527","0.0-3.0-11.0-10.0-1.0","spark_pilot_norest","8427","5","11","Male","","","","","","","null","<div style=""font-size:200px;color:red;"">3</div>","null","","","","","","","","","","","","",""
"html-keyboard-response","98","481529","0.0-3.0-11.0-10.0-2.0","spark_pilot_norest","8427","5","11","Male","","","","","","","null","<div style=""font-size:200px;color:red;"">2</div>","null","","","","","","","","","","","","",""
"html-keyboard-response","99","482533","0.0-3.0-11.0-10.0-3.0","spark_pilot_norest","8427","5","11","Male","","","","","","","null","<div style=""font-size:200px;color:red;"">1</div>","null","","","","","","","","","","","","",""
"revaluation","100","482949","0.0-3.0-11.0-11.0-0.0","spark_pilot_norest","8427","5","11","Male","","false","","","","","[408.30000000447035]","./assets/img/space/animals/cat.jpg","[""ArrowRight""]","practice block","space","0","{""ArrowUp,ArrowLeft"":3,""ArrowUp,ArrowRight"":36,""ArrowDown,ArrowLeft"":15,""ArrowDown,ArrowRight"":23}","true","ArrowUp,ArrowRight","","","","","","",""
"html-keyboard-response","101","483451","0.0-3.0-11.0-11.0-1.0","spark_pilot_norest","8427","5","11","Male","","","","","","","null","<div style=""font-size:60px;"">+</div>","null","fixation","","","","","","","","","","","",""
"revaluation","102","484876","0.0-3.0-11.0-11.0-0.1","spark_pilot_norest","8427","5","11","Male","","false","","","","","[1419]","./assets/img/space/animals/rabbit.jpg","[""ArrowRight""]","practice block","space","0","{""ArrowUp,ArrowLeft"":3,""ArrowUp,ArrowRight"":36,""ArrowDown,ArrowLeft"":15,""ArrowDown,ArrowRight"":23}","true","ArrowDown,ArrowRight","","","","","","",""
"html-keyboard-response","103","485386","0.0-3.0-11.0-11.0-1.1","spark_pilot_norest","8427","5","11","Male","","","","","","","null","<div style=""font-size:60px;"">+</div>","null","fixation","","","","","","","","","","","",""
"learning-instructions","104","490863","0.0-3.0-12.0-0.0","spark_pilot_norest","8427","5","11","Male","","","","","","","886.7999999970198","<p> Before you start, we're going to ask you a few questions about how the game works. </p>","","instructions","","","","","","","","","","","",""
"comp-q","105","497702","0.0-3.0-13.0-0.0-0.0","spark_pilot_norest","8427","5","11","Male","","","","","","","1242.6000000014901","<p> <b> True or False? </b> </p>
            <p> There can be 50 pieces of treasure in a given animal's chest. </p>","1","comp_question","","","","true","","","","","","","",""
"comp-q","106","505949","0.0-3.0-13.0-0.0-1.0","spark_pilot_norest","8427","5","11","Male","","","","","","","1572.8999999985099","<p> <b> That's right! </b> The amount of treasure in each chest can range from 0 to 40 pieces. </p>","0","comp_answer","","","","","","","","","","","",""
"comp-q","107","514284","0.0-3.0-13.0-0.1-0.1","spark_pilot_norest","8427","5","11","Male","","","","","","","1207.6000000014901","<p> <b> True or False? </b> </p><p> In this game, all animals have the same amount of treasure in their left and right chests. </p>","1","comp_question","","","","true","","","","","","","",""
"comp-q","108","520897","0.0-3.0-13.0-0.1-1.1","spark_pilot_norest","8427","5","11","Male","","","","","","","1371.6000000014901","<p> <b> That's right! </b> Animals have different amounts of treasure in their treasure chests. </p>","0","comp_answer","","","","","","","","","","","",""
"comp-q","109","527483","0.0-3.0-13.0-0.2-0.2","spark_pilot_norest","8427","5","11","Male","","","","","","","716.1000000014901","<p> <b> True or False? </b> </p><p> The same animal will always be there if you go up in the same place. </p>","1","comp_question","","","","false","","","","","","","",""
"comp-q","110","534797","0.0-3.0-13.0-0.2-1.2","spark_pilot_norest","8427","5","11","Male","","","","","","","1000.5","<p> <b>Incorrect.</b> One animal lives in the upper part and one lives in the lower part of every place. </p>","0","comp_answer","","","","","","","","","","","",""
"comp-q","111","542399","0.0-3.0-13.0-0.3-0.3","spark_pilot_norest","8427","5","11","Male","","","","","","","1782.2999999970198","<p> <b> True or False? </b> </p><p> The same animal will always be there if you go up in the same place. </p>","0","comp_question","","","","true","","","","","","","",""
"comp-q","112","550017","0.0-3.0-13.0-0.3-1.3","spark_pilot_norest","8427","5","11","Male","","","","","","","1157.6000000014901","<p> <b> That's right! </b> One animal lives in the upper part and one lives in the lower part of every place. </p>","0","comp_answer","","","","","","","","","","","",""
"comp-q","113","556417","0.0-3.0-13.0-0.4-0.4","spark_pilot_norest","8427","5","11","Male","","","","","","","850","<p> <b> True or False? </b> </p><p> If you see a different picture, it means you are in a new place. </p>","0","comp_question","","","","false","","","","","","","",""
"comp-q","114","568766","0.0-3.0-13.0-0.4-1.4","spark_pilot_norest","8427","5","11","Male","","","","","","","1239.5","<p> <b>Incorrect.</b> Lots of different images may show the same place. For example,  you may see three different images that all remind you that you are in outer space. </p>","0","comp_answer","","","","","","","","","","","",""
"comp-q","115","575265","0.0-3.0-13.0-0.5-0.5","spark_pilot_norest","8427","5","11","Male","","","","","","","988","<p> <b> True or False? </b> </p><p> If you see a different picture, it means you are in a new place. </p>","1","comp_question","","","","true","","","","","","","",""
"comp-q","116","587649","0.0-3.0-13.0-0.5-1.5","spark_pilot_norest","8427","5","11","Male","","","","","","","1110.5999999940395","<p> <b> That's right! </b> Lots of different images may show the same place. For example,  you may see three different images that all remind you that you are in outer space. </p>","0","comp_answer","","","","","","","","","","","",""
"learning-instructions","117","599529","0.0-3.0-14.0-0.0","spark_pilot_norest","8427","5","11","Male","","","","","","","2001.3000000044703","<p> Good job. Remember to do your best because the amount of treasure you earn will be converted into bonus money. </p>
            <p> It’s time to start the real game! </p>","","instructions","","","","","","","","","","","",""
"learning-instructions","118","603580","0.0-4.0-0.0-0.0","spark_pilot_norest","8427","5","11","Male","","","","","","","1283","<p> This time you are searching for treasure in the <b>canyon</b>.</p>","","instructions","","","","","","","","","","","",""
"learning-instructions","119","621607","0.0-4.0-0.0-0.1","spark_pilot_norest","8427","5","11","Male","","","","","","","687.8000000044703","<p><b>New</b> animals with <b>new</b> treasure chests live here. You need to explore to discover where the animal with the best treasure chest is.</p>
                    <p> Like before, once you figure out which animal has the chest with the most treasure, you should try to get to that animal and select that chest! </p>","","instructions","","","","","","","","","","","",""
"learning-instructions","120","638449","0.0-4.0-1.0-0.0","spark_pilot_norest","8427","5","11","Male","","","","","","","2109.89999999851","<p> Remember, when you see a picture of the place, use the up and down keys to <b>find an animal</b>.</p>
            <p> When you encounter an animal, you should use the left and right keys to <b>select a treasure chest</b>.</p>
            <p> Don't forget to look out for the robber! </p>","","instructions","","","","","","","","","","","",""
"revaluation","121","644489","0.0-4.0-2.0-0.0","spark_pilot_norest","8427","5","11","Male","","false","","","","","[1188.6999999955297,905.4000000059605]","./assets/img/canyon/memory/37.jpg","[""ArrowUp"",""ArrowRight""]","value training","canyon","10","{""ArrowUp,ArrowLeft"":26,""ArrowUp,ArrowRight"":10,""ArrowDown,ArrowLeft"":5,""ArrowDown,ArrowRight"":17}","false","ArrowUp,ArrowRight","false","original","1","0","","",""
"html-keyboard-response","122","645000","0.0-4.0-2.0-1.0","spark_pilot_norest","8427","5","11","Male","","","","","","","null","<div style=""font-size:60px;"">+</div>","null","fixation","","","","","","","","","1","","",""
"revaluation","123","649022","0.0-4.0-2.0-0.1","spark_pilot_norest","8427","5","11","Male","","false","","","","","[1044.9000000059605]","./assets/img/canyon/catch/4.jpg","[""spaceBar""]","value training","canyon","0","{""ArrowUp,ArrowLeft"":26,""ArrowUp,ArrowRight"":10,""ArrowDown,ArrowLeft"":5,""ArrowDown,ArrowRight"":17}","true","spaceBar","true","original","1","2","","",""
"html-keyboard-response","124","649534","0.0-4.0-2.0-1.1","spark_pilot_norest","8427","5","11","Male","","","","","","","null","<div style=""font-size:60px;"">+</div>","null","fixation","","","","","","","","","3","","",""
"revaluation","125","655571","0.0-4.0-2.0-0.2","spark_pilot_norest","8427","5","11","Male","","false","","","","","[535.7000000029802,919.7000000029802]","./assets/img/canyon/memory/1.jpg","[""ArrowDown"",""ArrowLeft""]","value training","canyon","5","{""ArrowUp,ArrowLeft"":26,""ArrowUp,ArrowRight"":10,""ArrowDown,ArrowLeft"":5,""ArrowDown,ArrowRight"":17}","false","ArrowDown,ArrowLeft","false","original","1","4","","",""
"html-keyboard-response","126","656085","0.0-4.0-2.0-1.2","spark_pilot_norest","8427","5","11","Male","","","","","","","null","<div style=""font-size:60px;"">+</div>","null","fixation","","","","","","","","","5","","",""
"revaluation","127","660101","0.0-4.0-2.0-0.3","spark_pilot_norest","8427","5","11","Male","","false","","","","","[1013.1000000014901]","./assets/img/canyon/catch/2.jpg","[""spaceBar""]","value training","canyon","0","{""ArrowUp,ArrowLeft"":26,""ArrowUp,ArrowRight"":10,""ArrowDown,ArrowLeft"":5,""ArrowDown,ArrowRight"":17}","true","spaceBar","true","original","1","6","","",""
"html-keyboard-response","128","660607","0.0-4.0-2.0-1.3","spark_pilot_norest","8427","5","11","Male","","","","","","","null","<div style=""font-size:60px;"">+</div>","null","fixation","","","","","","","","","7","","",""
"revaluation","129","666641","0.0-4.0-2.0-0.4","spark_pilot_norest","8427","5","11","Male","","false","","","","","[747,1261.3999999985099]","./assets/img/canyon/memory/28.jpg","[""ArrowUp"",""ArrowLeft""]","value training","canyon","26","{""ArrowUp,ArrowLeft"":26,""ArrowUp,ArrowRight"":10,""ArrowDown,ArrowLeft"":5,""ArrowDown,ArrowRight"":17}","true","ArrowUp,ArrowLeft","false","original","1","8","","",""
"html-keyboard-response","130","667144","0.0-4.0-2.0-1.4","spark_pilot_norest","8427","5","11","Male","","","","","","","null","<div style=""font-size:60px;"">+</div>","null","fixation","","","","","","","","","9","","",""
"revaluation","131","673156","0.0-4.0-2.0-0.5","spark_pilot_norest","8427","5","11","Male","","false","","","","","[837.1000000014901,1057.3999999985099]","./assets/img/canyon/memory/35.jpg","[""ArrowDown"",""ArrowRight""]","value training","canyon","17","{""ArrowUp,ArrowLeft"":26,""ArrowUp,ArrowRight"":10,""ArrowDown,ArrowLeft"":5,""ArrowDown,ArrowRight"":17}","false","ArrowDown,ArrowRight","false","original","1","10","","",""
"html-keyboard-response","132","673659","0.0-4.0-2.0-1.5","spark_pilot_norest","8427","5","11","Male","","","","","","","null","<div style=""font-size:60px;"">+</div>","null","fixation","","","","","","","","","11","","",""
"revaluation","133","679667","0.0-4.0-2.0-0.6","spark_pilot_norest","8427","5","11","Male","","false","","","","","[387.79999999701977,408.6000000014901]","./assets/img/canyon/memory/22.jpg","[""ArrowUp"",""ArrowLeft""]","value training","canyon","26","{""ArrowUp,ArrowLeft"":26,""ArrowUp,ArrowRight"":10,""ArrowDown,ArrowLeft"":5,""ArrowDown,ArrowRight"":17}","true","ArrowUp,ArrowLeft","false","original","1","12","","",""
"html-keyboard-response","134","680171","0.0-4.0-2.0-1.6","spark_pilot_norest","8427","5","11","Male","","","","","","","null","<div style=""font-size:60px;"">+</div>","null","fixation","","","","","","","","","13","","",""
"revaluation","135","686179","0.0-4.0-2.0-0.7","spark_pilot_norest","8427","5","11","Male","","false","","","","","[583.7000000029802,314.29999999701977]","./assets/img/canyon/memory/12.jpg","[""ArrowUp"",""ArrowLeft""]","value training","canyon","26","{""ArrowUp,ArrowLeft"":26,""ArrowUp,ArrowRight"":10,""ArrowDown,ArrowLeft"":5,""ArrowDown,ArrowRight"":17}","true","ArrowUp,ArrowLeft","false","original","1","14","","",""
"html-keyboard-response","136","686682","0.0-4.0-2.0-1.7","spark_pilot_norest","8427","5","11","Male","","","","","","","null","<div style=""font-size:60px;"">+</div>","null","fixation","","","","","","","","","15","","",""
"revaluation","137","692693","0.0-4.0-2.0-0.8","spark_pilot_norest","8427","5","11","Male","","false","","","","","[442.79999999701977,307.3999999985099]","./assets/img/canyon/memory/28.jpg","[""ArrowUp"",""ArrowLeft""]","value training","canyon","26","{""ArrowUp,ArrowLeft"":26,""ArrowUp,ArrowRight"":10,""ArrowDown,ArrowLeft"":5,""ArrowDown,ArrowRight"":17}","true","ArrowUp,ArrowLeft","false","original","1","16","","",""
"html-keyboard-response","138","693194","0.0-4.0-2.0-1.8","spark_pilot_norest","8427","5","11","Male","","","","","","","null","<div style=""font-size:60px;"">+</div>","null","fixation","","","","","","","","","17","","",""
"revaluation","139","699203","0.0-4.0-2.0-0.9","spark_pilot_norest","8427","5","11","Male","","false","","","","","[359.1000000014901,314.29999999701977]","./assets/img/canyon/memory/1.jpg","[""ArrowUp"",""ArrowLeft""]","value training","canyon","26","{""ArrowUp,ArrowLeft"":26,""ArrowUp,ArrowRight"":10,""ArrowDown,ArrowLeft"":5,""ArrowDown,ArrowRight"":17}","true","ArrowUp,ArrowLeft","false","original","1","18","","",""
"html-keyboard-response","140","699705","0.0-4.0-2.0-1.9","spark_pilot_norest","8427","5","11","Male","","","","","","","null","<div style=""font-size:60px;"">+</div>","null","fixation","","","","","","","","","19","","",""
"revaluation","141","705716","0.0-4.0-2.0-0.10","spark_pilot_norest","8427","5","11","Male","","false","","","","","[523.8999999985099,367.69999999552965]","./assets/img/canyon/memory/29.jpg","[""ArrowUp"",""ArrowLeft""]","value training","canyon","26","{""ArrowUp,ArrowLeft"":26,""ArrowUp,ArrowRight"":10,""ArrowDown,ArrowLeft"":5,""ArrowDown,ArrowRight"":17}","true","ArrowUp,ArrowLeft","false","original","1","20","","",""
"html-keyboard-response","142","706218","0.0-4.0-2.0-1.10","spark_pilot_norest","8427","5","11","Male","","","","","","","null","<div style=""font-size:60px;"">+</div>","null","fixation","","","","","","","","","21","","",""
"revaluation","143","712228","0.0-4.0-2.0-0.11","spark_pilot_norest","8427","5","11","Male","","false","","","","","[712,393.19999999552965]","./assets/img/canyon/memory/38.jpg","[""ArrowUp"",""ArrowLeft""]","value training","canyon","26","{""ArrowUp,ArrowLeft"":26,""ArrowUp,ArrowRight"":10,""ArrowDown,ArrowLeft"":5,""ArrowDown,ArrowRight"":17}","true","ArrowUp,ArrowLeft","false","original","1","22","","",""
"html-keyboard-response","144","712732","0.0-4.0-2.0-1.11","spark_pilot_norest","8427","5","11","Male","","","","","","","null","<div style=""font-size:60px;"">+</div>","null","fixation","","","","","","","","","23","","",""
"revaluation","145","716742","0.0-4.0-2.0-0.12","spark_pilot_norest","8427","5","11","Male","","false","","","","","[743.2999999970198]","./assets/img/canyon/catch/3.jpg","[""spaceBar""]","value training","canyon","0","{""ArrowUp,ArrowLeft"":26,""ArrowUp,ArrowRight"":10,""ArrowDown,ArrowLeft"":5,""ArrowDown,ArrowRight"":17}","true","spaceBar","true","original","1","24","","",""
"html-keyboard-response","146","717244","0.0-4.0-2.0-1.12","spark_pilot_norest","8427","5","11","Male","","","","","","","null","<div style=""font-size:60px;"">+</div>","null","fixation","","","","","","","","","25","","",""
"revaluation","147","723256","0.0-4.0-2.0-0.13","spark_pilot_norest","8427","5","11","Male","","false","","","","","[425.8999999985099,350.3999999985099]","./assets/img/canyon/memory/29.jpg","[""ArrowUp"",""ArrowLeft""]","value training","canyon","26","{""ArrowUp,ArrowLeft"":26,""ArrowUp,ArrowRight"":10,""ArrowDown,ArrowLeft"":5,""ArrowDown,ArrowRight"":17}","true","ArrowUp,ArrowLeft","false","original","1","26","","",""
"html-keyboard-response","148","723768","0.0-4.0-2.0-1.13","spark_pilot_norest","8427","5","11","Male","","","","","","","null","<div style=""font-size:60px;"">+</div>","null","fixation","","","","","","","","","27","","",""
"revaluation","149","729776","0.0-4.0-2.0-0.14","spark_pilot_norest","8427","5","11","Male","","false","","","","","[713.2999999970198,397]","./assets/img/canyon/memory/37.jpg","[""ArrowUp"",""ArrowLeft""]","value training","canyon","26","{""ArrowUp,ArrowLeft"":26,""ArrowUp,ArrowRight"":10,""ArrowDown,ArrowLeft"":5,""ArrowDown,ArrowRight"":17}","true","ArrowUp,ArrowLeft","false","original","1","28","","",""
"html-keyboard-response","150","730278","0.0-4.0-2.0-1.14","spark_pilot_norest","8427","5","11","Male","","","","","","","null","<div style=""font-size:60px;"">+</div>","null","fixation","","","","","","","","","29","","",""
"revaluation","151","734283","0.0-4.0-2.0-0.15","spark_pilot_norest","8427","5","11","Male","","false","","","","","[704]","./assets/img/canyon/catch/5.jpg","[""spaceBar""]","value training","canyon","0","{""ArrowUp,ArrowLeft"":26,""ArrowUp,ArrowRight"":10,""ArrowDown,ArrowLeft"":5,""ArrowDown,ArrowRight"":17}","true","spaceBar","true","original","1","30","","",""
"html-keyboard-response","152","734784","0.0-4.0-2.0-1.15","spark_pilot_norest","8427","5","11","Male","","","","","","","null","<div style=""font-size:60px;"">+</div>","null","fixation","","","","","","","","","31","","",""
"revaluation","153","740793","0.0-4.0-2.0-0.16","spark_pilot_norest","8427","5","11","Male","","false","","","","","[416.3999999985099,426.5]","./assets/img/canyon/memory/38.jpg","[""ArrowUp"",""ArrowLeft""]","value training","canyon","26","{""ArrowUp,ArrowLeft"":26,""ArrowUp,ArrowRight"":10,""ArrowDown,ArrowLeft"":5,""ArrowDown,ArrowRight"":17}","true","ArrowUp,ArrowLeft","false","original","1","32","","",""
"html-keyboard-response","154","741296","0.0-4.0-2.0-1.16","spark_pilot_norest","8427","5","11","Male","","","","","","","null","<div style=""font-size:60px;"">+</div>","null","fixation","","","","","","","","","33","","",""
"revaluation","155","747304","0.0-4.0-2.0-0.17","spark_pilot_norest","8427","5","11","Male","","false","","","","","[570.4000000059605,498.6000000014901]","./assets/img/canyon/memory/3.jpg","[""ArrowUp"",""ArrowLeft""]","value training","canyon","26","{""ArrowUp,ArrowLeft"":26,""ArrowUp,ArrowRight"":10,""ArrowDown,ArrowLeft"":5,""ArrowDown,ArrowRight"":17}","true","ArrowUp,ArrowLeft","false","original","1","34","","",""
"html-keyboard-response","156","747807","0.0-4.0-2.0-1.17","spark_pilot_norest","8427","5","11","Male","","","","","","","null","<div style=""font-size:60px;"">+</div>","null","fixation","","","","","","","","","35","","",""
"revaluation","157","753820","0.0-4.0-2.0-0.18","spark_pilot_norest","8427","5","11","Male","","false","","","","","[729.5,368.69999999552965]","./assets/img/canyon/memory/39.jpg","[""ArrowUp"",""ArrowLeft""]","value training","canyon","26","{""ArrowUp,ArrowLeft"":26,""ArrowUp,ArrowRight"":10,""ArrowDown,ArrowLeft"":5,""ArrowDown,ArrowRight"":17}","true","ArrowUp,ArrowLeft","false","original","1","36","","",""
"html-keyboard-response","158","754322","0.0-4.0-2.0-1.18","spark_pilot_norest","8427","5","11","Male","","","","","","","null","<div style=""font-size:60px;"">+</div>","null","fixation","","","","","","","","","37","","",""
"revaluation","159","760330","0.0-4.0-2.0-0.19","spark_pilot_norest","8427","5","11","Male","","false","","","","","[534.3999999985099,404.5]","./assets/img/canyon/memory/3.jpg","[""ArrowUp"",""ArrowLeft""]","value training","canyon","26","{""ArrowUp,ArrowLeft"":26,""ArrowUp,ArrowRight"":10,""ArrowDown,ArrowLeft"":5,""ArrowDown,ArrowRight"":17}","true","ArrowUp,ArrowLeft","false","original","1","38","","",""
"html-keyboard-response","160","760832","0.0-4.0-2.0-1.19","spark_pilot_norest","8427","5","11","Male","","","","","","","null","<div style=""font-size:60px;"">+</div>","null","fixation","","","","","","","","","39","","",""
"revaluation","161","766842","0.0-4.0-2.0-0.20","spark_pilot_norest","8427","5","11","Male","","false","","","","","[680.3000000044703,365.6000000014901]","./assets/img/canyon/memory/4.jpg","[""ArrowUp"",""ArrowLeft""]","value training","canyon","26","{""ArrowUp,ArrowLeft"":26,""ArrowUp,ArrowRight"":10,""ArrowDown,ArrowLeft"":5,""ArrowDown,ArrowRight"":17}","true","ArrowUp,ArrowLeft","false","original","1","40","","",""
"html-keyboard-response","162","767351","0.0-4.0-2.0-1.20","spark_pilot_norest","8427","5","11","Male","","","","","","","null","<div style=""font-size:60px;"">+</div>","null","fixation","","","","","","","","","41","","",""
"revaluation","163","773358","0.0-4.0-2.0-0.21","spark_pilot_norest","8427","5","11","Male","","false","","","","","[651.5,432.3999999985099]","./assets/img/canyon/memory/40.jpg","[""ArrowUp"",""ArrowLeft""]","value training","canyon","26","{""ArrowUp,ArrowLeft"":26,""ArrowUp,ArrowRight"":10,""ArrowDown,ArrowLeft"":5,""ArrowDown,ArrowRight"":17}","true","ArrowUp,ArrowLeft","false","original","1","42","","",""
"html-keyboard-response","164","773859","0.0-4.0-2.0-1.21","spark_pilot_norest","8427","5","11","Male","","","","","","","null","<div style=""font-size:60px;"">+</div>","null","fixation","","","","","","","","","43","","",""
"revaluation","165","779867","0.0-4.0-2.0-0.22","spark_pilot_norest","8427","5","11","Male","","false","","","","","[606.2000000029802,326.3999999985099]","./assets/img/canyon/memory/14.jpg","[""ArrowUp"",""ArrowLeft""]","value training","canyon","26","{""ArrowUp,ArrowLeft"":26,""ArrowUp,ArrowRight"":10,""ArrowDown,ArrowLeft"":5,""ArrowDown,ArrowRight"":17}","true","ArrowUp,ArrowLeft","false","original","1","44","","",""
"html-keyboard-response","166","780368","0.0-4.0-2.0-1.22","spark_pilot_norest","8427","5","11","Male","","","","","","","null","<div style=""font-size:60px;"">+</div>","null","fixation","","","","","","","","","45","","",""
"revaluation","167","786379","0.0-4.0-2.0-0.23","spark_pilot_norest","8427","5","11","Male","","false","","","","","[605,460.20000000298023]","./assets/img/canyon/memory/11.jpg","[""ArrowUp"",""ArrowLeft""]","value training","canyon","26","{""ArrowUp,ArrowLeft"":26,""ArrowUp,ArrowRight"":10,""ArrowDown,ArrowLeft"":5,""ArrowDown,ArrowRight"":17}","true","ArrowUp,ArrowLeft","false","original","1","46","","",""
"html-keyboard-response","168","786881","0.0-4.0-2.0-1.23","spark_pilot_norest","8427","5","11","Male","","","","","","","null","<div style=""font-size:60px;"">+</div>","null","fixation","","","","","","","","","47","","",""
"revaluation","169","792890","0.0-4.0-2.0-0.24","spark_pilot_norest","8427","5","11","Male","","false","","","","","[444.70000000298023,322.1000000014901]","./assets/img/canyon/memory/12.jpg","[""ArrowUp"",""ArrowLeft""]","value training","canyon","26","{""ArrowUp,ArrowLeft"":26,""ArrowUp,ArrowRight"":10,""ArrowDown,ArrowLeft"":5,""ArrowDown,ArrowRight"":17}","true","ArrowUp,ArrowLeft","false","original","1","48","","",""
"html-keyboard-response","170","793391","0.0-4.0-2.0-1.24","spark_pilot_norest","8427","5","11","Male","","","","","","","null","<div style=""font-size:60px;"">+</div>","null","fixation","","","","","","","","","49","","",""
"revaluation","171","799400","0.0-4.0-2.0-0.25","spark_pilot_norest","8427","5","11","Male","","false","","","","","[708.3000000044703,312.1000000014901]","./assets/img/canyon/memory/16.jpg","[""ArrowUp"",""ArrowLeft""]","value training","canyon","26","{""ArrowUp,ArrowLeft"":26,""ArrowUp,ArrowRight"":10,""ArrowDown,ArrowLeft"":5,""ArrowDown,ArrowRight"":17}","true","ArrowUp,ArrowLeft","false","original","1","50","","",""
"html-keyboard-response","172","799902","0.0-4.0-2.0-1.25","spark_pilot_norest","8427","5","11","Male","","","","","","","null","<div style=""font-size:60px;"">+</div>","null","fixation","","","","","","","","","51","","",""
"revaluation","173","805913","0.0-4.0-2.0-0.26","spark_pilot_norest","8427","5","11","Male","","false","","","","","[560.9000000059605,337.3999999985099]","./assets/img/canyon/memory/18.jpg","[""ArrowUp"",""ArrowLeft""]","value training","canyon","26","{""ArrowUp,ArrowLeft"":26,""ArrowUp,ArrowRight"":10,""ArrowDown,ArrowLeft"":5,""ArrowDown,ArrowRight"":17}","true","ArrowUp,ArrowLeft","false","original","1","52","","",""
"html-keyboard-response","174","806415","0.0-4.0-2.0-1.26","spark_pilot_norest","8427","5","11","Male","","","","","","","null","<div style=""font-size:60px;"">+</div>","null","fixation","","","","","","","","","53","","",""
"revaluation","175","812423","0.0-4.0-2.0-0.27","spark_pilot_norest","8427","5","11","Male","","false","","","","","[685.9000000059605,397.20000000298023]","./assets/img/canyon/memory/23.jpg","[""ArrowUp"",""ArrowLeft""]","value training","canyon","26","{""ArrowUp,ArrowLeft"":26,""ArrowUp,ArrowRight"":10,""ArrowDown,ArrowLeft"":5,""ArrowDown,ArrowRight"":17}","true","ArrowUp,ArrowLeft","false","original","1","54","","",""
"html-keyboard-response","176","812924","0.0-4.0-2.0-1.27","spark_pilot_norest","8427","5","11","Male","","","","","","","null","<div style=""font-size:60px;"">+</div>","null","fixation","","","","","","","","","55","","",""
"revaluation","177","818933","0.0-4.0-2.0-0.28","spark_pilot_norest","8427","5","11","Male","","false","","","","","[606.3999999985099,367.5]","./assets/img/canyon/memory/11.jpg","[""ArrowUp"",""ArrowLeft""]","value training","canyon","26","{""ArrowUp,ArrowLeft"":26,""ArrowUp,ArrowRight"":10,""ArrowDown,ArrowLeft"":5,""ArrowDown,ArrowRight"":17}","true","ArrowUp,ArrowLeft","false","original","1","56","","",""
"html-keyboard-response","178","819436","0.0-4.0-2.0-1.28","spark_pilot_norest","8427","5","11","Male","","","","","","","null","<div style=""font-size:60px;"">+</div>","null","fixation","","","","","","","","","57","","",""
"revaluation","179","825449","0.0-4.0-2.0-0.29","spark_pilot_norest","8427","5","11","Male","","false","","","","","[627.2000000029802,616.6999999955297]","./assets/img/canyon/memory/22.jpg","[""ArrowUp"",""ArrowLeft""]","value training","canyon","26","{""ArrowUp,ArrowLeft"":26,""ArrowUp,ArrowRight"":10,""ArrowDown,ArrowLeft"":5,""ArrowDown,ArrowRight"":17}","true","ArrowUp,ArrowLeft","false","original","1","58","","",""
"html-keyboard-response","180","825953","0.0-4.0-2.0-1.29","spark_pilot_norest","8427","5","11","Male","","","","","","","null","<div style=""font-size:60px;"">+</div>","null","fixation","","","","","","","","","59","","",""
"revaluation","181","831961","0.0-4.0-2.0-0.30","spark_pilot_norest","8427","5","11","Male","","false","","","","","[751.1000000014901,543.6999999955297]","./assets/img/canyon/memory/6.jpg","[""ArrowUp"",""ArrowLeft""]","value training","canyon","26","{""ArrowUp,ArrowLeft"":26,""ArrowUp,ArrowRight"":10,""ArrowDown,ArrowLeft"":5,""ArrowDown,ArrowRight"":17}","true","ArrowUp,ArrowLeft","false","original","1","60","","",""
"html-keyboard-response","182","832464","0.0-4.0-2.0-1.30","spark_pilot_norest","8427","5","11","Male","","","","","","","null","<div style=""font-size:60px;"">+</div>","null","fixation","","","","","","","","","61","","",""
"revaluation","183","838472","0.0-4.0-2.0-0.31","spark_pilot_norest","8427","5","11","Male","","false","","","","","[537.3999999985099,346]","./assets/img/canyon/memory/31.jpg","[""ArrowUp"",""ArrowLeft""]","value training","canyon","26","{""ArrowUp,ArrowLeft"":26,""ArrowUp,ArrowRight"":10,""ArrowDown,ArrowLeft"":5,""ArrowDown,ArrowRight"":17}","true","ArrowUp,ArrowLeft","false","original","1","62","","",""
"html-keyboard-response","184","838976","0.0-4.0-2.0-1.31","spark_pilot_norest","8427","5","11","Male","","","","","","","null","<div style=""font-size:60px;"">+</div>","null","fixation","","","","","","","","","63","","",""
"revaluation","185","845011","0.0-4.0-2.0-0.32","spark_pilot_norest","8427","5","11","Male","","false","","","","","[1159.2000000029802,438.20000000298023]","./assets/img/canyon/memory/40.jpg","[""ArrowDown"",""ArrowRight""]","value training","canyon","17","{""ArrowUp,ArrowLeft"":26,""ArrowUp,ArrowRight"":10,""ArrowDown,ArrowLeft"":5,""ArrowDown,ArrowRight"":17}","false","ArrowDown,ArrowRight","false","original","1","64","","",""
"html-keyboard-response","186","845513","0.0-4.0-2.0-1.32","spark_pilot_norest","8427","5","11","Male","","","","","","","null","<div style=""font-size:60px;"">+</div>","null","fixation","","","","","","","","","65","","",""
"revaluation","187","851527","0.0-4.0-2.0-0.33","spark_pilot_norest","8427","5","11","Male","","false","","","","","[461,390.70000000298023]","./assets/img/canyon/memory/19.jpg","[""ArrowUp"",""ArrowLeft""]","value training","canyon","26","{""ArrowUp,ArrowLeft"":26,""ArrowUp,ArrowRight"":10,""ArrowDown,ArrowLeft"":5,""ArrowDown,ArrowRight"":17}","true","ArrowUp,ArrowLeft","false","original","1","66","","",""
"html-keyboard-response","188","852043","0.0-4.0-2.0-1.33","spark_pilot_norest","8427","5","11","Male","","","","","","","null","<div style=""font-size:60px;"">+</div>","null","fixation","","","","","","","","","67","","",""
"revaluation","189","858052","0.0-4.0-2.0-0.34","spark_pilot_norest","8427","5","11","Male","","false","","","","","[503.6000000014901,467.20000000298023]","./assets/img/canyon/memory/9.jpg","[""ArrowUp"",""ArrowLeft""]","value training","canyon","26","{""ArrowUp,ArrowLeft"":26,""ArrowUp,ArrowRight"":10,""ArrowDown,ArrowLeft"":5,""ArrowDown,ArrowRight"":17}","true","ArrowUp,ArrowLeft","false","original","1","68","","",""
"html-keyboard-response","190","858555","0.0-4.0-2.0-1.34","spark_pilot_norest","8427","5","11","Male","","","","","","","null","<div style=""font-size:60px;"">+</div>","null","fixation","","","","","","","","","69","","",""
"revaluation","191","864563","0.0-4.0-2.0-0.35","spark_pilot_norest","8427","5","11","Male","","false","","","","","[442.19999999552965,313.80000000447035]","./assets/img/canyon/memory/6.jpg","[""ArrowUp"",""ArrowLeft""]","value training","canyon","26","{""ArrowUp,ArrowLeft"":26,""ArrowUp,ArrowRight"":10,""ArrowDown,ArrowLeft"":5,""ArrowDown,ArrowRight"":17}","true","ArrowUp,ArrowLeft","false","original","1","70","","",""
"html-keyboard-response","192","865065","0.0-4.0-2.0-1.35","spark_pilot_norest","8427","5","11","Male","","","","","","","null","<div style=""font-size:60px;"">+</div>","null","fixation","","","","","","","","","71","","",""
"revaluation","193","871074","0.0-4.0-2.0-0.36","spark_pilot_norest","8427","5","11","Male","","false","","","","","[421.1000000014901,407.3999999985099]","./assets/img/canyon/memory/19.jpg","[""ArrowUp"",""ArrowLeft""]","value training","canyon","26","{""ArrowUp,ArrowLeft"":26,""ArrowUp,ArrowRight"":10,""ArrowDown,ArrowLeft"":5,""ArrowDown,ArrowRight"":17}","true","ArrowUp,ArrowLeft","false","original","1","72","","",""
"html-keyboard-response","194","871576","0.0-4.0-2.0-1.36","spark_pilot_norest","8427","5","11","Male","","","","","","","null","<div style=""font-size:60px;"">+</div>","null","fixation","","","","","","","","","73","","",""
"revaluation","195","875587","0.0-4.0-2.0-0.37","spark_pilot_norest","8427","5","11","Male","","false","","","","","[355.1000000014901]","./assets/img/canyon/catch/7.jpg","[""ArrowUp""]","value training","canyon","-10","{""ArrowUp,ArrowLeft"":26,""ArrowUp,ArrowRight"":10,""ArrowDown,ArrowLeft"":5,""ArrowDown,ArrowRight"":17}","false","ArrowUp","true","original","1","74","","",""
"html-keyboard-response","196","876089","0.0-4.0-2.0-1.37","spark_pilot_norest","8427","5","11","Male","","","","","","","null","<div style=""font-size:60px;"">+</div>","null","fixation","","","","","","","","","75","","",""
"revaluation","197","882096","0.0-4.0-2.0-0.38","spark_pilot_norest","8427","5","11","Male","","false","","","","","[503.6000000014901,364.29999999701977]","./assets/img/canyon/memory/39.jpg","[""ArrowUp"",""ArrowLeft""]","value training","canyon","26","{""ArrowUp,ArrowLeft"":26,""ArrowUp,ArrowRight"":10,""ArrowDown,ArrowLeft"":5,""ArrowDown,ArrowRight"":17}","true","ArrowUp,ArrowLeft","false","original","1","76","","",""
"html-keyboard-response","198","882598","0.0-4.0-2.0-1.38","spark_pilot_norest","8427","5","11","Male","","","","","","","null","<div style=""font-size:60px;"">+</div>","null","fixation","","","","","","","","","77","","",""
"revaluation","199","886611","0.0-4.0-2.0-0.39","spark_pilot_norest","8427","5","11","Male","","false","","","","","[570.2000000029802]","./assets/img/canyon/catch/6.jpg","[""spaceBar""]","value training","canyon","0","{""ArrowUp,ArrowLeft"":26,""ArrowUp,ArrowRight"":10,""ArrowDown,ArrowLeft"":5,""ArrowDown,ArrowRight"":17}","true","spaceBar","true","original","1","78","","",""
"html-keyboard-response","200","887113","0.0-4.0-2.0-1.39","spark_pilot_norest","8427","5","11","Male","","","","","","","null","<div style=""font-size:60px;"">+</div>","null","fixation","","","","","","","","","79","","",""
"revaluation","201","893119","0.0-4.0-2.0-0.40","spark_pilot_norest","8427","5","11","Male","","false","","","","","[345.29999999701977,412.3999999985099]","./assets/img/canyon/memory/14.jpg","[""ArrowUp"",""ArrowLeft""]","value training","canyon","26","{""ArrowUp,ArrowLeft"":26,""ArrowUp,ArrowRight"":10,""ArrowDown,ArrowLeft"":5,""ArrowDown,ArrowRight"":17}","true","ArrowUp,ArrowLeft","false","original","1","80","","",""
"html-keyboard-response","202","893622","0.0-4.0-2.0-1.40","spark_pilot_norest","8427","5","11","Male","","","","","","","null","<div style=""font-size:60px;"">+</div>","null","fixation","","","","","","","","","81","","",""
"revaluation","203","899636","0.0-4.0-2.0-0.41","spark_pilot_norest","8427","5","11","Male","","false","","","","","[432.69999999552965,312.80000000447035]","./assets/img/canyon/memory/9.jpg","[""ArrowUp"",""ArrowLeft""]","value training","canyon","26","{""ArrowUp,ArrowLeft"":26,""ArrowUp,ArrowRight"":10,""ArrowDown,ArrowLeft"":5,""ArrowDown,ArrowRight"":17}","true","ArrowUp,ArrowLeft","false","original","1","82","","",""
"html-keyboard-response","204","900143","0.0-4.0-2.0-1.41","spark_pilot_norest","8427","5","11","Male","","","","","","","null","<div style=""font-size:60px;"">+</div>","null","fixation","","","","","","","","","83","","",""
"revaluation","205","906167","0.0-4.0-2.0-0.42","spark_pilot_norest","8427","5","11","Male","","false","","","","","[500.8999999985099,339.3999999985099]","./assets/img/canyon/memory/35.jpg","[""ArrowUp"",""ArrowLeft""]","value training","canyon","26","{""ArrowUp,ArrowLeft"":26,""ArrowUp,ArrowRight"":10,""ArrowDown,ArrowLeft"":5,""ArrowDown,ArrowRight"":17}","true","ArrowUp,ArrowLeft","false","original","1","84","","",""
"html-keyboard-response","206","906669","0.0-4.0-2.0-1.42","spark_pilot_norest","8427","5","11","Male","","","","","","","null","<div style=""font-size:60px;"">+</div>","null","fixation","","","","","","","","","85","","",""
"revaluation","207","910687","0.0-4.0-2.0-0.43","spark_pilot_norest","8427","5","11","Male","","false","","","","","[812.6999999955297]","./assets/img/canyon/catch/0.jpg","[""spaceBar""]","value training","canyon","0","{""ArrowUp,ArrowLeft"":26,""ArrowUp,ArrowRight"":10,""ArrowDown,ArrowLeft"":5,""ArrowDown,ArrowRight"":17}","true","spaceBar","true","original","1","86","","",""
"html-keyboard-response","208","911190","0.0-4.0-2.0-1.43","spark_pilot_norest","8427","5","11","Male","","","","","","","null","<div style=""font-size:60px;"">+</div>","null","fixation","","","","","","","","","87","","",""
"revaluation","209","915198","0.0-4.0-2.0-0.44","spark_pilot_norest","8427","5","11","Male","","false","","","","","[313.3999999985099]","./assets/img/canyon/catch/1.jpg","[""ArrowUp""]","value training","canyon","-10","{""ArrowUp,ArrowLeft"":26,""ArrowUp,ArrowRight"":10,""ArrowDown,ArrowLeft"":5,""ArrowDown,ArrowRight"":17}","false","ArrowUp","true","original","1","88","","",""
"html-keyboard-response","210","915701","0.0-4.0-2.0-1.44","spark_pilot_norest","8427","5","11","Male","","","","","","","null","<div style=""font-size:60px;"">+</div>","null","fixation","","","","","","","","","89","","",""
"revaluation","211","921710","0.0-4.0-2.0-0.45","spark_pilot_norest","8427","5","11","Male","","false","","","","","[549.3000000044703,245.80000000447035]","./assets/img/canyon/memory/16.jpg","[""ArrowUp"",""ArrowLeft""]","value training","canyon","26","{""ArrowUp,ArrowLeft"":26,""ArrowUp,ArrowRight"":10,""ArrowDown,ArrowLeft"":5,""ArrowDown,ArrowRight"":17}","true","ArrowUp,ArrowLeft","false","original","1","90","","",""
"html-keyboard-response","212","922213","0.0-4.0-2.0-1.45","spark_pilot_norest","8427","5","11","Male","","","","","","","null","<div style=""font-size:60px;"">+</div>","null","fixation","","","","","","","","","91","","",""
"revaluation","213","928221","0.0-4.0-2.0-0.46","spark_pilot_norest","8427","5","11","Male","","false","","","","","[593.0999999940395,308.5]","./assets/img/canyon/memory/23.jpg","[""ArrowUp"",""ArrowLeft""]","value training","canyon","26","{""ArrowUp,ArrowLeft"":26,""ArrowUp,ArrowRight"":10,""ArrowDown,ArrowLeft"":5,""ArrowDown,ArrowRight"":17}","true","ArrowUp,ArrowLeft","false","original","1","92","","",""
"html-keyboard-response","214","928723","0.0-4.0-2.0-1.46","spark_pilot_norest","8427","5","11","Male","","","","","","","null","<div style=""font-size:60px;"">+</div>","null","fixation","","","","","","","","","93","","",""
"revaluation","215","934734","0.0-4.0-2.0-0.47","spark_pilot_norest","8427","5","11","Male","","false","","","","","[499.20000000298023,344.70000000298023]","./assets/img/canyon/memory/31.jpg","[""ArrowUp"",""ArrowLeft""]","value training","canyon","26","{""ArrowUp,ArrowLeft"":26,""ArrowUp,ArrowRight"":10,""ArrowDown,ArrowLeft"":5,""ArrowDown,ArrowRight"":17}","true","ArrowUp,ArrowLeft","false","original","1","94","","",""
"html-keyboard-response","216","935237","0.0-4.0-2.0-1.47","spark_pilot_norest","8427","5","11","Male","","","","","","","null","<div style=""font-size:60px;"">+</div>","null","fixation","","","","","","","","","95","","",""
"revaluation","217","941252","0.0-4.0-2.0-0.48","spark_pilot_norest","8427","5","11","Male","","false","","","","","[664.0999999940395,745]","./assets/img/canyon/memory/4.jpg","[""ArrowUp"",""ArrowLeft""]","value training","canyon","26","{""ArrowUp,ArrowLeft"":26,""ArrowUp,ArrowRight"":10,""ArrowDown,ArrowLeft"":5,""ArrowDown,ArrowRight"":17}","true","ArrowUp,ArrowLeft","false","original","1","96","","",""
"html-keyboard-response","218","941753","0.0-4.0-2.0-1.48","spark_pilot_norest","8427","5","11","Male","","","","","","","null","<div style=""font-size:60px;"">+</div>","null","fixation","","","","","","","","","97","","",""
"revaluation","219","947758","0.0-4.0-2.0-0.49","spark_pilot_norest","8427","5","11","Male","","false","","","","","[754.5,566.3999999985099]","./assets/img/canyon/memory/18.jpg","[""ArrowUp"",""ArrowLeft""]","value training","canyon","26","{""ArrowUp,ArrowLeft"":26,""ArrowUp,ArrowRight"":10,""ArrowDown,ArrowLeft"":5,""ArrowDown,ArrowRight"":17}","true","ArrowUp,ArrowLeft","false","original","1","98","","",""
"html-keyboard-response","220","948261","0.0-4.0-2.0-1.49","spark_pilot_norest","8427","5","11","Male","","","","","","","null","<div style=""font-size:60px;"">+</div>","null","fixation","","","","","","","","","99","","",""
"learning-instructions","221","964246","0.0-4.0-3.0-0.0","spark_pilot_norest","8427","5","11","Male","","","","","","","1609.8999999985099","<p> Now, you will travel with a friend who will choose whether you go up or down first. </p>
            <p> On these turns, you will just see the animal that they found. You will still get to choose which chest to search for treasure.</p>","","instructions","","","","","","","","","","","",""
"revaluation","222","968269","0.0-4.0-4.0-0.0","spark_pilot_norest","8427","5","11","Male","","false","","","","","[960]","./assets/img/canyon/animals/giraffe.jpg","[""ArrowRight""]","revaluation","canyon","17","{""ArrowUp,ArrowLeft"":26,""ArrowUp,ArrowRight"":10,""ArrowDown,ArrowLeft"":5,""ArrowDown,ArrowRight"":17}","true","ArrowDown,ArrowRight","","original","1","0","","",""
"html-keyboard-response","223","968779","0.0-4.0-4.0-1.0","spark_pilot_norest","8427","5","11","Male","","","","","","","null","<div style=""font-size:60px;"">+</div>","null","fixation","","","","","","","","","1","","",""
"revaluation","224","972812","0.0-4.0-4.0-0.1","spark_pilot_norest","8427","5","11","Male","","false","","","","","[651.8999999985099]","./assets/img/canyon/animals/giraffe.jpg","[""ArrowRight""]","revaluation","canyon","17","{""ArrowUp,ArrowLeft"":26,""ArrowUp,ArrowRight"":10,""ArrowDown,ArrowLeft"":5,""ArrowDown,ArrowRight"":17}","true","ArrowDown,ArrowRight","","original","1","2","","",""
"html-keyboard-response","225","973318","0.0-4.0-4.0-1.1","spark_pilot_norest","8427","5","11","Male","","","","","","","null","<div style=""font-size:60px;"">+</div>","null","fixation","","","","","","","","","3","","",""
"revaluation","226","977337","0.0-4.0-4.0-0.2","spark_pilot_norest","8427","5","11","Male","","false","","","","","[426]","./assets/img/canyon/animals/lion.jpg","[""ArrowLeft""]","revaluation","canyon","26","{""ArrowUp,ArrowLeft"":26,""ArrowUp,ArrowRight"":10,""ArrowDown,ArrowLeft"":5,""ArrowDown,ArrowRight"":17}","true","ArrowUp,ArrowLeft","","original","1","4","","",""
"html-keyboard-response","227","977847","0.0-4.0-4.0-1.2","spark_pilot_norest","8427","5","11","Male","","","","","","","null","<div style=""font-size:60px;"">+</div>","null","fixation","","","","","","","","","5","","",""
"revaluation","228","981874","0.0-4.0-4.0-0.3","spark_pilot_norest","8427","5","11","Male","","false","","","","","[497.20000000298023]","./assets/img/canyon/animals/giraffe.jpg","[""ArrowRight""]","revaluation","canyon","17","{""ArrowUp,ArrowLeft"":26,""ArrowUp,ArrowRight"":10,""ArrowDown,ArrowLeft"":5,""ArrowDown,ArrowRight"":17}","true","ArrowDown,ArrowRight","","original","1","6","","",""
"html-keyboard-response","229","982380","0.0-4.0-4.0-1.3","spark_pilot_norest","8427","5","11","Male","","","","","","","null","<div style=""font-size:60px;"">+</div>","null","fixation","","","","","","","","","7","","",""
"revaluation","230","986388","0.0-4.0-4.0-0.4","spark_pilot_norest","8427","5","11","Male","","false","","","","","[488.19999999552965]","./assets/img/canyon/animals/lion.jpg","[""ArrowLeft""]","revaluation","canyon","26","{""ArrowUp,ArrowLeft"":26,""ArrowUp,ArrowRight"":10,""ArrowDown,ArrowLeft"":5,""ArrowDown,ArrowRight"":17}","true","ArrowUp,ArrowLeft","","original","1","8","","",""
"html-keyboard-response","231","986900","0.0-4.0-4.0-1.4","spark_pilot_norest","8427","5","11","Male","","","","","","","null","<div style=""font-size:60px;"">+</div>","null","fixation","","","","","","","","","9","","",""
"revaluation","232","990926","0.0-4.0-4.0-0.5","spark_pilot_norest","8427","5","11","Male","","false","","","","","[419.1000000014901]","./assets/img/canyon/animals/giraffe.jpg","[""ArrowRight""]","revaluation","canyon","17","{""ArrowUp,ArrowLeft"":26,""ArrowUp,ArrowRight"":10,""ArrowDown,ArrowLeft"":5,""ArrowDown,ArrowRight"":17}","true","ArrowDown,ArrowRight","","original","1","10","","",""
"html-keyboard-response","233","991440","0.0-4.0-4.0-1.5","spark_pilot_norest","8427","5","11","Male","","","","","","","null","<div style=""font-size:60px;"">+</div>","null","fixation","","","","","","","","","11","","",""
"revaluation","234","995449","0.0-4.0-4.0-0.6","spark_pilot_norest","8427","5","11","Male","","false","","","","","[389.1000000014901]","./assets/img/canyon/animals/lion.jpg","[""ArrowLeft""]","revaluation","canyon","26","{""ArrowUp,ArrowLeft"":26,""ArrowUp,ArrowRight"":10,""ArrowDown,ArrowLeft"":5,""ArrowDown,ArrowRight"":17}","true","ArrowUp,ArrowLeft","","original","1","12","","",""
"html-keyboard-response","235","995952","0.0-4.0-4.0-1.6","spark_pilot_norest","8427","5","11","Male","","","","","","","null","<div style=""font-size:60px;"">+</div>","null","fixation","","","","","","","","","13","","",""
"revaluation","236","999959","0.0-4.0-4.0-0.7","spark_pilot_norest","8427","5","11","Male","","false","","","","","[467.79999999701977]","./assets/img/canyon/animals/lion.jpg","[""ArrowRight""]","revaluation","canyon","10","{""ArrowUp,ArrowLeft"":26,""ArrowUp,ArrowRight"":10,""ArrowDown,ArrowLeft"":5,""ArrowDown,ArrowRight"":17}","false","ArrowUp,ArrowRight","","original","1","14","","",""
"html-keyboard-response","237","1000461","0.0-4.0-4.0-1.7","spark_pilot_norest","8427","5","11","Male","","","","","","","null","<div style=""font-size:60px;"">+</div>","null","fixation","","","","","","","","","15","","",""
"revaluation","238","1004470","0.0-4.0-4.0-0.8","spark_pilot_norest","8427","5","11","Male","","false","","","","","[803.3999999985099]","./assets/img/canyon/animals/lion.jpg","[""ArrowLeft""]","revaluation","canyon","26","{""ArrowUp,ArrowLeft"":26,""ArrowUp,ArrowRight"":10,""ArrowDown,ArrowLeft"":5,""ArrowDown,ArrowRight"":17}","true","ArrowUp,ArrowLeft","","original","1","16","","",""
"html-keyboard-response","239","1004973","0.0-4.0-4.0-1.8","spark_pilot_norest","8427","5","11","Male","","","","","","","null","<div style=""font-size:60px;"">+</div>","null","fixation","","","","","","","","","17","","",""
"revaluation","240","1008980","0.0-4.0-4.0-0.9","spark_pilot_norest","8427","5","11","Male","","false","","","","","[786.3000000044703]","./assets/img/canyon/animals/giraffe.jpg","[""ArrowRight""]","revaluation","canyon","17","{""ArrowUp,ArrowLeft"":26,""ArrowUp,ArrowRight"":10,""ArrowDown,ArrowLeft"":5,""ArrowDown,ArrowRight"":17}","true","ArrowDown,ArrowRight","","original","1","18","","",""
"html-keyboard-response","241","1009481","0.0-4.0-4.0-1.9","spark_pilot_norest","8427","5","11","Male","","","","","","","null","<div style=""font-size:60px;"">+</div>","null","fixation","","","","","","","","","19","","",""
"revaluation","242","1013488","0.0-4.0-4.0-0.10","spark_pilot_norest","8427","5","11","Male","","false","","","","","[849.5]","./assets/img/canyon/animals/giraffe.jpg","[""ArrowRight""]","revaluation","canyon","17","{""ArrowUp,ArrowLeft"":26,""ArrowUp,ArrowRight"":10,""ArrowDown,ArrowLeft"":5,""ArrowDown,ArrowRight"":17}","true","ArrowDown,ArrowRight","","original","1","20","","",""
"html-keyboard-response","243","1013991","0.0-4.0-4.0-1.10","spark_pilot_norest","8427","5","11","Male","","","","","","","null","<div style=""font-size:60px;"">+</div>","null","fixation","","","","","","","","","21","","",""
"revaluation","244","1018001","0.0-4.0-4.0-0.11","spark_pilot_norest","8427","5","11","Male","","false","","","","","[484.19999999552965]","./assets/img/canyon/animals/lion.jpg","[""ArrowLeft""]","revaluation","canyon","26","{""ArrowUp,ArrowLeft"":26,""ArrowUp,ArrowRight"":10,""ArrowDown,ArrowLeft"":5,""ArrowDown,ArrowRight"":17}","true","ArrowUp,ArrowLeft","","original","1","22","","",""
"html-keyboard-response","245","1018503","0.0-4.0-4.0-1.11","spark_pilot_norest","8427","5","11","Male","","","","","","","null","<div style=""font-size:60px;"">+</div>","null","fixation","","","","","","","","","23","","",""
"revaluation","246","1022511","0.0-4.0-4.0-0.12","spark_pilot_norest","8427","5","11","Male","","false","","","","","[657.2000000029802]","./assets/img/canyon/animals/giraffe.jpg","[""ArrowRight""]","revaluation","canyon","17","{""ArrowUp,ArrowLeft"":26,""ArrowUp,ArrowRight"":10,""ArrowDown,ArrowLeft"":5,""ArrowDown,ArrowRight"":17}","true","ArrowDown,ArrowRight","","original","1","24","","",""
"html-keyboard-response","247","1023015","0.0-4.0-4.0-1.12","spark_pilot_norest","8427","5","11","Male","","","","","","","null","<div style=""font-size:60px;"">+</div>","null","fixation","","","","","","","","","25","","",""
"revaluation","248","1027025","0.0-4.0-4.0-0.13","spark_pilot_norest","8427","5","11","Male","","false","","","","","[660.1000000014901]","./assets/img/canyon/animals/giraffe.jpg","[""ArrowRight""]","revaluation","canyon","17","{""ArrowUp,ArrowLeft"":26,""ArrowUp,ArrowRight"":10,""ArrowDown,ArrowLeft"":5,""ArrowDown,ArrowRight"":17}","true","ArrowDown,ArrowRight","","original","1","26","","",""
"html-keyboard-response","249","1027527","0.0-4.0-4.0-1.13","spark_pilot_norest","8427","5","11","Male","","","","","","","null","<div style=""font-size:60px;"">+</div>","null","fixation","","","","","","","","","27","","",""
"revaluation","250","1031532","0.0-4.0-4.0-0.14","spark_pilot_norest","8427","5","11","Male","","false","","","","","[480.40000000596046]","./assets/img/canyon/animals/lion.jpg","[""ArrowLeft""]","revaluation","canyon","26","{""ArrowUp,ArrowLeft"":26,""ArrowUp,ArrowRight"":10,""ArrowDown,ArrowLeft"":5,""ArrowDown,ArrowRight"":17}","true","ArrowUp,ArrowLeft","","original","1","28","","",""
"html-keyboard-response","251","1032034","0.0-4.0-4.0-1.14","spark_pilot_norest","8427","5","11","Male","","","","","","","null","<div style=""font-size:60px;"">+</div>","null","fixation","","","","","","","","","29","","",""
"revaluation","252","1036036","0.0-4.0-4.0-0.15","spark_pilot_norest","8427","5","11","Male","","false","","","","","[397.1000000014901]","./assets/img/canyon/animals/lion.jpg","[""ArrowRight""]","revaluation","canyon","10","{""ArrowUp,ArrowLeft"":26,""ArrowUp,ArrowRight"":10,""ArrowDown,ArrowLeft"":5,""ArrowDown,ArrowRight"":17}","false","ArrowUp,ArrowRight","","original","1","30","","",""
"html-keyboard-response","253","1036538","0.0-4.0-4.0-1.15","spark_pilot_norest","8427","5","11","Male","","","","","","","null","<div style=""font-size:60px;"">+</div>","null","fixation","","","","","","","","","31","","",""
"revaluation","254","1040545","0.0-4.0-4.0-0.16","spark_pilot_norest","8427","5","11","Male","","false","","","","","[613.8999999985099]","./assets/img/canyon/animals/giraffe.jpg","[""ArrowRight""]","revaluation","canyon","17","{""ArrowUp,ArrowLeft"":26,""ArrowUp,ArrowRight"":10,""ArrowDown,ArrowLeft"":5,""ArrowDown,ArrowRight"":17}","true","ArrowDown,ArrowRight","","original","1","32","","",""
"html-keyboard-response","255","1041046","0.0-4.0-4.0-1.16","spark_pilot_norest","8427","5","11","Male","","","","","","","null","<div style=""font-size:60px;"">+</div>","null","fixation","","","","","","","","","33","","",""
"revaluation","256","1045052","0.0-4.0-4.0-0.17","spark_pilot_norest","8427","5","11","Male","","false","","","","","[468.30000000447035]","./assets/img/canyon/animals/lion.jpg","[""ArrowLeft""]","revaluation","canyon","26","{""ArrowUp,ArrowLeft"":26,""ArrowUp,ArrowRight"":10,""ArrowDown,ArrowLeft"":5,""ArrowDown,ArrowRight"":17}","true","ArrowUp,ArrowLeft","","original","1","34","","",""
"html-keyboard-response","257","1045555","0.0-4.0-4.0-1.17","spark_pilot_norest","8427","5","11","Male","","","","","","","null","<div style=""font-size:60px;"">+</div>","null","fixation","","","","","","","","","35","","",""
"learning-instructions","258","1055109","0.0-4.0-5.0-0.0","spark_pilot_norest","8427","5","11","Male","","","","","","","null","<p> You have almost finished this part of the game! </p>
            <p> We are going to ask you to make a few more choices. </p>","","instructions","","","","","","","","","","","",""
"learning-instructions","259","1071084","0.0-4.0-5.0-0.1","spark_pilot_norest","8427","5","11","Male","","","","","","","null","<p> First, you need to decide whether to go up or down. When you see each picture, use the arrow keys to make your choice. </p>
            <p><b>You will not see which animal you found, but try to get to the one that will give you the most treasure.</b></p>","","instructions","","","","","","","","","","","",""
"html-keyboard-response","260","1072096","0.0-4.0-6.0-0.0","spark_pilot_norest","8427","5","11","Male","","","","","","","null","<div style=""font-size:100px;color:red;"">Starting in...</div>","null","","","","","","","","","","","","",""
"html-keyboard-response","261","1073100","0.0-4.0-6.0-1.0","spark_pilot_norest","8427","5","11","Male","","","","","","","null","<div style=""font-size:200px;color:red;"">3</div>","null","","","","","","","","","","","","",""
"html-keyboard-response","262","1074111","0.0-4.0-6.0-2.0","spark_pilot_norest","8427","5","11","Male","","","","","","","null","<div style=""font-size:200px;color:red;"">2</div>","null","","","","","","","","","","","","",""
"html-keyboard-response","263","1075122","0.0-4.0-6.0-3.0","spark_pilot_norest","8427","5","11","Male","","","","","","","null","<div style=""font-size:200px;color:red;"">1</div>","null","","","","","","","","","","","","",""
"revaluation","264","1075541","0.0-4.0-7.0-0.0","spark_pilot_norest","8427","5","11","Male","","false","","","","","[413.3999999985099]","./assets/img/canyon/test/1.jpg","[""ArrowUp""]","first stage test","canyon","0","{""ArrowUp,ArrowLeft"":26,""ArrowUp,ArrowRight"":10,""ArrowDown,ArrowLeft"":5,""ArrowDown,ArrowRight"":17}","true","ArrowUp","false","original","1","","","",""
"html-keyboard-response","265","1076048","0.0-4.0-7.0-1.0","spark_pilot_norest","8427","5","11","Male","","","","","","","null","<div style=""font-size:60px;"">+</div>","null","fixation","","","","","","","","","","","",""
"revaluation","266","1076682","0.0-4.0-7.0-0.1","spark_pilot_norest","8427","5","11","Male","","false","","","","","[628.3000000044703]","./assets/img/canyon/test/3.jpg","[""ArrowUp""]","first stage test","canyon","0","{""ArrowUp,ArrowLeft"":26,""ArrowUp,ArrowRight"":10,""ArrowDown,ArrowLeft"":5,""ArrowDown,ArrowRight"":17}","true","ArrowUp","false","original","1","","","",""
"html-keyboard-response","267","1077198","0.0-4.0-7.0-1.1","spark_pilot_norest","8427","5","11","Male","","","","","","","null","<div style=""font-size:60px;"">+</div>","null","fixation","","","","","","","","","","","",""
"revaluation","268","1077710","0.0-4.0-7.0-0.2","spark_pilot_norest","8427","5","11","Male","","false","","","","","[506.6000000014901]","./assets/img/canyon/test/2.jpg","[""ArrowUp""]","first stage test","canyon","0","{""ArrowUp,ArrowLeft"":26,""ArrowUp,ArrowRight"":10,""ArrowDown,ArrowLeft"":5,""ArrowDown,ArrowRight"":17}","true","ArrowUp","false","original","1","","","",""
"html-keyboard-response","269","1078215","0.0-4.0-7.0-1.2","spark_pilot_norest","8427","5","11","Male","","","","","","","null","<div style=""font-size:60px;"">+</div>","null","fixation","","","","","","","","","","","",""
"revaluation","270","1078718","0.0-4.0-7.0-0.3","spark_pilot_norest","8427","5","11","Male","","false","","","","","[496.79999999701977]","./assets/img/canyon/test/0.jpg","[""ArrowUp""]","first stage test","canyon","0","{""ArrowUp,ArrowLeft"":26,""ArrowUp,ArrowRight"":10,""ArrowDown,ArrowLeft"":5,""ArrowDown,ArrowRight"":17}","true","ArrowUp","false","original","1","","","",""
"html-keyboard-response","271","1079232","0.0-4.0-7.0-1.3","spark_pilot_norest","8427","5","11","Male","","","","","","","null","<div style=""font-size:60px;"">+</div>","null","fixation","","","","","","","","","","","",""
"learning-instructions","272","1092591","0.0-4.0-8.0-0.0","spark_pilot_norest","8427","5","11","Male","","","","","","","null","<p> Now you will see the animals again and can search their chests for treasure. </p>
            <p> This time, you will not see how much treasure you earned, but you will earn more bonus money for making better choices. </p>","","instructions","","","","","","","","","","","",""
"html-keyboard-response","273","1093599","0.0-4.0-9.0-0.0","spark_pilot_norest","8427","5","11","Male","","","","","","","null","<div style=""font-size:100px;color:red;"">Starting in...</div>","null","","","","","","","","","","","","",""
"html-keyboard-response","274","1094609","0.0-4.0-9.0-1.0","spark_pilot_norest","8427","5","11","Male","","","","","","","null","<div style=""font-size:200px;color:red;"">3</div>","null","","","","","","","","","","","","",""
"html-keyboard-response","275","1095625","0.0-4.0-9.0-2.0","spark_pilot_norest","8427","5","11","Male","","","","","","","null","<div style=""font-size:200px;color:red;"">2</div>","null","","","","","","","","","","","","",""
"html-keyboard-response","276","1096632","0.0-4.0-9.0-3.0","spark_pilot_norest","8427","5","11","Male","","","","","","","null","<div style=""font-size:200px;color:red;"">1</div>","null","","","","","","","","","","","","",""
"revaluation","277","1097023","0.0-4.0-10.0-0.0","spark_pilot_norest","8427","5","11","Male","","false","","","","","[386]","./assets/img/canyon/animals/lion.jpg","[""ArrowLeft""]","second stage test","canyon","0","{""ArrowUp,ArrowLeft"":26,""ArrowUp,ArrowRight"":10,""ArrowDown,ArrowLeft"":5,""ArrowDown,ArrowRight"":17}","true","ArrowUp,ArrowLeft","","original","1","","","",""
"html-keyboard-response","278","1097534","0.0-4.0-10.0-1.0","spark_pilot_norest","8427","5","11","Male","","","","","","","null","<div style=""font-size:60px;"">+</div>","null","fixation","","","","","","","","","","","",""
"revaluation","279","1098234","0.0-4.0-10.0-0.1","spark_pilot_norest","8427","5","11","Male","","false","","","","","[690]","./assets/img/canyon/animals/lion.jpg","[""ArrowLeft""]","second stage test","canyon","0","{""ArrowUp,ArrowLeft"":26,""ArrowUp,ArrowRight"":10,""ArrowDown,ArrowLeft"":5,""ArrowDown,ArrowRight"":17}","true","ArrowUp,ArrowLeft","","original","1","","","",""
"html-keyboard-response","280","1098749","0.0-4.0-10.0-1.1","spark_pilot_norest","8427","5","11","Male","","","","","","","null","<div style=""font-size:60px;"">+</div>","null","fixation","","","","","","","","","","","",""
"revaluation","281","1099432","0.0-4.0-10.0-0.2","spark_pilot_norest","8427","5","11","Male","","false","","","","","[680]","./assets/img/canyon/animals/lion.jpg","[""ArrowLeft""]","second stage test","canyon","0","{""ArrowUp,ArrowLeft"":26,""ArrowUp,ArrowRight"":10,""ArrowDown,ArrowLeft"":5,""ArrowDown,ArrowRight"":17}","true","ArrowUp,ArrowLeft","","original","1","","","",""
"html-keyboard-response","282","1099935","0.0-4.0-10.0-1.2","spark_pilot_norest","8427","5","11","Male","","","","","","","null","<div style=""font-size:60px;"">+</div>","null","fixation","","","","","","","","","","","",""
"revaluation","283","1100622","0.0-4.0-10.0-0.3","spark_pilot_norest","8427","5","11","Male","","false","","","","","[682.2000000029802]","./assets/img/canyon/animals/lion.jpg","[""ArrowLeft""]","second stage test","canyon","0","{""ArrowUp,ArrowLeft"":26,""ArrowUp,ArrowRight"":10,""ArrowDown,ArrowLeft"":5,""ArrowDown,ArrowRight"":17}","true","ArrowUp,ArrowLeft","","original","1","","","",""
"html-keyboard-response","284","1101131","0.0-4.0-10.0-1.3","spark_pilot_norest","8427","5","11","Male","","","","","","","null","<div style=""font-size:60px;"">+</div>","null","fixation","","","","","","","","","","","",""
"revaluation","285","1101704","0.0-4.0-10.0-0.4","spark_pilot_norest","8427","5","11","Male","","false","","","","","[567.3999999985099]","./assets/img/canyon/animals/giraffe.jpg","[""ArrowRight""]","second stage test","canyon","0","{""ArrowUp,ArrowLeft"":26,""ArrowUp,ArrowRight"":10,""ArrowDown,ArrowLeft"":5,""ArrowDown,ArrowRight"":17}","true","ArrowDown,ArrowRight","","original","1","","","",""
"html-keyboard-response","286","1102220","0.0-4.0-10.0-1.4","spark_pilot_norest","8427","5","11","Male","","","","","","","null","<div style=""font-size:60px;"">+</div>","null","fixation","","","","","","","","","","","",""
"revaluation","287","1102807","0.0-4.0-10.0-0.5","spark_pilot_norest","8427","5","11","Male","","false","","","","","[581.7000000029802]","./assets/img/canyon/animals/giraffe.jpg","[""ArrowRight""]","second stage test","canyon","0","{""ArrowUp,ArrowLeft"":26,""ArrowUp,ArrowRight"":10,""ArrowDown,ArrowLeft"":5,""ArrowDown,ArrowRight"":17}","true","ArrowDown,ArrowRight","","original","1","","","",""
"html-keyboard-response","288","1103318","0.0-4.0-10.0-1.5","spark_pilot_norest","8427","5","11","Male","","","","","","","null","<div style=""font-size:60px;"">+</div>","null","fixation","","","","","","","","","","","",""
"revaluation","289","1103809","0.0-4.0-10.0-0.6","spark_pilot_norest","8427","5","11","Male","","false","","","","","[484.3999999985099]","./assets/img/canyon/animals/giraffe.jpg","[""ArrowRight""]","second stage test","canyon","0","{""ArrowUp,ArrowLeft"":26,""ArrowUp,ArrowRight"":10,""ArrowDown,ArrowLeft"":5,""ArrowDown,ArrowRight"":17}","true","ArrowDown,ArrowRight","","original","1","","","",""
"html-keyboard-response","290","1104315","0.0-4.0-10.0-1.6","spark_pilot_norest","8427","5","11","Male","","","","","","","null","<div style=""font-size:60px;"">+</div>","null","fixation","","","","","","","","","","","",""
"revaluation","291","1104977","0.0-4.0-10.0-0.7","spark_pilot_norest","8427","5","11","Male","","false","","","","","[658.0999999940395]","./assets/img/canyon/animals/giraffe.jpg","[""ArrowRight""]","second stage test","canyon","0","{""ArrowUp,ArrowLeft"":26,""ArrowUp,ArrowRight"":10,""ArrowDown,ArrowLeft"":5,""ArrowDown,ArrowRight"":17}","true","ArrowDown,ArrowRight","","original","1","","","",""
"html-keyboard-response","292","1105481","0.0-4.0-10.0-1.7","spark_pilot_norest","8427","5","11","Male","","","","","","","null","<div style=""font-size:60px;"">+</div>","null","fixation","","","","","","","","","","","",""
"learning-instructions","293","1110632","0.0-4.0-0.1-0.2","spark_pilot_norest","8427","5","11","Male","","","","","","","2432.10000000149","<p> This time you are searching for treasure in the <b>ocean</b>.</p>","","instructions","","","","","","","","","","","",""
"learning-instructions","294","1130930","0.0-4.0-0.1-0.3","spark_pilot_norest","8427","5","11","Male","","","","","","","3051.0999999940395","<p><b>New</b> animals with <b>new</b> treasure chests live here. You need to explore to discover where the animal with the best treasure chest is.</p>
                    <p> Like before, once you figure out which animal has the chest with the most treasure, you should try to get to that animal and select that chest! </p>","","instructions","","","","","","","","","","","",""
"learning-instructions","295","1146544","0.0-4.0-1.1-0.1","spark_pilot_norest","8427","5","11","Male","","","","","","","884.1999999955297","<p> Remember, when you see a picture of the place, use the up and down keys to <b>find an animal</b>.</p>
            <p> When you encounter an animal, you should use the left and right keys to <b>select a treasure chest</b>.</p>
            <p> Don't forget to look out for the robber! </p>","","instructions","","","","","","","","","","","",""
"revaluation","296","1152577","0.0-4.0-2.1-0.50","spark_pilot_norest","8427","5","11","Male","","false","","","","","[865.6000000014901,566.2999999970198]","./assets/img/ocean/memory/37.jpg","[""ArrowUp"",""ArrowRight""]","value training","ocean","10","{""ArrowUp,ArrowLeft"":23,""ArrowUp,ArrowRight"":10,""ArrowDown,ArrowLeft"":8,""ArrowDown,ArrowRight"":30}","false","ArrowUp,ArrowRight","false","revaluation","2","0","","",""
"html-keyboard-response","297","1153085","0.0-4.0-2.1-1.50","spark_pilot_norest","8427","5","11","Male","","","","","","","null","<div style=""font-size:60px;"">+</div>","null","fixation","","","","","","","","","1","","",""
"revaluation","298","1157105","0.0-4.0-2.1-0.51","spark_pilot_norest","8427","5","11","Male","","false","","","","","[309.8999999985099]","./assets/img/ocean/catch/7.jpg","[""ArrowDown""]","value training","ocean","-10","{""ArrowUp,ArrowLeft"":23,""ArrowUp,ArrowRight"":10,""ArrowDown,ArrowLeft"":8,""ArrowDown,ArrowRight"":30}","false","ArrowDown","true","revaluation","2","2","","",""
"html-keyboard-response","299","1157613","0.0-4.0-2.1-1.51","spark_pilot_norest","8427","5","11","Male","","","","","","","null","<div style=""font-size:60px;"">+</div>","null","fixation","","","","","","","","","3","","",""
"revaluation","300","1161650","0.0-4.0-2.1-0.52","spark_pilot_norest","8427","5","11","Male","","false","","","","","[884]","./assets/img/ocean/catch/4.jpg","[""spaceBar""]","value training","ocean","0","{""ArrowUp,ArrowLeft"":23,""ArrowUp,ArrowRight"":10,""ArrowDown,ArrowLeft"":8,""ArrowDown,ArrowRight"":30}","true","spaceBar","true","revaluation","2","4","","",""
"html-keyboard-response","301","1162166","0.0-4.0-2.1-1.52","spark_pilot_norest","8427","5","11","Male","","","","","","","null","<div style=""font-size:60px;"">+</div>","null","fixation","","","","","","","","","5","","",""
"revaluation","302","1166191","0.0-4.0-2.1-0.53","spark_pilot_norest","8427","5","11","Male","","false","","","","","[635.8000000044703]","./assets/img/ocean/catch/0.jpg","[""spaceBar""]","value training","ocean","0","{""ArrowUp,ArrowLeft"":23,""ArrowUp,ArrowRight"":10,""ArrowDown,ArrowLeft"":8,""ArrowDown,ArrowRight"":30}","true","spaceBar","true","revaluation","2","6","","",""
"html-keyboard-response","303","1166699","0.0-4.0-2.1-1.53","spark_pilot_norest","8427","5","11","Male","","","","","","","null","<div style=""font-size:60px;"">+</div>","null","fixation","","","","","","","","","7","","",""
"revaluation","304","1172727","0.0-4.0-2.1-0.54","spark_pilot_norest","8427","5","11","Male","","false","","","","","[811.6000000014901,1089.5]","./assets/img/ocean/memory/38.jpg","[""ArrowDown"",""ArrowLeft""]","value training","ocean","8","{""ArrowUp,ArrowLeft"":23,""ArrowUp,ArrowRight"":10,""ArrowDown,ArrowLeft"":8,""ArrowDown,ArrowRight"":30}","false","ArrowDown,ArrowLeft","false","revaluation","2","8","","",""
"html-keyboard-response","305","1173232","0.0-4.0-2.1-1.54","spark_pilot_norest","8427","5","11","Male","","","","","","","null","<div style=""font-size:60px;"">+</div>","null","fixation","","","","","","","","","9","","",""
"revaluation","306","1179250","0.0-4.0-2.1-0.55","spark_pilot_norest","8427","5","11","Male","","false","","","","","[601.7000000029802,598.5]","./assets/img/ocean/memory/16.jpg","[""ArrowUp"",""ArrowLeft""]","value training","ocean","23","{""ArrowUp,ArrowLeft"":23,""ArrowUp,ArrowRight"":10,""ArrowDown,ArrowLeft"":8,""ArrowDown,ArrowRight"":30}","false","ArrowUp,ArrowLeft","false","revaluation","2","10","","",""
"html-keyboard-response","307","1179753","0.0-4.0-2.1-1.55","spark_pilot_norest","8427","5","11","Male","","","","","","","null","<div style=""font-size:60px;"">+</div>","null","fixation","","","","","","","","","11","","",""
"revaluation","308","1183761","0.0-4.0-2.1-0.56","spark_pilot_norest","8427","5","11","Male","","false","","","","","[568.5]","./assets/img/ocean/catch/2.jpg","[""spaceBar""]","value training","ocean","0","{""ArrowUp,ArrowLeft"":23,""ArrowUp,ArrowRight"":10,""ArrowDown,ArrowLeft"":8,""ArrowDown,ArrowRight"":30}","true","spaceBar","true","revaluation","2","12","","",""
"html-keyboard-response","309","1184263","0.0-4.0-2.1-1.56","spark_pilot_norest","8427","5","11","Male","","","","","","","null","<div style=""font-size:60px;"">+</div>","null","fixation","","","","","","","","","13","","",""
"revaluation","310","1190276","0.0-4.0-2.1-0.57","spark_pilot_norest","8427","5","11","Male","","false","","","","","[740.5,313.29999999701977]","./assets/img/ocean/memory/22.jpg","[""ArrowDown"",""ArrowRight""]","value training","ocean","30","{""ArrowUp,ArrowLeft"":23,""ArrowUp,ArrowRight"":10,""ArrowDown,ArrowLeft"":8,""ArrowDown,ArrowRight"":30}","true","ArrowDown,ArrowRight","false","revaluation","2","14","","",""
"html-keyboard-response","311","1190780","0.0-4.0-2.1-1.57","spark_pilot_norest","8427","5","11","Male","","","","","","","null","<div style=""font-size:60px;"">+</div>","null","fixation","","","","","","","","","15","","",""
"revaluation","312","1196792","0.0-4.0-2.1-0.58","spark_pilot_norest","8427","5","11","Male","","false","","","","","[659.2999999970198,242.40000000596046]","./assets/img/ocean/memory/40.jpg","[""ArrowDown"",""ArrowRight""]","value training","ocean","30","{""ArrowUp,ArrowLeft"":23,""ArrowUp,ArrowRight"":10,""ArrowDown,ArrowLeft"":8,""ArrowDown,ArrowRight"":30}","true","ArrowDown,ArrowRight","false","revaluation","2","16","","",""
"html-keyboard-response","313","1197295","0.0-4.0-2.1-1.58","spark_pilot_norest","8427","5","11","Male","","","","","","","null","<div style=""font-size:60px;"">+</div>","null","fixation","","","","","","","","","17","","",""
