"trial_type","trial_index","time_elapsed","internal_node_id","task_version","subject_id","assigned_condition","age","gender","success","timeout","failed_images","failed_audio","failed_video","browser_interaction","rt","stimulus","response","task_part","environment","score","rewardMap","correct","fullState","isCatch","condition","order","trial_num","key_press","ground_truth","bonus"
"pavlovia","0","2002","0.0-0.0","spark_pilot_norest","11005","6","8","Female","","","","","","","","","","","","","","","","","","","","","",""
"preload","1","2737","0.0-1.0","spark_pilot_norest","11005","6","8","Female","true","false","[]","[]","[]","[{""event"":""fullscreenenter"",""trial"":2,""time"":8222}]","","","","","","","","","","","","","","","",""
"fullscreen","2","9208","0.0-2.0","spark_pilot_norest","11005","6","8","Female","true","","","","","","","","","","","","","","","","","","","","",""
"audio-button-response","3","13158","0.0-3.0-0.0-0.0","spark_pilot_norest","11005","6","8","Female","","","","","","","3931","./assets/audio/audiotest/turtle.mp3","4","audio_test","","","","","","","","","","","",""
"audio-button-response","4","26115","0.0-3.0-0.1-0.1","spark_pilot_norest","11005","6","8","Female","","","","","","","11949","./assets/audio/audiotest/turtle.mp3","2","audio_test","","","","","","","","","","","",""
"learning-instructions","5","40631","0.0-3.0-1.0-0.0","spark_pilot_norest","11005","6","8","Female","","","","","","","7525.5","<p> Welcome! Please remember to stay in fullscreen mode and don't click away from the experiment. </p>","","instructions","","","","","","","","","","","",""
"learning-instructions","6","51027","0.0-3.0-1.0-0.1","spark_pilot_norest","11005","6","8","Female","","","","","","","1990.8999999761581","<p> Today you will be playing a game to earn treasure. </p>
            <p> At the end of the experiment, you will earn a bonus based on how much treasure you find. </p>
            <img src='./assets/img/instructions/treasure.jpg' class='instructions-image'>","","instructions","","","","","","","","","","","",""
"learning-instructions","7","62796","0.0-3.0-1.0-0.2","spark_pilot_norest","11005","6","8","Female","","","","","","","3508.900000035763","<p> Animals have hidden treasure in treasure chests. </p>
            <p> You need to first find an animal and then choose which of their treasure chests to search. </p>
            <img src='./assets/img/space/animals/cat.jpg' class='instructions-image'>","","instructions","","","","","","","","","","","",""
"learning-instructions","8","79199","0.0-3.0-1.0-0.3","spark_pilot_norest","11005","6","8","Female","","","","","","","3272.300000011921","<p> In each round, you will search for treasure in a different place. In the real game, there will be two rounds. </p>
            <p> You will begin with a separate, practice round where you will search for treasure in outer space. </p>
            <img src='./assets/img/space/0.jpg' class='instructions-image'>","","instructions","","","","","","","","","","","",""
"learning-instructions","9","91655","0.0-3.0-1.0-0.4","spark_pilot_norest","11005","6","8","Female","","","","","","","1048.300000011921","<p> On every turn, you will see a picture of the place that you are in, but the specific image may be different each time. </p>
            <p> For example, both of these images mean you are in outer space. </p>
            <img src='./assets/img/instructions/outerspace.jpg' class='instructions-image'>","","instructions","","","","","","","","","","","",""
"learning-instructions","10","100870","0.0-3.0-1.0-0.5","spark_pilot_norest","11005","6","8","Female","","","","","","","1403.6000000238419","<p> You need to decide which direction to travel in. </p>
            <p> You can choose between going <b>up or down</b> by using the arrow keys. </p>
            <img src='./assets/img/instructions/updown.jpg' class='instructions-image'>","","instructions","","","","","","","","","","","",""
"learning-instructions","11","111557","0.0-3.0-1.0-0.6","spark_pilot_norest","11005","6","8","Female","","","","","","","1879.800000011921","<p> You will have <b>2 seconds</b> to make your choice. </p>
            <p> If you do not make a choice within 2 seconds, you will not find an animal or earn treasure. </p>
            <img src='./assets/img/instructions/2seconds.jpg' class='instructions-image'>","","instructions","","","","","","","","","","","",""
"learning-instructions","12","125636","0.0-3.0-1.0-0.7","spark_pilot_norest","11005","6","8","Female","","","","","","","7049.5","<p> Let’s try practicing that now! </p>
            <p> When you see a picture of the place you are in, press the <b>up</b> key to travel up. </p>
            <img src='./assets/img/instructions/pressUp.jpg' class='instructions-image'>","","instructions","","","","","","","","","","","",""
"revaluation","13","129664","0.0-3.0-2.0-0.0","spark_pilot_norest","11005","6","8","Female","","true","","","","","[]","./assets/img/space/0.jpg","[]","first stage practice","space","-5","null","null","","false","","","","","",""
"html-keyboard-response","14","130165","0.0-3.0-2.0-1.0","spark_pilot_norest","11005","6","8","Female","","","","","","","null","<div style=""font-size:60px;"">+</div>","null","fixation","","","","","","","","","","","",""
"revaluation","15","134185","0.0-3.0-2.0-0.1","spark_pilot_norest","11005","6","8","Female","","true","","","","","[]","./assets/img/space/1.jpg","[]","first stage practice","space","-5","null","null","","false","","","","","",""
"html-keyboard-response","16","134699","0.0-3.0-2.0-1.1","spark_pilot_norest","11005","6","8","Female","","","","","","","null","<div style=""font-size:60px;"">+</div>","null","fixation","","","","","","","","","","","",""
"revaluation","17","138720","0.0-3.0-2.0-0.2","spark_pilot_norest","11005","6","8","Female","","true","","","","","[]","./assets/img/space/2.jpg","[]","first stage practice","space","-5","null","null","","false","","","","","",""
"html-keyboard-response","18","139233","0.0-3.0-2.0-1.2","spark_pilot_norest","11005","6","8","Female","","","","","","","null","<div style=""font-size:60px;"">+</div>","null","fixation","","","","","","","","","","","",""
"learning-instructions","19","146424","0.0-3.0-3.0-0.0","spark_pilot_norest","11005","6","8","Female","","","","","","","2498","<p> Great job! Now try pressing the <b>down</b> key to travel down. </p>
            <img src='./assets/img/instructions/pressDown.jpg' class='instructions-image'>","","instructions","","","","","","","","","","","",""
"revaluation","20","150440","0.0-3.0-4.0-0.0","spark_pilot_norest","11005","6","8","Female","","true","","","","","[]","./assets/img/space/3.jpg","[]","first stage practice","space","-5","null","null","","false","","","","","",""
"html-keyboard-response","21","150954","0.0-3.0-4.0-1.0","spark_pilot_norest","11005","6","8","Female","","","","","","","null","<div style=""font-size:60px;"">+</div>","null","fixation","","","","","","","","","","","",""
"revaluation","22","154967","0.0-3.0-4.0-0.1","spark_pilot_norest","11005","6","8","Female","","true","","","","","[]","./assets/img/space/4.jpg","[]","first stage practice","space","-5","null","null","","false","","","","","",""
"html-keyboard-response","23","155478","0.0-3.0-4.0-1.1","spark_pilot_norest","11005","6","8","Female","","","","","","","null","<div style=""font-size:60px;"">+</div>","null","fixation","","","","","","","","","","","",""
"revaluation","24","159501","0.0-3.0-4.0-0.2","spark_pilot_norest","11005","6","8","Female","","true","","","","","[]","./assets/img/space/5.jpg","[]","first stage practice","space","-5","null","null","","false","","","","","",""
"html-keyboard-response","25","160016","0.0-3.0-4.0-1.2","spark_pilot_norest","11005","6","8","Female","","","","","","","null","<div style=""font-size:60px;"">+</div>","null","fixation","","","","","","","","","","","",""
"learning-instructions","26","174774","0.0-3.0-5.0-0.0","spark_pilot_norest","11005","6","8","Female","","","","","","","4907.899999976158","<p> The animals don’t move, so the animal in the upper part of a place will stay in the upper part of a place, and the animal in the lower part of a place will stay in the lower part of a place. </p>","","instructions","","","","","","","","","","","",""
"learning-instructions","27","185796","0.0-3.0-5.0-0.1","spark_pilot_norest","11005","6","8","Female","","","","","","","1889.800000011921","<p> Each animal has two treasure chests for you to choose from. </p>
            <p> The amount of treasure in each chest can range from <b> 0 to 40 pieces.</b></p>","","instructions","","","","","","","","","","","",""
"learning-instructions","28","201256","0.0-3.0-5.0-0.2","spark_pilot_norest","11005","6","8","Female","","","","","","","4289.600000023842","<p> You should decide which chest to search for treasure by using the <b>left</b> and <b>right</b> arrow keys. </p>
            <p><b> Pay attention to which animal is on the screen, as the animals have different treasure chests. </b></p>
            <img src='./assets/img/instructions/leftright.jpg' class='instructions-image'>","","instructions","","","","","","","","","","","",""
"learning-instructions","29","210164","0.0-3.0-5.0-0.3","spark_pilot_norest","11005","6","8","Female","","","","","","","2557.800000011921","<p> Let’s try practicing that now. </p>
            <p> When you see an animal, choose which chest to search for treasure. </p>
            <img src='./assets/img/instructions/chooseChest.jpg' class='instructions-image'>","","instructions","","","","","","","","","","","",""
"revaluation","30","214185","0.0-3.0-6.0-0.0","spark_pilot_norest","11005","6","8","Female","","true","","","","","[]","./assets/img/space/animals/cat.jpg","[]","second stage practice","space","-5","{""ArrowUp,ArrowLeft"":3,""ArrowUp,ArrowRight"":36,""ArrowDown,ArrowLeft"":15,""ArrowDown,ArrowRight"":23}","false","ArrowUp","","","","","","",""
"html-keyboard-response","31","214696","0.0-3.0-6.0-1.0","spark_pilot_norest","11005","6","8","Female","","","","","","","null","<div style=""font-size:60px;"">+</div>","null","fixation","","","","","","","","","","","",""
"revaluation","32","218716","0.0-3.0-6.0-0.1","spark_pilot_norest","11005","6","8","Female","","true","","","","","[]","./assets/img/space/animals/rabbit.jpg","[]","second stage practice","space","-5","{""ArrowUp,ArrowLeft"":3,""ArrowUp,ArrowRight"":36,""ArrowDown,ArrowLeft"":15,""ArrowDown,ArrowRight"":23}","false","ArrowDown","","","","","","",""
"html-keyboard-response","33","219231","0.0-3.0-6.0-1.1","spark_pilot_norest","11005","6","8","Female","","","","","","","null","<div style=""font-size:60px;"">+</div>","null","fixation","","","","","","","","","","","",""
"revaluation","34","223247","0.0-3.0-6.0-0.2","spark_pilot_norest","11005","6","8","Female","","true","","","","","[]","./assets/img/space/animals/rabbit.jpg","[]","second stage practice","space","-5","{""ArrowUp,ArrowLeft"":3,""ArrowUp,ArrowRight"":36,""ArrowDown,ArrowLeft"":15,""ArrowDown,ArrowRight"":23}","false","ArrowDown","","","","","","",""
"html-keyboard-response","35","223763","0.0-3.0-6.0-1.2","spark_pilot_norest","11005","6","8","Female","","","","","","","null","<div style=""font-size:60px;"">+</div>","null","fixation","","","","","","","","","","","",""
"revaluation","36","227776","0.0-3.0-6.0-0.3","spark_pilot_norest","11005","6","8","Female","","true","","","","","[]","./assets/img/space/animals/cat.jpg","[]","second stage practice","space","-5","{""ArrowUp,ArrowLeft"":3,""ArrowUp,ArrowRight"":36,""ArrowDown,ArrowLeft"":15,""ArrowDown,ArrowRight"":23}","false","ArrowUp","","","","","","",""
"html-keyboard-response","37","228287","0.0-3.0-6.0-1.3","spark_pilot_norest","11005","6","8","Female","","","","","","","null","<div style=""font-size:60px;"">+</div>","null","fixation","","","","","","","","","","","",""
"learning-instructions","38","247487","0.0-3.0-7.0-0.0","spark_pilot_norest","11005","6","8","Female","","","","","","","2401.2999999523163","<p> Great job. Now let’s try putting it together. </p>
            <p> On each turn, you will first see a picture to remind you of the place you are in, and you need to choose whether to go up or down. </p>
            <p> Then you will see an animal and choose which of its chests to search for treasure. </p>","","instructions","","","","","","","","","","","",""
"learning-instructions","39","258649","0.0-3.0-7.0-0.1","spark_pilot_norest","11005","6","8","Female","","","","","","","2904.099999964237","<p> When you choose whether to go up or down, try to go to the animal with the chest with the most treasure. </p>
            <p> Try practicing that now! </p>","","instructions","","","","","","","","","","","",""
"revaluation","40","262677","0.0-3.0-8.0-0.0","spark_pilot_norest","11005","6","8","Female","","true","","","","","[]","./assets/img/space/6.jpg","[]","full practice","space","-5","{""ArrowUp,ArrowLeft"":3,""ArrowUp,ArrowRight"":36,""ArrowDown,ArrowLeft"":15,""ArrowDown,ArrowRight"":23}","false","","false","","","","","",""
"html-keyboard-response","41","263178","0.0-3.0-8.0-1.0","spark_pilot_norest","11005","6","8","Female","","","","","","","null","<div style=""font-size:60px;"">+</div>","null","fixation","","","","","","","","","","","",""
"revaluation","42","267199","0.0-3.0-8.0-0.1","spark_pilot_norest","11005","6","8","Female","","true","","","","","[]","./assets/img/space/7.jpg","[]","full practice","space","-5","{""ArrowUp,ArrowLeft"":3,""ArrowUp,ArrowRight"":36,""ArrowDown,ArrowLeft"":15,""ArrowDown,ArrowRight"":23}","false","","false","","","","","",""
"html-keyboard-response","43","267713","0.0-3.0-8.0-1.1","spark_pilot_norest","11005","6","8","Female","","","","","","","null","<div style=""font-size:60px;"">+</div>","null","fixation","","","","","","","","","","","",""
"revaluation","44","271720","0.0-3.0-8.0-0.2","spark_pilot_norest","11005","6","8","Female","","true","","","","","[]","./assets/img/space/8.jpg","[]","full practice","space","-5","{""ArrowUp,ArrowLeft"":3,""ArrowUp,ArrowRight"":36,""ArrowDown,ArrowLeft"":15,""ArrowDown,ArrowRight"":23}","false","","false","","","","","",""
"html-keyboard-response","45","272235","0.0-3.0-8.0-1.2","spark_pilot_norest","11005","6","8","Female","","","","","","","null","<div style=""font-size:60px;"">+</div>","null","fixation","","","","","","","","","","","",""
"revaluation","46","276262","0.0-3.0-8.0-0.3","spark_pilot_norest","11005","6","8","Female","","true","","","","","[]","./assets/img/space/9.jpg","[]","full practice","space","-5","{""ArrowUp,ArrowLeft"":3,""ArrowUp,ArrowRight"":36,""ArrowDown,ArrowLeft"":15,""ArrowDown,ArrowRight"":23}","false","","false","","","","","",""
"html-keyboard-response","47","276778","0.0-3.0-8.0-1.3","spark_pilot_norest","11005","6","8","Female","","","","","","","null","<div style=""font-size:60px;"">+</div>","null","fixation","","","","","","","","","","","",""
"revaluation","48","280797","0.0-3.0-8.0-0.4","spark_pilot_norest","11005","6","8","Female","","true","","","","","[]","./assets/img/space/10.jpg","[]","full practice","space","-5","{""ArrowUp,ArrowLeft"":3,""ArrowUp,ArrowRight"":36,""ArrowDown,ArrowLeft"":15,""ArrowDown,ArrowRight"":23}","false","","false","","","","","",""
"html-keyboard-response","49","281310","0.0-3.0-8.0-1.4","spark_pilot_norest","11005","6","8","Female","","","","","","","null","<div style=""font-size:60px;"">+</div>","null","fixation","","","","","","","","","","","",""
"learning-instructions","50","294260","0.0-3.0-9.0-0.0","spark_pilot_norest","11005","6","8","Female","","","","","","","2645.399999976158","<p> One last thing: sometimes, you will see a robber. The robber can be anywhere in the picture. </p>
            <p> If you do not stop them, you will lose treasure. </p>
            <img src='./assets/img/instructions/robber.jpg' class='instructions-image'>","","instructions","","","","","","","","","","","",""
"learning-instructions","51","304525","0.0-3.0-9.0-0.1","spark_pilot_norest","11005","6","8","Female","","","","","","","3099.699999988079","<p> If you see the robber, you should <b>press the space bar</b> rather than using the arrow keys. </p>
            <p> Try practicing that now! </p>","","instructions","","","","","","","","","","","",""
"revaluation","52","308540","0.0-3.0-10.0-0.0","spark_pilot_norest","11005","6","8","Female","","true","","","","","[]","./assets/img/space/catch/0.jpg","[]","catch practice","space","-5","{""ArrowUp,ArrowLeft"":3,""ArrowUp,ArrowRight"":36,""ArrowDown,ArrowLeft"":15,""ArrowDown,ArrowRight"":23}","false","","true","","","","","",""
"html-keyboard-response","53","309047","0.0-3.0-10.0-1.0","spark_pilot_norest","11005","6","8","Female","","","","","","","null","<div style=""font-size:60px;"">+</div>","null","fixation","","","","","","","","","","","",""
"revaluation","54","313072","0.0-3.0-10.0-0.1","spark_pilot_norest","11005","6","8","Female","","false","","","","","[939.8000000119209]","./assets/img/space/catch/1.jpg","[""spaceBar""]","catch practice","space","0","{""ArrowUp,ArrowLeft"":3,""ArrowUp,ArrowRight"":36,""ArrowDown,ArrowLeft"":15,""ArrowDown,ArrowRight"":23}","true","spaceBar","true","","","","","",""
"html-keyboard-response","55","313585","0.0-3.0-10.0-1.1","spark_pilot_norest","11005","6","8","Female","","","","","","","null","<div style=""font-size:60px;"">+</div>","null","fixation","","","","","","","","","","","",""
"revaluation","56","317607","0.0-3.0-10.0-0.2","spark_pilot_norest","11005","6","8","Female","","false","","","","","[607.5]","./assets/img/space/catch/2.jpg","[""spaceBar""]","catch practice","space","0","{""ArrowUp,ArrowLeft"":3,""ArrowUp,ArrowRight"":36,""ArrowDown,ArrowLeft"":15,""ArrowDown,ArrowRight"":23}","true","spaceBar","true","","","","","",""
"html-keyboard-response","57","318122","0.0-3.0-10.0-1.2","spark_pilot_norest","11005","6","8","Female","","","","","","","null","<div style=""font-size:60px;"">+</div>","null","fixation","","","","","","","","","","","",""
"learning-instructions","58","328925","0.0-3.0-11.0-0.0-0.0","spark_pilot_norest","11005","6","8","Female","","","","","","","5558.600000023842","<p> Now, you will practice a shortened version of the game to get a sense of how it all fits together. </p>","","instructions","","","","","","","","","","","",""
"learning-instructions","59","334174","0.0-3.0-11.0-0.0-0.1","spark_pilot_norest","11005","6","8","Female","","","","","","","2068.400000035763","<p>This time you are searching for treasure in outer space.</p>","","instructions","","","","","","","","","","","",""
"learning-instructions","60","351049","0.0-3.0-11.0-1.0-0.0","spark_pilot_norest","11005","6","8","Female","","","","","","","2103.199999988079","<p> Remember, when you see a picture of the place, use the up and down keys to <b>find an animal</b>.</p>
            <p> When you encounter an animal, you should use the left and right keys to <b>select a treasure chest</b>.</p>
            <p> Don't forget to look out for the robber! </p>","","instructions","","","","","","","","","","","",""
"revaluation","61","357069","0.0-3.0-11.0-2.0-0.0","spark_pilot_norest","11005","6","8","Female","","true","","","","","[1705.3999999761581]","./assets/img/space/11.jpg","[""ArrowUp""]","practice block","space","-5","{""ArrowUp,ArrowLeft"":3,""ArrowUp,ArrowRight"":36,""ArrowDown,ArrowLeft"":15,""ArrowDown,ArrowRight"":23}","false","ArrowUp","false","","","","","",""
"html-keyboard-response","62","357585","0.0-3.0-11.0-2.0-1.0","spark_pilot_norest","11005","6","8","Female","","","","","","","null","<div style=""font-size:60px;"">+</div>","null","fixation","","","","","","","","","","","",""
"revaluation","63","361605","0.0-3.0-11.0-2.0-0.1","spark_pilot_norest","11005","6","8","Female","","true","","","","","[]","./assets/img/space/12.jpg","[]","practice block","space","-5","{""ArrowUp,ArrowLeft"":3,""ArrowUp,ArrowRight"":36,""ArrowDown,ArrowLeft"":15,""ArrowDown,ArrowRight"":23}","false","","false","","","","","",""
"html-keyboard-response","64","362119","0.0-3.0-11.0-2.0-1.1","spark_pilot_norest","11005","6","8","Female","","","","","","","null","<div style=""font-size:60px;"">+</div>","null","fixation","","","","","","","","","","","",""
"revaluation","65","366145","0.0-3.0-11.0-2.0-0.2","spark_pilot_norest","11005","6","8","Female","","true","","","","","[]","./assets/img/space/13.jpg","[]","practice block","space","-5","{""ArrowUp,ArrowLeft"":3,""ArrowUp,ArrowRight"":36,""ArrowDown,ArrowLeft"":15,""ArrowDown,ArrowRight"":23}","false","","false","","","","","",""
"html-keyboard-response","66","366659","0.0-3.0-11.0-2.0-1.2","spark_pilot_norest","11005","6","8","Female","","","","","","","null","<div style=""font-size:60px;"">+</div>","null","fixation","","","","","","","","","","","",""
"revaluation","67","372691","0.0-3.0-11.0-2.0-0.3","spark_pilot_norest","11005","6","8","Female","","false","","","","","[1724.300000011921,2013.0999999642372]","./assets/img/space/14.jpg","[""ArrowUp"",""ArrowLeft""]","practice block","space","3","{""ArrowUp,ArrowLeft"":3,""ArrowUp,ArrowRight"":36,""ArrowDown,ArrowLeft"":15,""ArrowDown,ArrowRight"":23}","false","ArrowUp,ArrowLeft","false","","","","","",""
"html-keyboard-response","68","373203","0.0-3.0-11.0-2.0-1.3","spark_pilot_norest","11005","6","8","Female","","","","","","","null","<div style=""font-size:60px;"">+</div>","null","fixation","","","","","","","","","","","",""
"revaluation","69","379216","0.0-3.0-11.0-2.0-0.4","spark_pilot_norest","11005","6","8","Female","","false","","","","","[1932.2999999523163,1550.5]","./assets/img/space/11.jpg","[""ArrowDown"",""ArrowLeft""]","practice block","space","15","{""ArrowUp,ArrowLeft"":3,""ArrowUp,ArrowRight"":36,""ArrowDown,ArrowLeft"":15,""ArrowDown,ArrowRight"":23}","false","ArrowDown,ArrowLeft","false","","","","","",""
"html-keyboard-response","70","379718","0.0-3.0-11.0-2.0-1.4","spark_pilot_norest","11005","6","8","Female","","","","","","","null","<div style=""font-size:60px;"">+</div>","null","fixation","","","","","","","","","","","",""
"revaluation","71","385725","0.0-3.0-11.0-2.0-0.5","spark_pilot_norest","11005","6","8","Female","","false","","","","","[427.30000001192093,712.3000000119209]","./assets/img/space/12.jpg","[""ArrowUp"",""ArrowRight""]","practice block","space","36","{""ArrowUp,ArrowLeft"":3,""ArrowUp,ArrowRight"":36,""ArrowDown,ArrowLeft"":15,""ArrowDown,ArrowRight"":23}","true","ArrowUp,ArrowRight","false","","","","","",""
"html-keyboard-response","72","386227","0.0-3.0-11.0-2.0-1.5","spark_pilot_norest","11005","6","8","Female","","","","","","","null","<div style=""font-size:60px;"">+</div>","null","fixation","","","","","","","","","","","",""
"revaluation","73","392231","0.0-3.0-11.0-2.0-0.6","spark_pilot_norest","11005","6","8","Female","","false","","","","","[375.5,396.89999997615814]","./assets/img/space/13.jpg","[""ArrowUp"",""ArrowLeft""]","practice block","space","3","{""ArrowUp,ArrowLeft"":3,""ArrowUp,ArrowRight"":36,""ArrowDown,ArrowLeft"":15,""ArrowDown,ArrowRight"":23}","false","ArrowUp,ArrowLeft","false","","","","","",""
"html-keyboard-response","74","392732","0.0-3.0-11.0-2.0-1.6","spark_pilot_norest","11005","6","8","Female","","","","","","","null","<div style=""font-size:60px;"">+</div>","null","fixation","","","","","","","","","","","",""
"revaluation","75","398740","0.0-3.0-11.0-2.0-0.7","spark_pilot_norest","11005","6","8","Female","","true","","","","","[744.8999999761581]","./assets/img/space/14.jpg","[""ArrowUp""]","practice block","space","-5","{""ArrowUp,ArrowLeft"":3,""ArrowUp,ArrowRight"":36,""ArrowDown,ArrowLeft"":15,""ArrowDown,ArrowRight"":23}","false","ArrowUp","false","","","","","",""
"html-keyboard-response","76","399240","0.0-3.0-11.0-2.0-1.7","spark_pilot_norest","11005","6","8","Female","","","","","","","null","<div style=""font-size:60px;"">+</div>","null","fixation","","","","","","","","","","","",""
"revaluation","77","403247","0.0-3.0-11.0-2.0-0.8","spark_pilot_norest","11005","6","8","Female","","false","","","","","[1962.8999999761581]","./assets/img/space/catch/3.jpg","[""spaceBar""]","practice block","space","0","{""ArrowUp,ArrowLeft"":3,""ArrowUp,ArrowRight"":36,""ArrowDown,ArrowLeft"":15,""ArrowDown,ArrowRight"":23}","true","spaceBar","true","","","","","",""
"html-keyboard-response","78","403749","0.0-3.0-11.0-2.0-1.8","spark_pilot_norest","11005","6","8","Female","","","","","","","null","<div style=""font-size:60px;"">+</div>","null","fixation","","","","","","","","","","","",""
"learning-instructions","79","418768","0.0-3.0-11.0-3.0-0.0","spark_pilot_norest","11005","6","8","Female","","","","","","","2103.399999976158","<p> Now, you will travel with a friend who will choose whether you go up or down first. </p>
            <p> On these turns, you will just see the animal that they found. You will still get to choose which chest to search for treasure.</p>","","instructions","","","","","","","","","","","",""
"revaluation","80","422792","0.0-3.0-11.0-4.0-0.0","spark_pilot_norest","11005","6","8","Female","","true","","","","","[]","./assets/img/space/animals/cat.jpg","[]","practice block","space","-5","{""ArrowUp,ArrowLeft"":3,""ArrowUp,ArrowRight"":36,""ArrowDown,ArrowLeft"":15,""ArrowDown,ArrowRight"":23}","false","ArrowUp","","","","","","",""
"html-keyboard-response","81","423306","0.0-3.0-11.0-4.0-1.0","spark_pilot_norest","11005","6","8","Female","","","","","","","null","<div style=""font-size:60px;"">+</div>","null","fixation","","","","","","","","","","","",""
"revaluation","82","427335","0.0-3.0-11.0-4.0-0.1","spark_pilot_norest","11005","6","8","Female","","false","","","","","[756.9000000357628]","./assets/img/space/animals/cat.jpg","[""ArrowRight""]","practice block","space","36","{""ArrowUp,ArrowLeft"":3,""ArrowUp,ArrowRight"":36,""ArrowDown,ArrowLeft"":15,""ArrowDown,ArrowRight"":23}","true","ArrowUp,ArrowRight","","","","","","",""
"html-keyboard-response","83","427851","0.0-3.0-11.0-4.0-1.1","spark_pilot_norest","11005","6","8","Female","","","","","","","null","<div style=""font-size:60px;"">+</div>","null","fixation","","","","","","","","","","","",""
"revaluation","84","431876","0.0-3.0-11.0-4.0-0.2","spark_pilot_norest","11005","6","8","Female","","false","","","","","[1112.7000000476837]","./assets/img/space/animals/rabbit.jpg","[""ArrowRight""]","practice block","space","23","{""ArrowUp,ArrowLeft"":3,""ArrowUp,ArrowRight"":36,""ArrowDown,ArrowLeft"":15,""ArrowDown,ArrowRight"":23}","true","ArrowDown,ArrowRight","","","","","","",""
"html-keyboard-response","85","432389","0.0-3.0-11.0-4.0-1.2","spark_pilot_norest","11005","6","8","Female","","","","","","","null","<div style=""font-size:60px;"">+</div>","null","fixation","","","","","","","","","","","",""
"revaluation","86","436415","0.0-3.0-11.0-4.0-0.3","spark_pilot_norest","11005","6","8","Female","","false","","","","","[646.5]","./assets/img/space/animals/rabbit.jpg","[""ArrowRight""]","practice block","space","23","{""ArrowUp,ArrowLeft"":3,""ArrowUp,ArrowRight"":36,""ArrowDown,ArrowLeft"":15,""ArrowDown,ArrowRight"":23}","true","ArrowDown,ArrowRight","","","","","","",""
"html-keyboard-response","87","436925","0.0-3.0-11.0-4.0-1.3","spark_pilot_norest","11005","6","8","Female","","","","","","","null","<div style=""font-size:60px;"">+</div>","null","fixation","","","","","","","","","","","",""
"learning-instructions","88","445041","0.0-3.0-11.0-5.0-0.0","spark_pilot_norest","11005","6","8","Female","","","","","","","null","<p> You have almost finished this part of the game! </p>
            <p> We are going to ask you to make a few more choices. </p>","","instructions","","","","","","","","","","","",""
"learning-instructions","89","461059","0.0-3.0-11.0-5.0-0.1","spark_pilot_norest","11005","6","8","Female","","","","","","","null","<p> First, you need to decide whether to go up or down. When you see each picture, use the arrow keys to make your choice. </p>
            <p><b>You will not see which animal you found, but try to get to the one that will give you the most treasure.</b></p>","","instructions","","","","","","","","","","","",""
"html-keyboard-response","90","462072","0.0-3.0-11.0-6.0-0.0","spark_pilot_norest","11005","6","8","Female","","","","","","","null","<div style=""font-size:100px;color:red;"">Starting in...</div>","null","","","","","","","","","","","","",""
"html-keyboard-response","91","463086","0.0-3.0-11.0-6.0-1.0","spark_pilot_norest","11005","6","8","Female","","","","","","","null","<div style=""font-size:200px;color:red;"">3</div>","null","","","","","","","","","","","","",""
"html-keyboard-response","92","464099","0.0-3.0-11.0-6.0-2.0","spark_pilot_norest","11005","6","8","Female","","","","","","","null","<div style=""font-size:200px;color:red;"">2</div>","null","","","","","","","","","","","","",""
"html-keyboard-response","93","465111","0.0-3.0-11.0-6.0-3.0","spark_pilot_norest","11005","6","8","Female","","","","","","","null","<div style=""font-size:200px;color:red;"">1</div>","null","","","","","","","","","","","","",""
"revaluation","94","465649","0.0-3.0-11.0-7.0","spark_pilot_norest","11005","6","8","Female","","false","","","","","[534.0999999642372]","./assets/img/space/15.jpg","[""ArrowUp""]","practice block","space","0","{""ArrowUp,ArrowLeft"":3,""ArrowUp,ArrowRight"":36,""ArrowDown,ArrowLeft"":15,""ArrowDown,ArrowRight"":23}","true","ArrowUp","false","","","","","",""
"html-keyboard-response","95","466156","0.0-3.0-11.0-8.0","spark_pilot_norest","11005","6","8","Female","","","","","","","null","<div style=""font-size:60px;"">+</div>","null","fixation","","","","","","","","","","","",""
"learning-instructions","96","479539","0.0-3.0-11.0-9.0-0.0","spark_pilot_norest","11005","6","8","Female","","","","","","","null","<p> Now you will see the animals again and can search their chests for treasure. </p>
            <p> This time, you will not see how much treasure you earned, but you will earn more bonus money for making better choices. </p>","","instructions","","","","","","","","","","","",""
"html-keyboard-response","97","480549","0.0-3.0-11.0-10.0-0.0","spark_pilot_norest","11005","6","8","Female","","","","","","","null","<div style=""font-size:100px;color:red;"">Starting in...</div>","null","","","","","","","","","","","","",""
"html-keyboard-response","98","481563","0.0-3.0-11.0-10.0-1.0","spark_pilot_norest","11005","6","8","Female","","","","","","","null","<div style=""font-size:200px;color:red;"">3</div>","null","","","","","","","","","","","","",""
"html-keyboard-response","99","482576","0.0-3.0-11.0-10.0-2.0","spark_pilot_norest","11005","6","8","Female","","","","","","","null","<div style=""font-size:200px;color:red;"">2</div>","null","","","","","","","","","","","","",""
"html-keyboard-response","100","483590","0.0-3.0-11.0-10.0-3.0","spark_pilot_norest","11005","6","8","Female","","","","","","","null","<div style=""font-size:200px;color:red;"">1</div>","null","","","","","","","","","","","","",""
"revaluation","101","484380","0.0-3.0-11.0-11.0-0.0","spark_pilot_norest","11005","6","8","Female","","false","","","","","[786.5999999642372]","./assets/img/space/animals/cat.jpg","[""ArrowRight""]","practice block","space","0","{""ArrowUp,ArrowLeft"":3,""ArrowUp,ArrowRight"":36,""ArrowDown,ArrowLeft"":15,""ArrowDown,ArrowRight"":23}","true","ArrowUp,ArrowRight","","","","","","",""
"html-keyboard-response","102","484882","0.0-3.0-11.0-11.0-1.0","spark_pilot_norest","11005","6","8","Female","","","","","","","null","<div style=""font-size:60px;"">+</div>","null","fixation","","","","","","","","","","","",""
"revaluation","103","485948","0.0-3.0-11.0-11.0-0.1","spark_pilot_norest","11005","6","8","Female","","false","","","","","[1062.5999999642372]","./assets/img/space/animals/rabbit.jpg","[""ArrowRight""]","practice block","space","0","{""ArrowUp,ArrowLeft"":3,""ArrowUp,ArrowRight"":36,""ArrowDown,ArrowLeft"":15,""ArrowDown,ArrowRight"":23}","true","ArrowDown,ArrowRight","","","","","","",""
"html-keyboard-response","104","486459","0.0-3.0-11.0-11.0-1.1","spark_pilot_norest","11005","6","8","Female","","","","","","","null","<div style=""font-size:60px;"">+</div>","null","fixation","","","","","","","","","","","",""
"learning-instructions","105","492809","0.0-3.0-12.0-0.0","spark_pilot_norest","11005","6","8","Female","","","","","","","1772.5999999642372","<p> Before you start, we're going to ask you a few questions about how the game works. </p>","","instructions","","","","","","","","","","","",""
"comp-q","106","503412","0.0-3.0-13.0-0.0-0.0","spark_pilot_norest","11005","6","8","Female","","","","","","","5022.100000023842","<p> <b> True or False? </b> </p>
            <p> There can be 50 pieces of treasure in a given animal's chest. </p>","0","comp_question","","","","false","","","","","","","",""
"comp-q","107","512425","0.0-3.0-13.0-0.0-1.0","spark_pilot_norest","11005","6","8","Female","","","","","","","2500.300000011921","<p> <b>Incorrect.</b> The amount of treasure in each chest can range from 0 to 40 pieces. </p>","0","comp_answer","","","","","","","","","","","",""
"comp-q","108","519402","0.0-3.0-13.0-0.1-0.1","spark_pilot_norest","11005","6","8","Female","","","","","","","1417.300000011921","<p> <b> True or False? </b> </p>
            <p> There can be 50 pieces of treasure in a given animal's chest. </p>","1","comp_question","","","","true","","","","","","","",""
"comp-q","109","532248","0.0-3.0-13.0-0.1-1.1","spark_pilot_norest","11005","6","8","Female","","","","","","","6202.699999988079","<p> <b> That's right! </b> The amount of treasure in each chest can range from 0 to 40 pieces. </p>","0","comp_answer","","","","","","","","","","","",""
"comp-q","110","547653","0.0-3.0-13.0-0.2-0.2","spark_pilot_norest","11005","6","8","Female","","","","","","","8297.5","<p> <b> True or False? </b> </p><p> In this game, all animals have the same amount of treasure in their left and right chests. </p>","1","comp_question","","","","true","","","","","","","",""
"comp-q","111","570427","0.0-3.0-13.0-0.2-1.2","spark_pilot_norest","11005","6","8","Female","","","","","","","17521.5","<p> <b> That's right! </b> Animals have different amounts of treasure in their treasure chests. </p>","0","comp_answer","","","","","","","","","","","",""
"comp-q","112","578406","0.0-3.0-13.0-0.3-0.3","spark_pilot_norest","11005","6","8","Female","","","","","","","2140.399999976158","<p> <b> True or False? </b> </p><p> The same animal will always be there if you go up in the same place. </p>","1","comp_question","","","","false","","","","","","","",""
"comp-q","113","592552","0.0-3.0-13.0-0.3-1.3","spark_pilot_norest","11005","6","8","Female","","","","","","","7845.900000035763","<p> <b>Incorrect.</b> One animal lives in the upper part and one lives in the lower part of every place. </p>","0","comp_answer","","","","","","","","","","","",""
"comp-q","114","602009","0.0-3.0-13.0-0.4-0.4","spark_pilot_norest","11005","6","8","Female","","","","","","","3644.100000023842","<p> <b> True or False? </b> </p><p> The same animal will always be there if you go up in the same place. </p>","0","comp_question","","","","true","","","","","","","",""
"comp-q","115","633821","0.0-3.0-13.0-0.4-1.4","spark_pilot_norest","11005","6","8","Female","","","","","","","25375.799999952316","<p> <b> That's right! </b> One animal lives in the upper part and one lives in the lower part of every place. </p>","0","comp_answer","","","","","","","","","","","",""
"comp-q","116","643498","0.0-3.0-13.0-0.5-0.5","spark_pilot_norest","11005","6","8","Female","","","","","","","4153.200000047684","<p> <b> True or False? </b> </p><p> If you see a different picture, it means you are in a new place. </p>","0","comp_question","","","","false","","","","","","","",""
"comp-q","117","656537","0.0-3.0-13.0-0.5-1.5","spark_pilot_norest","11005","6","8","Female","","","","","","","1952.2000000476837","<p> <b>Incorrect.</b> Lots of different images may show the same place. For example,  you may see three different images that all remind you that you are in outer space. </p>","0","comp_answer","","","","","","","","","","","",""
"comp-q","118","663835","0.0-3.0-13.0-0.6-0.6","spark_pilot_norest","11005","6","8","Female","","","","","","","1800.699999988079","<p> <b> True or False? </b> </p><p> If you see a different picture, it means you are in a new place. </p>","1","comp_question","","","","true","","","","","","","",""
"comp-q","119","678577","0.0-3.0-13.0-0.6-1.6","spark_pilot_norest","11005","6","8","Female","","","","","","","3532.2999999523163","<p> <b> That's right! </b> Lots of different images may show the same place. For example,  you may see three different images that all remind you that you are in outer space. </p>","0","comp_answer","","","","","","","","","","","",""
"learning-instructions","120","694167","0.0-3.0-14.0-0.0","spark_pilot_norest","11005","6","8","Female","","","","","","","5741.300000011921","<p> Good job. Remember to do your best because the amount of treasure you earn will be converted into bonus money. </p>
            <p> It’s time to start the real game! </p>","","instructions","","","","","","","","","","","",""
"learning-instructions","121","700018","0.0-4.0-0.0-0.0","spark_pilot_norest","11005","6","8","Female","","","","","","","3092.600000023842","<p> This time you are searching for treasure in the <b>canyon</b>.</p>","","instructions","","","","","","","","","","","",""
"learning-instructions","122","724871","0.0-4.0-0.0-0.1","spark_pilot_norest","11005","6","8","Female","","","","","","","7565.5","<p><b>New</b> animals with <b>new</b> treasure chests live here. You need to explore to discover where the animal with the best treasure chest is.</p>
                    <p> Like before, once you figure out which animal has the chest with the most treasure, you should try to get to that animal and select that chest! </p>","","instructions","","","","","","","","","","","",""
"learning-instructions","123","744448","0.0-4.0-1.0-0.0","spark_pilot_norest","11005","6","8","Female","","","","","","","4853","<p> Remember, when you see a picture of the place, use the up and down keys to <b>find an animal</b>.</p>
            <p> When you encounter an animal, you should use the left and right keys to <b>select a treasure chest</b>.</p>
            <p> Don't forget to look out for the robber! </p>","","instructions","","","","","","","","","","","",""
"revaluation","124","750473","0.0-4.0-2.0-0.0","spark_pilot_norest","11005","6","8","Female","","false","","","","","[1522.2999999523163,1504.6000000238419]","./assets/img/canyon/memory/13.jpg","[""ArrowUp"",""ArrowRight""]","value training","canyon","10","{""ArrowUp,ArrowLeft"":23,""ArrowUp,ArrowRight"":10,""ArrowDown,ArrowLeft"":8,""ArrowDown,ArrowRight"":30}","false","ArrowUp,ArrowRight","false","revaluation","1","0","","",""
"html-keyboard-response","125","750986","0.0-4.0-2.0-1.0","spark_pilot_norest","11005","6","8","Female","","","","","","","null","<div style=""font-size:60px;"">+</div>","null","fixation","","","","","","","","","1","","",""
"revaluation","126","757018","0.0-4.0-2.0-0.1","spark_pilot_norest","11005","6","8","Female","","false","","","","","[1708.300000011921,922.3000000119209]","./assets/img/canyon/memory/10.jpg","[""ArrowUp"",""ArrowRight""]","value training","canyon","10","{""ArrowUp,ArrowLeft"":23,""ArrowUp,ArrowRight"":10,""ArrowDown,ArrowLeft"":8,""ArrowDown,ArrowRight"":30}","false","ArrowUp,ArrowRight","false","revaluation","1","2","","",""
"html-keyboard-response","127","757519","0.0-4.0-2.0-1.1","spark_pilot_norest","11005","6","8","Female","","","","","","","null","<div style=""font-size:60px;"">+</div>","null","fixation","","","","","","","","","3","","",""
"revaluation","128","763544","0.0-4.0-2.0-0.2","spark_pilot_norest","11005","6","8","Female","","false","","","","","[1717.3999999761581,1510]","./assets/img/canyon/memory/7.jpg","[""ArrowDown"",""ArrowLeft""]","value training","canyon","8","{""ArrowUp,ArrowLeft"":23,""ArrowUp,ArrowRight"":10,""ArrowDown,ArrowLeft"":8,""ArrowDown,ArrowRight"":30}","false","ArrowDown,ArrowLeft","false","revaluation","1","4","","",""
"html-keyboard-response","129","764060","0.0-4.0-2.0-1.2","spark_pilot_norest","11005","6","8","Female","","","","","","","null","<div style=""font-size:60px;"">+</div>","null","fixation","","","","","","","","","5","","",""
"revaluation","130","770084","0.0-4.0-2.0-0.3","spark_pilot_norest","11005","6","8","Female","","false","","","","","[1415.6000000238419,1006.8999999761581]","./assets/img/canyon/memory/34.jpg","[""ArrowUp"",""ArrowRight""]","value training","canyon","10","{""ArrowUp,ArrowLeft"":23,""ArrowUp,ArrowRight"":10,""ArrowDown,ArrowLeft"":8,""ArrowDown,ArrowRight"":30}","false","ArrowUp,ArrowRight","false","revaluation","1","6","","",""
"html-keyboard-response","131","770585","0.0-4.0-2.0-1.3","spark_pilot_norest","11005","6","8","Female","","","","","","","null","<div style=""font-size:60px;"">+</div>","null","fixation","","","","","","","","","7","","",""
"revaluation","132","774589","0.0-4.0-2.0-0.4","spark_pilot_norest","11005","6","8","Female","","true","","","","","[]","./assets/img/canyon/memory/8.jpg","[]","value training","canyon","-5","{""ArrowUp,ArrowLeft"":23,""ArrowUp,ArrowRight"":10,""ArrowDown,ArrowLeft"":8,""ArrowDown,ArrowRight"":30}","false","","false","revaluation","1","8","","",""
"html-keyboard-response","133","775090","0.0-4.0-2.0-1.4","spark_pilot_norest","11005","6","8","Female","","","","","","","null","<div style=""font-size:60px;"">+</div>","null","fixation","","","","","","","","","9","","",""
"revaluation","134","781106","0.0-4.0-2.0-0.5","spark_pilot_norest","11005","6","8","Female","","false","","","","","[623.3000000119209,609.3999999761581]","./assets/img/canyon/memory/8.jpg","[""ArrowUp"",""ArrowRight""]","value training","canyon","10","{""ArrowUp,ArrowLeft"":23,""ArrowUp,ArrowRight"":10,""ArrowDown,ArrowLeft"":8,""ArrowDown,ArrowRight"":30}","false","ArrowUp,ArrowRight","false","revaluation","1","10","","",""
"html-keyboard-response","135","781608","0.0-4.0-2.0-1.5","spark_pilot_norest","11005","6","8","Female","","","","","","","null","<div style=""font-size:60px;"">+</div>","null","fixation","","","","","","","","","11","","",""
"revaluation","136","787615","0.0-4.0-2.0-0.6","spark_pilot_norest","11005","6","8","Female","","false","","","","","[956,619.1999999880791]","./assets/img/canyon/memory/22.jpg","[""ArrowUp"",""ArrowRight""]","value training","canyon","10","{""ArrowUp,ArrowLeft"":23,""ArrowUp,ArrowRight"":10,""ArrowDown,ArrowLeft"":8,""ArrowDown,ArrowRight"":30}","false","ArrowUp,ArrowRight","false","revaluation","1","12","","",""
"html-keyboard-response","137","788118","0.0-4.0-2.0-1.6","spark_pilot_norest","11005","6","8","Female","","","","","","","null","<div style=""font-size:60px;"">+</div>","null","fixation","","","","","","","","","13","","",""
"revaluation","138","792124","0.0-4.0-2.0-0.7","spark_pilot_norest","11005","6","8","Female","","false","","","","","[1123.9000000357628]","./assets/img/canyon/catch/1.jpg","[""spaceBar""]","value training","canyon","0","{""ArrowUp,ArrowLeft"":23,""ArrowUp,ArrowRight"":10,""ArrowDown,ArrowLeft"":8,""ArrowDown,ArrowRight"":30}","true","spaceBar","true","revaluation","1","14","","",""
"html-keyboard-response","139","792626","0.0-4.0-2.0-1.7","spark_pilot_norest","11005","6","8","Female","","","","","","","null","<div style=""font-size:60px;"">+</div>","null","fixation","","","","","","","","","15","","",""
"revaluation","140","798632","0.0-4.0-2.0-0.8","spark_pilot_norest","11005","6","8","Female","","false","","","","","[1542.0999999642372,862]","./assets/img/canyon/memory/36.jpg","[""ArrowUp"",""ArrowRight""]","value training","canyon","10","{""ArrowUp,ArrowLeft"":23,""ArrowUp,ArrowRight"":10,""ArrowDown,ArrowLeft"":8,""ArrowDown,ArrowRight"":30}","false","ArrowUp,ArrowRight","false","revaluation","1","16","","",""
"html-keyboard-response","141","799134","0.0-4.0-2.0-1.8","spark_pilot_norest","11005","6","8","Female","","","","","","","null","<div style=""font-size:60px;"">+</div>","null","fixation","","","","","","","","","17","","",""
"revaluation","142","805139","0.0-4.0-2.0-0.9","spark_pilot_norest","11005","6","8","Female","","false","","","","","[1545.800000011921,1282.699999988079]","./assets/img/canyon/memory/12.jpg","[""ArrowDown"",""ArrowRight""]","value training","canyon","30","{""ArrowUp,ArrowLeft"":23,""ArrowUp,ArrowRight"":10,""ArrowDown,ArrowLeft"":8,""ArrowDown,ArrowRight"":30}","true","ArrowDown,ArrowRight","false","revaluation","1","18","","",""
"html-keyboard-response","143","805653","0.0-4.0-2.0-1.9","spark_pilot_norest","11005","6","8","Female","","","","","","","null","<div style=""font-size:60px;"">+</div>","null","fixation","","","","","","","","","19","","",""
"revaluation","144","811659","0.0-4.0-2.0-0.10","spark_pilot_norest","11005","6","8","Female","","false","","","","","[1290.3999999761581,689.6000000238419]","./assets/img/canyon/memory/35.jpg","[""ArrowUp"",""ArrowRight""]","value training","canyon","10","{""ArrowUp,ArrowLeft"":23,""ArrowUp,ArrowRight"":10,""ArrowDown,ArrowLeft"":8,""ArrowDown,ArrowRight"":30}","false","ArrowUp,ArrowRight","false","revaluation","1","20","","",""
"html-keyboard-response","145","812175","0.0-4.0-2.0-1.10","spark_pilot_norest","11005","6","8","Female","","","","","","","null","<div style=""font-size:60px;"">+</div>","null","fixation","","","","","","","","","21","","",""
"revaluation","146","818182","0.0-4.0-2.0-0.11","spark_pilot_norest","11005","6","8","Female","","false","","","","","[603,924.8999999761581]","./assets/img/canyon/memory/39.jpg","[""ArrowDown"",""ArrowLeft""]","value training","canyon","8","{""ArrowUp,ArrowLeft"":23,""ArrowUp,ArrowRight"":10,""ArrowDown,ArrowLeft"":8,""ArrowDown,ArrowRight"":30}","false","ArrowDown,ArrowLeft","false","revaluation","1","22","","",""
"html-keyboard-response","147","818684","0.0-4.0-2.0-1.11","spark_pilot_norest","11005","6","8","Female","","","","","","","null","<div style=""font-size:60px;"">+</div>","null","fixation","","","","","","","","","23","","",""
"revaluation","148","824696","0.0-4.0-2.0-0.12","spark_pilot_norest","11005","6","8","Female","","false","","","","","[1370.300000011921,1159.199999988079]","./assets/img/canyon/memory/31.jpg","[""ArrowUp"",""ArrowRight""]","value training","canyon","10","{""ArrowUp,ArrowLeft"":23,""ArrowUp,ArrowRight"":10,""ArrowDown,ArrowLeft"":8,""ArrowDown,ArrowRight"":30}","false","ArrowUp,ArrowRight","false","revaluation","1","24","","",""
"html-keyboard-response","149","825198","0.0-4.0-2.0-1.12","spark_pilot_norest","11005","6","8","Female","","","","","","","null","<div style=""font-size:60px;"">+</div>","null","fixation","","","","","","","","","25","","",""
"revaluation","150","831209","0.0-4.0-2.0-0.13","spark_pilot_norest","11005","6","8","Female","","false","","","","","[1366.0999999642372,913.1000000238419]","./assets/img/canyon/memory/6.jpg","[""ArrowUp"",""ArrowRight""]","value training","canyon","10","{""ArrowUp,ArrowLeft"":23,""ArrowUp,ArrowRight"":10,""ArrowDown,ArrowLeft"":8,""ArrowDown,ArrowRight"":30}","false","ArrowUp,ArrowRight","false","revaluation","1","26","","",""
"html-keyboard-response","151","831711","0.0-4.0-2.0-1.13","spark_pilot_norest","11005","6","8","Female","","","","","","","null","<div style=""font-size:60px;"">+</div>","null","fixation","","","","","","","","","27","","",""
"revaluation","152","835720","0.0-4.0-2.0-0.14","spark_pilot_norest","11005","6","8","Female","","false","","","","","[1470.6000000238419]","./assets/img/canyon/catch/4.jpg","[""spaceBar""]","value training","canyon","0","{""ArrowUp,ArrowLeft"":23,""ArrowUp,ArrowRight"":10,""ArrowDown,ArrowLeft"":8,""ArrowDown,ArrowRight"":30}","true","spaceBar","true","revaluation","1","28","","",""
"html-keyboard-response","153","836222","0.0-4.0-2.0-1.14","spark_pilot_norest","11005","6","8","Female","","","","","","","null","<div style=""font-size:60px;"">+</div>","null","fixation","","","","","","","","","29","","",""
"revaluation","154","842228","0.0-4.0-2.0-0.15","spark_pilot_norest","11005","6","8","Female","","false","","","","","[1498.1000000238419,1089.300000011921]","./assets/img/canyon/memory/19.jpg","[""ArrowDown"",""ArrowRight""]","value training","canyon","30","{""ArrowUp,ArrowLeft"":23,""ArrowUp,ArrowRight"":10,""ArrowDown,ArrowLeft"":8,""ArrowDown,ArrowRight"":30}","true","ArrowDown,ArrowRight","false","revaluation","1","30","","",""
"html-keyboard-response","155","842729","0.0-4.0-2.0-1.15","spark_pilot_norest","11005","6","8","Female","","","","","","","null","<div style=""font-size:60px;"">+</div>","null","fixation","","","","","","","","","31","","",""
"revaluation","156","846735","0.0-4.0-2.0-0.16","spark_pilot_norest","11005","6","8","Female","","true","","","","","[]","./assets/img/canyon/memory/10.jpg","[]","value training","canyon","-5","{""ArrowUp,ArrowLeft"":23,""ArrowUp,ArrowRight"":10,""ArrowDown,ArrowLeft"":8,""ArrowDown,ArrowRight"":30}","false","","false","revaluation","1","32","","",""
"html-keyboard-response","157","847236","0.0-4.0-2.0-1.16","spark_pilot_norest","11005","6","8","Female","","","","","","","null","<div style=""font-size:60px;"">+</div>","null","fixation","","","","","","","","","33","","",""
"revaluation","158","853243","0.0-4.0-2.0-0.17","spark_pilot_norest","11005","6","8","Female","","false","","","","","[735.5,436.60000002384186]","./assets/img/canyon/memory/24.jpg","[""ArrowDown"",""ArrowRight""]","value training","canyon","30","{""ArrowUp,ArrowLeft"":23,""ArrowUp,ArrowRight"":10,""ArrowDown,ArrowLeft"":8,""ArrowDown,ArrowRight"":30}","true","ArrowDown,ArrowRight","false","revaluation","1","34","","",""
"html-keyboard-response","159","853745","0.0-4.0-2.0-1.17","spark_pilot_norest","11005","6","8","Female","","","","","","","null","<div style=""font-size:60px;"">+</div>","null","fixation","","","","","","","","","35","","",""
"revaluation","160","859750","0.0-4.0-2.0-0.18","spark_pilot_norest","11005","6","8","Female","","false","","","","","[962.1000000238419,744.8999999761581]","./assets/img/canyon/memory/23.jpg","[""ArrowDown"",""ArrowRight""]","value training","canyon","30","{""ArrowUp,ArrowLeft"":23,""ArrowUp,ArrowRight"":10,""ArrowDown,ArrowLeft"":8,""ArrowDown,ArrowRight"":30}","true","ArrowDown,ArrowRight","false","revaluation","1","36","","",""
"html-keyboard-response","161","860252","0.0-4.0-2.0-1.18","spark_pilot_norest","11005","6","8","Female","","","","","","","null","<div style=""font-size:60px;"">+</div>","null","fixation","","","","","","","","","37","","",""
"revaluation","162","866258","0.0-4.0-2.0-0.19","spark_pilot_norest","11005","6","8","Female","","true","","","","","[732.0999999642372]","./assets/img/canyon/memory/34.jpg","[""ArrowDown""]","value training","canyon","-5","{""ArrowUp,ArrowLeft"":23,""ArrowUp,ArrowRight"":10,""ArrowDown,ArrowLeft"":8,""ArrowDown,ArrowRight"":30}","false","ArrowDown","false","revaluation","1","38","","",""
"html-keyboard-response","163","866772","0.0-4.0-2.0-1.19","spark_pilot_norest","11005","6","8","Female","","","","","","","null","<div style=""font-size:60px;"">+</div>","null","fixation","","","","","","","","","39","","",""
"revaluation","164","872778","0.0-4.0-2.0-0.20","spark_pilot_norest","11005","6","8","Female","","false","","","","","[1412.800000011921,153.69999998807907]","./assets/img/canyon/memory/12.jpg","[""ArrowDown"",""ArrowRight""]","value training","canyon","30","{""ArrowUp,ArrowLeft"":23,""ArrowUp,ArrowRight"":10,""ArrowDown,ArrowLeft"":8,""ArrowDown,ArrowRight"":30}","true","ArrowDown,ArrowRight","false","revaluation","1","40","","",""
"html-keyboard-response","165","873279","0.0-4.0-2.0-1.20","spark_pilot_norest","11005","6","8","Female","","","","","","","null","<div style=""font-size:60px;"">+</div>","null","fixation","","","","","","","","","41","","",""
"revaluation","166","877283","0.0-4.0-2.0-0.21","spark_pilot_norest","11005","6","8","Female","","true","","","","","[]","./assets/img/canyon/catch/5.jpg","[]","value training","canyon","-5","{""ArrowUp,ArrowLeft"":23,""ArrowUp,ArrowRight"":10,""ArrowDown,ArrowLeft"":8,""ArrowDown,ArrowRight"":30}","false","","true","revaluation","1","42","","",""
"html-keyboard-response","167","877784","0.0-4.0-2.0-1.21","spark_pilot_norest","11005","6","8","Female","","","","","","","null","<div style=""font-size:60px;"">+</div>","null","fixation","","","","","","","","","43","","",""
"revaluation","168","883792","0.0-4.0-2.0-0.22","spark_pilot_norest","11005","6","8","Female","","false","","","","","[1445,1064.1000000238419]","./assets/img/canyon/memory/3.jpg","[""ArrowDown"",""ArrowRight""]","value training","canyon","30","{""ArrowUp,ArrowLeft"":23,""ArrowUp,ArrowRight"":10,""ArrowDown,ArrowLeft"":8,""ArrowDown,ArrowRight"":30}","true","ArrowDown,ArrowRight","false","revaluation","1","44","","",""
"html-keyboard-response","169","884294","0.0-4.0-2.0-1.22","spark_pilot_norest","11005","6","8","Female","","","","","","","null","<div style=""font-size:60px;"">+</div>","null","fixation","","","","","","","","","45","","",""
"revaluation","170","890307","0.0-4.0-2.0-0.23","spark_pilot_norest","11005","6","8","Female","","false","","","","","[973.3999999761581,800.8000000119209]","./assets/img/canyon/memory/35.jpg","[""ArrowDown"",""ArrowRight""]","value training","canyon","30","{""ArrowUp,ArrowLeft"":23,""ArrowUp,ArrowRight"":10,""ArrowDown,ArrowLeft"":8,""ArrowDown,ArrowRight"":30}","true","ArrowDown,ArrowRight","false","revaluation","1","46","","",""
"html-keyboard-response","171","890808","0.0-4.0-2.0-1.23","spark_pilot_norest","11005","6","8","Female","","","","","","","null","<div style=""font-size:60px;"">+</div>","null","fixation","","","","","","","","","47","","",""
"revaluation","172","896815","0.0-4.0-2.0-0.24","spark_pilot_norest","11005","6","8","Female","","false","","","","","[875.1999999880791,832.3000000119209]","./assets/img/canyon/memory/36.jpg","[""ArrowDown"",""ArrowRight""]","value training","canyon","30","{""ArrowUp,ArrowLeft"":23,""ArrowUp,ArrowRight"":10,""ArrowDown,ArrowLeft"":8,""ArrowDown,ArrowRight"":30}","true","ArrowDown,ArrowRight","false","revaluation","1","48","","",""
"html-keyboard-response","173","897317","0.0-4.0-2.0-1.24","spark_pilot_norest","11005","6","8","Female","","","","","","","null","<div style=""font-size:60px;"">+</div>","null","fixation","","","","","","","","","49","","",""
"revaluation","174","903324","0.0-4.0-2.0-0.25","spark_pilot_norest","11005","6","8","Female","","false","","","","","[657.4000000357628,679.7999999523163]","./assets/img/canyon/memory/20.jpg","[""ArrowDown"",""ArrowRight""]","value training","canyon","30","{""ArrowUp,ArrowLeft"":23,""ArrowUp,ArrowRight"":10,""ArrowDown,ArrowLeft"":8,""ArrowDown,ArrowRight"":30}","true","ArrowDown,ArrowRight","false","revaluation","1","50","","",""
"html-keyboard-response","175","903826","0.0-4.0-2.0-1.25","spark_pilot_norest","11005","6","8","Female","","","","","","","null","<div style=""font-size:60px;"">+</div>","null","fixation","","","","","","","","","51","","",""
"revaluation","176","909831","0.0-4.0-2.0-0.26","spark_pilot_norest","11005","6","8","Female","","false","","","","","[699.1999999880791,664.1000000238419]","./assets/img/canyon/memory/3.jpg","[""ArrowUp"",""ArrowRight""]","value training","canyon","10","{""ArrowUp,ArrowLeft"":23,""ArrowUp,ArrowRight"":10,""ArrowDown,ArrowLeft"":8,""ArrowDown,ArrowRight"":30}","false","ArrowUp,ArrowRight","false","revaluation","1","52","","",""
"html-keyboard-response","177","910333","0.0-4.0-2.0-1.26","spark_pilot_norest","11005","6","8","Female","","","","","","","null","<div style=""font-size:60px;"">+</div>","null","fixation","","","","","","","","","53","","",""
"revaluation","178","916338","0.0-4.0-2.0-0.27","spark_pilot_norest","11005","6","8","Female","","false","","","","","[1062.199999988079,570.6999999880791]","./assets/img/canyon/memory/15.jpg","[""ArrowUp"",""ArrowLeft""]","value training","canyon","23","{""ArrowUp,ArrowLeft"":23,""ArrowUp,ArrowRight"":10,""ArrowDown,ArrowLeft"":8,""ArrowDown,ArrowRight"":30}","false","ArrowUp,ArrowLeft","false","revaluation","1","54","","",""
"html-keyboard-response","179","916839","0.0-4.0-2.0-1.27","spark_pilot_norest","11005","6","8","Female","","","","","","","null","<div style=""font-size:60px;"">+</div>","null","fixation","","","","","","","","","55","","",""
"revaluation","180","920844","0.0-4.0-2.0-0.28","spark_pilot_norest","11005","6","8","Female","","false","","","","","[570.6999999880791]","./assets/img/canyon/catch/3.jpg","[""ArrowUp""]","value training","canyon","-10","{""ArrowUp,ArrowLeft"":23,""ArrowUp,ArrowRight"":10,""ArrowDown,ArrowLeft"":8,""ArrowDown,ArrowRight"":30}","false","ArrowUp","true","revaluation","1","56","","",""
"html-keyboard-response","181","921346","0.0-4.0-2.0-1.28","spark_pilot_norest","11005","6","8","Female","","","","","","","null","<div style=""font-size:60px;"">+</div>","null","fixation","","","","","","","","","57","","",""
"revaluation","182","925352","0.0-4.0-2.0-0.29","spark_pilot_norest","11005","6","8","Female","","true","","","","","[]","./assets/img/canyon/catch/2.jpg","[]","value training","canyon","-5","{""ArrowUp,ArrowLeft"":23,""ArrowUp,ArrowRight"":10,""ArrowDown,ArrowLeft"":8,""ArrowDown,ArrowRight"":30}","false","","true","revaluation","1","58","","",""
"html-keyboard-response","183","925855","0.0-4.0-2.0-1.29","spark_pilot_norest","11005","6","8","Female","","","","","","","null","<div style=""font-size:60px;"">+</div>","null","fixation","","","","","","","","","59","","",""
"revaluation","184","931860","0.0-4.0-2.0-0.30","spark_pilot_norest","11005","6","8","Female","","false","","","","","[552.3999999761581,1244]","./assets/img/canyon/memory/39.jpg","[""ArrowUp"",""ArrowLeft""]","value training","canyon","23","{""ArrowUp,ArrowLeft"":23,""ArrowUp,ArrowRight"":10,""ArrowDown,ArrowLeft"":8,""ArrowDown,ArrowRight"":30}","false","ArrowUp,ArrowLeft","false","revaluation","1","60","","",""
"html-keyboard-response","185","932373","0.0-4.0-2.0-1.30","spark_pilot_norest","11005","6","8","Female","","","","","","","null","<div style=""font-size:60px;"">+</div>","null","fixation","","","","","","","","","61","","",""
"revaluation","186","938378","0.0-4.0-2.0-0.31","spark_pilot_norest","11005","6","8","Female","","false","","","","","[671.8999999761581,443.4000000357628]","./assets/img/canyon/memory/37.jpg","[""ArrowUp"",""ArrowLeft""]","value training","canyon","23","{""ArrowUp,ArrowLeft"":23,""ArrowUp,ArrowRight"":10,""ArrowDown,ArrowLeft"":8,""ArrowDown,ArrowRight"":30}","false","ArrowUp,ArrowLeft","false","revaluation","1","62","","",""
"html-keyboard-response","187","938890","0.0-4.0-2.0-1.31","spark_pilot_norest","11005","6","8","Female","","","","","","","null","<div style=""font-size:60px;"">+</div>","null","fixation","","","","","","","","","63","","",""
"revaluation","188","944898","0.0-4.0-2.0-0.32","spark_pilot_norest","11005","6","8","Female","","false","","","","","[358.30000001192093,644.4000000357628]","./assets/img/canyon/memory/23.jpg","[""ArrowUp"",""ArrowLeft""]","value training","canyon","23","{""ArrowUp,ArrowLeft"":23,""ArrowUp,ArrowRight"":10,""ArrowDown,ArrowLeft"":8,""ArrowDown,ArrowRight"":30}","false","ArrowUp,ArrowLeft","false","revaluation","1","64","","",""
"html-keyboard-response","189","945400","0.0-4.0-2.0-1.32","spark_pilot_norest","11005","6","8","Female","","","","","","","null","<div style=""font-size:60px;"">+</div>","null","fixation","","","","","","","","","65","","",""
"revaluation","190","951408","0.0-4.0-2.0-0.33","spark_pilot_norest","11005","6","8","Female","","false","","","","","[647.4000000357628,634.3000000119209]","./assets/img/canyon/memory/19.jpg","[""ArrowUp"",""ArrowLeft""]","value training","canyon","23","{""ArrowUp,ArrowLeft"":23,""ArrowUp,ArrowRight"":10,""ArrowDown,ArrowLeft"":8,""ArrowDown,ArrowRight"":30}","false","ArrowUp,ArrowLeft","false","revaluation","1","66","","",""
"html-keyboard-response","191","951909","0.0-4.0-2.0-1.33","spark_pilot_norest","11005","6","8","Female","","","","","","","null","<div style=""font-size:60px;"">+</div>","null","fixation","","","","","","","","","67","","",""
"revaluation","192","957912","0.0-4.0-2.0-0.34","spark_pilot_norest","11005","6","8","Female","","false","","","","","[1833.199999988079,722.5]","./assets/img/canyon/memory/7.jpg","[""ArrowUp"",""ArrowLeft""]","value training","canyon","23","{""ArrowUp,ArrowLeft"":23,""ArrowUp,ArrowRight"":10,""ArrowDown,ArrowLeft"":8,""ArrowDown,ArrowRight"":30}","false","ArrowUp,ArrowLeft","false","revaluation","1","68","","",""
"html-keyboard-response","193","958415","0.0-4.0-2.0-1.34","spark_pilot_norest","11005","6","8","Female","","","","","","","null","<div style=""font-size:60px;"">+</div>","null","fixation","","","","","","","","","69","","",""
"revaluation","194","962420","0.0-4.0-2.0-0.35","spark_pilot_norest","11005","6","8","Female","","false","","","","","[529]","./assets/img/canyon/catch/6.jpg","[""ArrowUp""]","value training","canyon","-10","{""ArrowUp,ArrowLeft"":23,""ArrowUp,ArrowRight"":10,""ArrowDown,ArrowLeft"":8,""ArrowDown,ArrowRight"":30}","false","ArrowUp","true","revaluation","1","70","","",""
"html-keyboard-response","195","962921","0.0-4.0-2.0-1.35","spark_pilot_norest","11005","6","8","Female","","","","","","","null","<div style=""font-size:60px;"">+</div>","null","fixation","","","","","","","","","71","","",""
"revaluation","196","966925","0.0-4.0-2.0-0.36","spark_pilot_norest","11005","6","8","Female","","true","","","","","[]","./assets/img/canyon/memory/37.jpg","[]","value training","canyon","-5","{""ArrowUp,ArrowLeft"":23,""ArrowUp,ArrowRight"":10,""ArrowDown,ArrowLeft"":8,""ArrowDown,ArrowRight"":30}","false","","false","revaluation","1","72","","",""
"html-keyboard-response","197","967427","0.0-4.0-2.0-1.36","spark_pilot_norest","11005","6","8","Female","","","","","","","null","<div style=""font-size:60px;"">+</div>","null","fixation","","","","","","","","","73","","",""
"revaluation","198","973434","0.0-4.0-2.0-0.37","spark_pilot_norest","11005","6","8","Female","","false","","","","","[286.30000001192093,364.0999999642372]","./assets/img/canyon/memory/15.jpg","[""ArrowUp"",""ArrowLeft""]","value training","canyon","23","{""ArrowUp,ArrowLeft"":23,""ArrowUp,ArrowRight"":10,""ArrowDown,ArrowLeft"":8,""ArrowDown,ArrowRight"":30}","false","ArrowUp,ArrowLeft","false","revaluation","1","74","","",""
"html-keyboard-response","199","973936","0.0-4.0-2.0-1.37","spark_pilot_norest","11005","6","8","Female","","","","","","","null","<div style=""font-size:60px;"">+</div>","null","fixation","","","","","","","","","75","","",""
"revaluation","200","977940","0.0-4.0-2.0-0.38","spark_pilot_norest","11005","6","8","Female","","false","","","","","[267.80000001192093]","./assets/img/canyon/catch/0.jpg","[""ArrowUp""]","value training","canyon","-10","{""ArrowUp,ArrowLeft"":23,""ArrowUp,ArrowRight"":10,""ArrowDown,ArrowLeft"":8,""ArrowDown,ArrowRight"":30}","false","ArrowUp","true","revaluation","1","76","","",""
"html-keyboard-response","201","978453","0.0-4.0-2.0-1.38","spark_pilot_norest","11005","6","8","Female","","","","","","","null","<div style=""font-size:60px;"">+</div>","null","fixation","","","","","","","","","77","","",""
"revaluation","202","984469","0.0-4.0-2.0-0.39","spark_pilot_norest","11005","6","8","Female","","false","","","","","[1059.6000000238419,1687.800000011921]","./assets/img/canyon/memory/6.jpg","[""ArrowUp"",""ArrowLeft""]","value training","canyon","23","{""ArrowUp,ArrowLeft"":23,""ArrowUp,ArrowRight"":10,""ArrowDown,ArrowLeft"":8,""ArrowDown,ArrowRight"":30}","false","ArrowUp,ArrowLeft","false","revaluation","1","78","","",""
"html-keyboard-response","203","984970","0.0-4.0-2.0-1.39","spark_pilot_norest","11005","6","8","Female","","","","","","","null","<div style=""font-size:60px;"">+</div>","null","fixation","","","","","","","","","79","","",""
"revaluation","204","990976","0.0-4.0-2.0-0.40","spark_pilot_norest","11005","6","8","Female","","false","","","","","[1135.9000000357628,1423.4000000357628]","./assets/img/canyon/memory/25.jpg","[""ArrowUp"",""ArrowLeft""]","value training","canyon","23","{""ArrowUp,ArrowLeft"":23,""ArrowUp,ArrowRight"":10,""ArrowDown,ArrowLeft"":8,""ArrowDown,ArrowRight"":30}","false","ArrowUp,ArrowLeft","false","revaluation","1","80","","",""
"html-keyboard-response","205","991478","0.0-4.0-2.0-1.40","spark_pilot_norest","11005","6","8","Female","","","","","","","null","<div style=""font-size:60px;"">+</div>","null","fixation","","","","","","","","","81","","",""
"revaluation","206","997484","0.0-4.0-2.0-0.41","spark_pilot_norest","11005","6","8","Female","","false","","","","","[1523.699999988079,1340.5]","./assets/img/canyon/memory/26.jpg","[""ArrowUp"",""ArrowLeft""]","value training","canyon","23","{""ArrowUp,ArrowLeft"":23,""ArrowUp,ArrowRight"":10,""ArrowDown,ArrowLeft"":8,""ArrowDown,ArrowRight"":30}","false","ArrowUp,ArrowLeft","false","revaluation","1","82","","",""
"html-keyboard-response","207","997986","0.0-4.0-2.0-1.41","spark_pilot_norest","11005","6","8","Female","","","","","","","null","<div style=""font-size:60px;"">+</div>","null","fixation","","","","","","","","","83","","",""
"revaluation","208","1003993","0.0-4.0-2.0-0.42","spark_pilot_norest","11005","6","8","Female","","false","","","","","[1286.0999999642372,313.19999998807907]","./assets/img/canyon/memory/20.jpg","[""ArrowUp"",""ArrowLeft""]","value training","canyon","23","{""ArrowUp,ArrowLeft"":23,""ArrowUp,ArrowRight"":10,""ArrowDown,ArrowLeft"":8,""ArrowDown,ArrowRight"":30}","false","ArrowUp,ArrowLeft","false","revaluation","1","84","","",""
"html-keyboard-response","209","1004494","0.0-4.0-2.0-1.42","spark_pilot_norest","11005","6","8","Female","","","","","","","null","<div style=""font-size:60px;"">+</div>","null","fixation","","","","","","","","","85","","",""
"revaluation","210","1010514","0.0-4.0-2.0-0.43","spark_pilot_norest","11005","6","8","Female","","false","","","","","[631.6999999880791,19.5]","./assets/img/canyon/memory/22.jpg","[""ArrowUp"",""ArrowLeft""]","value training","canyon","23","{""ArrowUp,ArrowLeft"":23,""ArrowUp,ArrowRight"":10,""ArrowDown,ArrowLeft"":8,""ArrowDown,ArrowRight"":30}","false","ArrowUp,ArrowLeft","false","revaluation","1","86","","",""
"html-keyboard-response","211","1011017","0.0-4.0-2.0-1.43","spark_pilot_norest","11005","6","8","Female","","","","","","","null","<div style=""font-size:60px;"">+</div>","null","fixation","","","","","","","","","87","","",""
"revaluation","212","1017021","0.0-4.0-2.0-0.44","spark_pilot_norest","11005","6","8","Female","","false","","","","","[563.3999999761581,477.5]","./assets/img/canyon/memory/31.jpg","[""ArrowUp"",""ArrowLeft""]","value training","canyon","23","{""ArrowUp,ArrowLeft"":23,""ArrowUp,ArrowRight"":10,""ArrowDown,ArrowLeft"":8,""ArrowDown,ArrowRight"":30}","false","ArrowUp,ArrowLeft","false","revaluation","1","88","","",""
"html-keyboard-response","213","1017523","0.0-4.0-2.0-1.44","spark_pilot_norest","11005","6","8","Female","","","","","","","null","<div style=""font-size:60px;"">+</div>","null","fixation","","","","","","","","","89","","",""
"revaluation","214","1023529","0.0-4.0-2.0-0.45","spark_pilot_norest","11005","6","8","Female","","false","","","","","[1032.4000000357628,700.3999999761581]","./assets/img/canyon/memory/26.jpg","[""ArrowUp"",""ArrowLeft""]","value training","canyon","23","{""ArrowUp,ArrowLeft"":23,""ArrowUp,ArrowRight"":10,""ArrowDown,ArrowLeft"":8,""ArrowDown,ArrowRight"":30}","false","ArrowUp,ArrowLeft","false","revaluation","1","90","","",""
"html-keyboard-response","215","1024042","0.0-4.0-2.0-1.45","spark_pilot_norest","11005","6","8","Female","","","","","","","null","<div style=""font-size:60px;"">+</div>","null","fixation","","","","","","","","","91","","",""
"revaluation","216","1030048","0.0-4.0-2.0-0.46","spark_pilot_norest","11005","6","8","Female","","false","","","","","[451.30000001192093,1441.800000011921]","./assets/img/canyon/memory/13.jpg","[""ArrowUp"",""ArrowLeft""]","value training","canyon","23","{""ArrowUp,ArrowLeft"":23,""ArrowUp,ArrowRight"":10,""ArrowDown,ArrowLeft"":8,""ArrowDown,ArrowRight"":30}","false","ArrowUp,ArrowLeft","false","revaluation","1","92","","",""
"html-keyboard-response","217","1030549","0.0-4.0-2.0-1.46","spark_pilot_norest","11005","6","8","Female","","","","","","","null","<div style=""font-size:60px;"">+</div>","null","fixation","","","","","","","","","93","","",""
"revaluation","218","1036554","0.0-4.0-2.0-0.47","spark_pilot_norest","11005","6","8","Female","","false","","","","","[1401.800000011921,826]","./assets/img/canyon/memory/25.jpg","[""ArrowUp"",""ArrowLeft""]","value training","canyon","23","{""ArrowUp,ArrowLeft"":23,""ArrowUp,ArrowRight"":10,""ArrowDown,ArrowLeft"":8,""ArrowDown,ArrowRight"":30}","false","ArrowUp,ArrowLeft","false","revaluation","1","94","","",""
"html-keyboard-response","219","1037056","0.0-4.0-2.0-1.47","spark_pilot_norest","11005","6","8","Female","","","","","","","null","<div style=""font-size:60px;"">+</div>","null","fixation","","","","","","","","","95","","",""
"revaluation","220","1041062","0.0-4.0-2.0-0.48","spark_pilot_norest","11005","6","8","Female","","false","","","","","[1435.5999999642372]","./assets/img/canyon/catch/7.jpg","[""spaceBar""]","value training","canyon","0","{""ArrowUp,ArrowLeft"":23,""ArrowUp,ArrowRight"":10,""ArrowDown,ArrowLeft"":8,""ArrowDown,ArrowRight"":30}","true","spaceBar","true","revaluation","1","96","","",""
"html-keyboard-response","221","1041564","0.0-4.0-2.0-1.48","spark_pilot_norest","11005","6","8","Female","","","","","","","null","<div style=""font-size:60px;"">+</div>","null","fixation","","","","","","","","","97","","",""
"revaluation","222","1047575","0.0-4.0-2.0-0.49","spark_pilot_norest","11005","6","8","Female","","false","","","","","[791.8999999761581,1099]","./assets/img/canyon/memory/24.jpg","[""ArrowUp"",""ArrowLeft""]","value training","canyon","23","{""ArrowUp,ArrowLeft"":23,""ArrowUp,ArrowRight"":10,""ArrowDown,ArrowLeft"":8,""ArrowDown,ArrowRight"":30}","false","ArrowUp,ArrowLeft","false","revaluation","1","98","","",""
"html-keyboard-response","223","1048078","0.0-4.0-2.0-1.49","spark_pilot_norest","11005","6","8","Female","","","","","","","null","<div style=""font-size:60px;"">+</div>","null","fixation","","","","","","","","","99","","",""
"learning-instructions","224","1085563","0.0-4.0-3.0-0.0","spark_pilot_norest","11005","6","8","Female","","","","","","","24599.19999998808","<p> Now, you will travel with a friend who will choose whether you go up or down first. </p>
            <p> On these turns, you will just see the animal that they found. You will still get to choose which chest to search for treasure.</p>","","instructions","","","","","","","","","","","",""
"revaluation","225","1089588","0.0-4.0-4.0-0.0","spark_pilot_norest","11005","6","8","Female","","false","","","","","[1854.199999988079]","./assets/img/canyon/animals/lion.jpg","[""ArrowRight""]","revaluation","canyon","7","{""ArrowUp,ArrowLeft"":27,""ArrowUp,ArrowRight"":15,""ArrowDown,ArrowLeft"":21,""ArrowDown,ArrowRight"":7}","false","ArrowDown,ArrowRight","","revaluation","1","0","","",""
"html-keyboard-response","226","1090102","0.0-4.0-4.0-1.0","spark_pilot_norest","11005","6","8","Female","","","","","","","null","<div style=""font-size:60px;"">+</div>","null","fixation","","","","","","","","","1","","",""
"revaluation","227","1094107","0.0-4.0-4.0-0.1","spark_pilot_norest","11005","6","8","Female","","false","","","","","[902]","./assets/img/canyon/animals/giraffe.jpg","[""ArrowRight""]","revaluation","canyon","15","{""ArrowUp,ArrowLeft"":27,""ArrowUp,ArrowRight"":15,""ArrowDown,ArrowLeft"":21,""ArrowDown,ArrowRight"":7}","false","ArrowUp,ArrowRight","","revaluation","1","2","","",""
"html-keyboard-response","228","1094609","0.0-4.0-4.0-1.1","spark_pilot_norest","11005","6","8","Female","","","","","","","null","<div style=""font-size:60px;"">+</div>","null","fixation","","","","","","","","","3","","",""
"revaluation","229","1098612","0.0-4.0-4.0-0.2","spark_pilot_norest","11005","6","8","Female","","false","","","","","[840.5]","./assets/img/canyon/animals/lion.jpg","[""ArrowRight""]","revaluation","canyon","7","{""ArrowUp,ArrowLeft"":27,""ArrowUp,ArrowRight"":15,""ArrowDown,ArrowLeft"":21,""ArrowDown,ArrowRight"":7}","false","ArrowDown,ArrowRight","","revaluation","1","4","","",""
"html-keyboard-response","230","1099114","0.0-4.0-4.0-1.2","spark_pilot_norest","11005","6","8","Female","","","","","","","null","<div style=""font-size:60px;"">+</div>","null","fixation","","","","","","","","","5","","",""
"revaluation","231","1103119","0.0-4.0-4.0-0.3","spark_pilot_norest","11005","6","8","Female","","false","","","","","[535.1999999880791]","./assets/img/canyon/animals/giraffe.jpg","[""ArrowRight""]","revaluation","canyon","15","{""ArrowUp,ArrowLeft"":27,""ArrowUp,ArrowRight"":15,""ArrowDown,ArrowLeft"":21,""ArrowDown,ArrowRight"":7}","false","ArrowUp,ArrowRight","","revaluation","1","6","","",""
"html-keyboard-response","232","1103621","0.0-4.0-4.0-1.3","spark_pilot_norest","11005","6","8","Female","","","","","","","null","<div style=""font-size:60px;"">+</div>","null","fixation","","","","","","","","","7","","",""
"revaluation","233","1107627","0.0-4.0-4.0-0.4","spark_pilot_norest","11005","6","8","Female","","false","","","","","[559.3999999761581]","./assets/img/canyon/animals/lion.jpg","[""ArrowRight""]","revaluation","canyon","7","{""ArrowUp,ArrowLeft"":27,""ArrowUp,ArrowRight"":15,""ArrowDown,ArrowLeft"":21,""ArrowDown,ArrowRight"":7}","false","ArrowDown,ArrowRight","","revaluation","1","8","","",""
"html-keyboard-response","234","1108129","0.0-4.0-4.0-1.4","spark_pilot_norest","11005","6","8","Female","","","","","","","null","<div style=""font-size:60px;"">+</div>","null","fixation","","","","","","","","","9","","",""
"revaluation","235","1112134","0.0-4.0-4.0-0.5","spark_pilot_norest","11005","6","8","Female","","false","","","","","[525.5]","./assets/img/canyon/animals/lion.jpg","[""ArrowRight""]","revaluation","canyon","7","{""ArrowUp,ArrowLeft"":27,""ArrowUp,ArrowRight"":15,""ArrowDown,ArrowLeft"":21,""ArrowDown,ArrowRight"":7}","false","ArrowDown,ArrowRight","","revaluation","1","10","","",""
"html-keyboard-response","236","1112635","0.0-4.0-4.0-1.5","spark_pilot_norest","11005","6","8","Female","","","","","","","null","<div style=""font-size:60px;"">+</div>","null","fixation","","","","","","","","","11","","",""
"revaluation","237","1116639","0.0-4.0-4.0-0.6","spark_pilot_norest","11005","6","8","Female","","false","","","","","[11.800000011920929]","./assets/img/canyon/animals/giraffe.jpg","[""ArrowRight""]","revaluation","canyon","15","{""ArrowUp,ArrowLeft"":27,""ArrowUp,ArrowRight"":15,""ArrowDown,ArrowLeft"":21,""ArrowDown,ArrowRight"":7}","false","ArrowUp,ArrowRight","","revaluation","1","12","","",""
"html-keyboard-response","238","1117140","0.0-4.0-4.0-1.6","spark_pilot_norest","11005","6","8","Female","","","","","","","null","<div style=""font-size:60px;"">+</div>","null","fixation","","","","","","","","","13","","",""
"revaluation","239","1121145","0.0-4.0-4.0-0.7","spark_pilot_norest","11005","6","8","Female","","false","","","","","[98.10000002384186]","./assets/img/canyon/animals/lion.jpg","[""ArrowRight""]","revaluation","canyon","7","{""ArrowUp,ArrowLeft"":27,""ArrowUp,ArrowRight"":15,""ArrowDown,ArrowLeft"":21,""ArrowDown,ArrowRight"":7}","false","ArrowDown,ArrowRight","","revaluation","1","14","","",""
"html-keyboard-response","240","1121646","0.0-4.0-4.0-1.7","spark_pilot_norest","11005","6","8","Female","","","","","","","null","<div style=""font-size:60px;"">+</div>","null","fixation","","","","","","","","","15","","",""
"revaluation","241","1125649","0.0-4.0-4.0-0.8","spark_pilot_norest","11005","6","8","Female","","false","","","","","[425.5]","./assets/img/canyon/animals/lion.jpg","[""ArrowRight""]","revaluation","canyon","7","{""ArrowUp,ArrowLeft"":27,""ArrowUp,ArrowRight"":15,""ArrowDown,ArrowLeft"":21,""ArrowDown,ArrowRight"":7}","false","ArrowDown,ArrowRight","","revaluation","1","16","","",""
"html-keyboard-response","242","1126151","0.0-4.0-4.0-1.8","spark_pilot_norest","11005","6","8","Female","","","","","","","null","<div style=""font-size:60px;"">+</div>","null","fixation","","","","","","","","","17","","",""
"revaluation","243","1130157","0.0-4.0-4.0-0.9","spark_pilot_norest","11005","6","8","Female","","false","","","","","[121]","./assets/img/canyon/animals/giraffe.jpg","[""ArrowRight""]","revaluation","canyon","15","{""ArrowUp,ArrowLeft"":27,""ArrowUp,ArrowRight"":15,""ArrowDown,ArrowLeft"":21,""ArrowDown,ArrowRight"":7}","false","ArrowUp,ArrowRight","","revaluation","1","18","","",""
"html-keyboard-response","244","1130659","0.0-4.0-4.0-1.9","spark_pilot_norest","11005","6","8","Female","","","","","","","null","<div style=""font-size:60px;"">+</div>","null","fixation","","","","","","","","","19","","",""
"revaluation","245","1134663","0.0-4.0-4.0-0.10","spark_pilot_norest","11005","6","8","Female","","false","","","","","[209.30000001192093]","./assets/img/canyon/animals/giraffe.jpg","[""ArrowRight""]","revaluation","canyon","15","{""ArrowUp,ArrowLeft"":27,""ArrowUp,ArrowRight"":15,""ArrowDown,ArrowLeft"":21,""ArrowDown,ArrowRight"":7}","false","ArrowUp,ArrowRight","","revaluation","1","20","","",""
"html-keyboard-response","246","1135165","0.0-4.0-4.0-1.10","spark_pilot_norest","11005","6","8","Female","","","","","","","null","<div style=""font-size:60px;"">+</div>","null","fixation","","","","","","","","","21","","",""
"revaluation","247","1139171","0.0-4.0-4.0-0.11","spark_pilot_norest","11005","6","8","Female","","false","","","","","[1237]","./assets/img/canyon/animals/lion.jpg","[""ArrowRight""]","revaluation","canyon","7","{""ArrowUp,ArrowLeft"":27,""ArrowUp,ArrowRight"":15,""ArrowDown,ArrowLeft"":21,""ArrowDown,ArrowRight"":7}","false","ArrowDown,ArrowRight","","revaluation","1","22","","",""
"html-keyboard-response","248","1139673","0.0-4.0-4.0-1.11","spark_pilot_norest","11005","6","8","Female","","","","","","","null","<div style=""font-size:60px;"">+</div>","null","fixation","","","","","","","","","23","","",""
"revaluation","249","1143677","0.0-4.0-4.0-0.12","spark_pilot_norest","11005","6","8","Female","","false","","","","","[748.5999999642372]","./assets/img/canyon/animals/lion.jpg","[""ArrowRight""]","revaluation","canyon","7","{""ArrowUp,ArrowLeft"":27,""ArrowUp,ArrowRight"":15,""ArrowDown,ArrowLeft"":21,""ArrowDown,ArrowRight"":7}","false","ArrowDown,ArrowRight","","revaluation","1","24","","",""
"html-keyboard-response","250","1144179","0.0-4.0-4.0-1.12","spark_pilot_norest","11005","6","8","Female","","","","","","","null","<div style=""font-size:60px;"">+</div>","null","fixation","","","","","","","","","25","","",""
"revaluation","251","1148181","0.0-4.0-4.0-0.13","spark_pilot_norest","11005","6","8","Female","","false","","","","","[159.79999995231628]","./assets/img/canyon/animals/giraffe.jpg","[""ArrowRight""]","revaluation","canyon","15","{""ArrowUp,ArrowLeft"":27,""ArrowUp,ArrowRight"":15,""ArrowDown,ArrowLeft"":21,""ArrowDown,ArrowRight"":7}","false","ArrowUp,ArrowRight","","revaluation","1","26","","",""
"html-keyboard-response","252","1148682","0.0-4.0-4.0-1.13","spark_pilot_norest","11005","6","8","Female","","","","","","","null","<div style=""font-size:60px;"">+</div>","null","fixation","","","","","","","","","27","","",""
"revaluation","253","1152686","0.0-4.0-4.0-0.14","spark_pilot_norest","11005","6","8","Female","","false","","","","","[289.2999999523163]","./assets/img/canyon/animals/lion.jpg","[""ArrowRight""]","revaluation","canyon","7","{""ArrowUp,ArrowLeft"":27,""ArrowUp,ArrowRight"":15,""ArrowDown,ArrowLeft"":21,""ArrowDown,ArrowRight"":7}","false","ArrowDown,ArrowRight","","revaluation","1","28","","",""
"html-keyboard-response","254","1153192","0.0-4.0-4.0-1.14","spark_pilot_norest","11005","6","8","Female","","","","","","","null","<div style=""font-size:60px;"">+</div>","null","fixation","","","","","","","","","29","","",""
"revaluation","255","1157197","0.0-4.0-4.0-0.15","spark_pilot_norest","11005","6","8","Female","","false","","","","","[181.10000002384186]","./assets/img/canyon/animals/giraffe.jpg","[""ArrowRight""]","revaluation","canyon","15","{""ArrowUp,ArrowLeft"":27,""ArrowUp,ArrowRight"":15,""ArrowDown,ArrowLeft"":21,""ArrowDown,ArrowRight"":7}","false","ArrowUp,ArrowRight","","revaluation","1","30","","",""
"html-keyboard-response","256","1157707","0.0-4.0-4.0-1.15","spark_pilot_norest","11005","6","8","Female","","","","","","","null","<div style=""font-size:60px;"">+</div>","null","fixation","","","","","","","","","31","","",""
"revaluation","257","1161712","0.0-4.0-4.0-0.16","spark_pilot_norest","11005","6","8","Female","","false","","","","","[219.5999999642372]","./assets/img/canyon/animals/giraffe.jpg","[""ArrowRight""]","revaluation","canyon","15","{""ArrowUp,ArrowLeft"":27,""ArrowUp,ArrowRight"":15,""ArrowDown,ArrowLeft"":21,""ArrowDown,ArrowRight"":7}","false","ArrowUp,ArrowRight","","revaluation","1","32","","",""
"html-keyboard-response","258","1162213","0.0-4.0-4.0-1.16","spark_pilot_norest","11005","6","8","Female","","","","","","","null","<div style=""font-size:60px;"">+</div>","null","fixation","","","","","","","","","33","","",""
"revaluation","259","1166217","0.0-4.0-4.0-0.17","spark_pilot_norest","11005","6","8","Female","","false","","","","","[172.5999999642372]","./assets/img/canyon/animals/giraffe.jpg","[""ArrowRight""]","revaluation","canyon","15","{""ArrowUp,ArrowLeft"":27,""ArrowUp,ArrowRight"":15,""ArrowDown,ArrowLeft"":21,""ArrowDown,ArrowRight"":7}","false","ArrowUp,ArrowRight","","revaluation","1","34","","",""
"html-keyboard-response","260","1166719","0.0-4.0-4.0-1.17","spark_pilot_norest","11005","6","8","Female","","","","","","","null","<div style=""font-size:60px;"">+</div>","null","fixation","","","","","","","","","35","","",""
"learning-instructions","261","1174838","0.0-4.0-5.0-0.0","spark_pilot_norest","11005","6","8","Female","","","","","","","null","<p> You have almost finished this part of the game! </p>
            <p> We are going to ask you to make a few more choices. </p>","","instructions","","","","","","","","","","","",""
"learning-instructions","262","1190805","0.0-4.0-5.0-0.1","spark_pilot_norest","11005","6","8","Female","","","","","","","null","<p> First, you need to decide whether to go up or down. When you see each picture, use the arrow keys to make your choice. </p>
            <p><b>You will not see which animal you found, but try to get to the one that will give you the most treasure.</b></p>","","instructions","","","","","","","","","","","",""
"html-keyboard-response","263","1191806","0.0-4.0-6.0-0.0","spark_pilot_norest","11005","6","8","Female","","","","","","","null","<div style=""font-size:100px;color:red;"">Starting in...</div>","null","","","","","","","","","","","","",""
"html-keyboard-response","264","1192813","0.0-4.0-6.0-1.0","spark_pilot_norest","11005","6","8","Female","","","","","","","null","<div style=""font-size:200px;color:red;"">3</div>","null","","","","","","","","","","","","",""
"html-keyboard-response","265","1193826","0.0-4.0-6.0-2.0","spark_pilot_norest","11005","6","8","Female","","","","","","","null","<div style=""font-size:200px;color:red;"">2</div>","null","","","","","","","","","","","","",""
"html-keyboard-response","266","1194840","0.0-4.0-6.0-3.0","spark_pilot_norest","11005","6","8","Female","","","","","","","null","<div style=""font-size:200px;color:red;"">1</div>","null","","","","","","","","","","","","",""
"revaluation","267","1195988","0.0-4.0-7.0-0.0","spark_pilot_norest","11005","6","8","Female","","false","","","","","[1144]","./assets/img/canyon/test/3.jpg","[""ArrowUp""]","first stage test","canyon","0","{""ArrowUp,ArrowLeft"":27,""ArrowUp,ArrowRight"":15,""ArrowDown,ArrowLeft"":21,""ArrowDown,ArrowRight"":7}","true","ArrowUp","false","revaluation","1","","","",""
"html-keyboard-response","268","1196494","0.0-4.0-7.0-1.0","spark_pilot_norest","11005","6","8","Female","","","","","","","null","<div style=""font-size:60px;"">+</div>","null","fixation","","","","","","","","","","","",""
"revaluation","269","1197027","0.0-4.0-7.0-0.1","spark_pilot_norest","11005","6","8","Female","","false","","","","","[529.8999999761581]","./assets/img/canyon/test/0.jpg","[""ArrowUp""]","first stage test","canyon","0","{""ArrowUp,ArrowLeft"":27,""ArrowUp,ArrowRight"":15,""ArrowDown,ArrowLeft"":21,""ArrowDown,ArrowRight"":7}","true","ArrowUp","false","revaluation","1","","","",""
"html-keyboard-response","270","1197539","0.0-4.0-7.0-1.1","spark_pilot_norest","11005","6","8","Female","","","","","","","null","<div style=""font-size:60px;"">+</div>","null","fixation","","","","","","","","","","","",""
"revaluation","271","1198004","0.0-4.0-7.0-0.2","spark_pilot_norest","11005","6","8","Female","","false","","","","","[461.69999998807907]","./assets/img/canyon/test/2.jpg","[""ArrowUp""]","first stage test","canyon","0","{""ArrowUp,ArrowLeft"":27,""ArrowUp,ArrowRight"":15,""ArrowDown,ArrowLeft"":21,""ArrowDown,ArrowRight"":7}","true","ArrowUp","false","revaluation","1","","","",""
"html-keyboard-response","272","1198506","0.0-4.0-7.0-1.2","spark_pilot_norest","11005","6","8","Female","","","","","","","null","<div style=""font-size:60px;"">+</div>","null","fixation","","","","","","","","","","","",""
"revaluation","273","1199015","0.0-4.0-7.0-0.3","spark_pilot_norest","11005","6","8","Female","","false","","","","","[508.10000002384186]","./assets/img/canyon/test/1.jpg","[""ArrowUp""]","first stage test","canyon","0","{""ArrowUp,ArrowLeft"":27,""ArrowUp,ArrowRight"":15,""ArrowDown,ArrowLeft"":21,""ArrowDown,ArrowRight"":7}","true","ArrowUp","false","revaluation","1","","","",""
"html-keyboard-response","274","1199518","0.0-4.0-7.0-1.3","spark_pilot_norest","11005","6","8","Female","","","","","","","null","<div style=""font-size:60px;"">+</div>","null","fixation","","","","","","","","","","","",""
"learning-instructions","275","1212867","0.0-4.0-8.0-0.0","spark_pilot_norest","11005","6","8","Female","","","","","","","null","<p> Now you will see the animals again and can search their chests for treasure. </p>
            <p> This time, you will not see how much treasure you earned, but you will earn more bonus money for making better choices. </p>","","instructions","","","","","","","","","","","",""
"html-keyboard-response","276","1213880","0.0-4.0-9.0-0.0","spark_pilot_norest","11005","6","8","Female","","","","","","","null","<div style=""font-size:100px;color:red;"">Starting in...</div>","null","","","","","","","","","","","","",""
"html-keyboard-response","277","1214894","0.0-4.0-9.0-1.0","spark_pilot_norest","11005","6","8","Female","","","","","","","null","<div style=""font-size:200px;color:red;"">3</div>","null","","","","","","","","","","","","",""
"html-keyboard-response","278","1215907","0.0-4.0-9.0-2.0","spark_pilot_norest","11005","6","8","Female","","","","","","","null","<div style=""font-size:200px;color:red;"">2</div>","null","","","","","","","","","","","","",""
"html-keyboard-response","279","1216922","0.0-4.0-9.0-3.0","spark_pilot_norest","11005","6","8","Female","","","","","","","null","<div style=""font-size:200px;color:red;"">1</div>","null","","","","","","","","","","","","",""
"revaluation","280","1218532","0.0-4.0-10.0-0.0","spark_pilot_norest","11005","6","8","Female","","false","","","","","[1606.6000000238419]","./assets/img/canyon/animals/giraffe.jpg","[""ArrowRight""]","second stage test","canyon","0","{""ArrowUp,ArrowLeft"":27,""ArrowUp,ArrowRight"":15,""ArrowDown,ArrowLeft"":21,""ArrowDown,ArrowRight"":7}","false","ArrowUp,ArrowRight","","revaluation","1","","","",""
"html-keyboard-response","281","1219041","0.0-4.0-10.0-1.0","spark_pilot_norest","11005","6","8","Female","","","","","","","null","<div style=""font-size:60px;"">+</div>","null","fixation","","","","","","","","","","","",""
"revaluation","282","1219690","0.0-4.0-10.0-0.1","spark_pilot_norest","11005","6","8","Female","","false","","","","","[644.8000000119209]","./assets/img/canyon/animals/giraffe.jpg","[""ArrowLeft""]","second stage test","canyon","0","{""ArrowUp,ArrowLeft"":27,""ArrowUp,ArrowRight"":15,""ArrowDown,ArrowLeft"":21,""ArrowDown,ArrowRight"":7}","true","ArrowUp,ArrowLeft","","revaluation","1","","","",""
"html-keyboard-response","283","1220193","0.0-4.0-10.0-1.1","spark_pilot_norest","11005","6","8","Female","","","","","","","null","<div style=""font-size:60px;"">+</div>","null","fixation","","","","","","","","","","","",""
"revaluation","284","1220682","0.0-4.0-10.0-0.2","spark_pilot_norest","11005","6","8","Female","","false","","","","","[484.89999997615814]","./assets/img/canyon/animals/giraffe.jpg","[""ArrowRight""]","second stage test","canyon","0","{""ArrowUp,ArrowLeft"":27,""ArrowUp,ArrowRight"":15,""ArrowDown,ArrowLeft"":21,""ArrowDown,ArrowRight"":7}","false","ArrowUp,ArrowRight","","revaluation","1","","","",""
"html-keyboard-response","285","1221194","0.0-4.0-10.0-1.2","spark_pilot_norest","11005","6","8","Female","","","","","","","null","<div style=""font-size:60px;"">+</div>","null","fixation","","","","","","","","","","","",""
"revaluation","286","1221655","0.0-4.0-10.0-0.3","spark_pilot_norest","11005","6","8","Female","","false","","","","","[457.5]","./assets/img/canyon/animals/giraffe.jpg","[""ArrowLeft""]","second stage test","canyon","0","{""ArrowUp,ArrowLeft"":27,""ArrowUp,ArrowRight"":15,""ArrowDown,ArrowLeft"":21,""ArrowDown,ArrowRight"":7}","true","ArrowUp,ArrowLeft","","revaluation","1","","","",""
"html-keyboard-response","287","1222163","0.0-4.0-10.0-1.3","spark_pilot_norest","11005","6","8","Female","","","","","","","null","<div style=""font-size:60px;"">+</div>","null","fixation","","","","","","","","","","","",""
"revaluation","288","1222795","0.0-4.0-10.0-0.4","spark_pilot_norest","11005","6","8","Female","","false","","","","","[630]","./assets/img/canyon/animals/lion.jpg","[""ArrowRight""]","second stage test","canyon","0","{""ArrowUp,ArrowLeft"":27,""ArrowUp,ArrowRight"":15,""ArrowDown,ArrowLeft"":21,""ArrowDown,ArrowRight"":7}","false","ArrowDown,ArrowRight","","revaluation","1","","","",""
"html-keyboard-response","289","1223300","0.0-4.0-10.0-1.4","spark_pilot_norest","11005","6","8","Female","","","","","","","null","<div style=""font-size:60px;"">+</div>","null","fixation","","","","","","","","","","","",""
"revaluation","290","1223780","0.0-4.0-10.0-0.5","spark_pilot_norest","11005","6","8","Female","","false","","","","","[476.9000000357628]","./assets/img/canyon/animals/lion.jpg","[""ArrowLeft""]","second stage test","canyon","0","{""ArrowUp,ArrowLeft"":27,""ArrowUp,ArrowRight"":15,""ArrowDown,ArrowLeft"":21,""ArrowDown,ArrowRight"":7}","true","ArrowDown,ArrowLeft","","revaluation","1","","","",""
"html-keyboard-response","291","1224282","0.0-4.0-10.0-1.5","spark_pilot_norest","11005","6","8","Female","","","","","","","null","<div style=""font-size:60px;"">+</div>","null","fixation","","","","","","","","","","","",""
"revaluation","292","1224715","0.0-4.0-10.0-0.6","spark_pilot_norest","11005","6","8","Female","","false","","","","","[428.5]","./assets/img/canyon/animals/lion.jpg","[""ArrowRight""]","second stage test","canyon","0","{""ArrowUp,ArrowLeft"":27,""ArrowUp,ArrowRight"":15,""ArrowDown,ArrowLeft"":21,""ArrowDown,ArrowRight"":7}","false","ArrowDown,ArrowRight","","revaluation","1","","","",""
"html-keyboard-response","293","1225218","0.0-4.0-10.0-1.6","spark_pilot_norest","11005","6","8","Female","","","","","","","null","<div style=""font-size:60px;"">+</div>","null","fixation","","","","","","","","","","","",""
"revaluation","294","1225825","0.0-4.0-10.0-0.7","spark_pilot_norest","11005","6","8","Female","","false","","","","","[603.2999999523163]","./assets/img/canyon/animals/lion.jpg","[""ArrowRight""]","second stage test","canyon","0","{""ArrowUp,ArrowLeft"":27,""ArrowUp,ArrowRight"":15,""ArrowDown,ArrowLeft"":21,""ArrowDown,ArrowRight"":7}","false","ArrowDown,ArrowRight","","revaluation","1","","","",""
"html-keyboard-response","295","1226340","0.0-4.0-10.0-1.7","spark_pilot_norest","11005","6","8","Female","","","","","","","null","<div style=""font-size:60px;"">+</div>","null","fixation","","","","","","","","","","","",""
"learning-instructions","296","1271973","0.0-4.0-0.1-0.2","spark_pilot_norest","11005","6","8","Female","","","","","","","42928.39999997616","<p> This time you are searching for treasure in the <b>ocean</b>.</p>","","instructions","","","","","","","","","","","",""
"learning-instructions","297","1291729","0.0-4.0-0.1-0.3","spark_pilot_norest","11005","6","8","Female","","","","","","","2495.199999988079","<p><b>New</b> animals with <b>new</b> treasure chests live here. You need to explore to discover where the animal with the best treasure chest is.</p>
                    <p> Like before, once you figure out which animal has the chest with the most treasure, you should try to get to that animal and select that chest! </p>","","instructions","","","","","","","","","","","",""
"learning-instructions","298","1308402","0.0-4.0-1.1-0.1","spark_pilot_norest","11005","6","8","Female","","","","","","","1948","<p> Remember, when you see a picture of the place, use the up and down keys to <b>find an animal</b>.</p>
            <p> When you encounter an animal, you should use the left and right keys to <b>select a treasure chest</b>.</p>
            <p> Don't forget to look out for the robber! </p>","","instructions","","","","","","","","","","","",""
"revaluation","299","1314434","0.0-4.0-2.1-0.50","spark_pilot_norest","11005","6","8","Female","","false","","","","","[1618.5,817.3999999761581]","./assets/img/ocean/memory/19.jpg","[""ArrowUp"",""ArrowRight""]","value training","ocean","10","{""ArrowUp,ArrowLeft"":26,""ArrowUp,ArrowRight"":10,""ArrowDown,ArrowLeft"":5,""ArrowDown,ArrowRight"":17}","false","ArrowUp,ArrowRight","false","original","2","0","","",""
"html-keyboard-response","300","1314948","0.0-4.0-2.1-1.50","spark_pilot_norest","11005","6","8","Female","","","","","","","null","<div style=""font-size:60px;"">+</div>","null","fixation","","","","","","","","","1","","",""
"revaluation","301","1320983","0.0-4.0-2.1-0.51","spark_pilot_norest","11005","6","8","Female","","false","","","","","[631.1000000238419,552.1999999880791]","./assets/img/ocean/memory/26.jpg","[""ArrowUp"",""ArrowRight""]","value training","ocean","10","{""ArrowUp,ArrowLeft"":26,""ArrowUp,ArrowRight"":10,""ArrowDown,ArrowLeft"":5,""ArrowDown,ArrowRight"":17}","false","ArrowUp,ArrowRight","false","original","2","2","","",""
"html-keyboard-response","302","1321497","0.0-4.0-2.1-1.51","spark_pilot_norest","11005","6","8","Female","","","","","","","null","<div style=""font-size:60px;"">+</div>","null","fixation","","","","","","","","","3","","",""
"revaluation","303","1327525","0.0-4.0-2.1-0.52","spark_pilot_norest","11005","6","8","Female","","false","","","","","[1076.800000011921,959.9000000357628]","./assets/img/ocean/memory/24.jpg","[""ArrowUp"",""ArrowRight""]","value training","ocean","10","{""ArrowUp,ArrowLeft"":26,""ArrowUp,ArrowRight"":10,""ArrowDown,ArrowLeft"":5,""ArrowDown,ArrowRight"":17}","false","ArrowUp,ArrowRight","false","original","2","4","","",""
"html-keyboard-response","304","1328035","0.0-4.0-2.1-1.52","spark_pilot_norest","11005","6","8","Female","","","","","","","null","<div style=""font-size:60px;"">+</div>","null","fixation","","","","","","","","","5","","",""
"revaluation","305","1332057","0.0-4.0-2.1-0.53","spark_pilot_norest","11005","6","8","Female","","false","","","","","[1108]","./assets/img/ocean/catch/5.jpg","[""spaceBar""]","value training","ocean","0","{""ArrowUp,ArrowLeft"":26,""ArrowUp,ArrowRight"":10,""ArrowDown,ArrowLeft"":5,""ArrowDown,ArrowRight"":17}","true","spaceBar","true","original","2","6","","",""
"html-keyboard-response","306","1332569","0.0-4.0-2.1-1.53","spark_pilot_norest","11005","6","8","Female","","","","","","","null","<div style=""font-size:60px;"">+</div>","null","fixation","","","","","","","","","7","","",""
"revaluation","307","1338596","0.0-4.0-2.1-0.54","spark_pilot_norest","11005","6","8","Female","","true","","","","","[1570.300000011921]","./assets/img/ocean/memory/25.jpg","[""ArrowDown""]","value training","ocean","-5","{""ArrowUp,ArrowLeft"":26,""ArrowUp,ArrowRight"":10,""ArrowDown,ArrowLeft"":5,""ArrowDown,ArrowRight"":17}","false","ArrowDown","false","original","2","8","","",""
"html-keyboard-response","308","1339098","0.0-4.0-2.1-1.54","spark_pilot_norest","11005","6","8","Female","","","","","","","null","<div style=""font-size:60px;"">+</div>","null","fixation","","","","","","","","","9","","",""
"revaluation","309","1345104","0.0-4.0-2.1-0.55","spark_pilot_norest","11005","6","8","Female","","false","","","","","[922.5,395.60000002384186]","./assets/img/ocean/memory/31.jpg","[""ArrowUp"",""ArrowLeft""]","value training","ocean","26","{""ArrowUp,ArrowLeft"":26,""ArrowUp,ArrowRight"":10,""ArrowDown,ArrowLeft"":5,""ArrowDown,ArrowRight"":17}","true","ArrowUp,ArrowLeft","false","original","2","10","","",""
"html-keyboard-response","310","1345606","0.0-4.0-2.1-1.55","spark_pilot_norest","11005","6","8","Female","","","","","","","null","<div style=""font-size:60px;"">+</div>","null","fixation","","","","","","","","","11","","",""
"revaluation","311","1351613","0.0-4.0-2.1-0.56","spark_pilot_norest","11005","6","8","Female","","false","","","","","[979.6000000238419,675.3999999761581]","./assets/img/ocean/memory/23.jpg","[""ArrowUp"",""ArrowLeft""]","value training","ocean","26","{""ArrowUp,ArrowLeft"":26,""ArrowUp,ArrowRight"":10,""ArrowDown,ArrowLeft"":5,""ArrowDown,ArrowRight"":17}","true","ArrowUp,ArrowLeft","false","original","2","12","","",""
"html-keyboard-response","312","1352115","0.0-4.0-2.1-1.56","spark_pilot_norest","11005","6","8","Female","","","","","","","null","<div style=""font-size:60px;"">+</div>","null","fixation","","","","","","","","","13","","",""
"revaluation","313","1358120","0.0-4.0-2.1-0.57","spark_pilot_norest","11005","6","8","Female","","false","","","","","[694.0999999642372,71.59999996423721]","./assets/img/ocean/memory/13.jpg","[""ArrowUp"",""ArrowLeft""]","value training","ocean","26","{""ArrowUp,ArrowLeft"":26,""ArrowUp,ArrowRight"":10,""ArrowDown,ArrowLeft"":5,""ArrowDown,ArrowRight"":17}","true","ArrowUp,ArrowLeft","false","original","2","14","","",""
"html-keyboard-response","314","1358621","0.0-4.0-2.1-1.57","spark_pilot_norest","11005","6","8","Female","","","","","","","null","<div style=""font-size:60px;"">+</div>","null","fixation","","","","","","","","","15","","",""
"revaluation","315","1362628","0.0-4.0-2.1-0.58","spark_pilot_norest","11005","6","8","Female","","false","","","","","[608.1000000238419]","./assets/img/ocean/catch/3.jpg","[""ArrowUp""]","value training","ocean","-10","{""ArrowUp,ArrowLeft"":26,""ArrowUp,ArrowRight"":10,""ArrowDown,ArrowLeft"":5,""ArrowDown,ArrowRight"":17}","false","ArrowUp","true","original","2","16","","",""
