"trial_type","trial_index","time_elapsed","internal_node_id","task_version","subject_id","assigned_condition","age","gender","success","timeout","failed_images","failed_audio","failed_video","browser_interaction","rt","stimulus","response","task_part","environment","score","rewardMap","correct","fullState","isCatch","condition","order","trial_num","key_press","ground_truth","bonus"
"pavlovia","0","1593","0.0-0.0","spark_pilot_norest","10521","6","16","Female","","","","","","","","","","","","","","","","","","","","","",""
"preload","1","40044","0.0-1.0","spark_pilot_norest","10521","6","16","Female","true","false","[]","[]","[]","[{""event"":""fullscreenenter"",""trial"":2,""time"":46113}]","","","","","","","","","","","","","","","",""
"fullscreen","2","47106","0.0-2.0","spark_pilot_norest","10521","6","16","Female","true","","","","","","","","","","","","","","","","","","","","",""
"audio-button-response","3","48931","0.0-3.0-0.0-0.0","spark_pilot_norest","10521","6","16","Female","","","","","","","1653","./assets/audio/audiotest/turtle.mp3","2","audio_test","","","","","","","","","","","",""
"learning-instructions","4","59226","0.0-3.0-1.0-0.0","spark_pilot_norest","10521","6","16","Female","","","","","","","3307.600000000559","<p> Welcome! Please remember to stay in fullscreen mode and don't click away from the experiment. </p>","","instructions","","","","","","","","","","","",""
"learning-instructions","5","69176","0.0-3.0-1.0-0.1","spark_pilot_norest","10521","6","16","Female","","","","","","","1524.8999999994412","<p> Today you will be playing a game to earn treasure. </p>
            <p> At the end of the experiment, you will earn a bonus based on how much treasure you find. </p>
            <img src='./assets/img/instructions/treasure.jpg' class='instructions-image'>","","instructions","","","","","","","","","","","",""
"learning-instructions","6","78802","0.0-3.0-1.0-0.2","spark_pilot_norest","10521","6","16","Female","","","","","","","1360.0999999996275","<p> Animals have hidden treasure in treasure chests. </p>
            <p> You need to first find an animal and then choose which of their treasure chests to search. </p>
            <img src='./assets/img/space/animals/cat.jpg' class='instructions-image'>","","instructions","","","","","","","","","","","",""
"learning-instructions","7","93035","0.0-3.0-1.0-0.3","spark_pilot_norest","10521","6","16","Female","","","","","","","1074.2000000001863","<p> In each round, you will search for treasure in a different place. In the real game, there will be two rounds. </p>
            <p> You will begin with a separate, practice round where you will search for treasure in outer space. </p>
            <img src='./assets/img/space/0.jpg' class='instructions-image'>","","instructions","","","","","","","","","","","",""
"learning-instructions","8","105814","0.0-3.0-1.0-0.4","spark_pilot_norest","10521","6","16","Female","","","","","","","1359.2999999998137","<p> On every turn, you will see a picture of the place that you are in, but the specific image may be different each time. </p>
            <p> For example, both of these images mean you are in outer space. </p>
            <img src='./assets/img/instructions/outerspace.jpg' class='instructions-image'>","","instructions","","","","","","","","","","","",""
"learning-instructions","9","115633","0.0-3.0-1.0-0.5","spark_pilot_norest","10521","6","16","Female","","","","","","","1976.5999999996275","<p> You need to decide which direction to travel in. </p>
            <p> You can choose between going <b>up or down</b> by using the arrow keys. </p>
            <img src='./assets/img/instructions/updown.jpg' class='instructions-image'>","","instructions","","","","","","","","","","","",""
"learning-instructions","10","126420","0.0-3.0-1.0-0.6","spark_pilot_norest","10521","6","16","Female","","","","","","","1958.199999999255","<p> You will have <b>2 seconds</b> to make your choice. </p>
            <p> If you do not make a choice within 2 seconds, you will not find an animal or earn treasure. </p>
            <img src='./assets/img/instructions/2seconds.jpg' class='instructions-image'>","","instructions","","","","","","","","","","","",""
"learning-instructions","11","135197","0.0-3.0-1.0-0.7","spark_pilot_norest","10521","6","16","Female","","","","","","","1732.699999999255","<p> Let’s try practicing that now! </p>
            <p> When you see a picture of the place you are in, press the <b>up</b> key to travel up. </p>
            <img src='./assets/img/instructions/pressUp.jpg' class='instructions-image'>","","instructions","","","","","","","","","","","",""
"revaluation","12","139228","0.0-3.0-2.0-0.0","spark_pilot_norest","10521","6","16","Female","","true","","","","","[]","./assets/img/space/0.jpg","[]","first stage practice","space","-5","null","null","","false","","","","","",""
"html-keyboard-response","13","139739","0.0-3.0-2.0-1.0","spark_pilot_norest","10521","6","16","Female","","","","","","","null","<div style=""font-size:60px;"">+</div>","null","fixation","","","","","","","","","","","",""
"revaluation","14","143763","0.0-3.0-2.0-0.1","spark_pilot_norest","10521","6","16","Female","","true","","","","","[]","./assets/img/space/1.jpg","[]","first stage practice","space","-5","null","null","","false","","","","","",""
"html-keyboard-response","15","144267","0.0-3.0-2.0-1.1","spark_pilot_norest","10521","6","16","Female","","","","","","","null","<div style=""font-size:60px;"">+</div>","null","fixation","","","","","","","","","","","",""
"revaluation","16","148291","0.0-3.0-2.0-0.2","spark_pilot_norest","10521","6","16","Female","","false","","","","","[361.5]","./assets/img/space/2.jpg","[""ArrowUp""]","first stage practice","space","0","null","null","ArrowUp","false","","","","","",""
"html-keyboard-response","17","148795","0.0-3.0-2.0-1.2","spark_pilot_norest","10521","6","16","Female","","","","","","","null","<div style=""font-size:60px;"">+</div>","null","fixation","","","","","","","","","","","",""
"learning-instructions","18","155706","0.0-3.0-3.0-0.0","spark_pilot_norest","10521","6","16","Female","","","","","","","2209.699999999255","<p> Great job! Now try pressing the <b>down</b> key to travel down. </p>
            <img src='./assets/img/instructions/pressDown.jpg' class='instructions-image'>","","instructions","","","","","","","","","","","",""
"revaluation","19","159724","0.0-3.0-4.0-0.0","spark_pilot_norest","10521","6","16","Female","","false","","","","","[776.2000000001863]","./assets/img/space/3.jpg","[""ArrowDown""]","first stage practice","space","0","null","null","ArrowDown","false","","","","","",""
"html-keyboard-response","20","160227","0.0-3.0-4.0-1.0","spark_pilot_norest","10521","6","16","Female","","","","","","","null","<div style=""font-size:60px;"">+</div>","null","fixation","","","","","","","","","","","",""
"revaluation","21","164251","0.0-3.0-4.0-0.1","spark_pilot_norest","10521","6","16","Female","","false","","","","","[620.0999999996275]","./assets/img/space/4.jpg","[""ArrowDown""]","first stage practice","space","0","null","null","ArrowDown","false","","","","","",""
"html-keyboard-response","22","164754","0.0-3.0-4.0-1.1","spark_pilot_norest","10521","6","16","Female","","","","","","","null","<div style=""font-size:60px;"">+</div>","null","fixation","","","","","","","","","","","",""
"revaluation","23","168771","0.0-3.0-4.0-0.2","spark_pilot_norest","10521","6","16","Female","","false","","","","","[1615]","./assets/img/space/5.jpg","[""ArrowDown""]","first stage practice","space","0","null","null","ArrowDown","false","","","","","",""
"html-keyboard-response","24","169274","0.0-3.0-4.0-1.2","spark_pilot_norest","10521","6","16","Female","","","","","","","null","<div style=""font-size:60px;"">+</div>","null","fixation","","","","","","","","","","","",""
"learning-instructions","25","180592","0.0-3.0-5.0-0.0","spark_pilot_norest","10521","6","16","Female","","","","","","","1464.1000000005588","<p> The animals don’t move, so the animal in the upper part of a place will stay in the upper part of a place, and the animal in the lower part of a place will stay in the lower part of a place. </p>","","instructions","","","","","","","","","","","",""
"learning-instructions","26","192323","0.0-3.0-5.0-0.1","spark_pilot_norest","10521","6","16","Female","","","","","","","2592.0999999996275","<p> Each animal has two treasure chests for you to choose from. </p>
            <p> The amount of treasure in each chest can range from <b> 0 to 40 pieces.</b></p>","","instructions","","","","","","","","","","","",""
"learning-instructions","27","205242","0.0-3.0-5.0-0.2","spark_pilot_norest","10521","6","16","Female","","","","","","","1730.7000000001863","<p> You should decide which chest to search for treasure by using the <b>left</b> and <b>right</b> arrow keys. </p>
            <p><b> Pay attention to which animal is on the screen, as the animals have different treasure chests. </b></p>
            <img src='./assets/img/instructions/leftright.jpg' class='instructions-image'>","","instructions","","","","","","","","","","","",""
"learning-instructions","28","216489","0.0-3.0-5.0-0.3","spark_pilot_norest","10521","6","16","Female","","","","","","","4870.299999999814","<p> Let’s try practicing that now. </p>
            <p> When you see an animal, choose which chest to search for treasure. </p>
            <img src='./assets/img/instructions/chooseChest.jpg' class='instructions-image'>","","instructions","","","","","","","","","","","",""
"revaluation","29","220508","0.0-3.0-6.0-0.0","spark_pilot_norest","10521","6","16","Female","","false","","","","","[525.7000000001863]","./assets/img/space/animals/cat.jpg","[""ArrowRight""]","second stage practice","space","36","{""ArrowUp,ArrowLeft"":3,""ArrowUp,ArrowRight"":36,""ArrowDown,ArrowLeft"":15,""ArrowDown,ArrowRight"":23}","true","ArrowUp,ArrowRight","","","","","","",""
"html-keyboard-response","30","221010","0.0-3.0-6.0-1.0","spark_pilot_norest","10521","6","16","Female","","","","","","","null","<div style=""font-size:60px;"">+</div>","null","fixation","","","","","","","","","","","",""
"revaluation","31","225027","0.0-3.0-6.0-0.1","spark_pilot_norest","10521","6","16","Female","","false","","","","","[605.8999999994412]","./assets/img/space/animals/rabbit.jpg","[""ArrowLeft""]","second stage practice","space","15","{""ArrowUp,ArrowLeft"":3,""ArrowUp,ArrowRight"":36,""ArrowDown,ArrowLeft"":15,""ArrowDown,ArrowRight"":23}","false","ArrowDown,ArrowLeft","","","","","","",""
"html-keyboard-response","32","225530","0.0-3.0-6.0-1.1","spark_pilot_norest","10521","6","16","Female","","","","","","","null","<div style=""font-size:60px;"">+</div>","null","fixation","","","","","","","","","","","",""
"revaluation","33","229548","0.0-3.0-6.0-0.2","spark_pilot_norest","10521","6","16","Female","","false","","","","","[457.70000000018626]","./assets/img/space/animals/rabbit.jpg","[""ArrowLeft""]","second stage practice","space","15","{""ArrowUp,ArrowLeft"":3,""ArrowUp,ArrowRight"":36,""ArrowDown,ArrowLeft"":15,""ArrowDown,ArrowRight"":23}","false","ArrowDown,ArrowLeft","","","","","","",""
"html-keyboard-response","34","230059","0.0-3.0-6.0-1.2","spark_pilot_norest","10521","6","16","Female","","","","","","","null","<div style=""font-size:60px;"">+</div>","null","fixation","","","","","","","","","","","",""
"revaluation","35","234075","0.0-3.0-6.0-0.3","spark_pilot_norest","10521","6","16","Female","","false","","","","","[562.9000000003725]","./assets/img/space/animals/cat.jpg","[""ArrowRight""]","second stage practice","space","36","{""ArrowUp,ArrowLeft"":3,""ArrowUp,ArrowRight"":36,""ArrowDown,ArrowLeft"":15,""ArrowDown,ArrowRight"":23}","true","ArrowUp,ArrowRight","","","","","","",""
"html-keyboard-response","36","234579","0.0-3.0-6.0-1.3","spark_pilot_norest","10521","6","16","Female","","","","","","","null","<div style=""font-size:60px;"">+</div>","null","fixation","","","","","","","","","","","",""
"learning-instructions","37","253322","0.0-3.0-7.0-0.0","spark_pilot_norest","10521","6","16","Female","","","","","","","1916.5999999996275","<p> Great job. Now let’s try putting it together. </p>
            <p> On each turn, you will first see a picture to remind you of the place you are in, and you need to choose whether to go up or down. </p>
            <p> Then you will see an animal and choose which of its chests to search for treasure. </p>","","instructions","","","","","","","","","","","",""
"learning-instructions","38","262334","0.0-3.0-7.0-0.1","spark_pilot_norest","10521","6","16","Female","","","","","","","743.5","<p> When you choose whether to go up or down, try to go to the animal with the chest with the most treasure. </p>
            <p> Try practicing that now! </p>","","instructions","","","","","","","","","","","",""
"revaluation","39","268364","0.0-3.0-8.0-0.0","spark_pilot_norest","10521","6","16","Female","","false","","","","","[556.0999999996275,453.1000000005588]","./assets/img/space/6.jpg","[""ArrowUp"",""ArrowRight""]","full practice","space","36","{""ArrowUp,ArrowLeft"":3,""ArrowUp,ArrowRight"":36,""ArrowDown,ArrowLeft"":15,""ArrowDown,ArrowRight"":23}","true","ArrowUp,ArrowRight","false","","","","","",""
"html-keyboard-response","40","268866","0.0-3.0-8.0-1.0","spark_pilot_norest","10521","6","16","Female","","","","","","","null","<div style=""font-size:60px;"">+</div>","null","fixation","","","","","","","","","","","",""
"revaluation","41","274891","0.0-3.0-8.0-0.1","spark_pilot_norest","10521","6","16","Female","","false","","","","","[615.2000000001863,550.7000000001863]","./assets/img/space/7.jpg","[""ArrowDown"",""ArrowRight""]","full practice","space","23","{""ArrowUp,ArrowLeft"":3,""ArrowUp,ArrowRight"":36,""ArrowDown,ArrowLeft"":15,""ArrowDown,ArrowRight"":23}","false","ArrowDown,ArrowRight","false","","","","","",""
"html-keyboard-response","42","275394","0.0-3.0-8.0-1.1","spark_pilot_norest","10521","6","16","Female","","","","","","","null","<div style=""font-size:60px;"">+</div>","null","fixation","","","","","","","","","","","",""
"revaluation","43","281420","0.0-3.0-8.0-0.2","spark_pilot_norest","10521","6","16","Female","","false","","","","","[327.70000000018626,603.1000000005588]","./assets/img/space/8.jpg","[""ArrowUp"",""ArrowRight""]","full practice","space","36","{""ArrowUp,ArrowLeft"":3,""ArrowUp,ArrowRight"":36,""ArrowDown,ArrowLeft"":15,""ArrowDown,ArrowRight"":23}","true","ArrowUp,ArrowRight","false","","","","","",""
"html-keyboard-response","44","281922","0.0-3.0-8.0-1.2","spark_pilot_norest","10521","6","16","Female","","","","","","","null","<div style=""font-size:60px;"">+</div>","null","fixation","","","","","","","","","","","",""
"revaluation","45","287947","0.0-3.0-8.0-0.3","spark_pilot_norest","10521","6","16","Female","","false","","","","","[437.29999999981374,298.90000000037253]","./assets/img/space/9.jpg","[""ArrowDown"",""ArrowRight""]","full practice","space","23","{""ArrowUp,ArrowLeft"":3,""ArrowUp,ArrowRight"":36,""ArrowDown,ArrowLeft"":15,""ArrowDown,ArrowRight"":23}","false","ArrowDown,ArrowRight","false","","","","","",""
"html-keyboard-response","46","288450","0.0-3.0-8.0-1.3","spark_pilot_norest","10521","6","16","Female","","","","","","","null","<div style=""font-size:60px;"">+</div>","null","fixation","","","","","","","","","","","",""
"revaluation","47","294476","0.0-3.0-8.0-0.4","spark_pilot_norest","10521","6","16","Female","","false","","","","","[439.3999999994412,612.9000000003725]","./assets/img/space/10.jpg","[""ArrowDown"",""ArrowRight""]","full practice","space","23","{""ArrowUp,ArrowLeft"":3,""ArrowUp,ArrowRight"":36,""ArrowDown,ArrowLeft"":15,""ArrowDown,ArrowRight"":23}","false","ArrowDown,ArrowRight","false","","","","","",""
"html-keyboard-response","48","294978","0.0-3.0-8.0-1.4","spark_pilot_norest","10521","6","16","Female","","","","","","","null","<div style=""font-size:60px;"">+</div>","null","fixation","","","","","","","","","","","",""
"learning-instructions","49","306955","0.0-3.0-9.0-0.0","spark_pilot_norest","10521","6","16","Female","","","","","","","1681.7000000001863","<p> One last thing: sometimes, you will see a robber. The robber can be anywhere in the picture. </p>
            <p> If you do not stop them, you will lose treasure. </p>
            <img src='./assets/img/instructions/robber.jpg' class='instructions-image'>","","instructions","","","","","","","","","","","",""
"learning-instructions","50","315908","0.0-3.0-9.0-0.1","spark_pilot_norest","10521","6","16","Female","","","","","","","1780.4000000003725","<p> If you see the robber, you should <b>press the space bar</b> rather than using the arrow keys. </p>
            <p> Try practicing that now! </p>","","instructions","","","","","","","","","","","",""
"revaluation","51","319923","0.0-3.0-10.0-0.0","spark_pilot_norest","10521","6","16","Female","","false","","","","","[340.6000000005588]","./assets/img/space/catch/0.jpg","[""spaceBar""]","catch practice","space","0","{""ArrowUp,ArrowLeft"":3,""ArrowUp,ArrowRight"":36,""ArrowDown,ArrowLeft"":15,""ArrowDown,ArrowRight"":23}","true","spaceBar","true","","","","","",""
"html-keyboard-response","52","320427","0.0-3.0-10.0-1.0","spark_pilot_norest","10521","6","16","Female","","","","","","","null","<div style=""font-size:60px;"">+</div>","null","fixation","","","","","","","","","","","",""
"revaluation","53","324443","0.0-3.0-10.0-0.1","spark_pilot_norest","10521","6","16","Female","","false","","","","","[701.2999999998137]","./assets/img/space/catch/1.jpg","[""spaceBar""]","catch practice","space","0","{""ArrowUp,ArrowLeft"":3,""ArrowUp,ArrowRight"":36,""ArrowDown,ArrowLeft"":15,""ArrowDown,ArrowRight"":23}","true","spaceBar","true","","","","","",""
"html-keyboard-response","54","324947","0.0-3.0-10.0-1.1","spark_pilot_norest","10521","6","16","Female","","","","","","","null","<div style=""font-size:60px;"">+</div>","null","fixation","","","","","","","","","","","",""
"revaluation","55","328963","0.0-3.0-10.0-0.2","spark_pilot_norest","10521","6","16","Female","","false","","","","","[543]","./assets/img/space/catch/2.jpg","[""spaceBar""]","catch practice","space","0","{""ArrowUp,ArrowLeft"":3,""ArrowUp,ArrowRight"":36,""ArrowDown,ArrowLeft"":15,""ArrowDown,ArrowRight"":23}","true","spaceBar","true","","","","","",""
"html-keyboard-response","56","329466","0.0-3.0-10.0-1.2","spark_pilot_norest","10521","6","16","Female","","","","","","","null","<div style=""font-size:60px;"">+</div>","null","fixation","","","","","","","","","","","",""
"learning-instructions","57","336273","0.0-3.0-11.0-0.0-0.0","spark_pilot_norest","10521","6","16","Female","","","","","","","1548.2000000001863","<p> Now, you will practice a shortened version of the game to get a sense of how it all fits together. </p>","","instructions","","","","","","","","","","","",""
"learning-instructions","58","341378","0.0-3.0-11.0-0.0-0.1","spark_pilot_norest","10521","6","16","Female","","","","","","","1906.5","<p>This time you are searching for treasure in outer space.</p>","","instructions","","","","","","","","","","","",""
"learning-instructions","59","357246","0.0-3.0-11.0-1.0-0.0","spark_pilot_norest","10521","6","16","Female","","","","","","","1102.1000000005588","<p> Remember, when you see a picture of the place, use the up and down keys to <b>find an animal</b>.</p>
            <p> When you encounter an animal, you should use the left and right keys to <b>select a treasure chest</b>.</p>
            <p> Don't forget to look out for the robber! </p>","","instructions","","","","","","","","","","","",""
"revaluation","60","363275","0.0-3.0-11.0-2.0-0.0","spark_pilot_norest","10521","6","16","Female","","false","","","","","[568.1000000005588,399.40000000037253]","./assets/img/space/11.jpg","[""ArrowDown"",""ArrowRight""]","practice block","space","23","{""ArrowUp,ArrowLeft"":3,""ArrowUp,ArrowRight"":36,""ArrowDown,ArrowLeft"":15,""ArrowDown,ArrowRight"":23}","false","ArrowDown,ArrowRight","false","","","","","",""
"html-keyboard-response","61","363779","0.0-3.0-11.0-2.0-1.0","spark_pilot_norest","10521","6","16","Female","","","","","","","null","<div style=""font-size:60px;"">+</div>","null","fixation","","","","","","","","","","","",""
"revaluation","62","369803","0.0-3.0-11.0-2.0-0.1","spark_pilot_norest","10521","6","16","Female","","false","","","","","[429.3999999994412,741.5]","./assets/img/space/12.jpg","[""ArrowDown"",""ArrowRight""]","practice block","space","23","{""ArrowUp,ArrowLeft"":3,""ArrowUp,ArrowRight"":36,""ArrowDown,ArrowLeft"":15,""ArrowDown,ArrowRight"":23}","false","ArrowDown,ArrowRight","false","","","","","",""
"html-keyboard-response","63","370307","0.0-3.0-11.0-2.0-1.1","spark_pilot_norest","10521","6","16","Female","","","","","","","null","<div style=""font-size:60px;"">+</div>","null","fixation","","","","","","","","","","","",""
"revaluation","64","376331","0.0-3.0-11.0-2.0-0.2","spark_pilot_norest","10521","6","16","Female","","false","","","","","[369.59999999962747,472.09999999962747]","./assets/img/space/13.jpg","[""ArrowUp"",""ArrowRight""]","practice block","space","36","{""ArrowUp,ArrowLeft"":3,""ArrowUp,ArrowRight"":36,""ArrowDown,ArrowLeft"":15,""ArrowDown,ArrowRight"":23}","true","ArrowUp,ArrowRight","false","","","","","",""
"html-keyboard-response","65","376835","0.0-3.0-11.0-2.0-1.2","spark_pilot_norest","10521","6","16","Female","","","","","","","null","<div style=""font-size:60px;"">+</div>","null","fixation","","","","","","","","","","","",""
"revaluation","66","382859","0.0-3.0-11.0-2.0-0.3","spark_pilot_norest","10521","6","16","Female","","false","","","","","[642.8000000007451,445.29999999981374]","./assets/img/space/14.jpg","[""ArrowDown"",""ArrowRight""]","practice block","space","23","{""ArrowUp,ArrowLeft"":3,""ArrowUp,ArrowRight"":36,""ArrowDown,ArrowLeft"":15,""ArrowDown,ArrowRight"":23}","false","ArrowDown,ArrowRight","false","","","","","",""
"html-keyboard-response","67","383362","0.0-3.0-11.0-2.0-1.3","spark_pilot_norest","10521","6","16","Female","","","","","","","null","<div style=""font-size:60px;"">+</div>","null","fixation","","","","","","","","","","","",""
"revaluation","68","389379","0.0-3.0-11.0-2.0-0.4","spark_pilot_norest","10521","6","16","Female","","false","","","","","[745.7999999998137,480.90000000037253]","./assets/img/space/11.jpg","[""ArrowUp"",""ArrowRight""]","practice block","space","36","{""ArrowUp,ArrowLeft"":3,""ArrowUp,ArrowRight"":36,""ArrowDown,ArrowLeft"":15,""ArrowDown,ArrowRight"":23}","true","ArrowUp,ArrowRight","false","","","","","",""
"html-keyboard-response","69","389882","0.0-3.0-11.0-2.0-1.4","spark_pilot_norest","10521","6","16","Female","","","","","","","null","<div style=""font-size:60px;"">+</div>","null","fixation","","","","","","","","","","","",""
"revaluation","70","395907","0.0-3.0-11.0-2.0-0.5","spark_pilot_norest","10521","6","16","Female","","false","","","","","[250,863.0999999996275]","./assets/img/space/12.jpg","[""ArrowUp"",""ArrowLeft""]","practice block","space","3","{""ArrowUp,ArrowLeft"":3,""ArrowUp,ArrowRight"":36,""ArrowDown,ArrowLeft"":15,""ArrowDown,ArrowRight"":23}","false","ArrowUp,ArrowLeft","false","","","","","",""
"html-keyboard-response","71","396410","0.0-3.0-11.0-2.0-1.5","spark_pilot_norest","10521","6","16","Female","","","","","","","null","<div style=""font-size:60px;"">+</div>","null","fixation","","","","","","","","","","","",""
"revaluation","72","402435","0.0-3.0-11.0-2.0-0.6","spark_pilot_norest","10521","6","16","Female","","false","","","","","[238.70000000018626,507.80000000074506]","./assets/img/space/13.jpg","[""ArrowUp"",""ArrowRight""]","practice block","space","36","{""ArrowUp,ArrowLeft"":3,""ArrowUp,ArrowRight"":36,""ArrowDown,ArrowLeft"":15,""ArrowDown,ArrowRight"":23}","true","ArrowUp,ArrowRight","false","","","","","",""
"html-keyboard-response","73","402938","0.0-3.0-11.0-2.0-1.6","spark_pilot_norest","10521","6","16","Female","","","","","","","null","<div style=""font-size:60px;"">+</div>","null","fixation","","","","","","","","","","","",""
"revaluation","74","408955","0.0-3.0-11.0-2.0-0.7","spark_pilot_norest","10521","6","16","Female","","false","","","","","[293.1000000005588,541]","./assets/img/space/14.jpg","[""ArrowUp"",""ArrowRight""]","practice block","space","36","{""ArrowUp,ArrowLeft"":3,""ArrowUp,ArrowRight"":36,""ArrowDown,ArrowLeft"":15,""ArrowDown,ArrowRight"":23}","true","ArrowUp,ArrowRight","false","","","","","",""
"html-keyboard-response","75","409459","0.0-3.0-11.0-2.0-1.7","spark_pilot_norest","10521","6","16","Female","","","","","","","null","<div style=""font-size:60px;"">+</div>","null","fixation","","","","","","","","","","","",""
"revaluation","76","413475","0.0-3.0-11.0-2.0-0.8","spark_pilot_norest","10521","6","16","Female","","false","","","","","[234]","./assets/img/space/catch/3.jpg","[""ArrowUp""]","practice block","space","-10","{""ArrowUp,ArrowLeft"":3,""ArrowUp,ArrowRight"":36,""ArrowDown,ArrowLeft"":15,""ArrowDown,ArrowRight"":23}","false","ArrowUp","true","","","","","",""
"html-keyboard-response","77","413978","0.0-3.0-11.0-2.0-1.8","spark_pilot_norest","10521","6","16","Female","","","","","","","null","<div style=""font-size:60px;"">+</div>","null","fixation","","","","","","","","","","","",""
"learning-instructions","78","429178","0.0-3.0-11.0-3.0-0.0","spark_pilot_norest","10521","6","16","Female","","","","","","","2096.5999999996275","<p> Now, you will travel with a friend who will choose whether you go up or down first. </p>
            <p> On these turns, you will just see the animal that they found. You will still get to choose which chest to search for treasure.</p>","","instructions","","","","","","","","","","","",""
"revaluation","79","433195","0.0-3.0-11.0-4.0-0.0","spark_pilot_norest","10521","6","16","Female","","false","","","","","[575.5999999996275]","./assets/img/space/animals/cat.jpg","[""ArrowRight""]","practice block","space","36","{""ArrowUp,ArrowLeft"":3,""ArrowUp,ArrowRight"":36,""ArrowDown,ArrowLeft"":15,""ArrowDown,ArrowRight"":23}","true","ArrowUp,ArrowRight","","","","","","",""
"html-keyboard-response","80","433699","0.0-3.0-11.0-4.0-1.0","spark_pilot_norest","10521","6","16","Female","","","","","","","null","<div style=""font-size:60px;"">+</div>","null","fixation","","","","","","","","","","","",""
"revaluation","81","437715","0.0-3.0-11.0-4.0-0.1","spark_pilot_norest","10521","6","16","Female","","false","","","","","[404.8999999994412]","./assets/img/space/animals/cat.jpg","[""ArrowRight""]","practice block","space","36","{""ArrowUp,ArrowLeft"":3,""ArrowUp,ArrowRight"":36,""ArrowDown,ArrowLeft"":15,""ArrowDown,ArrowRight"":23}","true","ArrowUp,ArrowRight","","","","","","",""
"html-keyboard-response","82","438218","0.0-3.0-11.0-4.0-1.1","spark_pilot_norest","10521","6","16","Female","","","","","","","null","<div style=""font-size:60px;"">+</div>","null","fixation","","","","","","","","","","","",""
"revaluation","83","442235","0.0-3.0-11.0-4.0-0.2","spark_pilot_norest","10521","6","16","Female","","false","","","","","[832.7000000001863]","./assets/img/space/animals/rabbit.jpg","[""ArrowRight""]","practice block","space","23","{""ArrowUp,ArrowLeft"":3,""ArrowUp,ArrowRight"":36,""ArrowDown,ArrowLeft"":15,""ArrowDown,ArrowRight"":23}","true","ArrowDown,ArrowRight","","","","","","",""
"html-keyboard-response","84","442739","0.0-3.0-11.0-4.0-1.2","spark_pilot_norest","10521","6","16","Female","","","","","","","null","<div style=""font-size:60px;"">+</div>","null","fixation","","","","","","","","","","","",""
"revaluation","85","446763","0.0-3.0-11.0-4.0-0.3","spark_pilot_norest","10521","6","16","Female","","false","","","","","[367]","./assets/img/space/animals/rabbit.jpg","[""ArrowRight""]","practice block","space","23","{""ArrowUp,ArrowLeft"":3,""ArrowUp,ArrowRight"":36,""ArrowDown,ArrowLeft"":15,""ArrowDown,ArrowRight"":23}","true","ArrowDown,ArrowRight","","","","","","",""
"html-keyboard-response","86","447266","0.0-3.0-11.0-4.0-1.3","spark_pilot_norest","10521","6","16","Female","","","","","","","null","<div style=""font-size:60px;"">+</div>","null","fixation","","","","","","","","","","","",""
"learning-instructions","87","455392","0.0-3.0-11.0-5.0-0.0","spark_pilot_norest","10521","6","16","Female","","","","","","","null","<p> You have almost finished this part of the game! </p>
            <p> We are going to ask you to make a few more choices. </p>","","instructions","","","","","","","","","","","",""
"learning-instructions","88","471407","0.0-3.0-11.0-5.0-0.1","spark_pilot_norest","10521","6","16","Female","","","","","","","null","<p> First, you need to decide whether to go up or down. When you see each picture, use the arrow keys to make your choice. </p>
            <p><b>You will not see which animal you found, but try to get to the one that will give you the most treasure.</b></p>","","instructions","","","","","","","","","","","",""
"html-keyboard-response","89","472411","0.0-3.0-11.0-6.0-0.0","spark_pilot_norest","10521","6","16","Female","","","","","","","null","<div style=""font-size:100px;color:red;"">Starting in...</div>","null","","","","","","","","","","","","",""
"html-keyboard-response","90","473419","0.0-3.0-11.0-6.0-1.0","spark_pilot_norest","10521","6","16","Female","","","","","","","null","<div style=""font-size:200px;color:red;"">3</div>","null","","","","","","","","","","","","",""
"html-keyboard-response","91","474426","0.0-3.0-11.0-6.0-2.0","spark_pilot_norest","10521","6","16","Female","","","","","","","null","<div style=""font-size:200px;color:red;"">2</div>","null","","","","","","","","","","","","",""
"html-keyboard-response","92","475435","0.0-3.0-11.0-6.0-3.0","spark_pilot_norest","10521","6","16","Female","","","","","","","null","<div style=""font-size:200px;color:red;"">1</div>","null","","","","","","","","","","","","",""
"revaluation","93","475693","0.0-3.0-11.0-7.0","spark_pilot_norest","10521","6","16","Female","","false","","","","","[253.20000000018626]","./assets/img/space/15.jpg","[""ArrowUp""]","practice block","space","0","{""ArrowUp,ArrowLeft"":3,""ArrowUp,ArrowRight"":36,""ArrowDown,ArrowLeft"":15,""ArrowDown,ArrowRight"":23}","true","ArrowUp","false","","","","","",""
"html-keyboard-response","94","476203","0.0-3.0-11.0-8.0","spark_pilot_norest","10521","6","16","Female","","","","","","","null","<div style=""font-size:60px;"">+</div>","null","fixation","","","","","","","","","","","",""
"learning-instructions","95","489601","0.0-3.0-11.0-9.0-0.0","spark_pilot_norest","10521","6","16","Female","","","","","","","null","<p> Now you will see the animals again and can search their chests for treasure. </p>
            <p> This time, you will not see how much treasure you earned, but you will earn more bonus money for making better choices. </p>","","instructions","","","","","","","","","","","",""
"html-keyboard-response","96","490611","0.0-3.0-11.0-10.0-0.0","spark_pilot_norest","10521","6","16","Female","","","","","","","null","<div style=""font-size:100px;color:red;"">Starting in...</div>","null","","","","","","","","","","","","",""
"html-keyboard-response","97","491619","0.0-3.0-11.0-10.0-1.0","spark_pilot_norest","10521","6","16","Female","","","","","","","null","<div style=""font-size:200px;color:red;"">3</div>","null","","","","","","","","","","","","",""
"html-keyboard-response","98","492627","0.0-3.0-11.0-10.0-2.0","spark_pilot_norest","10521","6","16","Female","","","","","","","null","<div style=""font-size:200px;color:red;"">2</div>","null","","","","","","","","","","","","",""
"html-keyboard-response","99","493635","0.0-3.0-11.0-10.0-3.0","spark_pilot_norest","10521","6","16","Female","","","","","","","null","<div style=""font-size:200px;color:red;"">1</div>","null","","","","","","","","","","","","",""
"revaluation","100","494210","0.0-3.0-11.0-11.0-0.0","spark_pilot_norest","10521","6","16","Female","","false","","","","","[567.3999999994412]","./assets/img/space/animals/cat.jpg","[""ArrowRight""]","practice block","space","0","{""ArrowUp,ArrowLeft"":3,""ArrowUp,ArrowRight"":36,""ArrowDown,ArrowLeft"":15,""ArrowDown,ArrowRight"":23}","true","ArrowUp,ArrowRight","","","","","","",""
"html-keyboard-response","101","494714","0.0-3.0-11.0-11.0-1.0","spark_pilot_norest","10521","6","16","Female","","","","","","","null","<div style=""font-size:60px;"">+</div>","null","fixation","","","","","","","","","","","",""
"revaluation","102","495188","0.0-3.0-11.0-11.0-0.1","spark_pilot_norest","10521","6","16","Female","","false","","","","","[465.6000000005588]","./assets/img/space/animals/rabbit.jpg","[""ArrowRight""]","practice block","space","0","{""ArrowUp,ArrowLeft"":3,""ArrowUp,ArrowRight"":36,""ArrowDown,ArrowLeft"":15,""ArrowDown,ArrowRight"":23}","true","ArrowDown,ArrowRight","","","","","","",""
"html-keyboard-response","103","495690","0.0-3.0-11.0-11.0-1.1","spark_pilot_norest","10521","6","16","Female","","","","","","","null","<div style=""font-size:60px;"">+</div>","null","fixation","","","","","","","","","","","",""
"learning-instructions","104","502352","0.0-3.0-12.0-0.0","spark_pilot_norest","10521","6","16","Female","","","","","","","2075.7999999998137","<p> Before you start, we're going to ask you a few questions about how the game works. </p>","","instructions","","","","","","","","","","","",""
"comp-q","105","509397","0.0-3.0-13.0-0.0-0.0","spark_pilot_norest","10521","6","16","Female","","","","","","","1433.4000000003725","<p> <b> True or False? </b> </p>
            <p> There can be 50 pieces of treasure in a given animal's chest. </p>","1","comp_question","","","","true","","","","","","","",""
"comp-q","106","517375","0.0-3.0-13.0-0.0-1.0","spark_pilot_norest","10521","6","16","Female","","","","","","","1323","<p> <b> That's right! </b> The amount of treasure in each chest can range from 0 to 40 pieces. </p>","0","comp_answer","","","","","","","","","","","",""
"comp-q","107","525078","0.0-3.0-13.0-0.1-0.1","spark_pilot_norest","10521","6","16","Female","","","","","","","578.4000000003725","<p> <b> True or False? </b> </p><p> In this game, all animals have the same amount of treasure in their left and right chests. </p>","1","comp_question","","","","true","","","","","","","",""
"comp-q","108","531583","0.0-3.0-13.0-0.1-1.1","spark_pilot_norest","10521","6","16","Female","","","","","","","1258.3999999994412","<p> <b> That's right! </b> Animals have different amounts of treasure in their treasure chests. </p>","0","comp_answer","","","","","","","","","","","",""
"comp-q","109","538302","0.0-3.0-13.0-0.2-0.2","spark_pilot_norest","10521","6","16","Female","","","","","","","863.3999999994412","<p> <b> True or False? </b> </p><p> The same animal will always be there if you go up in the same place. </p>","0","comp_question","","","","true","","","","","","","",""
"comp-q","110","546016","0.0-3.0-13.0-0.2-1.2","spark_pilot_norest","10521","6","16","Female","","","","","","","1270","<p> <b> That's right! </b> One animal lives in the upper part and one lives in the lower part of every place. </p>","0","comp_answer","","","","","","","","","","","",""
"comp-q","111","553199","0.0-3.0-13.0-0.3-0.3","spark_pilot_norest","10521","6","16","Female","","","","","","","1647.9000000003725","<p> <b> True or False? </b> </p><p> If you see a different picture, it means you are in a new place. </p>","1","comp_question","","","","true","","","","","","","",""
"comp-q","112","565341","0.0-3.0-13.0-0.3-1.3","spark_pilot_norest","10521","6","16","Female","","","","","","","904.3999999994412","<p> <b> That's right! </b> Lots of different images may show the same place. For example,  you may see three different images that all remind you that you are in outer space. </p>","0","comp_answer","","","","","","","","","","","",""
"learning-instructions","113","577521","0.0-3.0-14.0-0.0","spark_pilot_norest","10521","6","16","Female","","","","","","","2321.9000000003725","<p> Good job. Remember to do your best because the amount of treasure you earn will be converted into bonus money. </p>
            <p> It’s time to start the real game! </p>","","instructions","","","","","","","","","","","",""
"learning-instructions","114","581377","0.0-4.0-0.0-0.0","spark_pilot_norest","10521","6","16","Female","","","","","","","1079.2999999998137","<p> This time you are searching for treasure in the <b>canyon</b>.</p>","","instructions","","","","","","","","","","","",""
"learning-instructions","115","608363","0.0-4.0-0.0-0.1","spark_pilot_norest","10521","6","16","Female","","","","","","","9676.299999999814","<p><b>New</b> animals with <b>new</b> treasure chests live here. You need to explore to discover where the animal with the best treasure chest is.</p>
                    <p> Like before, once you figure out which animal has the chest with the most treasure, you should try to get to that animal and select that chest! </p>","","instructions","","","","","","","","","","","",""
"learning-instructions","116","623781","0.0-4.0-1.0-0.0","spark_pilot_norest","10521","6","16","Female","","","","","","","688.9000000003725","<p> Remember, when you see a picture of the place, use the up and down keys to <b>find an animal</b>.</p>
            <p> When you encounter an animal, you should use the left and right keys to <b>select a treasure chest</b>.</p>
            <p> Don't forget to look out for the robber! </p>","","instructions","","","","","","","","","","","",""
"revaluation","117","629812","0.0-4.0-2.0-0.0","spark_pilot_norest","10521","6","16","Female","","false","","","","","[762.9000000003725,510.79999999981374]","./assets/img/canyon/memory/11.jpg","[""ArrowUp"",""ArrowRight""]","value training","canyon","10","{""ArrowUp,ArrowLeft"":23,""ArrowUp,ArrowRight"":10,""ArrowDown,ArrowLeft"":8,""ArrowDown,ArrowRight"":30}","false","ArrowUp,ArrowRight","false","revaluation","1","0","","",""
"html-keyboard-response","118","630315","0.0-4.0-2.0-1.0","spark_pilot_norest","10521","6","16","Female","","","","","","","null","<div style=""font-size:60px;"">+</div>","null","fixation","","","","","","","","","1","","",""
"revaluation","119","636340","0.0-4.0-2.0-0.1","spark_pilot_norest","10521","6","16","Female","","false","","","","","[446.09999999962747,454.59999999962747]","./assets/img/canyon/memory/40.jpg","[""ArrowUp"",""ArrowLeft""]","value training","canyon","23","{""ArrowUp,ArrowLeft"":23,""ArrowUp,ArrowRight"":10,""ArrowDown,ArrowLeft"":8,""ArrowDown,ArrowRight"":30}","false","ArrowUp,ArrowLeft","false","revaluation","1","2","","",""
"html-keyboard-response","120","636842","0.0-4.0-2.0-1.1","spark_pilot_norest","10521","6","16","Female","","","","","","","null","<div style=""font-size:60px;"">+</div>","null","fixation","","","","","","","","","3","","",""
"revaluation","121","642868","0.0-4.0-2.0-0.2","spark_pilot_norest","10521","6","16","Female","","false","","","","","[426.5,571.9000000003725]","./assets/img/canyon/memory/40.jpg","[""ArrowDown"",""ArrowRight""]","value training","canyon","30","{""ArrowUp,ArrowLeft"":23,""ArrowUp,ArrowRight"":10,""ArrowDown,ArrowLeft"":8,""ArrowDown,ArrowRight"":30}","true","ArrowDown,ArrowRight","false","revaluation","1","4","","",""
"html-keyboard-response","122","643370","0.0-4.0-2.0-1.2","spark_pilot_norest","10521","6","16","Female","","","","","","","null","<div style=""font-size:60px;"">+</div>","null","fixation","","","","","","","","","5","","",""
"revaluation","123","649395","0.0-4.0-2.0-0.3","spark_pilot_norest","10521","6","16","Female","","false","","","","","[352.59999999962747,440.30000000074506]","./assets/img/canyon/memory/15.jpg","[""ArrowDown"",""ArrowLeft""]","value training","canyon","8","{""ArrowUp,ArrowLeft"":23,""ArrowUp,ArrowRight"":10,""ArrowDown,ArrowLeft"":8,""ArrowDown,ArrowRight"":30}","false","ArrowDown,ArrowLeft","false","revaluation","1","6","","",""
"html-keyboard-response","124","649898","0.0-4.0-2.0-1.3","spark_pilot_norest","10521","6","16","Female","","","","","","","null","<div style=""font-size:60px;"">+</div>","null","fixation","","","","","","","","","7","","",""
"revaluation","125","655923","0.0-4.0-2.0-0.4","spark_pilot_norest","10521","6","16","Female","","false","","","","","[572.3999999994412,497.30000000074506]","./assets/img/canyon/memory/28.jpg","[""ArrowDown"",""ArrowRight""]","value training","canyon","30","{""ArrowUp,ArrowLeft"":23,""ArrowUp,ArrowRight"":10,""ArrowDown,ArrowLeft"":8,""ArrowDown,ArrowRight"":30}","true","ArrowDown,ArrowRight","false","revaluation","1","8","","",""
"html-keyboard-response","126","656426","0.0-4.0-2.0-1.4","spark_pilot_norest","10521","6","16","Female","","","","","","","null","<div style=""font-size:60px;"">+</div>","null","fixation","","","","","","","","","9","","",""
"revaluation","127","662451","0.0-4.0-2.0-0.5","spark_pilot_norest","10521","6","16","Female","","false","","","","","[437.20000000018626,400.1000000005588]","./assets/img/canyon/memory/30.jpg","[""ArrowDown"",""ArrowRight""]","value training","canyon","30","{""ArrowUp,ArrowLeft"":23,""ArrowUp,ArrowRight"":10,""ArrowDown,ArrowLeft"":8,""ArrowDown,ArrowRight"":30}","true","ArrowDown,ArrowRight","false","revaluation","1","10","","",""
"html-keyboard-response","128","662955","0.0-4.0-2.0-1.5","spark_pilot_norest","10521","6","16","Female","","","","","","","null","<div style=""font-size:60px;"">+</div>","null","fixation","","","","","","","","","11","","",""
"revaluation","129","668987","0.0-4.0-2.0-0.6","spark_pilot_norest","10521","6","16","Female","","false","","","","","[487.09999999962747,317.30000000074506]","./assets/img/canyon/memory/35.jpg","[""ArrowDown"",""ArrowRight""]","value training","canyon","30","{""ArrowUp,ArrowLeft"":23,""ArrowUp,ArrowRight"":10,""ArrowDown,ArrowLeft"":8,""ArrowDown,ArrowRight"":30}","true","ArrowDown,ArrowRight","false","revaluation","1","12","","",""
"html-keyboard-response","130","669491","0.0-4.0-2.0-1.6","spark_pilot_norest","10521","6","16","Female","","","","","","","null","<div style=""font-size:60px;"">+</div>","null","fixation","","","","","","","","","13","","",""
"revaluation","131","673508","0.0-4.0-2.0-0.7","spark_pilot_norest","10521","6","16","Female","","false","","","","","[406.40000000037253]","./assets/img/canyon/catch/6.jpg","[""spaceBar""]","value training","canyon","0","{""ArrowUp,ArrowLeft"":23,""ArrowUp,ArrowRight"":10,""ArrowDown,ArrowLeft"":8,""ArrowDown,ArrowRight"":30}","true","spaceBar","true","revaluation","1","14","","",""
"html-keyboard-response","132","674010","0.0-4.0-2.0-1.7","spark_pilot_norest","10521","6","16","Female","","","","","","","null","<div style=""font-size:60px;"">+</div>","null","fixation","","","","","","","","","15","","",""
"revaluation","133","680036","0.0-4.0-2.0-0.8","spark_pilot_norest","10521","6","16","Female","","false","","","","","[397.20000000018626,353.70000000018626]","./assets/img/canyon/memory/31.jpg","[""ArrowDown"",""ArrowRight""]","value training","canyon","30","{""ArrowUp,ArrowLeft"":23,""ArrowUp,ArrowRight"":10,""ArrowDown,ArrowLeft"":8,""ArrowDown,ArrowRight"":30}","true","ArrowDown,ArrowRight","false","revaluation","1","16","","",""
"html-keyboard-response","134","680539","0.0-4.0-2.0-1.8","spark_pilot_norest","10521","6","16","Female","","","","","","","null","<div style=""font-size:60px;"">+</div>","null","fixation","","","","","","","","","17","","",""
"revaluation","135","686563","0.0-4.0-2.0-0.9","spark_pilot_norest","10521","6","16","Female","","false","","","","","[329.8999999994412,314.40000000037253]","./assets/img/canyon/memory/13.jpg","[""ArrowDown"",""ArrowRight""]","value training","canyon","30","{""ArrowUp,ArrowLeft"":23,""ArrowUp,ArrowRight"":10,""ArrowDown,ArrowLeft"":8,""ArrowDown,ArrowRight"":30}","true","ArrowDown,ArrowRight","false","revaluation","1","18","","",""
"html-keyboard-response","136","687067","0.0-4.0-2.0-1.9","spark_pilot_norest","10521","6","16","Female","","","","","","","null","<div style=""font-size:60px;"">+</div>","null","fixation","","","","","","","","","19","","",""
"revaluation","137","691083","0.0-4.0-2.0-0.10","spark_pilot_norest","10521","6","16","Female","","false","","","","","[501.90000000037253]","./assets/img/canyon/catch/3.jpg","[""spaceBar""]","value training","canyon","0","{""ArrowUp,ArrowLeft"":23,""ArrowUp,ArrowRight"":10,""ArrowDown,ArrowLeft"":8,""ArrowDown,ArrowRight"":30}","true","spaceBar","true","revaluation","1","20","","",""
"html-keyboard-response","138","691587","0.0-4.0-2.0-1.10","spark_pilot_norest","10521","6","16","Female","","","","","","","null","<div style=""font-size:60px;"">+</div>","null","fixation","","","","","","","","","21","","",""
"revaluation","139","697611","0.0-4.0-2.0-0.11","spark_pilot_norest","10521","6","16","Female","","false","","","","","[363.20000000018626,262.5]","./assets/img/canyon/memory/26.jpg","[""ArrowDown"",""ArrowRight""]","value training","canyon","30","{""ArrowUp,ArrowLeft"":23,""ArrowUp,ArrowRight"":10,""ArrowDown,ArrowLeft"":8,""ArrowDown,ArrowRight"":30}","true","ArrowDown,ArrowRight","false","revaluation","1","22","","",""
"html-keyboard-response","140","698115","0.0-4.0-2.0-1.11","spark_pilot_norest","10521","6","16","Female","","","","","","","null","<div style=""font-size:60px;"">+</div>","null","fixation","","","","","","","","","23","","",""
"revaluation","141","704147","0.0-4.0-2.0-0.12","spark_pilot_norest","10521","6","16","Female","","false","","","","","[391.79999999981374,428.5]","./assets/img/canyon/memory/3.jpg","[""ArrowDown"",""ArrowRight""]","value training","canyon","30","{""ArrowUp,ArrowLeft"":23,""ArrowUp,ArrowRight"":10,""ArrowDown,ArrowLeft"":8,""ArrowDown,ArrowRight"":30}","true","ArrowDown,ArrowRight","false","revaluation","1","24","","",""
"html-keyboard-response","142","704650","0.0-4.0-2.0-1.12","spark_pilot_norest","10521","6","16","Female","","","","","","","null","<div style=""font-size:60px;"">+</div>","null","fixation","","","","","","","","","25","","",""
"revaluation","143","710675","0.0-4.0-2.0-0.13","spark_pilot_norest","10521","6","16","Female","","false","","","","","[384.1000000005588,314.59999999962747]","./assets/img/canyon/memory/30.jpg","[""ArrowDown"",""ArrowRight""]","value training","canyon","30","{""ArrowUp,ArrowLeft"":23,""ArrowUp,ArrowRight"":10,""ArrowDown,ArrowLeft"":8,""ArrowDown,ArrowRight"":30}","true","ArrowDown,ArrowRight","false","revaluation","1","26","","",""
"html-keyboard-response","144","711178","0.0-4.0-2.0-1.13","spark_pilot_norest","10521","6","16","Female","","","","","","","null","<div style=""font-size:60px;"">+</div>","null","fixation","","","","","","","","","27","","",""
"revaluation","145","717204","0.0-4.0-2.0-0.14","spark_pilot_norest","10521","6","16","Female","","false","","","","","[358.1000000005588,369.70000000018626]","./assets/img/canyon/memory/10.jpg","[""ArrowDown"",""ArrowRight""]","value training","canyon","30","{""ArrowUp,ArrowLeft"":23,""ArrowUp,ArrowRight"":10,""ArrowDown,ArrowLeft"":8,""ArrowDown,ArrowRight"":30}","true","ArrowDown,ArrowRight","false","revaluation","1","28","","",""
"html-keyboard-response","146","717706","0.0-4.0-2.0-1.14","spark_pilot_norest","10521","6","16","Female","","","","","","","null","<div style=""font-size:60px;"">+</div>","null","fixation","","","","","","","","","29","","",""
"revaluation","147","723731","0.0-4.0-2.0-0.15","spark_pilot_norest","10521","6","16","Female","","false","","","","","[379.59999999962747,294]","./assets/img/canyon/memory/6.jpg","[""ArrowDown"",""ArrowRight""]","value training","canyon","30","{""ArrowUp,ArrowLeft"":23,""ArrowUp,ArrowRight"":10,""ArrowDown,ArrowLeft"":8,""ArrowDown,ArrowRight"":30}","true","ArrowDown,ArrowRight","false","revaluation","1","30","","",""
"html-keyboard-response","148","724234","0.0-4.0-2.0-1.15","spark_pilot_norest","10521","6","16","Female","","","","","","","null","<div style=""font-size:60px;"">+</div>","null","fixation","","","","","","","","","31","","",""
"revaluation","149","730259","0.0-4.0-2.0-0.16","spark_pilot_norest","10521","6","16","Female","","false","","","","","[336.5,342]","./assets/img/canyon/memory/11.jpg","[""ArrowDown"",""ArrowRight""]","value training","canyon","30","{""ArrowUp,ArrowLeft"":23,""ArrowUp,ArrowRight"":10,""ArrowDown,ArrowLeft"":8,""ArrowDown,ArrowRight"":30}","true","ArrowDown,ArrowRight","false","revaluation","1","32","","",""
"html-keyboard-response","150","730762","0.0-4.0-2.0-1.16","spark_pilot_norest","10521","6","16","Female","","","","","","","null","<div style=""font-size:60px;"">+</div>","null","fixation","","","","","","","","","33","","",""
"revaluation","151","736787","0.0-4.0-2.0-0.17","spark_pilot_norest","10521","6","16","Female","","false","","","","","[351.90000000037253,601.6000000005588]","./assets/img/canyon/memory/16.jpg","[""ArrowDown"",""ArrowRight""]","value training","canyon","30","{""ArrowUp,ArrowLeft"":23,""ArrowUp,ArrowRight"":10,""ArrowDown,ArrowLeft"":8,""ArrowDown,ArrowRight"":30}","true","ArrowDown,ArrowRight","false","revaluation","1","34","","",""
"html-keyboard-response","152","737290","0.0-4.0-2.0-1.17","spark_pilot_norest","10521","6","16","Female","","","","","","","null","<div style=""font-size:60px;"">+</div>","null","fixation","","","","","","","","","35","","",""
"revaluation","153","743315","0.0-4.0-2.0-0.18","spark_pilot_norest","10521","6","16","Female","","false","","","","","[443.70000000018626,350.20000000018626]","./assets/img/canyon/memory/17.jpg","[""ArrowDown"",""ArrowRight""]","value training","canyon","30","{""ArrowUp,ArrowLeft"":23,""ArrowUp,ArrowRight"":10,""ArrowDown,ArrowLeft"":8,""ArrowDown,ArrowRight"":30}","true","ArrowDown,ArrowRight","false","revaluation","1","36","","",""
"html-keyboard-response","154","743818","0.0-4.0-2.0-1.18","spark_pilot_norest","10521","6","16","Female","","","","","","","null","<div style=""font-size:60px;"">+</div>","null","fixation","","","","","","","","","37","","",""
"revaluation","155","749843","0.0-4.0-2.0-0.19","spark_pilot_norest","10521","6","16","Female","","false","","","","","[316.79999999981374,339.1000000005588]","./assets/img/canyon/memory/13.jpg","[""ArrowDown"",""ArrowRight""]","value training","canyon","30","{""ArrowUp,ArrowLeft"":23,""ArrowUp,ArrowRight"":10,""ArrowDown,ArrowLeft"":8,""ArrowDown,ArrowRight"":30}","true","ArrowDown,ArrowRight","false","revaluation","1","38","","",""
"html-keyboard-response","156","750346","0.0-4.0-2.0-1.19","spark_pilot_norest","10521","6","16","Female","","","","","","","null","<div style=""font-size:60px;"">+</div>","null","fixation","","","","","","","","","39","","",""
"revaluation","157","756371","0.0-4.0-2.0-0.20","spark_pilot_norest","10521","6","16","Female","","false","","","","","[337.20000000018626,317.90000000037253]","./assets/img/canyon/memory/31.jpg","[""ArrowDown"",""ArrowRight""]","value training","canyon","30","{""ArrowUp,ArrowLeft"":23,""ArrowUp,ArrowRight"":10,""ArrowDown,ArrowLeft"":8,""ArrowDown,ArrowRight"":30}","true","ArrowDown,ArrowRight","false","revaluation","1","40","","",""
"html-keyboard-response","158","756874","0.0-4.0-2.0-1.20","spark_pilot_norest","10521","6","16","Female","","","","","","","null","<div style=""font-size:60px;"">+</div>","null","fixation","","","","","","","","","41","","",""
"revaluation","159","762899","0.0-4.0-2.0-0.21","spark_pilot_norest","10521","6","16","Female","","false","","","","","[358.29999999981374,337.59999999962747]","./assets/img/canyon/memory/41.jpg","[""ArrowDown"",""ArrowRight""]","value training","canyon","30","{""ArrowUp,ArrowLeft"":23,""ArrowUp,ArrowRight"":10,""ArrowDown,ArrowLeft"":8,""ArrowDown,ArrowRight"":30}","true","ArrowDown,ArrowRight","false","revaluation","1","42","","",""
"html-keyboard-response","160","763403","0.0-4.0-2.0-1.21","spark_pilot_norest","10521","6","16","Female","","","","","","","null","<div style=""font-size:60px;"">+</div>","null","fixation","","","","","","","","","43","","",""
"revaluation","161","767419","0.0-4.0-2.0-0.22","spark_pilot_norest","10521","6","16","Female","","false","","","","","[528.2999999998137]","./assets/img/canyon/catch/7.jpg","[""spaceBar""]","value training","canyon","0","{""ArrowUp,ArrowLeft"":23,""ArrowUp,ArrowRight"":10,""ArrowDown,ArrowLeft"":8,""ArrowDown,ArrowRight"":30}","true","spaceBar","true","revaluation","1","44","","",""
"html-keyboard-response","162","767922","0.0-4.0-2.0-1.22","spark_pilot_norest","10521","6","16","Female","","","","","","","null","<div style=""font-size:60px;"">+</div>","null","fixation","","","","","","","","","45","","",""
"revaluation","163","773947","0.0-4.0-2.0-0.23","spark_pilot_norest","10521","6","16","Female","","false","","","","","[381.20000000018626,293.90000000037253]","./assets/img/canyon/memory/35.jpg","[""ArrowDown"",""ArrowRight""]","value training","canyon","30","{""ArrowUp,ArrowLeft"":23,""ArrowUp,ArrowRight"":10,""ArrowDown,ArrowLeft"":8,""ArrowDown,ArrowRight"":30}","true","ArrowDown,ArrowRight","false","revaluation","1","46","","",""
"html-keyboard-response","164","774450","0.0-4.0-2.0-1.23","spark_pilot_norest","10521","6","16","Female","","","","","","","null","<div style=""font-size:60px;"">+</div>","null","fixation","","","","","","","","","47","","",""
"revaluation","165","780475","0.0-4.0-2.0-0.24","spark_pilot_norest","10521","6","16","Female","","false","","","","","[464,459.3999999994412]","./assets/img/canyon/memory/41.jpg","[""ArrowDown"",""ArrowRight""]","value training","canyon","30","{""ArrowUp,ArrowLeft"":23,""ArrowUp,ArrowRight"":10,""ArrowDown,ArrowLeft"":8,""ArrowDown,ArrowRight"":30}","true","ArrowDown,ArrowRight","false","revaluation","1","48","","",""
"html-keyboard-response","166","780978","0.0-4.0-2.0-1.24","spark_pilot_norest","10521","6","16","Female","","","","","","","null","<div style=""font-size:60px;"">+</div>","null","fixation","","","","","","","","","49","","",""
"revaluation","167","784995","0.0-4.0-2.0-0.25","spark_pilot_norest","10521","6","16","Female","","false","","","","","[491.5]","./assets/img/canyon/catch/0.jpg","[""spaceBar""]","value training","canyon","0","{""ArrowUp,ArrowLeft"":23,""ArrowUp,ArrowRight"":10,""ArrowDown,ArrowLeft"":8,""ArrowDown,ArrowRight"":30}","true","spaceBar","true","revaluation","1","50","","",""
"html-keyboard-response","168","785499","0.0-4.0-2.0-1.25","spark_pilot_norest","10521","6","16","Female","","","","","","","null","<div style=""font-size:60px;"">+</div>","null","fixation","","","","","","","","","51","","",""
"revaluation","169","791523","0.0-4.0-2.0-0.26","spark_pilot_norest","10521","6","16","Female","","false","","","","","[551.5,334.70000000018626]","./assets/img/canyon/memory/6.jpg","[""ArrowDown"",""ArrowRight""]","value training","canyon","30","{""ArrowUp,ArrowLeft"":23,""ArrowUp,ArrowRight"":10,""ArrowDown,ArrowLeft"":8,""ArrowDown,ArrowRight"":30}","true","ArrowDown,ArrowRight","false","revaluation","1","52","","",""
"html-keyboard-response","170","792027","0.0-4.0-2.0-1.26","spark_pilot_norest","10521","6","16","Female","","","","","","","null","<div style=""font-size:60px;"">+</div>","null","fixation","","","","","","","","","53","","",""
"revaluation","171","798051","0.0-4.0-2.0-0.27","spark_pilot_norest","10521","6","16","Female","","false","","","","","[352.20000000018626,675.0999999996275]","./assets/img/canyon/memory/33.jpg","[""ArrowDown"",""ArrowRight""]","value training","canyon","30","{""ArrowUp,ArrowLeft"":23,""ArrowUp,ArrowRight"":10,""ArrowDown,ArrowLeft"":8,""ArrowDown,ArrowRight"":30}","true","ArrowDown,ArrowRight","false","revaluation","1","54","","",""
"html-keyboard-response","172","798555","0.0-4.0-2.0-1.27","spark_pilot_norest","10521","6","16","Female","","","","","","","null","<div style=""font-size:60px;"">+</div>","null","fixation","","","","","","","","","55","","",""
"revaluation","173","804579","0.0-4.0-2.0-0.28","spark_pilot_norest","10521","6","16","Female","","false","","","","","[458.5,496.59999999962747]","./assets/img/canyon/memory/22.jpg","[""ArrowDown"",""ArrowRight""]","value training","canyon","30","{""ArrowUp,ArrowLeft"":23,""ArrowUp,ArrowRight"":10,""ArrowDown,ArrowLeft"":8,""ArrowDown,ArrowRight"":30}","true","ArrowDown,ArrowRight","false","revaluation","1","56","","",""
"html-keyboard-response","174","805083","0.0-4.0-2.0-1.28","spark_pilot_norest","10521","6","16","Female","","","","","","","null","<div style=""font-size:60px;"">+</div>","null","fixation","","","","","","","","","57","","",""
"revaluation","175","811107","0.0-4.0-2.0-0.29","spark_pilot_norest","10521","6","16","Female","","false","","","","","[383.79999999981374,470.40000000037253]","./assets/img/canyon/memory/33.jpg","[""ArrowDown"",""ArrowRight""]","value training","canyon","30","{""ArrowUp,ArrowLeft"":23,""ArrowUp,ArrowRight"":10,""ArrowDown,ArrowLeft"":8,""ArrowDown,ArrowRight"":30}","true","ArrowDown,ArrowRight","false","revaluation","1","58","","",""
"html-keyboard-response","176","811610","0.0-4.0-2.0-1.29","spark_pilot_norest","10521","6","16","Female","","","","","","","null","<div style=""font-size:60px;"">+</div>","null","fixation","","","","","","","","","59","","",""
"revaluation","177","817635","0.0-4.0-2.0-0.30","spark_pilot_norest","10521","6","16","Female","","false","","","","","[459,531.6000000005588]","./assets/img/canyon/memory/19.jpg","[""ArrowDown"",""ArrowRight""]","value training","canyon","30","{""ArrowUp,ArrowLeft"":23,""ArrowUp,ArrowRight"":10,""ArrowDown,ArrowLeft"":8,""ArrowDown,ArrowRight"":30}","true","ArrowDown,ArrowRight","false","revaluation","1","60","","",""
"html-keyboard-response","178","818139","0.0-4.0-2.0-1.30","spark_pilot_norest","10521","6","16","Female","","","","","","","null","<div style=""font-size:60px;"">+</div>","null","fixation","","","","","","","","","61","","",""
"revaluation","179","824163","0.0-4.0-2.0-0.31","spark_pilot_norest","10521","6","16","Female","","false","","","","","[339.5,541.7000000001863]","./assets/img/canyon/memory/15.jpg","[""ArrowDown"",""ArrowRight""]","value training","canyon","30","{""ArrowUp,ArrowLeft"":23,""ArrowUp,ArrowRight"":10,""ArrowDown,ArrowLeft"":8,""ArrowDown,ArrowRight"":30}","true","ArrowDown,ArrowRight","false","revaluation","1","62","","",""
"html-keyboard-response","180","824667","0.0-4.0-2.0-1.31","spark_pilot_norest","10521","6","16","Female","","","","","","","null","<div style=""font-size:60px;"">+</div>","null","fixation","","","","","","","","","63","","",""
"revaluation","181","828691","0.0-4.0-2.0-0.32","spark_pilot_norest","10521","6","16","Female","","false","","","","","[667]","./assets/img/canyon/catch/2.jpg","[""spaceBar""]","value training","canyon","0","{""ArrowUp,ArrowLeft"":23,""ArrowUp,ArrowRight"":10,""ArrowDown,ArrowLeft"":8,""ArrowDown,ArrowRight"":30}","true","spaceBar","true","revaluation","1","64","","",""
"html-keyboard-response","182","829194","0.0-4.0-2.0-1.32","spark_pilot_norest","10521","6","16","Female","","","","","","","null","<div style=""font-size:60px;"">+</div>","null","fixation","","","","","","","","","65","","",""
"revaluation","183","835219","0.0-4.0-2.0-0.33","spark_pilot_norest","10521","6","16","Female","","false","","","","","[454.80000000074506,1576.5999999996275]","./assets/img/canyon/memory/21.jpg","[""ArrowDown"",""ArrowRight""]","value training","canyon","30","{""ArrowUp,ArrowLeft"":23,""ArrowUp,ArrowRight"":10,""ArrowDown,ArrowLeft"":8,""ArrowDown,ArrowRight"":30}","true","ArrowDown,ArrowRight","false","revaluation","1","66","","",""
"html-keyboard-response","184","835722","0.0-4.0-2.0-1.33","spark_pilot_norest","10521","6","16","Female","","","","","","","null","<div style=""font-size:60px;"">+</div>","null","fixation","","","","","","","","","67","","",""
"revaluation","185","841747","0.0-4.0-2.0-0.34","spark_pilot_norest","10521","6","16","Female","","false","","","","","[454.29999999981374,946.7999999998137]","./assets/img/canyon/memory/22.jpg","[""ArrowDown"",""ArrowRight""]","value training","canyon","30","{""ArrowUp,ArrowLeft"":23,""ArrowUp,ArrowRight"":10,""ArrowDown,ArrowLeft"":8,""ArrowDown,ArrowRight"":30}","true","ArrowDown,ArrowRight","false","revaluation","1","68","","",""
"html-keyboard-response","186","842250","0.0-4.0-2.0-1.34","spark_pilot_norest","10521","6","16","Female","","","","","","","null","<div style=""font-size:60px;"">+</div>","null","fixation","","","","","","","","","69","","",""
"revaluation","187","848275","0.0-4.0-2.0-0.35","spark_pilot_norest","10521","6","16","Female","","false","","","","","[447,499.6000000005588]","./assets/img/canyon/memory/21.jpg","[""ArrowDown"",""ArrowRight""]","value training","canyon","30","{""ArrowUp,ArrowLeft"":23,""ArrowUp,ArrowRight"":10,""ArrowDown,ArrowLeft"":8,""ArrowDown,ArrowRight"":30}","true","ArrowDown,ArrowRight","false","revaluation","1","70","","",""
"html-keyboard-response","188","848778","0.0-4.0-2.0-1.35","spark_pilot_norest","10521","6","16","Female","","","","","","","null","<div style=""font-size:60px;"">+</div>","null","fixation","","","","","","","","","71","","",""
"revaluation","189","854803","0.0-4.0-2.0-0.36","spark_pilot_norest","10521","6","16","Female","","false","","","","","[564.1999999992549,357.20000000018626]","./assets/img/canyon/memory/26.jpg","[""ArrowDown"",""ArrowRight""]","value training","canyon","30","{""ArrowUp,ArrowLeft"":23,""ArrowUp,ArrowRight"":10,""ArrowDown,ArrowLeft"":8,""ArrowDown,ArrowRight"":30}","true","ArrowDown,ArrowRight","false","revaluation","1","72","","",""
"html-keyboard-response","190","855306","0.0-4.0-2.0-1.36","spark_pilot_norest","10521","6","16","Female","","","","","","","null","<div style=""font-size:60px;"">+</div>","null","fixation","","","","","","","","","73","","",""
"revaluation","191","861331","0.0-4.0-2.0-0.37","spark_pilot_norest","10521","6","16","Female","","false","","","","","[342.29999999981374,317.80000000074506]","./assets/img/canyon/memory/0.jpg","[""ArrowDown"",""ArrowRight""]","value training","canyon","30","{""ArrowUp,ArrowLeft"":23,""ArrowUp,ArrowRight"":10,""ArrowDown,ArrowLeft"":8,""ArrowDown,ArrowRight"":30}","true","ArrowDown,ArrowRight","false","revaluation","1","74","","",""
"html-keyboard-response","192","861834","0.0-4.0-2.0-1.37","spark_pilot_norest","10521","6","16","Female","","","","","","","null","<div style=""font-size:60px;"">+</div>","null","fixation","","","","","","","","","75","","",""
"revaluation","193","867859","0.0-4.0-2.0-0.38","spark_pilot_norest","10521","6","16","Female","","false","","","","","[390.5,291.70000000018626]","./assets/img/canyon/memory/29.jpg","[""ArrowDown"",""ArrowRight""]","value training","canyon","30","{""ArrowUp,ArrowLeft"":23,""ArrowUp,ArrowRight"":10,""ArrowDown,ArrowLeft"":8,""ArrowDown,ArrowRight"":30}","true","ArrowDown,ArrowRight","false","revaluation","1","76","","",""
"html-keyboard-response","194","868362","0.0-4.0-2.0-1.38","spark_pilot_norest","10521","6","16","Female","","","","","","","null","<div style=""font-size:60px;"">+</div>","null","fixation","","","","","","","","","77","","",""
"revaluation","195","874387","0.0-4.0-2.0-0.39","spark_pilot_norest","10521","6","16","Female","","false","","","","","[392.19999999925494,425.30000000074506]","./assets/img/canyon/memory/3.jpg","[""ArrowDown"",""ArrowRight""]","value training","canyon","30","{""ArrowUp,ArrowLeft"":23,""ArrowUp,ArrowRight"":10,""ArrowDown,ArrowLeft"":8,""ArrowDown,ArrowRight"":30}","true","ArrowDown,ArrowRight","false","revaluation","1","78","","",""
"html-keyboard-response","196","874890","0.0-4.0-2.0-1.39","spark_pilot_norest","10521","6","16","Female","","","","","","","null","<div style=""font-size:60px;"">+</div>","null","fixation","","","","","","","","","79","","",""
"revaluation","197","878907","0.0-4.0-2.0-0.40","spark_pilot_norest","10521","6","16","Female","","false","","","","","[597.9000000003725]","./assets/img/canyon/catch/4.jpg","[""spaceBar""]","value training","canyon","0","{""ArrowUp,ArrowLeft"":23,""ArrowUp,ArrowRight"":10,""ArrowDown,ArrowLeft"":8,""ArrowDown,ArrowRight"":30}","true","spaceBar","true","revaluation","1","80","","",""
"html-keyboard-response","198","879410","0.0-4.0-2.0-1.40","spark_pilot_norest","10521","6","16","Female","","","","","","","null","<div style=""font-size:60px;"">+</div>","null","fixation","","","","","","","","","81","","",""
"revaluation","199","885435","0.0-4.0-2.0-0.41","spark_pilot_norest","10521","6","16","Female","","false","","","","","[487.79999999981374,411.79999999981374]","./assets/img/canyon/memory/28.jpg","[""ArrowDown"",""ArrowRight""]","value training","canyon","30","{""ArrowUp,ArrowLeft"":23,""ArrowUp,ArrowRight"":10,""ArrowDown,ArrowLeft"":8,""ArrowDown,ArrowRight"":30}","true","ArrowDown,ArrowRight","false","revaluation","1","82","","",""
"html-keyboard-response","200","885939","0.0-4.0-2.0-1.41","spark_pilot_norest","10521","6","16","Female","","","","","","","null","<div style=""font-size:60px;"">+</div>","null","fixation","","","","","","","","","83","","",""
"revaluation","201","889955","0.0-4.0-2.0-0.42","spark_pilot_norest","10521","6","16","Female","","false","","","","","[560.3999999994412]","./assets/img/canyon/catch/5.jpg","[""spaceBar""]","value training","canyon","0","{""ArrowUp,ArrowLeft"":23,""ArrowUp,ArrowRight"":10,""ArrowDown,ArrowLeft"":8,""ArrowDown,ArrowRight"":30}","true","spaceBar","true","revaluation","1","84","","",""
"html-keyboard-response","202","890459","0.0-4.0-2.0-1.42","spark_pilot_norest","10521","6","16","Female","","","","","","","null","<div style=""font-size:60px;"">+</div>","null","fixation","","","","","","","","","85","","",""
"revaluation","203","896483","0.0-4.0-2.0-0.43","spark_pilot_norest","10521","6","16","Female","","false","","","","","[478.59999999962747,532.2000000001863]","./assets/img/canyon/memory/17.jpg","[""ArrowDown"",""ArrowRight""]","value training","canyon","30","{""ArrowUp,ArrowLeft"":23,""ArrowUp,ArrowRight"":10,""ArrowDown,ArrowLeft"":8,""ArrowDown,ArrowRight"":30}","true","ArrowDown,ArrowRight","false","revaluation","1","86","","",""
"html-keyboard-response","204","896986","0.0-4.0-2.0-1.43","spark_pilot_norest","10521","6","16","Female","","","","","","","null","<div style=""font-size:60px;"">+</div>","null","fixation","","","","","","","","","87","","",""
"revaluation","205","903011","0.0-4.0-2.0-0.44","spark_pilot_norest","10521","6","16","Female","","false","","","","","[501.90000000037253,299]","./assets/img/canyon/memory/29.jpg","[""ArrowDown"",""ArrowRight""]","value training","canyon","30","{""ArrowUp,ArrowLeft"":23,""ArrowUp,ArrowRight"":10,""ArrowDown,ArrowLeft"":8,""ArrowDown,ArrowRight"":30}","true","ArrowDown,ArrowRight","false","revaluation","1","88","","",""
"html-keyboard-response","206","903515","0.0-4.0-2.0-1.44","spark_pilot_norest","10521","6","16","Female","","","","","","","null","<div style=""font-size:60px;"">+</div>","null","fixation","","","","","","","","","89","","",""
"revaluation","207","907531","0.0-4.0-2.0-0.45","spark_pilot_norest","10521","6","16","Female","","false","","","","","[540.4000000003725]","./assets/img/canyon/catch/1.jpg","[""spaceBar""]","value training","canyon","0","{""ArrowUp,ArrowLeft"":23,""ArrowUp,ArrowRight"":10,""ArrowDown,ArrowLeft"":8,""ArrowDown,ArrowRight"":30}","true","spaceBar","true","revaluation","1","90","","",""
"html-keyboard-response","208","908034","0.0-4.0-2.0-1.45","spark_pilot_norest","10521","6","16","Female","","","","","","","null","<div style=""font-size:60px;"">+</div>","null","fixation","","","","","","","","","91","","",""
"revaluation","209","914059","0.0-4.0-2.0-0.46","spark_pilot_norest","10521","6","16","Female","","false","","","","","[417.19999999925494,399.90000000037253]","./assets/img/canyon/memory/0.jpg","[""ArrowDown"",""ArrowRight""]","value training","canyon","30","{""ArrowUp,ArrowLeft"":23,""ArrowUp,ArrowRight"":10,""ArrowDown,ArrowLeft"":8,""ArrowDown,ArrowRight"":30}","true","ArrowDown,ArrowRight","false","revaluation","1","92","","",""
"html-keyboard-response","210","914563","0.0-4.0-2.0-1.46","spark_pilot_norest","10521","6","16","Female","","","","","","","null","<div style=""font-size:60px;"">+</div>","null","fixation","","","","","","","","","93","","",""
"revaluation","211","920587","0.0-4.0-2.0-0.47","spark_pilot_norest","10521","6","16","Female","","false","","","","","[513.2999999998137,1136.9000000003725]","./assets/img/canyon/memory/10.jpg","[""ArrowDown"",""ArrowRight""]","value training","canyon","30","{""ArrowUp,ArrowLeft"":23,""ArrowUp,ArrowRight"":10,""ArrowDown,ArrowLeft"":8,""ArrowDown,ArrowRight"":30}","true","ArrowDown,ArrowRight","false","revaluation","1","94","","",""
"html-keyboard-response","212","921091","0.0-4.0-2.0-1.47","spark_pilot_norest","10521","6","16","Female","","","","","","","null","<div style=""font-size:60px;"">+</div>","null","fixation","","","","","","","","","95","","",""
"revaluation","213","927115","0.0-4.0-2.0-0.48","spark_pilot_norest","10521","6","16","Female","","false","","","","","[405.09999999962747,381.90000000037253]","./assets/img/canyon/memory/19.jpg","[""ArrowDown"",""ArrowRight""]","value training","canyon","30","{""ArrowUp,ArrowLeft"":23,""ArrowUp,ArrowRight"":10,""ArrowDown,ArrowLeft"":8,""ArrowDown,ArrowRight"":30}","true","ArrowDown,ArrowRight","false","revaluation","1","96","","",""
"html-keyboard-response","214","927618","0.0-4.0-2.0-1.48","spark_pilot_norest","10521","6","16","Female","","","","","","","null","<div style=""font-size:60px;"">+</div>","null","fixation","","","","","","","","","97","","",""
"revaluation","215","933643","0.0-4.0-2.0-0.49","spark_pilot_norest","10521","6","16","Female","","false","","","","","[372.59999999962747,454]","./assets/img/canyon/memory/16.jpg","[""ArrowDown"",""ArrowRight""]","value training","canyon","30","{""ArrowUp,ArrowLeft"":23,""ArrowUp,ArrowRight"":10,""ArrowDown,ArrowLeft"":8,""ArrowDown,ArrowRight"":30}","true","ArrowDown,ArrowRight","false","revaluation","1","98","","",""
"html-keyboard-response","216","934147","0.0-4.0-2.0-1.49","spark_pilot_norest","10521","6","16","Female","","","","","","","null","<div style=""font-size:60px;"">+</div>","null","fixation","","","","","","","","","99","","",""
"learning-instructions","217","950667","0.0-4.0-3.0-0.0","spark_pilot_norest","10521","6","16","Female","","","","","","","3472.9000000003725","<p> Now, you will travel with a friend who will choose whether you go up or down first. </p>
            <p> On these turns, you will just see the animal that they found. You will still get to choose which chest to search for treasure.</p>","","instructions","","","","","","","","","","","",""
"revaluation","218","954683","0.0-4.0-4.0-0.0","spark_pilot_norest","10521","6","16","Female","","false","","","","","[693.2999999998137]","./assets/img/canyon/animals/lion.jpg","[""ArrowRight""]","revaluation","canyon","15","{""ArrowUp,ArrowLeft"":27,""ArrowUp,ArrowRight"":15,""ArrowDown,ArrowLeft"":21,""ArrowDown,ArrowRight"":7}","false","ArrowUp,ArrowRight","","revaluation","1","0","","",""
"html-keyboard-response","219","955187","0.0-4.0-4.0-1.0","spark_pilot_norest","10521","6","16","Female","","","","","","","null","<div style=""font-size:60px;"">+</div>","null","fixation","","","","","","","","","1","","",""
"revaluation","220","959204","0.0-4.0-4.0-0.1","spark_pilot_norest","10521","6","16","Female","","false","","","","","[422.6000000005588]","./assets/img/canyon/animals/lion.jpg","[""ArrowLeft""]","revaluation","canyon","27","{""ArrowUp,ArrowLeft"":27,""ArrowUp,ArrowRight"":15,""ArrowDown,ArrowLeft"":21,""ArrowDown,ArrowRight"":7}","true","ArrowUp,ArrowLeft","","revaluation","1","2","","",""
"html-keyboard-response","221","959707","0.0-4.0-4.0-1.1","spark_pilot_norest","10521","6","16","Female","","","","","","","null","<div style=""font-size:60px;"">+</div>","null","fixation","","","","","","","","","3","","",""
"revaluation","222","963723","0.0-4.0-4.0-0.2","spark_pilot_norest","10521","6","16","Female","","false","","","","","[477.70000000018626]","./assets/img/canyon/animals/lion.jpg","[""ArrowLeft""]","revaluation","canyon","27","{""ArrowUp,ArrowLeft"":27,""ArrowUp,ArrowRight"":15,""ArrowDown,ArrowLeft"":21,""ArrowDown,ArrowRight"":7}","true","ArrowUp,ArrowLeft","","revaluation","1","4","","",""
"html-keyboard-response","223","964227","0.0-4.0-4.0-1.2","spark_pilot_norest","10521","6","16","Female","","","","","","","null","<div style=""font-size:60px;"">+</div>","null","fixation","","","","","","","","","5","","",""
"revaluation","224","968243","0.0-4.0-4.0-0.3","spark_pilot_norest","10521","6","16","Female","","false","","","","","[537.7999999998137]","./assets/img/canyon/animals/giraffe.jpg","[""ArrowRight""]","revaluation","canyon","7","{""ArrowUp,ArrowLeft"":27,""ArrowUp,ArrowRight"":15,""ArrowDown,ArrowLeft"":21,""ArrowDown,ArrowRight"":7}","false","ArrowDown,ArrowRight","","revaluation","1","6","","",""
"html-keyboard-response","225","968747","0.0-4.0-4.0-1.3","spark_pilot_norest","10521","6","16","Female","","","","","","","null","<div style=""font-size:60px;"">+</div>","null","fixation","","","","","","","","","7","","",""
"revaluation","226","972763","0.0-4.0-4.0-0.4","spark_pilot_norest","10521","6","16","Female","","false","","","","","[452.5]","./assets/img/canyon/animals/giraffe.jpg","[""ArrowLeft""]","revaluation","canyon","21","{""ArrowUp,ArrowLeft"":27,""ArrowUp,ArrowRight"":15,""ArrowDown,ArrowLeft"":21,""ArrowDown,ArrowRight"":7}","true","ArrowDown,ArrowLeft","","revaluation","1","8","","",""
"html-keyboard-response","227","973267","0.0-4.0-4.0-1.4","spark_pilot_norest","10521","6","16","Female","","","","","","","null","<div style=""font-size:60px;"">+</div>","null","fixation","","","","","","","","","9","","",""
"revaluation","228","977283","0.0-4.0-4.0-0.5","spark_pilot_norest","10521","6","16","Female","","false","","","","","[831.3000000007451]","./assets/img/canyon/animals/giraffe.jpg","[""ArrowLeft""]","revaluation","canyon","21","{""ArrowUp,ArrowLeft"":27,""ArrowUp,ArrowRight"":15,""ArrowDown,ArrowLeft"":21,""ArrowDown,ArrowRight"":7}","true","ArrowDown,ArrowLeft","","revaluation","1","10","","",""
"html-keyboard-response","229","977786","0.0-4.0-4.0-1.5","spark_pilot_norest","10521","6","16","Female","","","","","","","null","<div style=""font-size:60px;"">+</div>","null","fixation","","","","","","","","","11","","",""
"revaluation","230","981803","0.0-4.0-4.0-0.6","spark_pilot_norest","10521","6","16","Female","","false","","","","","[409.3999999994412]","./assets/img/canyon/animals/lion.jpg","[""ArrowLeft""]","revaluation","canyon","27","{""ArrowUp,ArrowLeft"":27,""ArrowUp,ArrowRight"":15,""ArrowDown,ArrowLeft"":21,""ArrowDown,ArrowRight"":7}","true","ArrowUp,ArrowLeft","","revaluation","1","12","","",""
"html-keyboard-response","231","982306","0.0-4.0-4.0-1.6","spark_pilot_norest","10521","6","16","Female","","","","","","","null","<div style=""font-size:60px;"">+</div>","null","fixation","","","","","","","","","13","","",""
"revaluation","232","986323","0.0-4.0-4.0-0.7","spark_pilot_norest","10521","6","16","Female","","false","","","","","[398.80000000074506]","./assets/img/canyon/animals/lion.jpg","[""ArrowLeft""]","revaluation","canyon","27","{""ArrowUp,ArrowLeft"":27,""ArrowUp,ArrowRight"":15,""ArrowDown,ArrowLeft"":21,""ArrowDown,ArrowRight"":7}","true","ArrowUp,ArrowLeft","","revaluation","1","14","","",""
"html-keyboard-response","233","986827","0.0-4.0-4.0-1.7","spark_pilot_norest","10521","6","16","Female","","","","","","","null","<div style=""font-size:60px;"">+</div>","null","fixation","","","","","","","","","15","","",""
"revaluation","234","990843","0.0-4.0-4.0-0.8","spark_pilot_norest","10521","6","16","Female","","false","","","","","[426]","./assets/img/canyon/animals/lion.jpg","[""ArrowLeft""]","revaluation","canyon","27","{""ArrowUp,ArrowLeft"":27,""ArrowUp,ArrowRight"":15,""ArrowDown,ArrowLeft"":21,""ArrowDown,ArrowRight"":7}","true","ArrowUp,ArrowLeft","","revaluation","1","16","","",""
"html-keyboard-response","235","991347","0.0-4.0-4.0-1.8","spark_pilot_norest","10521","6","16","Female","","","","","","","null","<div style=""font-size:60px;"">+</div>","null","fixation","","","","","","","","","17","","",""
"revaluation","236","995363","0.0-4.0-4.0-0.9","spark_pilot_norest","10521","6","16","Female","","false","","","","","[529.2999999998137]","./assets/img/canyon/animals/giraffe.jpg","[""ArrowLeft""]","revaluation","canyon","21","{""ArrowUp,ArrowLeft"":27,""ArrowUp,ArrowRight"":15,""ArrowDown,ArrowLeft"":21,""ArrowDown,ArrowRight"":7}","true","ArrowDown,ArrowLeft","","revaluation","1","18","","",""
"html-keyboard-response","237","995866","0.0-4.0-4.0-1.9","spark_pilot_norest","10521","6","16","Female","","","","","","","null","<div style=""font-size:60px;"">+</div>","null","fixation","","","","","","","","","19","","",""
"revaluation","238","999883","0.0-4.0-4.0-0.10","spark_pilot_norest","10521","6","16","Female","","false","","","","","[385.29999999981374]","./assets/img/canyon/animals/giraffe.jpg","[""ArrowLeft""]","revaluation","canyon","21","{""ArrowUp,ArrowLeft"":27,""ArrowUp,ArrowRight"":15,""ArrowDown,ArrowLeft"":21,""ArrowDown,ArrowRight"":7}","true","ArrowDown,ArrowLeft","","revaluation","1","20","","",""
"html-keyboard-response","239","1000387","0.0-4.0-4.0-1.10","spark_pilot_norest","10521","6","16","Female","","","","","","","null","<div style=""font-size:60px;"">+</div>","null","fixation","","","","","","","","","21","","",""
"revaluation","240","1004403","0.0-4.0-4.0-0.11","spark_pilot_norest","10521","6","16","Female","","false","","","","","[434.40000000037253]","./assets/img/canyon/animals/giraffe.jpg","[""ArrowLeft""]","revaluation","canyon","21","{""ArrowUp,ArrowLeft"":27,""ArrowUp,ArrowRight"":15,""ArrowDown,ArrowLeft"":21,""ArrowDown,ArrowRight"":7}","true","ArrowDown,ArrowLeft","","revaluation","1","22","","",""
"html-keyboard-response","241","1004907","0.0-4.0-4.0-1.11","spark_pilot_norest","10521","6","16","Female","","","","","","","null","<div style=""font-size:60px;"">+</div>","null","fixation","","","","","","","","","23","","",""
"revaluation","242","1008923","0.0-4.0-4.0-0.12","spark_pilot_norest","10521","6","16","Female","","false","","","","","[406.29999999981374]","./assets/img/canyon/animals/giraffe.jpg","[""ArrowLeft""]","revaluation","canyon","21","{""ArrowUp,ArrowLeft"":27,""ArrowUp,ArrowRight"":15,""ArrowDown,ArrowLeft"":21,""ArrowDown,ArrowRight"":7}","true","ArrowDown,ArrowLeft","","revaluation","1","24","","",""
"html-keyboard-response","243","1009427","0.0-4.0-4.0-1.12","spark_pilot_norest","10521","6","16","Female","","","","","","","null","<div style=""font-size:60px;"">+</div>","null","fixation","","","","","","","","","25","","",""
"revaluation","244","1013443","0.0-4.0-4.0-0.13","spark_pilot_norest","10521","6","16","Female","","false","","","","","[423.90000000037253]","./assets/img/canyon/animals/lion.jpg","[""ArrowLeft""]","revaluation","canyon","27","{""ArrowUp,ArrowLeft"":27,""ArrowUp,ArrowRight"":15,""ArrowDown,ArrowLeft"":21,""ArrowDown,ArrowRight"":7}","true","ArrowUp,ArrowLeft","","revaluation","1","26","","",""
"html-keyboard-response","245","1013946","0.0-4.0-4.0-1.13","spark_pilot_norest","10521","6","16","Female","","","","","","","null","<div style=""font-size:60px;"">+</div>","null","fixation","","","","","","","","","27","","",""
"revaluation","246","1017963","0.0-4.0-4.0-0.14","spark_pilot_norest","10521","6","16","Female","","false","","","","","[307.20000000018626]","./assets/img/canyon/animals/giraffe.jpg","[""ArrowLeft""]","revaluation","canyon","21","{""ArrowUp,ArrowLeft"":27,""ArrowUp,ArrowRight"":15,""ArrowDown,ArrowLeft"":21,""ArrowDown,ArrowRight"":7}","true","ArrowDown,ArrowLeft","","revaluation","1","28","","",""
"html-keyboard-response","247","1018467","0.0-4.0-4.0-1.14","spark_pilot_norest","10521","6","16","Female","","","","","","","null","<div style=""font-size:60px;"">+</div>","null","fixation","","","","","","","","","29","","",""
"revaluation","248","1022485","0.0-4.0-4.0-0.15","spark_pilot_norest","10521","6","16","Female","","false","","","","","[345.1000000005588]","./assets/img/canyon/animals/giraffe.jpg","[""ArrowLeft""]","revaluation","canyon","21","{""ArrowUp,ArrowLeft"":27,""ArrowUp,ArrowRight"":15,""ArrowDown,ArrowLeft"":21,""ArrowDown,ArrowRight"":7}","true","ArrowDown,ArrowLeft","","revaluation","1","30","","",""
"html-keyboard-response","249","1022995","0.0-4.0-4.0-1.15","spark_pilot_norest","10521","6","16","Female","","","","","","","null","<div style=""font-size:60px;"">+</div>","null","fixation","","","","","","","","","31","","",""
"revaluation","250","1027011","0.0-4.0-4.0-0.16","spark_pilot_norest","10521","6","16","Female","","false","","","","","[449.29999999981374]","./assets/img/canyon/animals/lion.jpg","[""ArrowLeft""]","revaluation","canyon","27","{""ArrowUp,ArrowLeft"":27,""ArrowUp,ArrowRight"":15,""ArrowDown,ArrowLeft"":21,""ArrowDown,ArrowRight"":7}","true","ArrowUp,ArrowLeft","","revaluation","1","32","","",""
"html-keyboard-response","251","1027514","0.0-4.0-4.0-1.16","spark_pilot_norest","10521","6","16","Female","","","","","","","null","<div style=""font-size:60px;"">+</div>","null","fixation","","","","","","","","","33","","",""
"revaluation","252","1031531","0.0-4.0-4.0-0.17","spark_pilot_norest","10521","6","16","Female","","false","","","","","[645.8999999994412]","./assets/img/canyon/animals/lion.jpg","[""ArrowLeft""]","revaluation","canyon","27","{""ArrowUp,ArrowLeft"":27,""ArrowUp,ArrowRight"":15,""ArrowDown,ArrowLeft"":21,""ArrowDown,ArrowRight"":7}","true","ArrowUp,ArrowLeft","","revaluation","1","34","","",""
"html-keyboard-response","253","1032035","0.0-4.0-4.0-1.17","spark_pilot_norest","10521","6","16","Female","","","","","","","null","<div style=""font-size:60px;"">+</div>","null","fixation","","","","","","","","","35","","",""
"learning-instructions","254","1040313","0.0-4.0-5.0-0.0","spark_pilot_norest","10521","6","16","Female","","","","","","","null","<p> You have almost finished this part of the game! </p>
            <p> We are going to ask you to make a few more choices. </p>","","instructions","","","","","","","","","","","",""
"learning-instructions","255","1056297","0.0-4.0-5.0-0.1","spark_pilot_norest","10521","6","16","Female","","","","","","","null","<p> First, you need to decide whether to go up or down. When you see each picture, use the arrow keys to make your choice. </p>
            <p><b>You will not see which animal you found, but try to get to the one that will give you the most treasure.</b></p>","","instructions","","","","","","","","","","","",""
"html-keyboard-response","256","1057307","0.0-4.0-6.0-0.0","spark_pilot_norest","10521","6","16","Female","","","","","","","null","<div style=""font-size:100px;color:red;"">Starting in...</div>","null","","","","","","","","","","","","",""
"html-keyboard-response","257","1058315","0.0-4.0-6.0-1.0","spark_pilot_norest","10521","6","16","Female","","","","","","","null","<div style=""font-size:200px;color:red;"">3</div>","null","","","","","","","","","","","","",""
"html-keyboard-response","258","1059322","0.0-4.0-6.0-2.0","spark_pilot_norest","10521","6","16","Female","","","","","","","null","<div style=""font-size:200px;color:red;"">2</div>","null","","","","","","","","","","","","",""
"html-keyboard-response","259","1060331","0.0-4.0-6.0-3.0","spark_pilot_norest","10521","6","16","Female","","","","","","","null","<div style=""font-size:200px;color:red;"">1</div>","null","","","","","","","","","","","","",""
"revaluation","260","1061112","0.0-4.0-7.0-0.0","spark_pilot_norest","10521","6","16","Female","","false","","","","","[774]","./assets/img/canyon/test/3.jpg","[""ArrowUp""]","first stage test","canyon","0","{""ArrowUp,ArrowLeft"":27,""ArrowUp,ArrowRight"":15,""ArrowDown,ArrowLeft"":21,""ArrowDown,ArrowRight"":7}","true","ArrowUp","false","revaluation","1","","","",""
"html-keyboard-response","261","1061618","0.0-4.0-7.0-1.0","spark_pilot_norest","10521","6","16","Female","","","","","","","null","<div style=""font-size:60px;"">+</div>","null","fixation","","","","","","","","","","","",""
"revaluation","262","1062298","0.0-4.0-7.0-0.1","spark_pilot_norest","10521","6","16","Female","","false","","","","","[672.2000000001863]","./assets/img/canyon/test/2.jpg","[""ArrowDown""]","first stage test","canyon","0","{""ArrowUp,ArrowLeft"":27,""ArrowUp,ArrowRight"":15,""ArrowDown,ArrowLeft"":21,""ArrowDown,ArrowRight"":7}","false","ArrowDown","false","revaluation","1","","","",""
"html-keyboard-response","263","1062802","0.0-4.0-7.0-1.1","spark_pilot_norest","10521","6","16","Female","","","","","","","null","<div style=""font-size:60px;"">+</div>","null","fixation","","","","","","","","","","","",""
"revaluation","264","1063437","0.0-4.0-7.0-0.2","spark_pilot_norest","10521","6","16","Female","","false","","","","","[627.0999999996275]","./assets/img/canyon/test/1.jpg","[""ArrowUp""]","first stage test","canyon","0","{""ArrowUp,ArrowLeft"":27,""ArrowUp,ArrowRight"":15,""ArrowDown,ArrowLeft"":21,""ArrowDown,ArrowRight"":7}","true","ArrowUp","false","revaluation","1","","","",""
"html-keyboard-response","265","1063947","0.0-4.0-7.0-1.2","spark_pilot_norest","10521","6","16","Female","","","","","","","null","<div style=""font-size:60px;"">+</div>","null","fixation","","","","","","","","","","","",""
"revaluation","266","1064616","0.0-4.0-7.0-0.3","spark_pilot_norest","10521","6","16","Female","","false","","","","","[662.2999999998137]","./assets/img/canyon/test/0.jpg","[""ArrowUp""]","first stage test","canyon","0","{""ArrowUp,ArrowLeft"":27,""ArrowUp,ArrowRight"":15,""ArrowDown,ArrowLeft"":21,""ArrowDown,ArrowRight"":7}","true","ArrowUp","false","revaluation","1","","","",""
"html-keyboard-response","267","1065123","0.0-4.0-7.0-1.3","spark_pilot_norest","10521","6","16","Female","","","","","","","null","<div style=""font-size:60px;"">+</div>","null","fixation","","","","","","","","","","","",""
"learning-instructions","268","1078480","0.0-4.0-8.0-0.0","spark_pilot_norest","10521","6","16","Female","","","","","","","null","<p> Now you will see the animals again and can search their chests for treasure. </p>
            <p> This time, you will not see how much treasure you earned, but you will earn more bonus money for making better choices. </p>","","instructions","","","","","","","","","","","",""
"html-keyboard-response","269","1079482","0.0-4.0-9.0-0.0","spark_pilot_norest","10521","6","16","Female","","","","","","","null","<div style=""font-size:100px;color:red;"">Starting in...</div>","null","","","","","","","","","","","","",""
"html-keyboard-response","270","1080490","0.0-4.0-9.0-1.0","spark_pilot_norest","10521","6","16","Female","","","","","","","null","<div style=""font-size:200px;color:red;"">3</div>","null","","","","","","","","","","","","",""
"html-keyboard-response","271","1081498","0.0-4.0-9.0-2.0","spark_pilot_norest","10521","6","16","Female","","","","","","","null","<div style=""font-size:200px;color:red;"">2</div>","null","","","","","","","","","","","","",""
"html-keyboard-response","272","1082506","0.0-4.0-9.0-3.0","spark_pilot_norest","10521","6","16","Female","","","","","","","null","<div style=""font-size:200px;color:red;"">1</div>","null","","","","","","","","","","","","",""
"revaluation","273","1083216","0.0-4.0-10.0-0.0","spark_pilot_norest","10521","6","16","Female","","false","","","","","[701.0999999996275]","./assets/img/canyon/animals/lion.jpg","[""ArrowRight""]","second stage test","canyon","0","{""ArrowUp,ArrowLeft"":27,""ArrowUp,ArrowRight"":15,""ArrowDown,ArrowLeft"":21,""ArrowDown,ArrowRight"":7}","false","ArrowUp,ArrowRight","","revaluation","1","","","",""
"html-keyboard-response","274","1083723","0.0-4.0-10.0-1.0","spark_pilot_norest","10521","6","16","Female","","","","","","","null","<div style=""font-size:60px;"">+</div>","null","fixation","","","","","","","","","","","",""
"revaluation","275","1085500","0.0-4.0-10.0-0.1","spark_pilot_norest","10521","6","16","Female","","false","","","","","[1769.4000000003725]","./assets/img/canyon/animals/lion.jpg","[""ArrowLeft""]","second stage test","canyon","0","{""ArrowUp,ArrowLeft"":27,""ArrowUp,ArrowRight"":15,""ArrowDown,ArrowLeft"":21,""ArrowDown,ArrowRight"":7}","true","ArrowUp,ArrowLeft","","revaluation","1","","","",""
"html-keyboard-response","276","1086002","0.0-4.0-10.0-1.1","spark_pilot_norest","10521","6","16","Female","","","","","","","null","<div style=""font-size:60px;"">+</div>","null","fixation","","","","","","","","","","","",""
"revaluation","277","1086582","0.0-4.0-10.0-0.2","spark_pilot_norest","10521","6","16","Female","","false","","","","","[572.3999999994412]","./assets/img/canyon/animals/lion.jpg","[""ArrowLeft""]","second stage test","canyon","0","{""ArrowUp,ArrowLeft"":27,""ArrowUp,ArrowRight"":15,""ArrowDown,ArrowLeft"":21,""ArrowDown,ArrowRight"":7}","true","ArrowUp,ArrowLeft","","revaluation","1","","","",""
"html-keyboard-response","278","1087090","0.0-4.0-10.0-1.2","spark_pilot_norest","10521","6","16","Female","","","","","","","null","<div style=""font-size:60px;"">+</div>","null","fixation","","","","","","","","","","","",""
"revaluation","279","1087784","0.0-4.0-10.0-0.3","spark_pilot_norest","10521","6","16","Female","","false","","","","","[687.1000000005588]","./assets/img/canyon/animals/lion.jpg","[""ArrowLeft""]","second stage test","canyon","0","{""ArrowUp,ArrowLeft"":27,""ArrowUp,ArrowRight"":15,""ArrowDown,ArrowLeft"":21,""ArrowDown,ArrowRight"":7}","true","ArrowUp,ArrowLeft","","revaluation","1","","","",""
"html-keyboard-response","280","1088290","0.0-4.0-10.0-1.3","spark_pilot_norest","10521","6","16","Female","","","","","","","null","<div style=""font-size:60px;"">+</div>","null","fixation","","","","","","","","","","","",""
"revaluation","281","1089427","0.0-4.0-10.0-0.4","spark_pilot_norest","10521","6","16","Female","","false","","","","","[1129.2999999998137]","./assets/img/canyon/animals/giraffe.jpg","[""ArrowRight""]","second stage test","canyon","0","{""ArrowUp,ArrowLeft"":27,""ArrowUp,ArrowRight"":15,""ArrowDown,ArrowLeft"":21,""ArrowDown,ArrowRight"":7}","false","ArrowDown,ArrowRight","","revaluation","1","","","",""
"html-keyboard-response","282","1089930","0.0-4.0-10.0-1.4","spark_pilot_norest","10521","6","16","Female","","","","","","","null","<div style=""font-size:60px;"">+</div>","null","fixation","","","","","","","","","","","",""
"revaluation","283","1091103","0.0-4.0-10.0-0.5","spark_pilot_norest","10521","6","16","Female","","false","","","","","[1165.1000000005588]","./assets/img/canyon/animals/giraffe.jpg","[""ArrowRight""]","second stage test","canyon","0","{""ArrowUp,ArrowLeft"":27,""ArrowUp,ArrowRight"":15,""ArrowDown,ArrowLeft"":21,""ArrowDown,ArrowRight"":7}","false","ArrowDown,ArrowRight","","revaluation","1","","","",""
"html-keyboard-response","284","1091610","0.0-4.0-10.0-1.5","spark_pilot_norest","10521","6","16","Female","","","","","","","null","<div style=""font-size:60px;"">+</div>","null","fixation","","","","","","","","","","","",""
"revaluation","285","1092397","0.0-4.0-10.0-0.6","spark_pilot_norest","10521","6","16","Female","","false","","","","","[779.5]","./assets/img/canyon/animals/giraffe.jpg","[""ArrowRight""]","second stage test","canyon","0","{""ArrowUp,ArrowLeft"":27,""ArrowUp,ArrowRight"":15,""ArrowDown,ArrowLeft"":21,""ArrowDown,ArrowRight"":7}","false","ArrowDown,ArrowRight","","revaluation","1","","","",""
"html-keyboard-response","286","1092907","0.0-4.0-10.0-1.6","spark_pilot_norest","10521","6","16","Female","","","","","","","null","<div style=""font-size:60px;"">+</div>","null","fixation","","","","","","","","","","","",""
"revaluation","287","1093464","0.0-4.0-10.0-0.7","spark_pilot_norest","10521","6","16","Female","","false","","","","","[550.7000000001863]","./assets/img/canyon/animals/giraffe.jpg","[""ArrowRight""]","second stage test","canyon","0","{""ArrowUp,ArrowLeft"":27,""ArrowUp,ArrowRight"":15,""ArrowDown,ArrowLeft"":21,""ArrowDown,ArrowRight"":7}","false","ArrowDown,ArrowRight","","revaluation","1","","","",""
"html-keyboard-response","288","1093970","0.0-4.0-10.0-1.7","spark_pilot_norest","10521","6","16","Female","","","","","","","null","<div style=""font-size:60px;"">+</div>","null","fixation","","","","","","","","","","","",""
"learning-instructions","289","1099326","0.0-4.0-0.1-0.2","spark_pilot_norest","10521","6","16","Female","","","","","","","2641.0999999996275","<p> This time you are searching for treasure in the <b>ocean</b>.</p>","","instructions","","","","","","","","","","","",""
"learning-instructions","290","1118217","0.0-4.0-0.1-0.3","spark_pilot_norest","10521","6","16","Female","","","","","","","1627.8999999994412","<p><b>New</b> animals with <b>new</b> treasure chests live here. You need to explore to discover where the animal with the best treasure chest is.</p>
                    <p> Like before, once you figure out which animal has the chest with the most treasure, you should try to get to that animal and select that chest! </p>","","instructions","","","","","","","","","","","",""
"learning-instructions","291","1134127","0.0-4.0-1.1-0.1","spark_pilot_norest","10521","6","16","Female","","","","","","","1176.0999999996275","<p> Remember, when you see a picture of the place, use the up and down keys to <b>find an animal</b>.</p>
            <p> When you encounter an animal, you should use the left and right keys to <b>select a treasure chest</b>.</p>
            <p> Don't forget to look out for the robber! </p>","","instructions","","","","","","","","","","","",""
"revaluation","292","1140155","0.0-4.0-2.1-0.50","spark_pilot_norest","10521","6","16","Female","","false","","","","","[531.4000000003725,480.70000000018626]","./assets/img/ocean/memory/3.jpg","[""ArrowUp"",""ArrowRight""]","value training","ocean","10","{""ArrowUp,ArrowLeft"":26,""ArrowUp,ArrowRight"":10,""ArrowDown,ArrowLeft"":5,""ArrowDown,ArrowRight"":17}","false","ArrowUp,ArrowRight","false","original","2","0","","",""
"html-keyboard-response","293","1140658","0.0-4.0-2.1-1.50","spark_pilot_norest","10521","6","16","Female","","","","","","","null","<div style=""font-size:60px;"">+</div>","null","fixation","","","","","","","","","1","","",""
"revaluation","294","1146683","0.0-4.0-2.1-0.51","spark_pilot_norest","10521","6","16","Female","","false","","","","","[217.79999999981374,343.90000000037253]","./assets/img/ocean/memory/10.jpg","[""ArrowUp"",""ArrowLeft""]","value training","ocean","26","{""ArrowUp,ArrowLeft"":26,""ArrowUp,ArrowRight"":10,""ArrowDown,ArrowLeft"":5,""ArrowDown,ArrowRight"":17}","true","ArrowUp,ArrowLeft","false","original","2","2","","",""
"html-keyboard-response","295","1147186","0.0-4.0-2.1-1.51","spark_pilot_norest","10521","6","16","Female","","","","","","","null","<div style=""font-size:60px;"">+</div>","null","fixation","","","","","","","","","3","","",""
"revaluation","296","1153211","0.0-4.0-2.1-0.52","spark_pilot_norest","10521","6","16","Female","","false","","","","","[420.5,426.09999999962747]","./assets/img/ocean/memory/41.jpg","[""ArrowDown"",""ArrowRight""]","value training","ocean","17","{""ArrowUp,ArrowLeft"":26,""ArrowUp,ArrowRight"":10,""ArrowDown,ArrowLeft"":5,""ArrowDown,ArrowRight"":17}","false","ArrowDown,ArrowRight","false","original","2","4","","",""
"html-keyboard-response","297","1153714","0.0-4.0-2.1-1.52","spark_pilot_norest","10521","6","16","Female","","","","","","","null","<div style=""font-size:60px;"">+</div>","null","fixation","","","","","","","","","5","","",""
"revaluation","298","1159739","0.0-4.0-2.1-0.53","spark_pilot_norest","10521","6","16","Female","","false","","","","","[295,313.5]","./assets/img/ocean/memory/0.jpg","[""ArrowDown"",""ArrowLeft""]","value training","ocean","5","{""ArrowUp,ArrowLeft"":26,""ArrowUp,ArrowRight"":10,""ArrowDown,ArrowLeft"":5,""ArrowDown,ArrowRight"":17}","false","ArrowDown,ArrowLeft","false","original","2","6","","",""
"html-keyboard-response","299","1160242","0.0-4.0-2.1-1.53","spark_pilot_norest","10521","6","16","Female","","","","","","","null","<div style=""font-size:60px;"">+</div>","null","fixation","","","","","","","","","7","","",""
"revaluation","300","1166267","0.0-4.0-2.1-0.54","spark_pilot_norest","10521","6","16","Female","","false","","","","","[351.6000000005588,295.5]","./assets/img/ocean/memory/22.jpg","[""ArrowUp"",""ArrowLeft""]","value training","ocean","26","{""ArrowUp,ArrowLeft"":26,""ArrowUp,ArrowRight"":10,""ArrowDown,ArrowLeft"":5,""ArrowDown,ArrowRight"":17}","true","ArrowUp,ArrowLeft","false","original","2","8","","",""
"html-keyboard-response","301","1166771","0.0-4.0-2.1-1.54","spark_pilot_norest","10521","6","16","Female","","","","","","","null","<div style=""font-size:60px;"">+</div>","null","fixation","","","","","","","","","9","","",""
"revaluation","302","1172795","0.0-4.0-2.1-0.55","spark_pilot_norest","10521","6","16","Female","","false","","","","","[545.5999999996275,532]","./assets/img/ocean/memory/31.jpg","[""ArrowUp"",""ArrowLeft""]","value training","ocean","26","{""ArrowUp,ArrowLeft"":26,""ArrowUp,ArrowRight"":10,""ArrowDown,ArrowLeft"":5,""ArrowDown,ArrowRight"":17}","true","ArrowUp,ArrowLeft","false","original","2","10","","",""
"html-keyboard-response","303","1173299","0.0-4.0-2.1-1.55","spark_pilot_norest","10521","6","16","Female","","","","","","","null","<div style=""font-size:60px;"">+</div>","null","fixation","","","","","","","","","11","","",""
"revaluation","304","1177315","0.0-4.0-2.1-0.56","spark_pilot_norest","10521","6","16","Female","","false","","","","","[371.59999999962747]","./assets/img/ocean/catch/5.jpg","[""ArrowUp""]","value training","ocean","-10","{""ArrowUp,ArrowLeft"":26,""ArrowUp,ArrowRight"":10,""ArrowDown,ArrowLeft"":5,""ArrowDown,ArrowRight"":17}","false","ArrowUp","true","original","2","12","","",""
"html-keyboard-response","305","1177819","0.0-4.0-2.1-1.56","spark_pilot_norest","10521","6","16","Female","","","","","","","null","<div style=""font-size:60px;"">+</div>","null","fixation","","","","","","","","","13","","",""
"revaluation","306","1183843","0.0-4.0-2.1-0.57","spark_pilot_norest","10521","6","16","Female","","false","","","","","[525.4000000003725,337.40000000037253]","./assets/img/ocean/memory/15.jpg","[""ArrowUp"",""ArrowLeft""]","value training","ocean","26","{""ArrowUp,ArrowLeft"":26,""ArrowUp,ArrowRight"":10,""ArrowDown,ArrowLeft"":5,""ArrowDown,ArrowRight"":17}","true","ArrowUp,ArrowLeft","false","original","2","14","","",""
"html-keyboard-response","307","1184347","0.0-4.0-2.1-1.57","spark_pilot_norest","10521","6","16","Female","","","","","","","null","<div style=""font-size:60px;"">+</div>","null","fixation","","","","","","","","","15","","",""
"revaluation","308","1190371","0.0-4.0-2.1-0.58","spark_pilot_norest","10521","6","16","Female","","false","","","","","[415,411.3999999994412]","./assets/img/ocean/memory/29.jpg","[""ArrowUp"",""ArrowLeft""]","value training","ocean","26","{""ArrowUp,ArrowLeft"":26,""ArrowUp,ArrowRight"":10,""ArrowDown,ArrowLeft"":5,""ArrowDown,ArrowRight"":17}","true","ArrowUp,ArrowLeft","false","original","2","16","","",""
"html-keyboard-response","309","1190874","0.0-4.0-2.1-1.58","spark_pilot_norest","10521","6","16","Female","","","","","","","null","<div style=""font-size:60px;"">+</div>","null","fixation","","","","","","","","","17","","",""
