"trial_type","trial_index","time_elapsed","internal_node_id","task_version","subject_id","assigned_condition","age","gender","success","timeout","failed_images","failed_audio","failed_video","browser_interaction","value","rt","stimulus","response","task_part","environment","score","rewardMap","correct","fullState","isCatch","condition","order","trial_num","key_press","ground_truth","bonus"
"pavlovia","0","1574","0.0-0.0","spark_pilot_norest","8574","2","10","Female","","","","","","","","","","","","","","","","","","","","","","",""
"preload","1","8434","0.0-1.0","spark_pilot_norest","8574","2","10","Female","true","false","[]","[]","[]","[{""event"":""fullscreenenter"",""trial"":2,""time"":10547}]","","","","","","","","","","","","","","","","",""
"fullscreen","2","11480","0.0-2.0","spark_pilot_norest","8574","2","10","Female","true","","","","","","","","","","","","","","","","","","","","","",""
"call-function","3","14924","0.0-3.0","spark_pilot_norest","8574","2","10","Female","","","","","","","","","","","","","","","","","","","","","","",""
"audio-button-response","4","19166","0.0-4.0-0.0-0.0","spark_pilot_norest","8574","2","10","Female","","","","","","","","4187","./assets/audio/audiotest/turtle.mp3","2","audio_test","","","","","","","","","","","",""
"learning-instructions","5","27874","0.0-4.0-1.0-0.0","spark_pilot_norest","8574","2","10","Female","","","","","","","","1744","<p> Welcome! Please remember to stay in fullscreen mode and don't click away from the experiment. </p>","","instructions","","","","","","","","","","","",""
"learning-instructions","6","37169","0.0-4.0-1.0-0.1","spark_pilot_norest","8574","2","10","Female","","","","","","","","903","<p> Today you will be playing a game to earn treasure. </p>
            <p> At the end of the experiment, you will earn a bonus based on how much treasure you find. </p>
            <img src='./assets/img/instructions/treasure.jpg' class='instructions-image'>","","instructions","","","","","","","","","","","",""
"learning-instructions","7","46012","0.0-4.0-1.0-0.2","spark_pilot_norest","8574","2","10","Female","","","","","","","","603","<p> Animals have hidden treasure in treasure chests. </p>
            <p> You need to first find an animal and then choose which of their treasure chests to search. </p>
            <img src='./assets/img/space/animals/cat.jpg' class='instructions-image'>","","instructions","","","","","","","","","","","",""
"learning-instructions","8","61240","0.0-4.0-1.0-0.3","spark_pilot_norest","8574","2","10","Female","","","","","","","","1004.9999999999927","<p> In each round, you will search for treasure in a different place. In the real game, there will be two rounds. </p>
            <p> You will begin with a separate, practice round where you will search for treasure in outer space. </p>
            <img src='./assets/img/space/0.jpg' class='instructions-image'>","","instructions","","","","","","","","","","","",""
"learning-instructions","9","73726","0.0-4.0-1.0-0.4","spark_pilot_norest","8574","2","10","Female","","","","","","","","1089","<p> On every turn, you will see a picture of the place that you are in, but the specific image may be different each time. </p>
            <p> For example, both of these images mean you are in outer space. </p>
            <img src='./assets/img/instructions/outerspace.jpg' class='instructions-image'>","","instructions","","","","","","","","","","","",""
"learning-instructions","10","82624","0.0-4.0-1.0-0.5","spark_pilot_norest","8574","2","10","Female","","","","","","","","1088","<p> You need to decide which direction to travel in. </p>
            <p> You can choose between going <b>up or down</b> by using the arrow keys. </p>
            <img src='./assets/img/instructions/updown.jpg' class='instructions-image'>","","instructions","","","","","","","","","","","",""
"learning-instructions","11","92652","0.0-4.0-1.0-0.6","spark_pilot_norest","8574","2","10","Female","","","","","","","","1242","<p> You will have <b>2 seconds</b> to make your choice. </p>
            <p> If you do not make a choice within 2 seconds, you will not find an animal or earn treasure. </p>
            <img src='./assets/img/instructions/2seconds.jpg' class='instructions-image'>","","instructions","","","","","","","","","","","",""
"learning-instructions","12","100962","0.0-4.0-1.0-0.7","spark_pilot_norest","8574","2","10","Female","","","","","","","","1294","<p> Let’s try practicing that now! </p>
            <p> When you see a picture of the place you are in, press the <b>up</b> key to travel up. </p>
            <img src='./assets/img/instructions/pressUp.jpg' class='instructions-image'>","","instructions","","","","","","","","","","","",""
"revaluation","13","104979","0.0-4.0-2.0-0.0","spark_pilot_norest","8574","2","10","Female","","false","","","","","","[513.0000000000146]","./assets/img/space/0.jpg","[""ArrowUp""]","first stage practice","space","0","null","null","ArrowUp","false","","","","","",""
"html-keyboard-response","14","105481","0.0-4.0-2.0-1.0","spark_pilot_norest","8574","2","10","Female","","","","","","","","null","<div style=""font-size:60px;"">+</div>","null","fixation","","","","","","","","","","","",""
"revaluation","15","109485","0.0-4.0-2.0-0.1","spark_pilot_norest","8574","2","10","Female","","false","","","","","","[1170]","./assets/img/space/1.jpg","[""ArrowUp""]","first stage practice","space","0","null","null","ArrowUp","false","","","","","",""
"html-keyboard-response","16","109987","0.0-4.0-2.0-1.1","spark_pilot_norest","8574","2","10","Female","","","","","","","","null","<div style=""font-size:60px;"">+</div>","null","fixation","","","","","","","","","","","",""
"revaluation","17","113991","0.0-4.0-2.0-0.2","spark_pilot_norest","8574","2","10","Female","","false","","","","","","[1246.0000000000146]","./assets/img/space/2.jpg","[""ArrowUp""]","first stage practice","space","0","null","null","ArrowUp","false","","","","","",""
"html-keyboard-response","18","114493","0.0-4.0-2.0-1.2","spark_pilot_norest","8574","2","10","Female","","","","","","","","null","<div style=""font-size:60px;"">+</div>","null","fixation","","","","","","","","","","","",""
"learning-instructions","19","122199","0.0-4.0-3.0-0.0","spark_pilot_norest","8574","2","10","Female","","","","","","","","3023","<p> Great job! Now try pressing the <b>down</b> key to travel down. </p>
            <img src='./assets/img/instructions/pressDown.jpg' class='instructions-image'>","","instructions","","","","","","","","","","","",""
"revaluation","20","126204","0.0-4.0-4.0-0.0","spark_pilot_norest","8574","2","10","Female","","false","","","","","","[456]","./assets/img/space/3.jpg","[""ArrowDown""]","first stage practice","space","0","null","null","ArrowDown","false","","","","","",""
"html-keyboard-response","21","126706","0.0-4.0-4.0-1.0","spark_pilot_norest","8574","2","10","Female","","","","","","","","null","<div style=""font-size:60px;"">+</div>","null","fixation","","","","","","","","","","","",""
"revaluation","22","130711","0.0-4.0-4.0-0.1","spark_pilot_norest","8574","2","10","Female","","false","","","","","","[631]","./assets/img/space/4.jpg","[""ArrowDown""]","first stage practice","space","0","null","null","ArrowDown","false","","","","","",""
"html-keyboard-response","23","131213","0.0-4.0-4.0-1.1","spark_pilot_norest","8574","2","10","Female","","","","","","","","null","<div style=""font-size:60px;"">+</div>","null","fixation","","","","","","","","","","","",""
"revaluation","24","135217","0.0-4.0-4.0-0.2","spark_pilot_norest","8574","2","10","Female","","false","","","","","","[341]","./assets/img/space/5.jpg","[""ArrowDown""]","first stage practice","space","0","null","null","ArrowDown","false","","","","","",""
"html-keyboard-response","25","135719","0.0-4.0-4.0-1.2","spark_pilot_norest","8574","2","10","Female","","","","","","","","null","<div style=""font-size:60px;"">+</div>","null","fixation","","","","","","","","","","","",""
"learning-instructions","26","147681","0.0-4.0-5.0-0.0","spark_pilot_norest","8574","2","10","Female","","","","","","","","2134.999999999971","<p> The animals don’t move, so the animal in the upper part of a place will stay in the upper part of a place, and the animal in the lower part of a place will stay in the lower part of a place. </p>","","instructions","","","","","","","","","","","",""
"learning-instructions","27","158835","0.0-4.0-5.0-0.1","spark_pilot_norest","8574","2","10","Female","","","","","","","","2045","<p> Each animal has two treasure chests for you to choose from. </p>
            <p> The amount of treasure in each chest can range from <b> 0 to 40 pieces.</b></p>","","instructions","","","","","","","","","","","",""
"learning-instructions","28","171112","0.0-4.0-5.0-0.2","spark_pilot_norest","8574","2","10","Female","","","","","","","","1109","<p> You should decide which chest to search for treasure by using the <b>left</b> and <b>right</b> arrow keys. </p>
            <p><b> Pay attention to which animal is on the screen, as the animals have different treasure chests. </b></p>
            <img src='./assets/img/instructions/leftright.jpg' class='instructions-image'>","","instructions","","","","","","","","","","","",""
"learning-instructions","29","178971","0.0-4.0-5.0-0.3","spark_pilot_norest","8574","2","10","Female","","","","","","","","1480","<p> Let’s try practicing that now. </p>
            <p> When you see an animal, choose which chest to search for treasure. </p>
            <img src='./assets/img/instructions/chooseChest.jpg' class='instructions-image'>","","instructions","","","","","","","","","","","",""
"revaluation","30","182978","0.0-4.0-6.0-0.0","spark_pilot_norest","8574","2","10","Female","","false","","","","","","[399]","./assets/img/space/animals/cat.jpg","[""ArrowRight""]","second stage practice","space","36","{""ArrowUp,ArrowLeft"":3,""ArrowUp,ArrowRight"":36,""ArrowDown,ArrowLeft"":15,""ArrowDown,ArrowRight"":23}","true","ArrowUp,ArrowRight","","","","","","",""
"html-keyboard-response","31","183480","0.0-4.0-6.0-1.0","spark_pilot_norest","8574","2","10","Female","","","","","","","","null","<div style=""font-size:60px;"">+</div>","null","fixation","","","","","","","","","","","",""
"revaluation","32","187484","0.0-4.0-6.0-0.1","spark_pilot_norest","8574","2","10","Female","","false","","","","","","[508]","./assets/img/space/animals/rabbit.jpg","[""ArrowLeft""]","second stage practice","space","15","{""ArrowUp,ArrowLeft"":3,""ArrowUp,ArrowRight"":36,""ArrowDown,ArrowLeft"":15,""ArrowDown,ArrowRight"":23}","false","ArrowDown,ArrowLeft","","","","","","",""
"html-keyboard-response","33","187986","0.0-4.0-6.0-1.1","spark_pilot_norest","8574","2","10","Female","","","","","","","","null","<div style=""font-size:60px;"">+</div>","null","fixation","","","","","","","","","","","",""
"revaluation","34","191991","0.0-4.0-6.0-0.2","spark_pilot_norest","8574","2","10","Female","","false","","","","","","[453]","./assets/img/space/animals/rabbit.jpg","[""ArrowRight""]","second stage practice","space","23","{""ArrowUp,ArrowLeft"":3,""ArrowUp,ArrowRight"":36,""ArrowDown,ArrowLeft"":15,""ArrowDown,ArrowRight"":23}","true","ArrowDown,ArrowRight","","","","","","",""
"html-keyboard-response","35","192493","0.0-4.0-6.0-1.2","spark_pilot_norest","8574","2","10","Female","","","","","","","","null","<div style=""font-size:60px;"">+</div>","null","fixation","","","","","","","","","","","",""
"revaluation","36","196497","0.0-4.0-6.0-0.3","spark_pilot_norest","8574","2","10","Female","","false","","","","","","[746]","./assets/img/space/animals/cat.jpg","[""ArrowRight""]","second stage practice","space","36","{""ArrowUp,ArrowLeft"":3,""ArrowUp,ArrowRight"":36,""ArrowDown,ArrowLeft"":15,""ArrowDown,ArrowRight"":23}","true","ArrowUp,ArrowRight","","","","","","",""
"html-keyboard-response","37","196999","0.0-4.0-6.0-1.3","spark_pilot_norest","8574","2","10","Female","","","","","","","","null","<div style=""font-size:60px;"">+</div>","null","fixation","","","","","","","","","","","",""
"learning-instructions","38","216791","0.0-4.0-7.0-0.0","spark_pilot_norest","8574","2","10","Female","","","","","","","","3000","<p> Great job. Now let’s try putting it together. </p>
            <p> On each turn, you will first see a picture to remind you of the place you are in, and you need to choose whether to go up or down. </p>
            <p> Then you will see an animal and choose which of its chests to search for treasure. </p>","","instructions","","","","","","","","","","","",""
"learning-instructions","39","226028","0.0-4.0-7.0-0.1","spark_pilot_norest","8574","2","10","Female","","","","","","","","989","<p> When you choose whether to go up or down, try to go to the animal with the chest with the most treasure. </p>
            <p> Try practicing that now! </p>","","instructions","","","","","","","","","","","",""
"revaluation","40","232032","0.0-4.0-8.0-0.0","spark_pilot_norest","8574","2","10","Female","","false","","","","","","[404,740.0000000000291]","./assets/img/space/6.jpg","[""ArrowUp"",""ArrowRight""]","full practice","space","36","{""ArrowUp,ArrowLeft"":3,""ArrowUp,ArrowRight"":36,""ArrowDown,ArrowLeft"":15,""ArrowDown,ArrowRight"":23}","true","ArrowUp,ArrowRight","false","","","","","",""
"html-keyboard-response","41","232534","0.0-4.0-8.0-1.0","spark_pilot_norest","8574","2","10","Female","","","","","","","","null","<div style=""font-size:60px;"">+</div>","null","fixation","","","","","","","","","","","",""
"revaluation","42","238539","0.0-4.0-8.0-0.1","spark_pilot_norest","8574","2","10","Female","","false","","","","","","[455.0000000000291,617]","./assets/img/space/7.jpg","[""ArrowDown"",""ArrowLeft""]","full practice","space","15","{""ArrowUp,ArrowLeft"":3,""ArrowUp,ArrowRight"":36,""ArrowDown,ArrowLeft"":15,""ArrowDown,ArrowRight"":23}","false","ArrowDown,ArrowLeft","false","","","","","",""
"html-keyboard-response","43","239040","0.0-4.0-8.0-1.1","spark_pilot_norest","8574","2","10","Female","","","","","","","","null","<div style=""font-size:60px;"">+</div>","null","fixation","","","","","","","","","","","",""
"revaluation","44","245045","0.0-4.0-8.0-0.2","spark_pilot_norest","8574","2","10","Female","","false","","","","","","[286,487]","./assets/img/space/8.jpg","[""ArrowUp"",""ArrowRight""]","full practice","space","36","{""ArrowUp,ArrowLeft"":3,""ArrowUp,ArrowRight"":36,""ArrowDown,ArrowLeft"":15,""ArrowDown,ArrowRight"":23}","true","ArrowUp,ArrowRight","false","","","","","",""
"html-keyboard-response","45","245546","0.0-4.0-8.0-1.2","spark_pilot_norest","8574","2","10","Female","","","","","","","","null","<div style=""font-size:60px;"">+</div>","null","fixation","","","","","","","","","","","",""
"revaluation","46","251550","0.0-4.0-8.0-0.3","spark_pilot_norest","8574","2","10","Female","","false","","","","","","[372,488]","./assets/img/space/9.jpg","[""ArrowUp"",""ArrowRight""]","full practice","space","36","{""ArrowUp,ArrowLeft"":3,""ArrowUp,ArrowRight"":36,""ArrowDown,ArrowLeft"":15,""ArrowDown,ArrowRight"":23}","true","ArrowUp,ArrowRight","false","","","","","",""
"html-keyboard-response","47","252052","0.0-4.0-8.0-1.3","spark_pilot_norest","8574","2","10","Female","","","","","","","","null","<div style=""font-size:60px;"">+</div>","null","fixation","","","","","","","","","","","",""
"revaluation","48","258057","0.0-4.0-8.0-0.4","spark_pilot_norest","8574","2","10","Female","","false","","","","","","[500.9999999999709,451]","./assets/img/space/10.jpg","[""ArrowUp"",""ArrowRight""]","full practice","space","36","{""ArrowUp,ArrowLeft"":3,""ArrowUp,ArrowRight"":36,""ArrowDown,ArrowLeft"":15,""ArrowDown,ArrowRight"":23}","true","ArrowUp,ArrowRight","false","","","","","",""
"html-keyboard-response","49","258559","0.0-4.0-8.0-1.4","spark_pilot_norest","8574","2","10","Female","","","","","","","","null","<div style=""font-size:60px;"">+</div>","null","fixation","","","","","","","","","","","",""
"learning-instructions","50","271151","0.0-4.0-9.0-0.0","spark_pilot_norest","8574","2","10","Female","","","","","","","","2298","<p> One last thing: sometimes, you will see a robber. The robber can be anywhere in the picture. </p>
            <p> If you do not stop them, you will lose treasure. </p>
            <img src='./assets/img/instructions/robber.jpg' class='instructions-image'>","","instructions","","","","","","","","","","","",""
"learning-instructions","51","279497","0.0-4.0-9.0-0.1","spark_pilot_norest","8574","2","10","Female","","","","","","","","1200","<p> If you see the robber, you should <b>press the space bar</b> rather than using the arrow keys. </p>
            <p> Try practicing that now! </p>","","instructions","","","","","","","","","","","",""
"revaluation","52","283502","0.0-4.0-10.0-0.0","spark_pilot_norest","8574","2","10","Female","","false","","","","","","[1020]","./assets/img/space/catch/0.jpg","[""spaceBar""]","catch practice","space","0","{""ArrowUp,ArrowLeft"":3,""ArrowUp,ArrowRight"":36,""ArrowDown,ArrowLeft"":15,""ArrowDown,ArrowRight"":23}","true","spaceBar","true","","","","","",""
"html-keyboard-response","53","284003","0.0-4.0-10.0-1.0","spark_pilot_norest","8574","2","10","Female","","","","","","","","null","<div style=""font-size:60px;"">+</div>","null","fixation","","","","","","","","","","","",""
"revaluation","54","288008","0.0-4.0-10.0-0.1","spark_pilot_norest","8574","2","10","Female","","false","","","","","","[737]","./assets/img/space/catch/1.jpg","[""spaceBar""]","catch practice","space","0","{""ArrowUp,ArrowLeft"":3,""ArrowUp,ArrowRight"":36,""ArrowDown,ArrowLeft"":15,""ArrowDown,ArrowRight"":23}","true","spaceBar","true","","","","","",""
"html-keyboard-response","55","288510","0.0-4.0-10.0-1.1","spark_pilot_norest","8574","2","10","Female","","","","","","","","null","<div style=""font-size:60px;"">+</div>","null","fixation","","","","","","","","","","","",""
"revaluation","56","292514","0.0-4.0-10.0-0.2","spark_pilot_norest","8574","2","10","Female","","false","","","","","","[514]","./assets/img/space/catch/2.jpg","[""spaceBar""]","catch practice","space","0","{""ArrowUp,ArrowLeft"":3,""ArrowUp,ArrowRight"":36,""ArrowDown,ArrowLeft"":15,""ArrowDown,ArrowRight"":23}","true","spaceBar","true","","","","","",""
"html-keyboard-response","57","293016","0.0-4.0-10.0-1.2","spark_pilot_norest","8574","2","10","Female","","","","","","","","null","<div style=""font-size:60px;"">+</div>","null","fixation","","","","","","","","","","","",""
"learning-instructions","58","299585","0.0-4.0-11.0-0.0-0.0","spark_pilot_norest","8574","2","10","Female","","","","","","","","1340","<p> Now, you will practice a shortened version of the game to get a sense of how it all fits together. </p>","","instructions","","","","","","","","","","","",""
"learning-instructions","59","303774","0.0-4.0-11.0-0.0-0.1","spark_pilot_norest","8574","2","10","Female","","","","","","","","1013","<p>This time you are searching for treasure in outer space.</p>","","instructions","","","","","","","","","","","",""
"learning-instructions","60","321094","0.0-4.0-11.0-1.0-0.0","spark_pilot_norest","8574","2","10","Female","","","","","","","","937","<p> Remember, when you see a picture of the place, use the up and down keys to <b>find an animal</b>.</p>
            <p> When you encounter an animal, you should use the left and right keys to <b>select a treasure chest</b>.</p>
            <p> Don't forget to look out for the robber! </p>","","instructions","","","","","","","","","","","",""
"revaluation","61","327099","0.0-4.0-11.0-2.0-0.0","spark_pilot_norest","8574","2","10","Female","","false","","","","","","[621,416]","./assets/img/space/11.jpg","[""ArrowUp"",""ArrowRight""]","practice block","space","36","{""ArrowUp,ArrowLeft"":3,""ArrowUp,ArrowRight"":36,""ArrowDown,ArrowLeft"":15,""ArrowDown,ArrowRight"":23}","true","ArrowUp,ArrowRight","false","","","","","",""
"html-keyboard-response","62","327601","0.0-4.0-11.0-2.0-1.0","spark_pilot_norest","8574","2","10","Female","","","","","","","","null","<div style=""font-size:60px;"">+</div>","null","fixation","","","","","","","","","","","",""
"revaluation","63","333607","0.0-4.0-11.0-2.0-0.1","spark_pilot_norest","8574","2","10","Female","","false","","","","","","[478,454]","./assets/img/space/12.jpg","[""ArrowUp"",""ArrowRight""]","practice block","space","36","{""ArrowUp,ArrowLeft"":3,""ArrowUp,ArrowRight"":36,""ArrowDown,ArrowLeft"":15,""ArrowDown,ArrowRight"":23}","true","ArrowUp,ArrowRight","false","","","","","",""
"html-keyboard-response","64","334107","0.0-4.0-11.0-2.0-1.1","spark_pilot_norest","8574","2","10","Female","","","","","","","","null","<div style=""font-size:60px;"">+</div>","null","fixation","","","","","","","","","","","",""
"revaluation","65","340112","0.0-4.0-11.0-2.0-0.2","spark_pilot_norest","8574","2","10","Female","","false","","","","","","[489.9999999999418,418]","./assets/img/space/13.jpg","[""ArrowUp"",""ArrowRight""]","practice block","space","36","{""ArrowUp,ArrowLeft"":3,""ArrowUp,ArrowRight"":36,""ArrowDown,ArrowLeft"":15,""ArrowDown,ArrowRight"":23}","true","ArrowUp,ArrowRight","false","","","","","",""
"html-keyboard-response","66","340614","0.0-4.0-11.0-2.0-1.2","spark_pilot_norest","8574","2","10","Female","","","","","","","","null","<div style=""font-size:60px;"">+</div>","null","fixation","","","","","","","","","","","",""
"revaluation","67","346619","0.0-4.0-11.0-2.0-0.3","spark_pilot_norest","8574","2","10","Female","","false","","","","","","[522,543]","./assets/img/space/14.jpg","[""ArrowUp"",""ArrowRight""]","practice block","space","36","{""ArrowUp,ArrowLeft"":3,""ArrowUp,ArrowRight"":36,""ArrowDown,ArrowLeft"":15,""ArrowDown,ArrowRight"":23}","true","ArrowUp,ArrowRight","false","","","","","",""
"html-keyboard-response","68","347120","0.0-4.0-11.0-2.0-1.3","spark_pilot_norest","8574","2","10","Female","","","","","","","","null","<div style=""font-size:60px;"">+</div>","null","fixation","","","","","","","","","","","",""
"revaluation","69","353126","0.0-4.0-11.0-2.0-0.4","spark_pilot_norest","8574","2","10","Female","","false","","","","","","[531,417]","./assets/img/space/11.jpg","[""ArrowUp"",""ArrowRight""]","practice block","space","36","{""ArrowUp,ArrowLeft"":3,""ArrowUp,ArrowRight"":36,""ArrowDown,ArrowLeft"":15,""ArrowDown,ArrowRight"":23}","true","ArrowUp,ArrowRight","false","","","","","",""
"html-keyboard-response","70","353627","0.0-4.0-11.0-2.0-1.4","spark_pilot_norest","8574","2","10","Female","","","","","","","","null","<div style=""font-size:60px;"">+</div>","null","fixation","","","","","","","","","","","",""
"revaluation","71","359632","0.0-4.0-11.0-2.0-0.5","spark_pilot_norest","8574","2","10","Female","","false","","","","","","[468.0000000000582,339]","./assets/img/space/12.jpg","[""ArrowUp"",""ArrowRight""]","practice block","space","36","{""ArrowUp,ArrowLeft"":3,""ArrowUp,ArrowRight"":36,""ArrowDown,ArrowLeft"":15,""ArrowDown,ArrowRight"":23}","true","ArrowUp,ArrowRight","false","","","","","",""
"html-keyboard-response","72","360133","0.0-4.0-11.0-2.0-1.5","spark_pilot_norest","8574","2","10","Female","","","","","","","","null","<div style=""font-size:60px;"">+</div>","null","fixation","","","","","","","","","","","",""
"revaluation","73","366138","0.0-4.0-11.0-2.0-0.6","spark_pilot_norest","8574","2","10","Female","","false","","","","","","[465,368]","./assets/img/space/13.jpg","[""ArrowUp"",""ArrowRight""]","practice block","space","36","{""ArrowUp,ArrowLeft"":3,""ArrowUp,ArrowRight"":36,""ArrowDown,ArrowLeft"":15,""ArrowDown,ArrowRight"":23}","true","ArrowUp,ArrowRight","false","","","","","",""
"html-keyboard-response","74","366639","0.0-4.0-11.0-2.0-1.6","spark_pilot_norest","8574","2","10","Female","","","","","","","","null","<div style=""font-size:60px;"">+</div>","null","fixation","","","","","","","","","","","",""
"revaluation","75","372645","0.0-4.0-11.0-2.0-0.7","spark_pilot_norest","8574","2","10","Female","","false","","","","","","[437,377.0000000000582]","./assets/img/space/14.jpg","[""ArrowUp"",""ArrowRight""]","practice block","space","36","{""ArrowUp,ArrowLeft"":3,""ArrowUp,ArrowRight"":36,""ArrowDown,ArrowLeft"":15,""ArrowDown,ArrowRight"":23}","true","ArrowUp,ArrowRight","false","","","","","",""
"html-keyboard-response","76","373146","0.0-4.0-11.0-2.0-1.7","spark_pilot_norest","8574","2","10","Female","","","","","","","","null","<div style=""font-size:60px;"">+</div>","null","fixation","","","","","","","","","","","",""
"revaluation","77","377150","0.0-4.0-11.0-2.0-0.8","spark_pilot_norest","8574","2","10","Female","","false","","","","","","[588]","./assets/img/space/catch/3.jpg","[""spaceBar""]","practice block","space","0","{""ArrowUp,ArrowLeft"":3,""ArrowUp,ArrowRight"":36,""ArrowDown,ArrowLeft"":15,""ArrowDown,ArrowRight"":23}","true","spaceBar","true","","","","","",""
"html-keyboard-response","78","377652","0.0-4.0-11.0-2.0-1.8","spark_pilot_norest","8574","2","10","Female","","","","","","","","null","<div style=""font-size:60px;"">+</div>","null","fixation","","","","","","","","","","","",""
"learning-instructions","79","391711","0.0-4.0-11.0-3.0-0.0","spark_pilot_norest","8574","2","10","Female","","","","","","","","1165","<p> Now, you will travel with a friend who will choose whether you go up or down first. </p>
            <p> On these turns, you will just see the animal that they found. You will still get to choose which chest to search for treasure.</p>","","instructions","","","","","","","","","","","",""
"revaluation","80","395850","0.0-4.0-11.0-4.0-0.0","spark_pilot_norest","8574","2","10","Female","","false","","","","","","[628]","./assets/img/space/animals/cat.jpg","[""ArrowLeft""]","practice block","space","3","{""ArrowUp,ArrowLeft"":3,""ArrowUp,ArrowRight"":36,""ArrowDown,ArrowLeft"":15,""ArrowDown,ArrowRight"":23}","false","ArrowUp,ArrowLeft","","","","","","",""
"html-keyboard-response","81","396351","0.0-4.0-11.0-4.0-1.0","spark_pilot_norest","8574","2","10","Female","","","","","","","","null","<div style=""font-size:60px;"">+</div>","null","fixation","","","","","","","","","","","",""
"revaluation","82","400355","0.0-4.0-11.0-4.0-0.1","spark_pilot_norest","8574","2","10","Female","","false","","","","","","[443]","./assets/img/space/animals/rabbit.jpg","[""ArrowLeft""]","practice block","space","15","{""ArrowUp,ArrowLeft"":3,""ArrowUp,ArrowRight"":36,""ArrowDown,ArrowLeft"":15,""ArrowDown,ArrowRight"":23}","false","ArrowDown,ArrowLeft","","","","","","",""
"html-keyboard-response","83","400858","0.0-4.0-11.0-4.0-1.1","spark_pilot_norest","8574","2","10","Female","","","","","","","","null","<div style=""font-size:60px;"">+</div>","null","fixation","","","","","","","","","","","",""
"revaluation","84","404862","0.0-4.0-11.0-4.0-0.2","spark_pilot_norest","8574","2","10","Female","","false","","","","","","[395]","./assets/img/space/animals/cat.jpg","[""ArrowRight""]","practice block","space","36","{""ArrowUp,ArrowLeft"":3,""ArrowUp,ArrowRight"":36,""ArrowDown,ArrowLeft"":15,""ArrowDown,ArrowRight"":23}","true","ArrowUp,ArrowRight","","","","","","",""
"html-keyboard-response","85","405364","0.0-4.0-11.0-4.0-1.2","spark_pilot_norest","8574","2","10","Female","","","","","","","","null","<div style=""font-size:60px;"">+</div>","null","fixation","","","","","","","","","","","",""
"revaluation","86","409369","0.0-4.0-11.0-4.0-0.3","spark_pilot_norest","8574","2","10","Female","","false","","","","","","[407]","./assets/img/space/animals/rabbit.jpg","[""ArrowRight""]","practice block","space","23","{""ArrowUp,ArrowLeft"":3,""ArrowUp,ArrowRight"":36,""ArrowDown,ArrowLeft"":15,""ArrowDown,ArrowRight"":23}","true","ArrowDown,ArrowRight","","","","","","",""
"html-keyboard-response","87","409871","0.0-4.0-11.0-4.0-1.3","spark_pilot_norest","8574","2","10","Female","","","","","","","","null","<div style=""font-size:60px;"">+</div>","null","fixation","","","","","","","","","","","",""
"learning-instructions","88","418840","0.0-4.0-11.0-5.0-0.0","spark_pilot_norest","8574","2","10","Female","","","","","","","","null","<p> You have almost finished this part of the game! </p>
            <p> We are going to ask you to make a few more choices. </p>","","instructions","","","","","","","","","","","",""
"learning-instructions","89","434832","0.0-4.0-11.0-5.0-0.1","spark_pilot_norest","8574","2","10","Female","","","","","","","","null","<p> First, you need to decide whether to go up or down. When you see each picture, use the arrow keys to make your choice. </p>
            <p><b>You will not see which animal you found, but try to get to the one that will give you the most treasure.</b></p>","","instructions","","","","","","","","","","","",""
"html-keyboard-response","90","435834","0.0-4.0-11.0-6.0-0.0","spark_pilot_norest","8574","2","10","Female","","","","","","","","null","<div style=""font-size:100px;color:red;"">Starting in...</div>","null","","","","","","","","","","","","",""
"html-keyboard-response","91","436836","0.0-4.0-11.0-6.0-1.0","spark_pilot_norest","8574","2","10","Female","","","","","","","","null","<div style=""font-size:200px;color:red;"">3</div>","null","","","","","","","","","","","","",""
"html-keyboard-response","92","437838","0.0-4.0-11.0-6.0-2.0","spark_pilot_norest","8574","2","10","Female","","","","","","","","null","<div style=""font-size:200px;color:red;"">2</div>","null","","","","","","","","","","","","",""
"html-keyboard-response","93","438839","0.0-4.0-11.0-6.0-3.0","spark_pilot_norest","8574","2","10","Female","","","","","","","","null","<div style=""font-size:200px;color:red;"">1</div>","null","","","","","","","","","","","","",""
"revaluation","94","439205","0.0-4.0-11.0-7.0","spark_pilot_norest","8574","2","10","Female","","false","","","","","","[364.9999999999418]","./assets/img/space/15.jpg","[""ArrowUp""]","practice block","space","0","{""ArrowUp,ArrowLeft"":3,""ArrowUp,ArrowRight"":36,""ArrowDown,ArrowLeft"":15,""ArrowDown,ArrowRight"":23}","true","ArrowUp","false","","","","","",""
"html-keyboard-response","95","439708","0.0-4.0-11.0-8.0","spark_pilot_norest","8574","2","10","Female","","","","","","","","null","<div style=""font-size:60px;"">+</div>","null","fixation","","","","","","","","","","","",""
"learning-instructions","96","453064","0.0-4.0-11.0-9.0-0.0","spark_pilot_norest","8574","2","10","Female","","","","","","","","null","<p> Now you will see the animals again and can search their chests for treasure. </p>
            <p> This time, you will not see how much treasure you earned, but you will earn more bonus money for making better choices. </p>","","instructions","","","","","","","","","","","",""
"html-keyboard-response","97","454066","0.0-4.0-11.0-10.0-0.0","spark_pilot_norest","8574","2","10","Female","","","","","","","","null","<div style=""font-size:100px;color:red;"">Starting in...</div>","null","","","","","","","","","","","","",""
"html-keyboard-response","98","455068","0.0-4.0-11.0-10.0-1.0","spark_pilot_norest","8574","2","10","Female","","","","","","","","null","<div style=""font-size:200px;color:red;"">3</div>","null","","","","","","","","","","","","",""
"html-keyboard-response","99","456070","0.0-4.0-11.0-10.0-2.0","spark_pilot_norest","8574","2","10","Female","","","","","","","","null","<div style=""font-size:200px;color:red;"">2</div>","null","","","","","","","","","","","","",""
"html-keyboard-response","100","457072","0.0-4.0-11.0-10.0-3.0","spark_pilot_norest","8574","2","10","Female","","","","","","","","null","<div style=""font-size:200px;color:red;"">1</div>","null","","","","","","","","","","","","",""
"revaluation","101","457724","0.0-4.0-11.0-11.0-0.0","spark_pilot_norest","8574","2","10","Female","","false","","","","","","[649]","./assets/img/space/animals/cat.jpg","[""ArrowRight""]","practice block","space","0","{""ArrowUp,ArrowLeft"":3,""ArrowUp,ArrowRight"":36,""ArrowDown,ArrowLeft"":15,""ArrowDown,ArrowRight"":23}","true","ArrowUp,ArrowRight","","","","","","",""
"html-keyboard-response","102","458226","0.0-4.0-11.0-11.0-1.0","spark_pilot_norest","8574","2","10","Female","","","","","","","","null","<div style=""font-size:60px;"">+</div>","null","fixation","","","","","","","","","","","",""
"revaluation","103","459110","0.0-4.0-11.0-11.0-0.1","spark_pilot_norest","8574","2","10","Female","","false","","","","","","[881.9999999999418]","./assets/img/space/animals/rabbit.jpg","[""ArrowLeft""]","practice block","space","0","{""ArrowUp,ArrowLeft"":3,""ArrowUp,ArrowRight"":36,""ArrowDown,ArrowLeft"":15,""ArrowDown,ArrowRight"":23}","false","ArrowDown,ArrowLeft","","","","","","",""
"html-keyboard-response","104","459612","0.0-4.0-11.0-11.0-1.1","spark_pilot_norest","8574","2","10","Female","","","","","","","","null","<div style=""font-size:60px;"">+</div>","null","fixation","","","","","","","","","","","",""
"learning-instructions","105","466075","0.0-4.0-12.0-0.0","spark_pilot_norest","8574","2","10","Female","","","","","","","","1900","<p> Before you start, we're going to ask you a few questions about how the game works. </p>","","instructions","","","","","","","","","","","",""
"comp-q","106","473270","0.0-4.0-13.0-0.0-0.0","spark_pilot_norest","8574","2","10","Female","","","","","","","","1625","<p> <b> True or False? </b> </p>
            <p> There can be 50 pieces of treasure in a given animal's chest. </p>","1","comp_question","","","","true","","","","","","","",""
"comp-q","107","481280","0.0-4.0-13.0-0.0-1.0","spark_pilot_norest","8574","2","10","Female","","","","","","","","1366","<p> <b> That's right! </b> The amount of treasure in each chest can range from 0 to 40 pieces. </p>","0","comp_answer","","","","","","","","","","","",""
"comp-q","108","489230","0.0-4.0-13.0-0.1-0.1","spark_pilot_norest","8574","2","10","Female","","","","","","","","847","<p> <b> True or False? </b> </p><p> In this game, all animals have the same amount of treasure in their left and right chests. </p>","1","comp_question","","","","true","","","","","","","",""
"comp-q","109","496150","0.0-4.0-13.0-0.1-1.1","spark_pilot_norest","8574","2","10","Female","","","","","","","","1706","<p> <b> That's right! </b> Animals have different amounts of treasure in their treasure chests. </p>","0","comp_answer","","","","","","","","","","","",""
"comp-q","110","502854","0.0-4.0-13.0-0.2-0.2","spark_pilot_norest","8574","2","10","Female","","","","","","","","868","<p> <b> True or False? </b> </p><p> The same animal will always be there if you go up in the same place. </p>","0","comp_question","","","","true","","","","","","","",""
"comp-q","111","511040","0.0-4.0-13.0-0.2-1.2","spark_pilot_norest","8574","2","10","Female","","","","","","","","896.9999999999418","<p> <b> That's right! </b> One animal lives in the upper part and one lives in the lower part of every place. </p>","0","comp_answer","","","","","","","","","","","",""
"comp-q","112","517804","0.0-4.0-13.0-0.3-0.3","spark_pilot_norest","8574","2","10","Female","","","","","","","","1252.0000000000582","<p> <b> True or False? </b> </p><p> If you see a different picture, it means you are in a new place. </p>","1","comp_question","","","","true","","","","","","","",""
"comp-q","113","531636","0.0-4.0-13.0-0.3-1.3","spark_pilot_norest","8574","2","10","Female","","","","","","","","1639","<p> <b> That's right! </b> Lots of different images may show the same place. For example,  you may see three different images that all remind you that you are in outer space. </p>","0","comp_answer","","","","","","","","","","","",""
"learning-instructions","114","542925","0.0-4.0-14.0-0.0","spark_pilot_norest","8574","2","10","Female","","","","","","","","1455","<p> Good job. Remember to do your best because the amount of treasure you earn will be converted into bonus money. </p>
            <p> It’s time to start the real game! </p>","","instructions","","","","","","","","","","","",""
"learning-instructions","115","546437","0.0-5.0-0.0-0.0","spark_pilot_norest","8574","2","10","Female","","","","","","","","816.0000000001164","<p> This time you are searching for treasure in the <b>ocean</b>.</p>","","instructions","","","","","","","","","","","",""
"learning-instructions","116","565453","0.0-5.0-0.0-0.1","spark_pilot_norest","8574","2","10","Female","","","","","","","","590","<p><b>New</b> animals with <b>new</b> treasure chests live here. You need to explore to discover where the animal with the best treasure chest is.</p>
                    <p> Like before, once you figure out which animal has the chest with the most treasure, you should try to get to that animal and select that chest! </p>","","instructions","","","","","","","","","","","",""
"learning-instructions","117","581567","0.0-5.0-1.0-0.0","spark_pilot_norest","8574","2","10","Female","","","","","","","","1384.0000000001164","<p> Remember, when you see a picture of the place, use the up and down keys to <b>find an animal</b>.</p>
            <p> When you encounter an animal, you should use the left and right keys to <b>select a treasure chest</b>.</p>
            <p> Don't forget to look out for the robber! </p>","","instructions","","","","","","","","","","","",""
"revaluation","118","587572","0.0-5.0-2.0-0.0","spark_pilot_norest","8574","2","10","Female","","false","","","","","","[851,701]","./assets/img/ocean/memory/41.jpg","[""ArrowUp"",""ArrowLeft""]","value training","ocean","23","{""ArrowUp,ArrowLeft"":23,""ArrowUp,ArrowRight"":10,""ArrowDown,ArrowLeft"":8,""ArrowDown,ArrowRight"":30}","false","ArrowUp,ArrowLeft","false","revaluation","1","0","","",""
"html-keyboard-response","119","588074","0.0-5.0-2.0-1.0","spark_pilot_norest","8574","2","10","Female","","","","","","","","null","<div style=""font-size:60px;"">+</div>","null","fixation","","","","","","","","","1","","",""
"revaluation","120","594078","0.0-5.0-2.0-0.1","spark_pilot_norest","8574","2","10","Female","","false","","","","","","[436,426]","./assets/img/ocean/memory/20.jpg","[""ArrowDown"",""ArrowRight""]","value training","ocean","30","{""ArrowUp,ArrowLeft"":23,""ArrowUp,ArrowRight"":10,""ArrowDown,ArrowLeft"":8,""ArrowDown,ArrowRight"":30}","true","ArrowDown,ArrowRight","false","revaluation","1","2","","",""
"html-keyboard-response","121","594580","0.0-5.0-2.0-1.1","spark_pilot_norest","8574","2","10","Female","","","","","","","","null","<div style=""font-size:60px;"">+</div>","null","fixation","","","","","","","","","3","","",""
"revaluation","122","600586","0.0-5.0-2.0-0.2","spark_pilot_norest","8574","2","10","Female","","false","","","","","","[311,672]","./assets/img/ocean/memory/32.jpg","[""ArrowDown"",""ArrowLeft""]","value training","ocean","8","{""ArrowUp,ArrowLeft"":23,""ArrowUp,ArrowRight"":10,""ArrowDown,ArrowLeft"":8,""ArrowDown,ArrowRight"":30}","false","ArrowDown,ArrowLeft","false","revaluation","1","4","","",""
"html-keyboard-response","123","601087","0.0-5.0-2.0-1.2","spark_pilot_norest","8574","2","10","Female","","","","","","","","null","<div style=""font-size:60px;"">+</div>","null","fixation","","","","","","","","","5","","",""
"revaluation","124","607092","0.0-5.0-2.0-0.3","spark_pilot_norest","8574","2","10","Female","","false","","","","","","[348,406]","./assets/img/ocean/memory/8.jpg","[""ArrowUp"",""ArrowRight""]","value training","ocean","10","{""ArrowUp,ArrowLeft"":23,""ArrowUp,ArrowRight"":10,""ArrowDown,ArrowLeft"":8,""ArrowDown,ArrowRight"":30}","false","ArrowUp,ArrowRight","false","revaluation","1","6","","",""
"html-keyboard-response","125","607594","0.0-5.0-2.0-1.3","spark_pilot_norest","8574","2","10","Female","","","","","","","","null","<div style=""font-size:60px;"">+</div>","null","fixation","","","","","","","","","7","","",""
"revaluation","126","613599","0.0-5.0-2.0-0.4","spark_pilot_norest","8574","2","10","Female","","false","","","","","","[330,362]","./assets/img/ocean/memory/35.jpg","[""ArrowUp"",""ArrowLeft""]","value training","ocean","23","{""ArrowUp,ArrowLeft"":23,""ArrowUp,ArrowRight"":10,""ArrowDown,ArrowLeft"":8,""ArrowDown,ArrowRight"":30}","false","ArrowUp,ArrowLeft","false","revaluation","1","8","","",""
"html-keyboard-response","127","614102","0.0-5.0-2.0-1.4","spark_pilot_norest","8574","2","10","Female","","","","","","","","null","<div style=""font-size:60px;"">+</div>","null","fixation","","","","","","","","","9","","",""
"revaluation","128","618106","0.0-5.0-2.0-0.5","spark_pilot_norest","8574","2","10","Female","","false","","","","","","[352]","./assets/img/ocean/catch/0.jpg","[""ArrowDown""]","value training","ocean","-10","{""ArrowUp,ArrowLeft"":23,""ArrowUp,ArrowRight"":10,""ArrowDown,ArrowLeft"":8,""ArrowDown,ArrowRight"":30}","false","ArrowDown","true","revaluation","1","10","","",""
"html-keyboard-response","129","618607","0.0-5.0-2.0-1.5","spark_pilot_norest","8574","2","10","Female","","","","","","","","null","<div style=""font-size:60px;"">+</div>","null","fixation","","","","","","","","","11","","",""
"revaluation","130","624612","0.0-5.0-2.0-0.6","spark_pilot_norest","8574","2","10","Female","","false","","","","","","[750,433]","./assets/img/ocean/memory/40.jpg","[""ArrowDown"",""ArrowRight""]","value training","ocean","30","{""ArrowUp,ArrowLeft"":23,""ArrowUp,ArrowRight"":10,""ArrowDown,ArrowLeft"":8,""ArrowDown,ArrowRight"":30}","true","ArrowDown,ArrowRight","false","revaluation","1","12","","",""
"html-keyboard-response","131","625113","0.0-5.0-2.0-1.6","spark_pilot_norest","8574","2","10","Female","","","","","","","","null","<div style=""font-size:60px;"">+</div>","null","fixation","","","","","","","","","13","","",""
"revaluation","132","631119","0.0-5.0-2.0-0.7","spark_pilot_norest","8574","2","10","Female","","false","","","","","","[380,351.9999999998836]","./assets/img/ocean/memory/38.jpg","[""ArrowDown"",""ArrowRight""]","value training","ocean","30","{""ArrowUp,ArrowLeft"":23,""ArrowUp,ArrowRight"":10,""ArrowDown,ArrowLeft"":8,""ArrowDown,ArrowRight"":30}","true","ArrowDown,ArrowRight","false","revaluation","1","14","","",""
"html-keyboard-response","133","631620","0.0-5.0-2.0-1.7","spark_pilot_norest","8574","2","10","Female","","","","","","","","null","<div style=""font-size:60px;"">+</div>","null","fixation","","","","","","","","","15","","",""
"revaluation","134","637626","0.0-5.0-2.0-0.8","spark_pilot_norest","8574","2","10","Female","","false","","","","","","[421,359]","./assets/img/ocean/memory/3.jpg","[""ArrowDown"",""ArrowRight""]","value training","ocean","30","{""ArrowUp,ArrowLeft"":23,""ArrowUp,ArrowRight"":10,""ArrowDown,ArrowLeft"":8,""ArrowDown,ArrowRight"":30}","true","ArrowDown,ArrowRight","false","revaluation","1","16","","",""
"html-keyboard-response","135","638127","0.0-5.0-2.0-1.8","spark_pilot_norest","8574","2","10","Female","","","","","","","","null","<div style=""font-size:60px;"">+</div>","null","fixation","","","","","","","","","17","","",""
"revaluation","136","644132","0.0-5.0-2.0-0.9","spark_pilot_norest","8574","2","10","Female","","false","","","","","","[362.0000000001164,352]","./assets/img/ocean/memory/34.jpg","[""ArrowDown"",""ArrowRight""]","value training","ocean","30","{""ArrowUp,ArrowLeft"":23,""ArrowUp,ArrowRight"":10,""ArrowDown,ArrowLeft"":8,""ArrowDown,ArrowRight"":30}","true","ArrowDown,ArrowRight","false","revaluation","1","18","","",""
"html-keyboard-response","137","644634","0.0-5.0-2.0-1.9","spark_pilot_norest","8574","2","10","Female","","","","","","","","null","<div style=""font-size:60px;"">+</div>","null","fixation","","","","","","","","","19","","",""
"revaluation","138","650639","0.0-5.0-2.0-0.10","spark_pilot_norest","8574","2","10","Female","","false","","","","","","[399.9999999998836,358]","./assets/img/ocean/memory/37.jpg","[""ArrowDown"",""ArrowRight""]","value training","ocean","30","{""ArrowUp,ArrowLeft"":23,""ArrowUp,ArrowRight"":10,""ArrowDown,ArrowLeft"":8,""ArrowDown,ArrowRight"":30}","true","ArrowDown,ArrowRight","false","revaluation","1","20","","",""
"html-keyboard-response","139","651140","0.0-5.0-2.0-1.10","spark_pilot_norest","8574","2","10","Female","","","","","","","","null","<div style=""font-size:60px;"">+</div>","null","fixation","","","","","","","","","21","","",""
"revaluation","140","655145","0.0-5.0-2.0-0.11","spark_pilot_norest","8574","2","10","Female","","false","","","","","","[373.0000000001164]","./assets/img/ocean/catch/5.jpg","[""ArrowDown""]","value training","ocean","-10","{""ArrowUp,ArrowLeft"":23,""ArrowUp,ArrowRight"":10,""ArrowDown,ArrowLeft"":8,""ArrowDown,ArrowRight"":30}","false","ArrowDown","true","revaluation","1","22","","",""
"html-keyboard-response","141","655647","0.0-5.0-2.0-1.11","spark_pilot_norest","8574","2","10","Female","","","","","","","","null","<div style=""font-size:60px;"">+</div>","null","fixation","","","","","","","","","23","","",""
"revaluation","142","661653","0.0-5.0-2.0-0.12","spark_pilot_norest","8574","2","10","Female","","false","","","","","","[381,335]","./assets/img/ocean/memory/33.jpg","[""ArrowDown"",""ArrowRight""]","value training","ocean","30","{""ArrowUp,ArrowLeft"":23,""ArrowUp,ArrowRight"":10,""ArrowDown,ArrowLeft"":8,""ArrowDown,ArrowRight"":30}","true","ArrowDown,ArrowRight","false","revaluation","1","24","","",""
"html-keyboard-response","143","662154","0.0-5.0-2.0-1.12","spark_pilot_norest","8574","2","10","Female","","","","","","","","null","<div style=""font-size:60px;"">+</div>","null","fixation","","","","","","","","","25","","",""
"revaluation","144","668159","0.0-5.0-2.0-0.13","spark_pilot_norest","8574","2","10","Female","","false","","","","","","[400,410]","./assets/img/ocean/memory/16.jpg","[""ArrowDown"",""ArrowRight""]","value training","ocean","30","{""ArrowUp,ArrowLeft"":23,""ArrowUp,ArrowRight"":10,""ArrowDown,ArrowLeft"":8,""ArrowDown,ArrowRight"":30}","true","ArrowDown,ArrowRight","false","revaluation","1","26","","",""
"html-keyboard-response","145","668660","0.0-5.0-2.0-1.13","spark_pilot_norest","8574","2","10","Female","","","","","","","","null","<div style=""font-size:60px;"">+</div>","null","fixation","","","","","","","","","27","","",""
"revaluation","146","672665","0.0-5.0-2.0-0.14","spark_pilot_norest","8574","2","10","Female","","false","","","","","","[615]","./assets/img/ocean/catch/3.jpg","[""spaceBar""]","value training","ocean","0","{""ArrowUp,ArrowLeft"":23,""ArrowUp,ArrowRight"":10,""ArrowDown,ArrowLeft"":8,""ArrowDown,ArrowRight"":30}","true","spaceBar","true","revaluation","1","28","","",""
"html-keyboard-response","147","673167","0.0-5.0-2.0-1.14","spark_pilot_norest","8574","2","10","Female","","","","","","","","null","<div style=""font-size:60px;"">+</div>","null","fixation","","","","","","","","","29","","",""
"revaluation","148","679172","0.0-5.0-2.0-0.15","spark_pilot_norest","8574","2","10","Female","","false","","","","","","[464,403]","./assets/img/ocean/memory/41.jpg","[""ArrowDown"",""ArrowRight""]","value training","ocean","30","{""ArrowUp,ArrowLeft"":23,""ArrowUp,ArrowRight"":10,""ArrowDown,ArrowLeft"":8,""ArrowDown,ArrowRight"":30}","true","ArrowDown,ArrowRight","false","revaluation","1","30","","",""
"html-keyboard-response","149","679674","0.0-5.0-2.0-1.15","spark_pilot_norest","8574","2","10","Female","","","","","","","","null","<div style=""font-size:60px;"">+</div>","null","fixation","","","","","","","","","31","","",""
"revaluation","150","685678","0.0-5.0-2.0-0.16","spark_pilot_norest","8574","2","10","Female","","false","","","","","","[406,379]","./assets/img/ocean/memory/39.jpg","[""ArrowDown"",""ArrowRight""]","value training","ocean","30","{""ArrowUp,ArrowLeft"":23,""ArrowUp,ArrowRight"":10,""ArrowDown,ArrowLeft"":8,""ArrowDown,ArrowRight"":30}","true","ArrowDown,ArrowRight","false","revaluation","1","32","","",""
"html-keyboard-response","151","686180","0.0-5.0-2.0-1.16","spark_pilot_norest","8574","2","10","Female","","","","","","","","null","<div style=""font-size:60px;"">+</div>","null","fixation","","","","","","","","","33","","",""
"revaluation","152","692186","0.0-5.0-2.0-0.17","spark_pilot_norest","8574","2","10","Female","","false","","","","","","[591,394]","./assets/img/ocean/memory/36.jpg","[""ArrowDown"",""ArrowRight""]","value training","ocean","30","{""ArrowUp,ArrowLeft"":23,""ArrowUp,ArrowRight"":10,""ArrowDown,ArrowLeft"":8,""ArrowDown,ArrowRight"":30}","true","ArrowDown,ArrowRight","false","revaluation","1","34","","",""
"html-keyboard-response","153","692687","0.0-5.0-2.0-1.17","spark_pilot_norest","8574","2","10","Female","","","","","","","","null","<div style=""font-size:60px;"">+</div>","null","fixation","","","","","","","","","35","","",""
"revaluation","154","698693","0.0-5.0-2.0-0.18","spark_pilot_norest","8574","2","10","Female","","false","","","","","","[469.9999999998836,337]","./assets/img/ocean/memory/1.jpg","[""ArrowDown"",""ArrowRight""]","value training","ocean","30","{""ArrowUp,ArrowLeft"":23,""ArrowUp,ArrowRight"":10,""ArrowDown,ArrowLeft"":8,""ArrowDown,ArrowRight"":30}","true","ArrowDown,ArrowRight","false","revaluation","1","36","","",""
"html-keyboard-response","155","699193","0.0-5.0-2.0-1.18","spark_pilot_norest","8574","2","10","Female","","","","","","","","null","<div style=""font-size:60px;"">+</div>","null","fixation","","","","","","","","","37","","",""
"revaluation","156","705199","0.0-5.0-2.0-0.19","spark_pilot_norest","8574","2","10","Female","","false","","","","","","[483,339.0000000001164]","./assets/img/ocean/memory/8.jpg","[""ArrowDown"",""ArrowRight""]","value training","ocean","30","{""ArrowUp,ArrowLeft"":23,""ArrowUp,ArrowRight"":10,""ArrowDown,ArrowLeft"":8,""ArrowDown,ArrowRight"":30}","true","ArrowDown,ArrowRight","false","revaluation","1","38","","",""
"html-keyboard-response","157","705700","0.0-5.0-2.0-1.19","spark_pilot_norest","8574","2","10","Female","","","","","","","","null","<div style=""font-size:60px;"">+</div>","null","fixation","","","","","","","","","39","","",""
"revaluation","158","711706","0.0-5.0-2.0-0.20","spark_pilot_norest","8574","2","10","Female","","false","","","","","","[512,318]","./assets/img/ocean/memory/21.jpg","[""ArrowDown"",""ArrowRight""]","value training","ocean","30","{""ArrowUp,ArrowLeft"":23,""ArrowUp,ArrowRight"":10,""ArrowDown,ArrowLeft"":8,""ArrowDown,ArrowRight"":30}","true","ArrowDown,ArrowRight","false","revaluation","1","40","","",""
"html-keyboard-response","159","712208","0.0-5.0-2.0-1.20","spark_pilot_norest","8574","2","10","Female","","","","","","","","null","<div style=""font-size:60px;"">+</div>","null","fixation","","","","","","","","","41","","",""
"revaluation","160","718214","0.0-5.0-2.0-0.21","spark_pilot_norest","8574","2","10","Female","","false","","","","","","[552,319]","./assets/img/ocean/memory/34.jpg","[""ArrowDown"",""ArrowRight""]","value training","ocean","30","{""ArrowUp,ArrowLeft"":23,""ArrowUp,ArrowRight"":10,""ArrowDown,ArrowLeft"":8,""ArrowDown,ArrowRight"":30}","true","ArrowDown,ArrowRight","false","revaluation","1","42","","",""
"html-keyboard-response","161","718716","0.0-5.0-2.0-1.21","spark_pilot_norest","8574","2","10","Female","","","","","","","","null","<div style=""font-size:60px;"">+</div>","null","fixation","","","","","","","","","43","","",""
"revaluation","162","722720","0.0-5.0-2.0-0.22","spark_pilot_norest","8574","2","10","Female","","false","","","","","","[661.9999999998836]","./assets/img/ocean/catch/4.jpg","[""spaceBar""]","value training","ocean","0","{""ArrowUp,ArrowLeft"":23,""ArrowUp,ArrowRight"":10,""ArrowDown,ArrowLeft"":8,""ArrowDown,ArrowRight"":30}","true","spaceBar","true","revaluation","1","44","","",""
"html-keyboard-response","163","723223","0.0-5.0-2.0-1.22","spark_pilot_norest","8574","2","10","Female","","","","","","","","null","<div style=""font-size:60px;"">+</div>","null","fixation","","","","","","","","","45","","",""
"revaluation","164","729228","0.0-5.0-2.0-0.23","spark_pilot_norest","8574","2","10","Female","","false","","","","","","[417.0000000001164,291.0000000001164]","./assets/img/ocean/memory/23.jpg","[""ArrowDown"",""ArrowRight""]","value training","ocean","30","{""ArrowUp,ArrowLeft"":23,""ArrowUp,ArrowRight"":10,""ArrowDown,ArrowLeft"":8,""ArrowDown,ArrowRight"":30}","true","ArrowDown,ArrowRight","false","revaluation","1","46","","",""
"html-keyboard-response","165","729730","0.0-5.0-2.0-1.23","spark_pilot_norest","8574","2","10","Female","","","","","","","","null","<div style=""font-size:60px;"">+</div>","null","fixation","","","","","","","","","47","","",""
"revaluation","166","735735","0.0-5.0-2.0-0.24","spark_pilot_norest","8574","2","10","Female","","false","","","","","","[421,354.9999999998836]","./assets/img/ocean/memory/33.jpg","[""ArrowDown"",""ArrowRight""]","value training","ocean","30","{""ArrowUp,ArrowLeft"":23,""ArrowUp,ArrowRight"":10,""ArrowDown,ArrowLeft"":8,""ArrowDown,ArrowRight"":30}","true","ArrowDown,ArrowRight","false","revaluation","1","48","","",""
"html-keyboard-response","167","736236","0.0-5.0-2.0-1.24","spark_pilot_norest","8574","2","10","Female","","","","","","","","null","<div style=""font-size:60px;"">+</div>","null","fixation","","","","","","","","","49","","",""
"revaluation","168","742242","0.0-5.0-2.0-0.25","spark_pilot_norest","8574","2","10","Female","","false","","","","","","[520,410]","./assets/img/ocean/memory/19.jpg","[""ArrowDown"",""ArrowRight""]","value training","ocean","30","{""ArrowUp,ArrowLeft"":23,""ArrowUp,ArrowRight"":10,""ArrowDown,ArrowLeft"":8,""ArrowDown,ArrowRight"":30}","true","ArrowDown,ArrowRight","false","revaluation","1","50","","",""
"html-keyboard-response","169","742743","0.0-5.0-2.0-1.25","spark_pilot_norest","8574","2","10","Female","","","","","","","","null","<div style=""font-size:60px;"">+</div>","null","fixation","","","","","","","","","51","","",""
"revaluation","170","748748","0.0-5.0-2.0-0.26","spark_pilot_norest","8574","2","10","Female","","false","","","","","","[482,394]","./assets/img/ocean/memory/2.jpg","[""ArrowDown"",""ArrowRight""]","value training","ocean","30","{""ArrowUp,ArrowLeft"":23,""ArrowUp,ArrowRight"":10,""ArrowDown,ArrowLeft"":8,""ArrowDown,ArrowRight"":30}","true","ArrowDown,ArrowRight","false","revaluation","1","52","","",""
"html-keyboard-response","171","749249","0.0-5.0-2.0-1.26","spark_pilot_norest","8574","2","10","Female","","","","","","","","null","<div style=""font-size:60px;"">+</div>","null","fixation","","","","","","","","","53","","",""
"revaluation","172","755255","0.0-5.0-2.0-0.27","spark_pilot_norest","8574","2","10","Female","","false","","","","","","[583,365.0000000001164]","./assets/img/ocean/memory/1.jpg","[""ArrowDown"",""ArrowRight""]","value training","ocean","30","{""ArrowUp,ArrowLeft"":23,""ArrowUp,ArrowRight"":10,""ArrowDown,ArrowLeft"":8,""ArrowDown,ArrowRight"":30}","true","ArrowDown,ArrowRight","false","revaluation","1","54","","",""
"html-keyboard-response","173","755756","0.0-5.0-2.0-1.27","spark_pilot_norest","8574","2","10","Female","","","","","","","","null","<div style=""font-size:60px;"">+</div>","null","fixation","","","","","","","","","55","","",""
"revaluation","174","761762","0.0-5.0-2.0-0.28","spark_pilot_norest","8574","2","10","Female","","false","","","","","","[566,335.0000000001164]","./assets/img/ocean/memory/3.jpg","[""ArrowDown"",""ArrowRight""]","value training","ocean","30","{""ArrowUp,ArrowLeft"":23,""ArrowUp,ArrowRight"":10,""ArrowDown,ArrowLeft"":8,""ArrowDown,ArrowRight"":30}","true","ArrowDown,ArrowRight","false","revaluation","1","56","","",""
"html-keyboard-response","175","762263","0.0-5.0-2.0-1.28","spark_pilot_norest","8574","2","10","Female","","","","","","","","null","<div style=""font-size:60px;"">+</div>","null","fixation","","","","","","","","","57","","",""
"revaluation","176","768268","0.0-5.0-2.0-0.29","spark_pilot_norest","8574","2","10","Female","","false","","","","","","[633,403]","./assets/img/ocean/memory/37.jpg","[""ArrowDown"",""ArrowRight""]","value training","ocean","30","{""ArrowUp,ArrowLeft"":23,""ArrowUp,ArrowRight"":10,""ArrowDown,ArrowLeft"":8,""ArrowDown,ArrowRight"":30}","true","ArrowDown,ArrowRight","false","revaluation","1","58","","",""
"html-keyboard-response","177","768770","0.0-5.0-2.0-1.29","spark_pilot_norest","8574","2","10","Female","","","","","","","","null","<div style=""font-size:60px;"">+</div>","null","fixation","","","","","","","","","59","","",""
"revaluation","178","774775","0.0-5.0-2.0-0.30","spark_pilot_norest","8574","2","10","Female","","false","","","","","","[514,343]","./assets/img/ocean/memory/40.jpg","[""ArrowDown"",""ArrowRight""]","value training","ocean","30","{""ArrowUp,ArrowLeft"":23,""ArrowUp,ArrowRight"":10,""ArrowDown,ArrowLeft"":8,""ArrowDown,ArrowRight"":30}","true","ArrowDown,ArrowRight","false","revaluation","1","60","","",""
"html-keyboard-response","179","775276","0.0-5.0-2.0-1.30","spark_pilot_norest","8574","2","10","Female","","","","","","","","null","<div style=""font-size:60px;"">+</div>","null","fixation","","","","","","","","","61","","",""
"revaluation","180","779281","0.0-5.0-2.0-0.31","spark_pilot_norest","8574","2","10","Female","","false","","","","","","[617]","./assets/img/ocean/catch/7.jpg","[""spaceBar""]","value training","ocean","0","{""ArrowUp,ArrowLeft"":23,""ArrowUp,ArrowRight"":10,""ArrowDown,ArrowLeft"":8,""ArrowDown,ArrowRight"":30}","true","spaceBar","true","revaluation","1","62","","",""
"html-keyboard-response","181","779782","0.0-5.0-2.0-1.31","spark_pilot_norest","8574","2","10","Female","","","","","","","","null","<div style=""font-size:60px;"">+</div>","null","fixation","","","","","","","","","63","","",""
"revaluation","182","785787","0.0-5.0-2.0-0.32","spark_pilot_norest","8574","2","10","Female","","false","","","","","","[499,361]","./assets/img/ocean/memory/39.jpg","[""ArrowDown"",""ArrowRight""]","value training","ocean","30","{""ArrowUp,ArrowLeft"":23,""ArrowUp,ArrowRight"":10,""ArrowDown,ArrowLeft"":8,""ArrowDown,ArrowRight"":30}","true","ArrowDown,ArrowRight","false","revaluation","1","64","","",""
"html-keyboard-response","183","786289","0.0-5.0-2.0-1.32","spark_pilot_norest","8574","2","10","Female","","","","","","","","null","<div style=""font-size:60px;"">+</div>","null","fixation","","","","","","","","","65","","",""
"revaluation","184","792295","0.0-5.0-2.0-0.33","spark_pilot_norest","8574","2","10","Female","","false","","","","","","[332.9999999998836,363]","./assets/img/ocean/memory/17.jpg","[""ArrowDown"",""ArrowRight""]","value training","ocean","30","{""ArrowUp,ArrowLeft"":23,""ArrowUp,ArrowRight"":10,""ArrowDown,ArrowLeft"":8,""ArrowDown,ArrowRight"":30}","true","ArrowDown,ArrowRight","false","revaluation","1","66","","",""
"html-keyboard-response","185","792796","0.0-5.0-2.0-1.33","spark_pilot_norest","8574","2","10","Female","","","","","","","","null","<div style=""font-size:60px;"">+</div>","null","fixation","","","","","","","","","67","","",""
"revaluation","186","796800","0.0-5.0-2.0-0.34","spark_pilot_norest","8574","2","10","Female","","false","","","","","","[677]","./assets/img/ocean/catch/2.jpg","[""spaceBar""]","value training","ocean","0","{""ArrowUp,ArrowLeft"":23,""ArrowUp,ArrowRight"":10,""ArrowDown,ArrowLeft"":8,""ArrowDown,ArrowRight"":30}","true","spaceBar","true","revaluation","1","68","","",""
"html-keyboard-response","187","797301","0.0-5.0-2.0-1.34","spark_pilot_norest","8574","2","10","Female","","","","","","","","null","<div style=""font-size:60px;"">+</div>","null","fixation","","","","","","","","","69","","",""
"revaluation","188","803307","0.0-5.0-2.0-0.35","spark_pilot_norest","8574","2","10","Female","","false","","","","","","[426,406]","./assets/img/ocean/memory/38.jpg","[""ArrowDown"",""ArrowRight""]","value training","ocean","30","{""ArrowUp,ArrowLeft"":23,""ArrowUp,ArrowRight"":10,""ArrowDown,ArrowLeft"":8,""ArrowDown,ArrowRight"":30}","true","ArrowDown,ArrowRight","false","revaluation","1","70","","",""
"html-keyboard-response","189","803809","0.0-5.0-2.0-1.35","spark_pilot_norest","8574","2","10","Female","","","","","","","","null","<div style=""font-size:60px;"">+</div>","null","fixation","","","","","","","","","71","","",""
"revaluation","190","809814","0.0-5.0-2.0-0.36","spark_pilot_norest","8574","2","10","Female","","false","","","","","","[369.0000000001164,434]","./assets/img/ocean/memory/20.jpg","[""ArrowDown"",""ArrowRight""]","value training","ocean","30","{""ArrowUp,ArrowLeft"":23,""ArrowUp,ArrowRight"":10,""ArrowDown,ArrowLeft"":8,""ArrowDown,ArrowRight"":30}","true","ArrowDown,ArrowRight","false","revaluation","1","72","","",""
"html-keyboard-response","191","810316","0.0-5.0-2.0-1.36","spark_pilot_norest","8574","2","10","Female","","","","","","","","null","<div style=""font-size:60px;"">+</div>","null","fixation","","","","","","","","","73","","",""
"revaluation","192","816322","0.0-5.0-2.0-0.37","spark_pilot_norest","8574","2","10","Female","","false","","","","","","[884,481]","./assets/img/ocean/memory/32.jpg","[""ArrowDown"",""ArrowRight""]","value training","ocean","30","{""ArrowUp,ArrowLeft"":23,""ArrowUp,ArrowRight"":10,""ArrowDown,ArrowLeft"":8,""ArrowDown,ArrowRight"":30}","true","ArrowDown,ArrowRight","false","revaluation","1","74","","",""
"html-keyboard-response","193","816823","0.0-5.0-2.0-1.37","spark_pilot_norest","8574","2","10","Female","","","","","","","","null","<div style=""font-size:60px;"">+</div>","null","fixation","","","","","","","","","75","","",""
"revaluation","194","822829","0.0-5.0-2.0-0.38","spark_pilot_norest","8574","2","10","Female","","false","","","","","","[439,393]","./assets/img/ocean/memory/35.jpg","[""ArrowDown"",""ArrowRight""]","value training","ocean","30","{""ArrowUp,ArrowLeft"":23,""ArrowUp,ArrowRight"":10,""ArrowDown,ArrowLeft"":8,""ArrowDown,ArrowRight"":30}","true","ArrowDown,ArrowRight","false","revaluation","1","76","","",""
"html-keyboard-response","195","823329","0.0-5.0-2.0-1.38","spark_pilot_norest","8574","2","10","Female","","","","","","","","null","<div style=""font-size:60px;"">+</div>","null","fixation","","","","","","","","","77","","",""
"revaluation","196","829334","0.0-5.0-2.0-0.39","spark_pilot_norest","8574","2","10","Female","","false","","","","","","[500,433]","./assets/img/ocean/memory/17.jpg","[""ArrowDown"",""ArrowRight""]","value training","ocean","30","{""ArrowUp,ArrowLeft"":23,""ArrowUp,ArrowRight"":10,""ArrowDown,ArrowLeft"":8,""ArrowDown,ArrowRight"":30}","true","ArrowDown,ArrowRight","false","revaluation","1","78","","",""
"html-keyboard-response","197","829836","0.0-5.0-2.0-1.39","spark_pilot_norest","8574","2","10","Female","","","","","","","","null","<div style=""font-size:60px;"">+</div>","null","fixation","","","","","","","","","79","","",""
"revaluation","198","835841","0.0-5.0-2.0-0.40","spark_pilot_norest","8574","2","10","Female","","false","","","","","","[495,357.0000000001164]","./assets/img/ocean/memory/18.jpg","[""ArrowDown"",""ArrowRight""]","value training","ocean","30","{""ArrowUp,ArrowLeft"":23,""ArrowUp,ArrowRight"":10,""ArrowDown,ArrowLeft"":8,""ArrowDown,ArrowRight"":30}","true","ArrowDown,ArrowRight","false","revaluation","1","80","","",""
"html-keyboard-response","199","836343","0.0-5.0-2.0-1.40","spark_pilot_norest","8574","2","10","Female","","","","","","","","null","<div style=""font-size:60px;"">+</div>","null","fixation","","","","","","","","","81","","",""
"revaluation","200","842349","0.0-5.0-2.0-0.41","spark_pilot_norest","8574","2","10","Female","","false","","","","","","[538,310]","./assets/img/ocean/memory/36.jpg","[""ArrowDown"",""ArrowRight""]","value training","ocean","30","{""ArrowUp,ArrowLeft"":23,""ArrowUp,ArrowRight"":10,""ArrowDown,ArrowLeft"":8,""ArrowDown,ArrowRight"":30}","true","ArrowDown,ArrowRight","false","revaluation","1","82","","",""
"html-keyboard-response","201","842849","0.0-5.0-2.0-1.41","spark_pilot_norest","8574","2","10","Female","","","","","","","","null","<div style=""font-size:60px;"">+</div>","null","fixation","","","","","","","","","83","","",""
"revaluation","202","846854","0.0-5.0-2.0-0.42","spark_pilot_norest","8574","2","10","Female","","false","","","","","","[605]","./assets/img/ocean/catch/1.jpg","[""spaceBar""]","value training","ocean","0","{""ArrowUp,ArrowLeft"":23,""ArrowUp,ArrowRight"":10,""ArrowDown,ArrowLeft"":8,""ArrowDown,ArrowRight"":30}","true","spaceBar","true","revaluation","1","84","","",""
"html-keyboard-response","203","847356","0.0-5.0-2.0-1.42","spark_pilot_norest","8574","2","10","Female","","","","","","","","null","<div style=""font-size:60px;"">+</div>","null","fixation","","","","","","","","","85","","",""
"revaluation","204","853362","0.0-5.0-2.0-0.43","spark_pilot_norest","8574","2","10","Female","","false","","","","","","[412,317.9999999998836]","./assets/img/ocean/memory/23.jpg","[""ArrowDown"",""ArrowRight""]","value training","ocean","30","{""ArrowUp,ArrowLeft"":23,""ArrowUp,ArrowRight"":10,""ArrowDown,ArrowLeft"":8,""ArrowDown,ArrowRight"":30}","true","ArrowDown,ArrowRight","false","revaluation","1","86","","",""
"html-keyboard-response","205","853863","0.0-5.0-2.0-1.43","spark_pilot_norest","8574","2","10","Female","","","","","","","","null","<div style=""font-size:60px;"">+</div>","null","fixation","","","","","","","","","87","","",""
"revaluation","206","859867","0.0-5.0-2.0-0.44","spark_pilot_norest","8574","2","10","Female","","false","","","","","","[437,403]","./assets/img/ocean/memory/2.jpg","[""ArrowDown"",""ArrowRight""]","value training","ocean","30","{""ArrowUp,ArrowLeft"":23,""ArrowUp,ArrowRight"":10,""ArrowDown,ArrowLeft"":8,""ArrowDown,ArrowRight"":30}","true","ArrowDown,ArrowRight","false","revaluation","1","88","","",""
"html-keyboard-response","207","860370","0.0-5.0-2.0-1.44","spark_pilot_norest","8574","2","10","Female","","","","","","","","null","<div style=""font-size:60px;"">+</div>","null","fixation","","","","","","","","","89","","",""
"revaluation","208","866375","0.0-5.0-2.0-0.45","spark_pilot_norest","8574","2","10","Female","","false","","","","","","[383,463.0000000001164]","./assets/img/ocean/memory/18.jpg","[""ArrowDown"",""ArrowRight""]","value training","ocean","30","{""ArrowUp,ArrowLeft"":23,""ArrowUp,ArrowRight"":10,""ArrowDown,ArrowLeft"":8,""ArrowDown,ArrowRight"":30}","true","ArrowDown,ArrowRight","false","revaluation","1","90","","",""
"html-keyboard-response","209","866876","0.0-5.0-2.0-1.45","spark_pilot_norest","8574","2","10","Female","","","","","","","","null","<div style=""font-size:60px;"">+</div>","null","fixation","","","","","","","","","91","","",""
"revaluation","210","870881","0.0-5.0-2.0-0.46","spark_pilot_norest","8574","2","10","Female","","false","","","","","","[628]","./assets/img/ocean/catch/6.jpg","[""spaceBar""]","value training","ocean","0","{""ArrowUp,ArrowLeft"":23,""ArrowUp,ArrowRight"":10,""ArrowDown,ArrowLeft"":8,""ArrowDown,ArrowRight"":30}","true","spaceBar","true","revaluation","1","92","","",""
"html-keyboard-response","211","871383","0.0-5.0-2.0-1.46","spark_pilot_norest","8574","2","10","Female","","","","","","","","null","<div style=""font-size:60px;"">+</div>","null","fixation","","","","","","","","","93","","",""
"revaluation","212","877389","0.0-5.0-2.0-0.47","spark_pilot_norest","8574","2","10","Female","","false","","","","","","[472,548]","./assets/img/ocean/memory/19.jpg","[""ArrowDown"",""ArrowRight""]","value training","ocean","30","{""ArrowUp,ArrowLeft"":23,""ArrowUp,ArrowRight"":10,""ArrowDown,ArrowLeft"":8,""ArrowDown,ArrowRight"":30}","true","ArrowDown,ArrowRight","false","revaluation","1","94","","",""
"html-keyboard-response","213","877889","0.0-5.0-2.0-1.47","spark_pilot_norest","8574","2","10","Female","","","","","","","","null","<div style=""font-size:60px;"">+</div>","null","fixation","","","","","","","","","95","","",""
"revaluation","214","883895","0.0-5.0-2.0-0.48","spark_pilot_norest","8574","2","10","Female","","false","","","","","","[365,332]","./assets/img/ocean/memory/16.jpg","[""ArrowDown"",""ArrowRight""]","value training","ocean","30","{""ArrowUp,ArrowLeft"":23,""ArrowUp,ArrowRight"":10,""ArrowDown,ArrowLeft"":8,""ArrowDown,ArrowRight"":30}","true","ArrowDown,ArrowRight","false","revaluation","1","96","","",""
"html-keyboard-response","215","884396","0.0-5.0-2.0-1.48","spark_pilot_norest","8574","2","10","Female","","","","","","","","null","<div style=""font-size:60px;"">+</div>","null","fixation","","","","","","","","","97","","",""
"revaluation","216","890402","0.0-5.0-2.0-0.49","spark_pilot_norest","8574","2","10","Female","","false","","","","","","[436,614.0000000001164]","./assets/img/ocean/memory/21.jpg","[""ArrowDown"",""ArrowRight""]","value training","ocean","30","{""ArrowUp,ArrowLeft"":23,""ArrowUp,ArrowRight"":10,""ArrowDown,ArrowLeft"":8,""ArrowDown,ArrowRight"":30}","true","ArrowDown,ArrowRight","false","revaluation","1","98","","",""
"html-keyboard-response","217","890903","0.0-5.0-2.0-1.49","spark_pilot_norest","8574","2","10","Female","","","","","","","","null","<div style=""font-size:60px;"">+</div>","null","fixation","","","","","","","","","99","","",""
"learning-instructions","218","905685","0.0-5.0-3.0-0.0","spark_pilot_norest","8574","2","10","Female","","","","","","","","1901","<p> Now, you will travel with a friend who will choose whether you go up or down first. </p>
            <p> On these turns, you will just see the animal that they found. You will still get to choose which chest to search for treasure.</p>","","instructions","","","","","","","","","","","",""
"revaluation","219","909689","0.0-5.0-4.0-0.0","spark_pilot_norest","8574","2","10","Female","","false","","","","","","[692]","./assets/img/ocean/animals/seahorse.jpg","[""ArrowRight""]","revaluation","ocean","7","{""ArrowUp,ArrowLeft"":27,""ArrowUp,ArrowRight"":15,""ArrowDown,ArrowLeft"":21,""ArrowDown,ArrowRight"":7}","false","ArrowDown,ArrowRight","","revaluation","1","0","","",""
"html-keyboard-response","220","910191","0.0-5.0-4.0-1.0","spark_pilot_norest","8574","2","10","Female","","","","","","","","null","<div style=""font-size:60px;"">+</div>","null","fixation","","","","","","","","","1","","",""
"revaluation","221","914195","0.0-5.0-4.0-0.1","spark_pilot_norest","8574","2","10","Female","","false","","","","","","[703]","./assets/img/ocean/animals/seahorse.jpg","[""ArrowRight""]","revaluation","ocean","7","{""ArrowUp,ArrowLeft"":27,""ArrowUp,ArrowRight"":15,""ArrowDown,ArrowLeft"":21,""ArrowDown,ArrowRight"":7}","false","ArrowDown,ArrowRight","","revaluation","1","2","","",""
"html-keyboard-response","222","914698","0.0-5.0-4.0-1.1","spark_pilot_norest","8574","2","10","Female","","","","","","","","null","<div style=""font-size:60px;"">+</div>","null","fixation","","","","","","","","","3","","",""
"revaluation","223","918702","0.0-5.0-4.0-0.2","spark_pilot_norest","8574","2","10","Female","","false","","","","","","[720]","./assets/img/ocean/animals/octopus.jpg","[""ArrowLeft""]","revaluation","ocean","27","{""ArrowUp,ArrowLeft"":27,""ArrowUp,ArrowRight"":15,""ArrowDown,ArrowLeft"":21,""ArrowDown,ArrowRight"":7}","true","ArrowUp,ArrowLeft","","revaluation","1","4","","",""
"html-keyboard-response","224","919203","0.0-5.0-4.0-1.2","spark_pilot_norest","8574","2","10","Female","","","","","","","","null","<div style=""font-size:60px;"">+</div>","null","fixation","","","","","","","","","5","","",""
"revaluation","225","923207","0.0-5.0-4.0-0.3","spark_pilot_norest","8574","2","10","Female","","false","","","","","","[458.0000000001164]","./assets/img/ocean/animals/seahorse.jpg","[""ArrowLeft""]","revaluation","ocean","21","{""ArrowUp,ArrowLeft"":27,""ArrowUp,ArrowRight"":15,""ArrowDown,ArrowLeft"":21,""ArrowDown,ArrowRight"":7}","true","ArrowDown,ArrowLeft","","revaluation","1","6","","",""
"html-keyboard-response","226","923708","0.0-5.0-4.0-1.3","spark_pilot_norest","8574","2","10","Female","","","","","","","","null","<div style=""font-size:60px;"">+</div>","null","fixation","","","","","","","","","7","","",""
"revaluation","227","927713","0.0-5.0-4.0-0.4","spark_pilot_norest","8574","2","10","Female","","false","","","","","","[581]","./assets/img/ocean/animals/seahorse.jpg","[""ArrowLeft""]","revaluation","ocean","21","{""ArrowUp,ArrowLeft"":27,""ArrowUp,ArrowRight"":15,""ArrowDown,ArrowLeft"":21,""ArrowDown,ArrowRight"":7}","true","ArrowDown,ArrowLeft","","revaluation","1","8","","",""
"html-keyboard-response","228","928215","0.0-5.0-4.0-1.4","spark_pilot_norest","8574","2","10","Female","","","","","","","","null","<div style=""font-size:60px;"">+</div>","null","fixation","","","","","","","","","9","","",""
"revaluation","229","932219","0.0-5.0-4.0-0.5","spark_pilot_norest","8574","2","10","Female","","false","","","","","","[481]","./assets/img/ocean/animals/seahorse.jpg","[""ArrowLeft""]","revaluation","ocean","21","{""ArrowUp,ArrowLeft"":27,""ArrowUp,ArrowRight"":15,""ArrowDown,ArrowLeft"":21,""ArrowDown,ArrowRight"":7}","true","ArrowDown,ArrowLeft","","revaluation","1","10","","",""
"html-keyboard-response","230","932722","0.0-5.0-4.0-1.5","spark_pilot_norest","8574","2","10","Female","","","","","","","","null","<div style=""font-size:60px;"">+</div>","null","fixation","","","","","","","","","11","","",""
"revaluation","231","936727","0.0-5.0-4.0-0.6","spark_pilot_norest","8574","2","10","Female","","false","","","","","","[469]","./assets/img/ocean/animals/octopus.jpg","[""ArrowLeft""]","revaluation","ocean","27","{""ArrowUp,ArrowLeft"":27,""ArrowUp,ArrowRight"":15,""ArrowDown,ArrowLeft"":21,""ArrowDown,ArrowRight"":7}","true","ArrowUp,ArrowLeft","","revaluation","1","12","","",""
"html-keyboard-response","232","937230","0.0-5.0-4.0-1.6","spark_pilot_norest","8574","2","10","Female","","","","","","","","null","<div style=""font-size:60px;"">+</div>","null","fixation","","","","","","","","","13","","",""
"revaluation","233","941234","0.0-5.0-4.0-0.7","spark_pilot_norest","8574","2","10","Female","","false","","","","","","[484.0000000001164]","./assets/img/ocean/animals/octopus.jpg","[""ArrowLeft""]","revaluation","ocean","27","{""ArrowUp,ArrowLeft"":27,""ArrowUp,ArrowRight"":15,""ArrowDown,ArrowLeft"":21,""ArrowDown,ArrowRight"":7}","true","ArrowUp,ArrowLeft","","revaluation","1","14","","",""
"html-keyboard-response","234","941735","0.0-5.0-4.0-1.7","spark_pilot_norest","8574","2","10","Female","","","","","","","","null","<div style=""font-size:60px;"">+</div>","null","fixation","","","","","","","","","15","","",""
"revaluation","235","945739","0.0-5.0-4.0-0.8","spark_pilot_norest","8574","2","10","Female","","false","","","","","","[509]","./assets/img/ocean/animals/octopus.jpg","[""ArrowRight""]","revaluation","ocean","15","{""ArrowUp,ArrowLeft"":27,""ArrowUp,ArrowRight"":15,""ArrowDown,ArrowLeft"":21,""ArrowDown,ArrowRight"":7}","false","ArrowUp,ArrowRight","","revaluation","1","16","","",""
"html-keyboard-response","236","946242","0.0-5.0-4.0-1.8","spark_pilot_norest","8574","2","10","Female","","","","","","","","null","<div style=""font-size:60px;"">+</div>","null","fixation","","","","","","","","","17","","",""
"revaluation","237","950246","0.0-5.0-4.0-0.9","spark_pilot_norest","8574","2","10","Female","","false","","","","","","[518]","./assets/img/ocean/animals/seahorse.jpg","[""ArrowLeft""]","revaluation","ocean","21","{""ArrowUp,ArrowLeft"":27,""ArrowUp,ArrowRight"":15,""ArrowDown,ArrowLeft"":21,""ArrowDown,ArrowRight"":7}","true","ArrowDown,ArrowLeft","","revaluation","1","18","","",""
"html-keyboard-response","238","950748","0.0-5.0-4.0-1.9","spark_pilot_norest","8574","2","10","Female","","","","","","","","null","<div style=""font-size:60px;"">+</div>","null","fixation","","","","","","","","","19","","",""
"revaluation","239","954753","0.0-5.0-4.0-0.10","spark_pilot_norest","8574","2","10","Female","","false","","","","","","[437.0000000001164]","./assets/img/ocean/animals/octopus.jpg","[""ArrowLeft""]","revaluation","ocean","27","{""ArrowUp,ArrowLeft"":27,""ArrowUp,ArrowRight"":15,""ArrowDown,ArrowLeft"":21,""ArrowDown,ArrowRight"":7}","true","ArrowUp,ArrowLeft","","revaluation","1","20","","",""
"html-keyboard-response","240","955255","0.0-5.0-4.0-1.10","spark_pilot_norest","8574","2","10","Female","","","","","","","","null","<div style=""font-size:60px;"">+</div>","null","fixation","","","","","","","","","21","","",""
"revaluation","241","959259","0.0-5.0-4.0-0.11","spark_pilot_norest","8574","2","10","Female","","false","","","","","","[404]","./assets/img/ocean/animals/seahorse.jpg","[""ArrowLeft""]","revaluation","ocean","21","{""ArrowUp,ArrowLeft"":27,""ArrowUp,ArrowRight"":15,""ArrowDown,ArrowLeft"":21,""ArrowDown,ArrowRight"":7}","true","ArrowDown,ArrowLeft","","revaluation","1","22","","",""
"html-keyboard-response","242","959762","0.0-5.0-4.0-1.11","spark_pilot_norest","8574","2","10","Female","","","","","","","","null","<div style=""font-size:60px;"">+</div>","null","fixation","","","","","","","","","23","","",""
"revaluation","243","963766","0.0-5.0-4.0-0.12","spark_pilot_norest","8574","2","10","Female","","false","","","","","","[330]","./assets/img/ocean/animals/octopus.jpg","[""ArrowLeft""]","revaluation","ocean","27","{""ArrowUp,ArrowLeft"":27,""ArrowUp,ArrowRight"":15,""ArrowDown,ArrowLeft"":21,""ArrowDown,ArrowRight"":7}","true","ArrowUp,ArrowLeft","","revaluation","1","24","","",""
"html-keyboard-response","244","964268","0.0-5.0-4.0-1.12","spark_pilot_norest","8574","2","10","Female","","","","","","","","null","<div style=""font-size:60px;"">+</div>","null","fixation","","","","","","","","","25","","",""
"revaluation","245","968271","0.0-5.0-4.0-0.13","spark_pilot_norest","8574","2","10","Female","","false","","","","","","[421.9999999998836]","./assets/img/ocean/animals/seahorse.jpg","[""ArrowLeft""]","revaluation","ocean","21","{""ArrowUp,ArrowLeft"":27,""ArrowUp,ArrowRight"":15,""ArrowDown,ArrowLeft"":21,""ArrowDown,ArrowRight"":7}","true","ArrowDown,ArrowLeft","","revaluation","1","26","","",""
"html-keyboard-response","246","968772","0.0-5.0-4.0-1.13","spark_pilot_norest","8574","2","10","Female","","","","","","","","null","<div style=""font-size:60px;"">+</div>","null","fixation","","","","","","","","","27","","",""
"revaluation","247","972776","0.0-5.0-4.0-0.14","spark_pilot_norest","8574","2","10","Female","","false","","","","","","[328]","./assets/img/ocean/animals/octopus.jpg","[""ArrowLeft""]","revaluation","ocean","27","{""ArrowUp,ArrowLeft"":27,""ArrowUp,ArrowRight"":15,""ArrowDown,ArrowLeft"":21,""ArrowDown,ArrowRight"":7}","true","ArrowUp,ArrowLeft","","revaluation","1","28","","",""
"html-keyboard-response","248","973278","0.0-5.0-4.0-1.14","spark_pilot_norest","8574","2","10","Female","","","","","","","","null","<div style=""font-size:60px;"">+</div>","null","fixation","","","","","","","","","29","","",""
"revaluation","249","977282","0.0-5.0-4.0-0.15","spark_pilot_norest","8574","2","10","Female","","false","","","","","","[581]","./assets/img/ocean/animals/octopus.jpg","[""ArrowLeft""]","revaluation","ocean","27","{""ArrowUp,ArrowLeft"":27,""ArrowUp,ArrowRight"":15,""ArrowDown,ArrowLeft"":21,""ArrowDown,ArrowRight"":7}","true","ArrowUp,ArrowLeft","","revaluation","1","30","","",""
"html-keyboard-response","250","977783","0.0-5.0-4.0-1.15","spark_pilot_norest","8574","2","10","Female","","","","","","","","null","<div style=""font-size:60px;"">+</div>","null","fixation","","","","","","","","","31","","",""
"revaluation","251","981786","0.0-5.0-4.0-0.16","spark_pilot_norest","8574","2","10","Female","","false","","","","","","[533.0000000001164]","./assets/img/ocean/animals/octopus.jpg","[""ArrowLeft""]","revaluation","ocean","27","{""ArrowUp,ArrowLeft"":27,""ArrowUp,ArrowRight"":15,""ArrowDown,ArrowLeft"":21,""ArrowDown,ArrowRight"":7}","true","ArrowUp,ArrowLeft","","revaluation","1","32","","",""
"html-keyboard-response","252","982287","0.0-5.0-4.0-1.16","spark_pilot_norest","8574","2","10","Female","","","","","","","","null","<div style=""font-size:60px;"">+</div>","null","fixation","","","","","","","","","33","","",""
"revaluation","253","986291","0.0-5.0-4.0-0.17","spark_pilot_norest","8574","2","10","Female","","false","","","","","","[519]","./assets/img/ocean/animals/seahorse.jpg","[""ArrowRight""]","revaluation","ocean","7","{""ArrowUp,ArrowLeft"":27,""ArrowUp,ArrowRight"":15,""ArrowDown,ArrowLeft"":21,""ArrowDown,ArrowRight"":7}","false","ArrowDown,ArrowRight","","revaluation","1","34","","",""
"html-keyboard-response","254","986793","0.0-5.0-4.0-1.17","spark_pilot_norest","8574","2","10","Female","","","","","","","","null","<div style=""font-size:60px;"">+</div>","null","fixation","","","","","","","","","35","","",""
"learning-instructions","255","994895","0.0-5.0-5.0-0.0","spark_pilot_norest","8574","2","10","Female","","","","","","","","null","<p> You have almost finished this part of the game! </p>
            <p> We are going to ask you to make a few more choices. </p>","","instructions","","","","","","","","","","","",""
"learning-instructions","256","1010867","0.0-5.0-5.0-0.1","spark_pilot_norest","8574","2","10","Female","","","","","","","","null","<p> First, you need to decide whether to go up or down. When you see each picture, use the arrow keys to make your choice. </p>
            <p><b>You will not see which animal you found, but try to get to the one that will give you the most treasure.</b></p>","","instructions","","","","","","","","","","","",""
"html-keyboard-response","257","1011868","0.0-5.0-6.0-0.0","spark_pilot_norest","8574","2","10","Female","","","","","","","","null","<div style=""font-size:100px;color:red;"">Starting in...</div>","null","","","","","","","","","","","","",""
"html-keyboard-response","258","1012870","0.0-5.0-6.0-1.0","spark_pilot_norest","8574","2","10","Female","","","","","","","","null","<div style=""font-size:200px;color:red;"">3</div>","null","","","","","","","","","","","","",""
"html-keyboard-response","259","1013871","0.0-5.0-6.0-2.0","spark_pilot_norest","8574","2","10","Female","","","","","","","","null","<div style=""font-size:200px;color:red;"">2</div>","null","","","","","","","","","","","","",""
"html-keyboard-response","260","1014873","0.0-5.0-6.0-3.0","spark_pilot_norest","8574","2","10","Female","","","","","","","","null","<div style=""font-size:200px;color:red;"">1</div>","null","","","","","","","","","","","","",""
"revaluation","261","1015450","0.0-5.0-7.0-0.0","spark_pilot_norest","8574","2","10","Female","","false","","","","","","[575]","./assets/img/ocean/test/1.jpg","[""ArrowDown""]","first stage test","ocean","0","{""ArrowUp,ArrowLeft"":27,""ArrowUp,ArrowRight"":15,""ArrowDown,ArrowLeft"":21,""ArrowDown,ArrowRight"":7}","false","ArrowDown","false","revaluation","1","","","",""
"html-keyboard-response","262","1015952","0.0-5.0-7.0-1.0","spark_pilot_norest","8574","2","10","Female","","","","","","","","null","<div style=""font-size:60px;"">+</div>","null","fixation","","","","","","","","","","","",""
"revaluation","263","1016647","0.0-5.0-7.0-0.1","spark_pilot_norest","8574","2","10","Female","","false","","","","","","[693]","./assets/img/ocean/test/2.jpg","[""ArrowDown""]","first stage test","ocean","0","{""ArrowUp,ArrowLeft"":27,""ArrowUp,ArrowRight"":15,""ArrowDown,ArrowLeft"":21,""ArrowDown,ArrowRight"":7}","false","ArrowDown","false","revaluation","1","","","",""
"html-keyboard-response","264","1017149","0.0-5.0-7.0-1.1","spark_pilot_norest","8574","2","10","Female","","","","","","","","null","<div style=""font-size:60px;"">+</div>","null","fixation","","","","","","","","","","","",""
"revaluation","265","1018019","0.0-5.0-7.0-0.2","spark_pilot_norest","8574","2","10","Female","","false","","","","","","[869]","./assets/img/ocean/test/3.jpg","[""ArrowDown""]","first stage test","ocean","0","{""ArrowUp,ArrowLeft"":27,""ArrowUp,ArrowRight"":15,""ArrowDown,ArrowLeft"":21,""ArrowDown,ArrowRight"":7}","false","ArrowDown","false","revaluation","1","","","",""
"html-keyboard-response","266","1018521","0.0-5.0-7.0-1.2","spark_pilot_norest","8574","2","10","Female","","","","","","","","null","<div style=""font-size:60px;"">+</div>","null","fixation","","","","","","","","","","","",""
"revaluation","267","1019472","0.0-5.0-7.0-0.3","spark_pilot_norest","8574","2","10","Female","","false","","","","","","[949.0000000001164]","./assets/img/ocean/test/0.jpg","[""ArrowDown""]","first stage test","ocean","0","{""ArrowUp,ArrowLeft"":27,""ArrowUp,ArrowRight"":15,""ArrowDown,ArrowLeft"":21,""ArrowDown,ArrowRight"":7}","false","ArrowDown","false","revaluation","1","","","",""
"html-keyboard-response","268","1019974","0.0-5.0-7.0-1.3","spark_pilot_norest","8574","2","10","Female","","","","","","","","null","<div style=""font-size:60px;"">+</div>","null","fixation","","","","","","","","","","","",""
"learning-instructions","269","1033318","0.0-5.0-8.0-0.0","spark_pilot_norest","8574","2","10","Female","","","","","","","","null","<p> Now you will see the animals again and can search their chests for treasure. </p>
            <p> This time, you will not see how much treasure you earned, but you will earn more bonus money for making better choices. </p>","","instructions","","","","","","","","","","","",""
"html-keyboard-response","270","1034319","0.0-5.0-9.0-0.0","spark_pilot_norest","8574","2","10","Female","","","","","","","","null","<div style=""font-size:100px;color:red;"">Starting in...</div>","null","","","","","","","","","","","","",""
"html-keyboard-response","271","1035320","0.0-5.0-9.0-1.0","spark_pilot_norest","8574","2","10","Female","","","","","","","","null","<div style=""font-size:200px;color:red;"">3</div>","null","","","","","","","","","","","","",""
"html-keyboard-response","272","1036322","0.0-5.0-9.0-2.0","spark_pilot_norest","8574","2","10","Female","","","","","","","","null","<div style=""font-size:200px;color:red;"">2</div>","null","","","","","","","","","","","","",""
"html-keyboard-response","273","1037323","0.0-5.0-9.0-3.0","spark_pilot_norest","8574","2","10","Female","","","","","","","","null","<div style=""font-size:200px;color:red;"">1</div>","null","","","","","","","","","","","","",""
"revaluation","274","1038802","0.0-5.0-10.0-0.0","spark_pilot_norest","8574","2","10","Female","","false","","","","","","[1476.9999999998836]","./assets/img/ocean/animals/octopus.jpg","[""ArrowRight""]","second stage test","ocean","0","{""ArrowUp,ArrowLeft"":27,""ArrowUp,ArrowRight"":15,""ArrowDown,ArrowLeft"":21,""ArrowDown,ArrowRight"":7}","false","ArrowUp,ArrowRight","","revaluation","1","","","",""
"html-keyboard-response","275","1039304","0.0-5.0-10.0-1.0","spark_pilot_norest","8574","2","10","Female","","","","","","","","null","<div style=""font-size:60px;"">+</div>","null","fixation","","","","","","","","","","","",""
"revaluation","276","1039835","0.0-5.0-10.0-0.1","spark_pilot_norest","8574","2","10","Female","","false","","","","","","[529]","./assets/img/ocean/animals/octopus.jpg","[""ArrowRight""]","second stage test","ocean","0","{""ArrowUp,ArrowLeft"":27,""ArrowUp,ArrowRight"":15,""ArrowDown,ArrowLeft"":21,""ArrowDown,ArrowRight"":7}","false","ArrowUp,ArrowRight","","revaluation","1","","","",""
"html-keyboard-response","277","1040337","0.0-5.0-10.0-1.1","spark_pilot_norest","8574","2","10","Female","","","","","","","","null","<div style=""font-size:60px;"">+</div>","null","fixation","","","","","","","","","","","",""
"revaluation","278","1041093","0.0-5.0-10.0-0.2","spark_pilot_norest","8574","2","10","Female","","false","","","","","","[753]","./assets/img/ocean/animals/octopus.jpg","[""ArrowRight""]","second stage test","ocean","0","{""ArrowUp,ArrowLeft"":27,""ArrowUp,ArrowRight"":15,""ArrowDown,ArrowLeft"":21,""ArrowDown,ArrowRight"":7}","false","ArrowUp,ArrowRight","","revaluation","1","","","",""
"html-keyboard-response","279","1041594","0.0-5.0-10.0-1.2","spark_pilot_norest","8574","2","10","Female","","","","","","","","null","<div style=""font-size:60px;"">+</div>","null","fixation","","","","","","","","","","","",""
"revaluation","280","1042455","0.0-5.0-10.0-0.3","spark_pilot_norest","8574","2","10","Female","","false","","","","","","[859.9999999998836]","./assets/img/ocean/animals/octopus.jpg","[""ArrowLeft""]","second stage test","ocean","0","{""ArrowUp,ArrowLeft"":27,""ArrowUp,ArrowRight"":15,""ArrowDown,ArrowLeft"":21,""ArrowDown,ArrowRight"":7}","true","ArrowUp,ArrowLeft","","revaluation","1","","","",""
"html-keyboard-response","281","1042958","0.0-5.0-10.0-1.3","spark_pilot_norest","8574","2","10","Female","","","","","","","","null","<div style=""font-size:60px;"">+</div>","null","fixation","","","","","","","","","","","",""
"revaluation","282","1043809","0.0-5.0-10.0-0.4","spark_pilot_norest","8574","2","10","Female","","false","","","","","","[849.0000000002328]","./assets/img/ocean/animals/seahorse.jpg","[""ArrowRight""]","second stage test","ocean","0","{""ArrowUp,ArrowLeft"":27,""ArrowUp,ArrowRight"":15,""ArrowDown,ArrowLeft"":21,""ArrowDown,ArrowRight"":7}","false","ArrowDown,ArrowRight","","revaluation","1","","","",""
"html-keyboard-response","283","1044311","0.0-5.0-10.0-1.4","spark_pilot_norest","8574","2","10","Female","","","","","","","","null","<div style=""font-size:60px;"">+</div>","null","fixation","","","","","","","","","","","",""
"revaluation","284","1045199","0.0-5.0-10.0-0.5","spark_pilot_norest","8574","2","10","Female","","false","","","","","","[886.9999999998836]","./assets/img/ocean/animals/seahorse.jpg","[""ArrowRight""]","second stage test","ocean","0","{""ArrowUp,ArrowLeft"":27,""ArrowUp,ArrowRight"":15,""ArrowDown,ArrowLeft"":21,""ArrowDown,ArrowRight"":7}","false","ArrowDown,ArrowRight","","revaluation","1","","","",""
"html-keyboard-response","285","1045701","0.0-5.0-10.0-1.5","spark_pilot_norest","8574","2","10","Female","","","","","","","","null","<div style=""font-size:60px;"">+</div>","null","fixation","","","","","","","","","","","",""
"revaluation","286","1046561","0.0-5.0-10.0-0.6","spark_pilot_norest","8574","2","10","Female","","false","","","","","","[859]","./assets/img/ocean/animals/seahorse.jpg","[""ArrowRight""]","second stage test","ocean","0","{""ArrowUp,ArrowLeft"":27,""ArrowUp,ArrowRight"":15,""ArrowDown,ArrowLeft"":21,""ArrowDown,ArrowRight"":7}","false","ArrowDown,ArrowRight","","revaluation","1","","","",""
"html-keyboard-response","287","1047063","0.0-5.0-10.0-1.6","spark_pilot_norest","8574","2","10","Female","","","","","","","","null","<div style=""font-size:60px;"">+</div>","null","fixation","","","","","","","","","","","",""
"revaluation","288","1047949","0.0-5.0-10.0-0.7","spark_pilot_norest","8574","2","10","Female","","false","","","","","","[885]","./assets/img/ocean/animals/seahorse.jpg","[""ArrowRight""]","second stage test","ocean","0","{""ArrowUp,ArrowLeft"":27,""ArrowUp,ArrowRight"":15,""ArrowDown,ArrowLeft"":21,""ArrowDown,ArrowRight"":7}","false","ArrowDown,ArrowRight","","revaluation","1","","","",""
"html-keyboard-response","289","1048450","0.0-5.0-10.0-1.7","spark_pilot_norest","8574","2","10","Female","","","","","","","","null","<div style=""font-size:60px;"">+</div>","null","fixation","","","","","","","","","","","",""
"learning-instructions","290","1053706","0.0-5.0-0.1-0.2","spark_pilot_norest","8574","2","10","Female","","","","","","","","2501","<p> This time you are searching for treasure in the <b>canyon</b>.</p>","","instructions","","","","","","","","","","","",""
"learning-instructions","291","1071843","0.0-5.0-0.1-0.3","spark_pilot_norest","8574","2","10","Female","","","","","","","","886","<p><b>New</b> animals with <b>new</b> treasure chests live here. You need to explore to discover where the animal with the best treasure chest is.</p>
                    <p> Like before, once you figure out which animal has the chest with the most treasure, you should try to get to that animal and select that chest! </p>","","instructions","","","","","","","","","","","",""
"learning-instructions","292","1087532","0.0-5.0-1.1-0.1","spark_pilot_norest","8574","2","10","Female","","","","","","","","955.9999999997672","<p> Remember, when you see a picture of the place, use the up and down keys to <b>find an animal</b>.</p>
            <p> When you encounter an animal, you should use the left and right keys to <b>select a treasure chest</b>.</p>
            <p> Don't forget to look out for the robber! </p>","","instructions","","","","","","","","","","","",""
"revaluation","293","1093537","0.0-5.0-2.1-0.50","spark_pilot_norest","8574","2","10","Female","","false","","","","","","[766,397]","./assets/img/canyon/memory/1.jpg","[""ArrowUp"",""ArrowRight""]","value training","canyon","10","{""ArrowUp,ArrowLeft"":26,""ArrowUp,ArrowRight"":10,""ArrowDown,ArrowLeft"":5,""ArrowDown,ArrowRight"":17}","false","ArrowUp,ArrowRight","false","original","2","0","","",""
"html-keyboard-response","294","1094039","0.0-5.0-2.1-1.50","spark_pilot_norest","8574","2","10","Female","","","","","","","","null","<div style=""font-size:60px;"">+</div>","null","fixation","","","","","","","","","1","","",""
"revaluation","295","1100045","0.0-5.0-2.1-0.51","spark_pilot_norest","8574","2","10","Female","","false","","","","","","[375,513]","./assets/img/canyon/memory/32.jpg","[""ArrowDown"",""ArrowRight""]","value training","canyon","17","{""ArrowUp,ArrowLeft"":26,""ArrowUp,ArrowRight"":10,""ArrowDown,ArrowLeft"":5,""ArrowDown,ArrowRight"":17}","false","ArrowDown,ArrowRight","false","original","2","2","","",""
"html-keyboard-response","296","1100546","0.0-5.0-2.1-1.51","spark_pilot_norest","8574","2","10","Female","","","","","","","","null","<div style=""font-size:60px;"">+</div>","null","fixation","","","","","","","","","3","","",""
"revaluation","297","1106551","0.0-5.0-2.1-0.52","spark_pilot_norest","8574","2","10","Female","","false","","","","","","[471.99999999976717,346]","./assets/img/canyon/memory/19.jpg","[""ArrowDown"",""ArrowLeft""]","value training","canyon","5","{""ArrowUp,ArrowLeft"":26,""ArrowUp,ArrowRight"":10,""ArrowDown,ArrowLeft"":5,""ArrowDown,ArrowRight"":17}","false","ArrowDown,ArrowLeft","false","original","2","4","","",""
"html-keyboard-response","298","1107052","0.0-5.0-2.1-1.52","spark_pilot_norest","8574","2","10","Female","","","","","","","","null","<div style=""font-size:60px;"">+</div>","null","fixation","","","","","","","","","5","","",""
"revaluation","299","1113058","0.0-5.0-2.1-0.53","spark_pilot_norest","8574","2","10","Female","","false","","","","","","[460,297]","./assets/img/canyon/memory/35.jpg","[""ArrowUp"",""ArrowLeft""]","value training","canyon","26","{""ArrowUp,ArrowLeft"":26,""ArrowUp,ArrowRight"":10,""ArrowDown,ArrowLeft"":5,""ArrowDown,ArrowRight"":17}","true","ArrowUp,ArrowLeft","false","original","2","6","","",""
"html-keyboard-response","300","1113560","0.0-5.0-2.1-1.53","spark_pilot_norest","8574","2","10","Female","","","","","","","","null","<div style=""font-size:60px;"">+</div>","null","fixation","","","","","","","","","7","","",""
"revaluation","301","1117565","0.0-5.0-2.1-0.54","spark_pilot_norest","8574","2","10","Female","","false","","","","","","[676]","./assets/img/canyon/catch/7.jpg","[""spaceBar""]","value training","canyon","0","{""ArrowUp,ArrowLeft"":26,""ArrowUp,ArrowRight"":10,""ArrowDown,ArrowLeft"":5,""ArrowDown,ArrowRight"":17}","true","spaceBar","true","original","2","8","","",""
"html-keyboard-response","302","1118066","0.0-5.0-2.1-1.54","spark_pilot_norest","8574","2","10","Female","","","","","","","","null","<div style=""font-size:60px;"">+</div>","null","fixation","","","","","","","","","9","","",""
"revaluation","303","1124071","0.0-5.0-2.1-0.55","spark_pilot_norest","8574","2","10","Female","","false","","","","","","[414,411]","./assets/img/canyon/memory/41.jpg","[""ArrowUp"",""ArrowLeft""]","value training","canyon","26","{""ArrowUp,ArrowLeft"":26,""ArrowUp,ArrowRight"":10,""ArrowDown,ArrowLeft"":5,""ArrowDown,ArrowRight"":17}","true","ArrowUp,ArrowLeft","false","original","2","10","","",""
"html-keyboard-response","304","1124572","0.0-5.0-2.1-1.55","spark_pilot_norest","8574","2","10","Female","","","","","","","","null","<div style=""font-size:60px;"">+</div>","null","fixation","","","","","","","","","11","","",""
"revaluation","305","1130578","0.0-5.0-2.1-0.56","spark_pilot_norest","8574","2","10","Female","","false","","","","","","[458,408]","./assets/img/canyon/memory/37.jpg","[""ArrowUp"",""ArrowLeft""]","value training","canyon","26","{""ArrowUp,ArrowLeft"":26,""ArrowUp,ArrowRight"":10,""ArrowDown,ArrowLeft"":5,""ArrowDown,ArrowRight"":17}","true","ArrowUp,ArrowLeft","false","original","2","12","","",""
"html-keyboard-response","306","1131079","0.0-5.0-2.1-1.56","spark_pilot_norest","8574","2","10","Female","","","","","","","","null","<div style=""font-size:60px;"">+</div>","null","fixation","","","","","","","","","13","","",""
"revaluation","307","1137085","0.0-5.0-2.1-0.57","spark_pilot_norest","8574","2","10","Female","","false","","","","","","[427,414]","./assets/img/canyon/memory/2.jpg","[""ArrowUp"",""ArrowLeft""]","value training","canyon","26","{""ArrowUp,ArrowLeft"":26,""ArrowUp,ArrowRight"":10,""ArrowDown,ArrowLeft"":5,""ArrowDown,ArrowRight"":17}","true","ArrowUp,ArrowLeft","false","original","2","14","","",""
"html-keyboard-response","308","1137586","0.0-5.0-2.1-1.57","spark_pilot_norest","8574","2","10","Female","","","","","","","","null","<div style=""font-size:60px;"">+</div>","null","fixation","","","","","","","","","15","","",""
"revaluation","309","1143590","0.0-5.0-2.1-0.58","spark_pilot_norest","8574","2","10","Female","","false","","","","","","[494,546]","./assets/img/canyon/memory/33.jpg","[""ArrowUp"",""ArrowLeft""]","value training","canyon","26","{""ArrowUp,ArrowLeft"":26,""ArrowUp,ArrowRight"":10,""ArrowDown,ArrowLeft"":5,""ArrowDown,ArrowRight"":17}","true","ArrowUp,ArrowLeft","false","original","2","16","","",""
"html-keyboard-response","310","1144092","0.0-5.0-2.1-1.58","spark_pilot_norest","8574","2","10","Female","","","","","","","","null","<div style=""font-size:60px;"">+</div>","null","fixation","","","","","","","","","17","","",""
"revaluation","311","1150098","0.0-5.0-2.1-0.59","spark_pilot_norest","8574","2","10","Female","","false","","","","","","[432,357.00000000023283]","./assets/img/canyon/memory/23.jpg","[""ArrowUp"",""ArrowLeft""]","value training","canyon","26","{""ArrowUp,ArrowLeft"":26,""ArrowUp,ArrowRight"":10,""ArrowDown,ArrowLeft"":5,""ArrowDown,ArrowRight"":17}","true","ArrowUp,ArrowLeft","false","original","2","18","","",""
"html-keyboard-response","312","1150599","0.0-5.0-2.1-1.59","spark_pilot_norest","8574","2","10","Female","","","","","","","","null","<div style=""font-size:60px;"">+</div>","null","fixation","","","","","","","","","19","","",""
"revaluation","313","1154603","0.0-5.0-2.1-0.60","spark_pilot_norest","8574","2","10","Female","","false","","","","","","[677]","./assets/img/canyon/catch/5.jpg","[""spaceBar""]","value training","canyon","0","{""ArrowUp,ArrowLeft"":26,""ArrowUp,ArrowRight"":10,""ArrowDown,ArrowLeft"":5,""ArrowDown,ArrowRight"":17}","true","spaceBar","true","original","2","20","","",""
"html-keyboard-response","314","1155106","0.0-5.0-2.1-1.60","spark_pilot_norest","8574","2","10","Female","","","","","","","","null","<div style=""font-size:60px;"">+</div>","null","fixation","","","","","","","","","21","","",""
