"trial_type","trial_index","time_elapsed","internal_node_id","task_version","subject_id","assigned_condition","age","gender","browser_interaction","success","timeout","failed_images","failed_audio","failed_video","rt","stimulus","response","task_part","environment","score","rewardMap","correct","fullState","isCatch","condition","order","trial_num","key_press","ground_truth","bonus"
"pavlovia","0","1726","0.0-0.0","spark_pilot_norest","8474","3","20","Male","[{""event"":""blur"",""trial"":1,""time"":45842},{""event"":""focus"",""trial"":1,""time"":52041},{""event"":""blur"",""trial"":1,""time"":74617},{""event"":""focus"",""trial"":1,""time"":85204},{""event"":""blur"",""trial"":1,""time"":87814},{""event"":""focus"",""trial"":1,""time"":90968},{""event"":""blur"",""trial"":1,""time"":97610},{""event"":""focus"",""trial"":1,""time"":108637},{""event"":""blur"",""trial"":1,""time"":128908},{""event"":""focus"",""trial"":1,""time"":132800},{""event"":""fullscreenenter"",""trial"":2,""time"":137766}]","","","","","","","","","","","","","","","","","","","","",""
"preload","1","135975","0.0-1.0","spark_pilot_norest","8474","3","20","Male","[{""event"":""blur"",""trial"":1,""time"":45842},{""event"":""focus"",""trial"":1,""time"":52041},{""event"":""blur"",""trial"":1,""time"":74617},{""event"":""focus"",""trial"":1,""time"":85204},{""event"":""blur"",""trial"":1,""time"":87814},{""event"":""focus"",""trial"":1,""time"":90968},{""event"":""blur"",""trial"":1,""time"":97610},{""event"":""focus"",""trial"":1,""time"":108637},{""event"":""blur"",""trial"":1,""time"":128908},{""event"":""focus"",""trial"":1,""time"":132800},{""event"":""fullscreenenter"",""trial"":2,""time"":137766}]","true","false","[]","[]","[]","","","","","","","","","","","","","","","",""
"fullscreen","2","138738","0.0-2.0","spark_pilot_norest","8474","3","20","Male","","true","","","","","","","","","","","","","","","","","","","",""
"audio-button-response","3","141290","0.0-3.0-0.0-0.0","spark_pilot_norest","8474","3","20","Male","","","","","","","2438","./assets/audio/audiotest/turtle.mp3","2","audio_test","","","","","","","","","","","",""
"learning-instructions","4","150868","0.0-3.0-1.0-0.0","spark_pilot_norest","8474","3","20","Male","","","","","","","2530.2999999970198","<p> Welcome! Please remember to stay in fullscreen mode and don't click away from the experiment. </p>","","instructions","","","","","","","","","","","",""
"learning-instructions","5","160509","0.0-3.0-1.0-0.1","spark_pilot_norest","8474","3","20","Male","","","","","","","1165.5","<p> Today you will be playing a game to earn treasure. </p>
            <p> At the end of the experiment, you will earn a bonus based on how much treasure you find. </p>
            <img src='./assets/img/instructions/treasure.jpg' class='instructions-image'>","","instructions","","","","","","","","","","","",""
"learning-instructions","6","169733","0.0-3.0-1.0-0.2","spark_pilot_norest","8474","3","20","Male","","","","","","","910","<p> Animals have hidden treasure in treasure chests. </p>
            <p> You need to first find an animal and then choose which of their treasure chests to search. </p>
            <img src='./assets/img/space/animals/cat.jpg' class='instructions-image'>","","instructions","","","","","","","","","","","",""
"learning-instructions","7","184306","0.0-3.0-1.0-0.3","spark_pilot_norest","8474","3","20","Male","","","","","","","1347.3999999985099","<p> In each round, you will search for treasure in a different place. In the real game, there will be two rounds. </p>
            <p> You will begin with a separate, practice round where you will search for treasure in outer space. </p>
            <img src='./assets/img/space/0.jpg' class='instructions-image'>","","instructions","","","","","","","","","","","",""
"learning-instructions","8","196757","0.0-3.0-1.0-0.4","spark_pilot_norest","8474","3","20","Male","","","","","","","963.5","<p> On every turn, you will see a picture of the place that you are in, but the specific image may be different each time. </p>
            <p> For example, both of these images mean you are in outer space. </p>
            <img src='./assets/img/instructions/outerspace.jpg' class='instructions-image'>","","instructions","","","","","","","","","","","",""
"learning-instructions","9","205798","0.0-3.0-1.0-0.5","spark_pilot_norest","8474","3","20","Male","","","","","","","1162.7000000029802","<p> You need to decide which direction to travel in. </p>
            <p> You can choose between going <b>up or down</b> by using the arrow keys. </p>
            <img src='./assets/img/instructions/updown.jpg' class='instructions-image'>","","instructions","","","","","","","","","","","",""
"learning-instructions","10","215875","0.0-3.0-1.0-0.6","spark_pilot_norest","8474","3","20","Male","","","","","","","1214.5","<p> You will have <b>2 seconds</b> to make your choice. </p>
            <p> If you do not make a choice within 2 seconds, you will not find an animal or earn treasure. </p>
            <img src='./assets/img/instructions/2seconds.jpg' class='instructions-image'>","","instructions","","","","","","","","","","","",""
"learning-instructions","11","225552","0.0-3.0-1.0-0.7","spark_pilot_norest","8474","3","20","Male","","","","","","","2590","<p> Let’s try practicing that now! </p>
            <p> When you see a picture of the place you are in, press the <b>up</b> key to travel up. </p>
            <img src='./assets/img/instructions/pressUp.jpg' class='instructions-image'>","","instructions","","","","","","","","","","","",""
"revaluation","12","229608","0.0-3.0-2.0-0.0","spark_pilot_norest","8474","3","20","Male","","","false","","","","[752.7999999970198]","./assets/img/space/0.jpg","[""ArrowUp""]","first stage practice","space","0","null","null","ArrowUp","false","","","","","",""
"html-keyboard-response","13","230110","0.0-3.0-2.0-1.0","spark_pilot_norest","8474","3","20","Male","","","","","","","null","<div style=""font-size:60px;"">+</div>","null","fixation","","","","","","","","","","","",""
"revaluation","14","234116","0.0-3.0-2.0-0.1","spark_pilot_norest","8474","3","20","Male","","","true","","","","[]","./assets/img/space/1.jpg","[]","first stage practice","space","-5","null","null","","false","","","","","",""
"html-keyboard-response","15","234621","0.0-3.0-2.0-1.1","spark_pilot_norest","8474","3","20","Male","","","","","","","null","<div style=""font-size:60px;"">+</div>","null","fixation","","","","","","","","","","","",""
"revaluation","16","238635","0.0-3.0-2.0-0.2","spark_pilot_norest","8474","3","20","Male","","","true","","","","[]","./assets/img/space/2.jpg","[]","first stage practice","space","-5","null","null","","false","","","","","",""
"html-keyboard-response","17","239143","0.0-3.0-2.0-1.2","spark_pilot_norest","8474","3","20","Male","","","","","","","null","<div style=""font-size:60px;"">+</div>","null","fixation","","","","","","","","","","","",""
"learning-instructions","18","246229","0.0-3.0-3.0-0.0","spark_pilot_norest","8474","3","20","Male","","","","","","","2336.7999999970198","<p> Great job! Now try pressing the <b>down</b> key to travel down. </p>
            <img src='./assets/img/instructions/pressDown.jpg' class='instructions-image'>","","instructions","","","","","","","","","","","",""
"revaluation","19","250246","0.0-3.0-4.0-0.0","spark_pilot_norest","8474","3","20","Male","","","false","","","","[655.3999999985099]","./assets/img/space/3.jpg","[""ArrowDown""]","first stage practice","space","0","null","null","ArrowDown","false","","","","","",""
"html-keyboard-response","20","250749","0.0-3.0-4.0-1.0","spark_pilot_norest","8474","3","20","Male","","","","","","","null","<div style=""font-size:60px;"">+</div>","null","fixation","","","","","","","","","","","",""
"revaluation","21","254767","0.0-3.0-4.0-0.1","spark_pilot_norest","8474","3","20","Male","","","false","","","","[1746.6999999955297]","./assets/img/space/4.jpg","[""ArrowDown""]","first stage practice","space","0","null","null","ArrowDown","false","","","","","",""
"html-keyboard-response","22","255272","0.0-3.0-4.0-1.1","spark_pilot_norest","8474","3","20","Male","","","","","","","null","<div style=""font-size:60px;"">+</div>","null","fixation","","","","","","","","","","","",""
"revaluation","23","259288","0.0-3.0-4.0-0.2","spark_pilot_norest","8474","3","20","Male","","","false","","","","[766.9000000059605]","./assets/img/space/5.jpg","[""ArrowDown""]","first stage practice","space","0","null","null","ArrowDown","false","","","","","",""
"html-keyboard-response","24","259799","0.0-3.0-4.0-1.2","spark_pilot_norest","8474","3","20","Male","","","","","","","null","<div style=""font-size:60px;"">+</div>","null","fixation","","","","","","","","","","","",""
"learning-instructions","25","271642","0.0-3.0-5.0-0.0","spark_pilot_norest","8474","3","20","Male","","","","","","","1913.8000000044703","<p> The animals don’t move, so the animal in the upper part of a place will stay in the upper part of a place, and the animal in the lower part of a place will stay in the lower part of a place. </p>","","instructions","","","","","","","","","","","",""
"learning-instructions","26","282338","0.0-3.0-5.0-0.1","spark_pilot_norest","8474","3","20","Male","","","","","","","1504.6999999955297","<p> Each animal has two treasure chests for you to choose from. </p>
            <p> The amount of treasure in each chest can range from <b> 0 to 40 pieces.</b></p>","","instructions","","","","","","","","","","","",""
"learning-instructions","27","294954","0.0-3.0-5.0-0.2","spark_pilot_norest","8474","3","20","Male","","","","","","","1367.6999999955297","<p> You should decide which chest to search for treasure by using the <b>left</b> and <b>right</b> arrow keys. </p>
            <p><b> Pay attention to which animal is on the screen, as the animals have different treasure chests. </b></p>
            <img src='./assets/img/instructions/leftright.jpg' class='instructions-image'>","","instructions","","","","","","","","","","","",""
"learning-instructions","28","302341","0.0-3.0-5.0-0.3","spark_pilot_norest","8474","3","20","Male","","","","","","","969.5","<p> Let’s try practicing that now. </p>
            <p> When you see an animal, choose which chest to search for treasure. </p>
            <img src='./assets/img/instructions/chooseChest.jpg' class='instructions-image'>","","instructions","","","","","","","","","","","",""
"revaluation","29","306359","0.0-3.0-6.0-0.0","spark_pilot_norest","8474","3","20","Male","","","false","","","","[770.7999999970198]","./assets/img/space/animals/cat.jpg","[""ArrowRight""]","second stage practice","space","36","{""ArrowUp,ArrowLeft"":3,""ArrowUp,ArrowRight"":36,""ArrowDown,ArrowLeft"":15,""ArrowDown,ArrowRight"":23}","true","ArrowUp,ArrowRight","","","","","","",""
"html-keyboard-response","30","306863","0.0-3.0-6.0-1.0","spark_pilot_norest","8474","3","20","Male","","","","","","","null","<div style=""font-size:60px;"">+</div>","null","fixation","","","","","","","","","","","",""
"revaluation","31","310881","0.0-3.0-6.0-0.1","spark_pilot_norest","8474","3","20","Male","","","true","","","","[]","./assets/img/space/animals/cat.jpg","[]","second stage practice","space","-5","{""ArrowUp,ArrowLeft"":3,""ArrowUp,ArrowRight"":36,""ArrowDown,ArrowLeft"":15,""ArrowDown,ArrowRight"":23}","false","ArrowUp","","","","","","",""
"html-keyboard-response","32","311386","0.0-3.0-6.0-1.1","spark_pilot_norest","8474","3","20","Male","","","","","","","null","<div style=""font-size:60px;"">+</div>","null","fixation","","","","","","","","","","","",""
"revaluation","33","315407","0.0-3.0-6.0-0.2","spark_pilot_norest","8474","3","20","Male","","","false","","","","[1222.6999999955297]","./assets/img/space/animals/rabbit.jpg","[""ArrowRight""]","second stage practice","space","23","{""ArrowUp,ArrowLeft"":3,""ArrowUp,ArrowRight"":36,""ArrowDown,ArrowLeft"":15,""ArrowDown,ArrowRight"":23}","true","ArrowDown,ArrowRight","","","","","","",""
"html-keyboard-response","34","315910","0.0-3.0-6.0-1.2","spark_pilot_norest","8474","3","20","Male","","","","","","","null","<div style=""font-size:60px;"">+</div>","null","fixation","","","","","","","","","","","",""
"revaluation","35","319930","0.0-3.0-6.0-0.3","spark_pilot_norest","8474","3","20","Male","","","false","","","","[486]","./assets/img/space/animals/rabbit.jpg","[""ArrowRight""]","second stage practice","space","23","{""ArrowUp,ArrowLeft"":3,""ArrowUp,ArrowRight"":36,""ArrowDown,ArrowLeft"":15,""ArrowDown,ArrowRight"":23}","true","ArrowDown,ArrowRight","","","","","","",""
"html-keyboard-response","36","320438","0.0-3.0-6.0-1.3","spark_pilot_norest","8474","3","20","Male","","","","","","","null","<div style=""font-size:60px;"">+</div>","null","fixation","","","","","","","","","","","",""
"learning-instructions","37","340160","0.0-3.0-7.0-0.0","spark_pilot_norest","8474","3","20","Male","","","","","","","2813.89999999851","<p> Great job. Now let’s try putting it together. </p>
            <p> On each turn, you will first see a picture to remind you of the place you are in, and you need to choose whether to go up or down. </p>
            <p> Then you will see an animal and choose which of its chests to search for treasure. </p>","","instructions","","","","","","","","","","","",""
"learning-instructions","38","349400","0.0-3.0-7.0-0.1","spark_pilot_norest","8474","3","20","Male","","","","","","","925.8999999985099","<p> When you choose whether to go up or down, try to go to the animal with the chest with the most treasure. </p>
            <p> Try practicing that now! </p>","","instructions","","","","","","","","","","","",""
"revaluation","39","355427","0.0-3.0-8.0-0.0","spark_pilot_norest","8474","3","20","Male","","","false","","","","[1002.2999999970198,751]","./assets/img/space/6.jpg","[""ArrowUp"",""ArrowRight""]","full practice","space","36","{""ArrowUp,ArrowLeft"":3,""ArrowUp,ArrowRight"":36,""ArrowDown,ArrowLeft"":15,""ArrowDown,ArrowRight"":23}","true","ArrowUp,ArrowRight","false","","","","","",""
"html-keyboard-response","40","355939","0.0-3.0-8.0-1.0","spark_pilot_norest","8474","3","20","Male","","","","","","","null","<div style=""font-size:60px;"">+</div>","null","fixation","","","","","","","","","","","",""
"revaluation","41","361959","0.0-3.0-8.0-0.1","spark_pilot_norest","8474","3","20","Male","","","false","","","","[1121.7000000029802,1050.8000000044703]","./assets/img/space/7.jpg","[""ArrowDown"",""ArrowRight""]","full practice","space","23","{""ArrowUp,ArrowLeft"":3,""ArrowUp,ArrowRight"":36,""ArrowDown,ArrowLeft"":15,""ArrowDown,ArrowRight"":23}","false","ArrowDown,ArrowRight","false","","","","","",""
"html-keyboard-response","42","362464","0.0-3.0-8.0-1.1","spark_pilot_norest","8474","3","20","Male","","","","","","","null","<div style=""font-size:60px;"">+</div>","null","fixation","","","","","","","","","","","",""
"revaluation","43","368489","0.0-3.0-8.0-0.2","spark_pilot_norest","8474","3","20","Male","","","false","","","","[1262.1000000014901,664]","./assets/img/space/8.jpg","[""ArrowDown"",""ArrowLeft""]","full practice","space","15","{""ArrowUp,ArrowLeft"":3,""ArrowUp,ArrowRight"":36,""ArrowDown,ArrowLeft"":15,""ArrowDown,ArrowRight"":23}","false","ArrowDown,ArrowLeft","false","","","","","",""
"html-keyboard-response","44","368993","0.0-3.0-8.0-1.2","spark_pilot_norest","8474","3","20","Male","","","","","","","null","<div style=""font-size:60px;"">+</div>","null","fixation","","","","","","","","","","","",""
"revaluation","45","375018","0.0-3.0-8.0-0.3","spark_pilot_norest","8474","3","20","Male","","","false","","","","[607.2999999970198,1037]","./assets/img/space/9.jpg","[""ArrowDown"",""ArrowRight""]","full practice","space","23","{""ArrowUp,ArrowLeft"":3,""ArrowUp,ArrowRight"":36,""ArrowDown,ArrowLeft"":15,""ArrowDown,ArrowRight"":23}","false","ArrowDown,ArrowRight","false","","","","","",""
"html-keyboard-response","46","375530","0.0-3.0-8.0-1.3","spark_pilot_norest","8474","3","20","Male","","","","","","","null","<div style=""font-size:60px;"">+</div>","null","fixation","","","","","","","","","","","",""
"revaluation","47","381555","0.0-3.0-8.0-0.4","spark_pilot_norest","8474","3","20","Male","","","false","","","","[621,816.6999999955297]","./assets/img/space/10.jpg","[""ArrowDown"",""ArrowRight""]","full practice","space","23","{""ArrowUp,ArrowLeft"":3,""ArrowUp,ArrowRight"":36,""ArrowDown,ArrowLeft"":15,""ArrowDown,ArrowRight"":23}","false","ArrowDown,ArrowRight","false","","","","","",""
"html-keyboard-response","48","382066","0.0-3.0-8.0-1.4","spark_pilot_norest","8474","3","20","Male","","","","","","","null","<div style=""font-size:60px;"">+</div>","null","fixation","","","","","","","","","","","",""
"learning-instructions","49","393620","0.0-3.0-9.0-0.0","spark_pilot_norest","8474","3","20","Male","","","","","","","1171.3000000044703","<p> One last thing: sometimes, you will see a robber. The robber can be anywhere in the picture. </p>
            <p> If you do not stop them, you will lose treasure. </p>
            <img src='./assets/img/instructions/robber.jpg' class='instructions-image'>","","instructions","","","","","","","","","","","",""
"learning-instructions","50","401877","0.0-3.0-9.0-0.1","spark_pilot_norest","8474","3","20","Male","","","","","","","1033.8000000044703","<p> If you see the robber, you should <b>press the space bar</b> rather than using the arrow keys. </p>
            <p> Try practicing that now! </p>","","instructions","","","","","","","","","","","",""
"revaluation","51","405899","0.0-3.0-10.0-0.0","spark_pilot_norest","8474","3","20","Male","","","false","","","","[1473.1000000014901]","./assets/img/space/catch/0.jpg","[""spaceBar""]","catch practice","space","0","{""ArrowUp,ArrowLeft"":3,""ArrowUp,ArrowRight"":36,""ArrowDown,ArrowLeft"":15,""ArrowDown,ArrowRight"":23}","true","spaceBar","true","","","","","",""
"html-keyboard-response","52","406410","0.0-3.0-10.0-1.0","spark_pilot_norest","8474","3","20","Male","","","","","","","null","<div style=""font-size:60px;"">+</div>","null","fixation","","","","","","","","","","","",""
"revaluation","53","410427","0.0-3.0-10.0-0.1","spark_pilot_norest","8474","3","20","Male","","","false","","","","[458.8999999985099]","./assets/img/space/catch/1.jpg","[""spaceBar""]","catch practice","space","0","{""ArrowUp,ArrowLeft"":3,""ArrowUp,ArrowRight"":36,""ArrowDown,ArrowLeft"":15,""ArrowDown,ArrowRight"":23}","true","spaceBar","true","","","","","",""
"html-keyboard-response","54","410932","0.0-3.0-10.0-1.1","spark_pilot_norest","8474","3","20","Male","","","","","","","null","<div style=""font-size:60px;"">+</div>","null","fixation","","","","","","","","","","","",""
"revaluation","55","414946","0.0-3.0-10.0-0.2","spark_pilot_norest","8474","3","20","Male","","","false","","","","[449.69999999552965]","./assets/img/space/catch/2.jpg","[""spaceBar""]","catch practice","space","0","{""ArrowUp,ArrowLeft"":3,""ArrowUp,ArrowRight"":36,""ArrowDown,ArrowLeft"":15,""ArrowDown,ArrowRight"":23}","true","spaceBar","true","","","","","",""
"html-keyboard-response","56","415449","0.0-3.0-10.0-1.2","spark_pilot_norest","8474","3","20","Male","","","","","","","null","<div style=""font-size:60px;"">+</div>","null","fixation","","","","","","","","","","","",""
"learning-instructions","57","422031","0.0-3.0-11.0-0.0-0.0","spark_pilot_norest","8474","3","20","Male","","","","","","","1310.8999999985099","<p> Now, you will practice a shortened version of the game to get a sense of how it all fits together. </p>","","instructions","","","","","","","","","","","",""
"learning-instructions","58","426226","0.0-3.0-11.0-0.0-0.1","spark_pilot_norest","8474","3","20","Male","","","","","","","972.1000000014901","<p>This time you are searching for treasure in outer space.</p>","","instructions","","","","","","","","","","","",""
"learning-instructions","59","442034","0.0-3.0-11.0-1.0-0.0","spark_pilot_norest","8474","3","20","Male","","","","","","","949.6000000014901","<p> Remember, when you see a picture of the place, use the up and down keys to <b>find an animal</b>.</p>
            <p> When you encounter an animal, you should use the left and right keys to <b>select a treasure chest</b>.</p>
            <p> Don't forget to look out for the robber! </p>","","instructions","","","","","","","","","","","",""
"revaluation","60","448062","0.0-3.0-11.0-2.0-0.0","spark_pilot_norest","8474","3","20","Male","","","false","","","","[1468.6000000014901,466.5]","./assets/img/space/11.jpg","[""ArrowUp"",""ArrowRight""]","practice block","space","36","{""ArrowUp,ArrowLeft"":3,""ArrowUp,ArrowRight"":36,""ArrowDown,ArrowLeft"":15,""ArrowDown,ArrowRight"":23}","true","ArrowUp,ArrowRight","false","","","","","",""
"html-keyboard-response","61","448571","0.0-3.0-11.0-2.0-1.0","spark_pilot_norest","8474","3","20","Male","","","","","","","null","<div style=""font-size:60px;"">+</div>","null","fixation","","","","","","","","","","","",""
"revaluation","62","454598","0.0-3.0-11.0-2.0-0.1","spark_pilot_norest","8474","3","20","Male","","","false","","","","[646.5999999940395,499.6000000014901]","./assets/img/space/12.jpg","[""ArrowUp"",""ArrowRight""]","practice block","space","36","{""ArrowUp,ArrowLeft"":3,""ArrowUp,ArrowRight"":36,""ArrowDown,ArrowLeft"":15,""ArrowDown,ArrowRight"":23}","true","ArrowUp,ArrowRight","false","","","","","",""
"html-keyboard-response","63","455107","0.0-3.0-11.0-2.0-1.1","spark_pilot_norest","8474","3","20","Male","","","","","","","null","<div style=""font-size:60px;"">+</div>","null","fixation","","","","","","","","","","","",""
"revaluation","64","461131","0.0-3.0-11.0-2.0-0.2","spark_pilot_norest","8474","3","20","Male","","","false","","","","[575.5999999940395,341.09999999403954]","./assets/img/space/13.jpg","[""ArrowUp"",""ArrowLeft""]","practice block","space","3","{""ArrowUp,ArrowLeft"":3,""ArrowUp,ArrowRight"":36,""ArrowDown,ArrowLeft"":15,""ArrowDown,ArrowRight"":23}","false","ArrowUp,ArrowLeft","false","","","","","",""
"html-keyboard-response","65","461637","0.0-3.0-11.0-2.0-1.2","spark_pilot_norest","8474","3","20","Male","","","","","","","null","<div style=""font-size:60px;"">+</div>","null","fixation","","","","","","","","","","","",""
"revaluation","66","467660","0.0-3.0-11.0-2.0-0.3","spark_pilot_norest","8474","3","20","Male","","","false","","","","[686.5,486.69999999552965]","./assets/img/space/14.jpg","[""ArrowUp"",""ArrowRight""]","practice block","space","36","{""ArrowUp,ArrowLeft"":3,""ArrowUp,ArrowRight"":36,""ArrowDown,ArrowLeft"":15,""ArrowDown,ArrowRight"":23}","true","ArrowUp,ArrowRight","false","","","","","",""
"html-keyboard-response","67","468162","0.0-3.0-11.0-2.0-1.3","spark_pilot_norest","8474","3","20","Male","","","","","","","null","<div style=""font-size:60px;"">+</div>","null","fixation","","","","","","","","","","","",""
"revaluation","68","474186","0.0-3.0-11.0-2.0-0.4","spark_pilot_norest","8474","3","20","Male","","","false","","","","[630.3999999985099,408.70000000298023]","./assets/img/space/11.jpg","[""ArrowUp"",""ArrowRight""]","practice block","space","36","{""ArrowUp,ArrowLeft"":3,""ArrowUp,ArrowRight"":36,""ArrowDown,ArrowLeft"":15,""ArrowDown,ArrowRight"":23}","true","ArrowUp,ArrowRight","false","","","","","",""
"html-keyboard-response","69","474691","0.0-3.0-11.0-2.0-1.4","spark_pilot_norest","8474","3","20","Male","","","","","","","null","<div style=""font-size:60px;"">+</div>","null","fixation","","","","","","","","","","","",""
"revaluation","70","480717","0.0-3.0-11.0-2.0-0.5","spark_pilot_norest","8474","3","20","Male","","","false","","","","[744.6000000014901,693.3999999985099]","./assets/img/space/12.jpg","[""ArrowDown"",""ArrowLeft""]","practice block","space","15","{""ArrowUp,ArrowLeft"":3,""ArrowUp,ArrowRight"":36,""ArrowDown,ArrowLeft"":15,""ArrowDown,ArrowRight"":23}","false","ArrowDown,ArrowLeft","false","","","","","",""
"html-keyboard-response","71","481222","0.0-3.0-11.0-2.0-1.5","spark_pilot_norest","8474","3","20","Male","","","","","","","null","<div style=""font-size:60px;"">+</div>","null","fixation","","","","","","","","","","","",""
"revaluation","72","487253","0.0-3.0-11.0-2.0-0.6","spark_pilot_norest","8474","3","20","Male","","","false","","","","[585.7000000029802,460.8999999985099]","./assets/img/space/13.jpg","[""ArrowDown"",""ArrowRight""]","practice block","space","23","{""ArrowUp,ArrowLeft"":3,""ArrowUp,ArrowRight"":36,""ArrowDown,ArrowLeft"":15,""ArrowDown,ArrowRight"":23}","false","ArrowDown,ArrowRight","false","","","","","",""
"html-keyboard-response","73","487764","0.0-3.0-11.0-2.0-1.6","spark_pilot_norest","8474","3","20","Male","","","","","","","null","<div style=""font-size:60px;"">+</div>","null","fixation","","","","","","","","","","","",""
"revaluation","74","493791","0.0-3.0-11.0-2.0-0.7","spark_pilot_norest","8474","3","20","Male","","","false","","","","[522.3999999985099,392]","./assets/img/space/14.jpg","[""ArrowUp"",""ArrowRight""]","practice block","space","36","{""ArrowUp,ArrowLeft"":3,""ArrowUp,ArrowRight"":36,""ArrowDown,ArrowLeft"":15,""ArrowDown,ArrowRight"":23}","true","ArrowUp,ArrowRight","false","","","","","",""
"html-keyboard-response","75","494302","0.0-3.0-11.0-2.0-1.7","spark_pilot_norest","8474","3","20","Male","","","","","","","null","<div style=""font-size:60px;"">+</div>","null","fixation","","","","","","","","","","","",""
"revaluation","76","498318","0.0-3.0-11.0-2.0-0.8","spark_pilot_norest","8474","3","20","Male","","","false","","","","[875.3999999985099]","./assets/img/space/catch/3.jpg","[""spaceBar""]","practice block","space","0","{""ArrowUp,ArrowLeft"":3,""ArrowUp,ArrowRight"":36,""ArrowDown,ArrowLeft"":15,""ArrowDown,ArrowRight"":23}","true","spaceBar","true","","","","","",""
"html-keyboard-response","77","498830","0.0-3.0-11.0-2.0-1.8","spark_pilot_norest","8474","3","20","Male","","","","","","","null","<div style=""font-size:60px;"">+</div>","null","fixation","","","","","","","","","","","",""
"learning-instructions","78","513244","0.0-3.0-11.0-3.0-0.0","spark_pilot_norest","8474","3","20","Male","","","","","","","1401.8999999985099","<p> Now, you will travel with a friend who will choose whether you go up or down first. </p>
            <p> On these turns, you will just see the animal that they found. You will still get to choose which chest to search for treasure.</p>","","instructions","","","","","","","","","","","",""
"revaluation","79","517263","0.0-3.0-11.0-4.0-0.0","spark_pilot_norest","8474","3","20","Male","","","false","","","","[1145.8999999985099]","./assets/img/space/animals/rabbit.jpg","[""ArrowRight""]","practice block","space","23","{""ArrowUp,ArrowLeft"":3,""ArrowUp,ArrowRight"":36,""ArrowDown,ArrowLeft"":15,""ArrowDown,ArrowRight"":23}","true","ArrowDown,ArrowRight","","","","","","",""
"html-keyboard-response","80","517773","0.0-3.0-11.0-4.0-1.0","spark_pilot_norest","8474","3","20","Male","","","","","","","null","<div style=""font-size:60px;"">+</div>","null","fixation","","","","","","","","","","","",""
"revaluation","81","521792","0.0-3.0-11.0-4.0-0.1","spark_pilot_norest","8474","3","20","Male","","","false","","","","[602.5]","./assets/img/space/animals/rabbit.jpg","[""ArrowRight""]","practice block","space","23","{""ArrowUp,ArrowLeft"":3,""ArrowUp,ArrowRight"":36,""ArrowDown,ArrowLeft"":15,""ArrowDown,ArrowRight"":23}","true","ArrowDown,ArrowRight","","","","","","",""
"html-keyboard-response","82","522301","0.0-3.0-11.0-4.0-1.1","spark_pilot_norest","8474","3","20","Male","","","","","","","null","<div style=""font-size:60px;"">+</div>","null","fixation","","","","","","","","","","","",""
"revaluation","83","526320","0.0-3.0-11.0-4.0-0.2","spark_pilot_norest","8474","3","20","Male","","","false","","","","[410]","./assets/img/space/animals/cat.jpg","[""ArrowRight""]","practice block","space","36","{""ArrowUp,ArrowLeft"":3,""ArrowUp,ArrowRight"":36,""ArrowDown,ArrowLeft"":15,""ArrowDown,ArrowRight"":23}","true","ArrowUp,ArrowRight","","","","","","",""
"html-keyboard-response","84","526831","0.0-3.0-11.0-4.0-1.2","spark_pilot_norest","8474","3","20","Male","","","","","","","null","<div style=""font-size:60px;"">+</div>","null","fixation","","","","","","","","","","","",""
"revaluation","85","530848","0.0-3.0-11.0-4.0-0.3","spark_pilot_norest","8474","3","20","Male","","","false","","","","[382.6000000014901]","./assets/img/space/animals/cat.jpg","[""ArrowRight""]","practice block","space","36","{""ArrowUp,ArrowLeft"":3,""ArrowUp,ArrowRight"":36,""ArrowDown,ArrowLeft"":15,""ArrowDown,ArrowRight"":23}","true","ArrowUp,ArrowRight","","","","","","",""
"html-keyboard-response","86","531359","0.0-3.0-11.0-4.0-1.3","spark_pilot_norest","8474","3","20","Male","","","","","","","null","<div style=""font-size:60px;"">+</div>","null","fixation","","","","","","","","","","","",""
"learning-instructions","87","539532","0.0-3.0-11.0-5.0-0.0","spark_pilot_norest","8474","3","20","Male","","","","","","","null","<p> You have almost finished this part of the game! </p>
            <p> We are going to ask you to make a few more choices. </p>","","instructions","","","","","","","","","","","",""
"learning-instructions","88","555626","0.0-3.0-11.0-5.0-0.1","spark_pilot_norest","8474","3","20","Male","","","","","","","null","<p> First, you need to decide whether to go up or down. When you see each picture, use the arrow keys to make your choice. </p>
            <p><b>You will not see which animal you found, but try to get to the one that will give you the most treasure.</b></p>","","instructions","","","","","","","","","","","",""
"html-keyboard-response","89","556628","0.0-3.0-11.0-6.0-0.0","spark_pilot_norest","8474","3","20","Male","","","","","","","null","<div style=""font-size:100px;color:red;"">Starting in...</div>","null","","","","","","","","","","","","",""
"html-keyboard-response","90","557637","0.0-3.0-11.0-6.0-1.0","spark_pilot_norest","8474","3","20","Male","","","","","","","null","<div style=""font-size:200px;color:red;"">3</div>","null","","","","","","","","","","","","",""
"html-keyboard-response","91","558644","0.0-3.0-11.0-6.0-2.0","spark_pilot_norest","8474","3","20","Male","","","","","","","null","<div style=""font-size:200px;color:red;"">2</div>","null","","","","","","","","","","","","",""
"html-keyboard-response","92","559645","0.0-3.0-11.0-6.0-3.0","spark_pilot_norest","8474","3","20","Male","","","","","","","null","<div style=""font-size:200px;color:red;"">1</div>","null","","","","","","","","","","","","",""
"revaluation","93","560492","0.0-3.0-11.0-7.0","spark_pilot_norest","8474","3","20","Male","","","false","","","","[841.5]","./assets/img/space/15.jpg","[""ArrowUp""]","practice block","space","0","{""ArrowUp,ArrowLeft"":3,""ArrowUp,ArrowRight"":36,""ArrowDown,ArrowLeft"":15,""ArrowDown,ArrowRight"":23}","true","ArrowUp","false","","","","","",""
"html-keyboard-response","94","560998","0.0-3.0-11.0-8.0","spark_pilot_norest","8474","3","20","Male","","","","","","","null","<div style=""font-size:60px;"">+</div>","null","fixation","","","","","","","","","","","",""
"learning-instructions","95","574455","0.0-3.0-11.0-9.0-0.0","spark_pilot_norest","8474","3","20","Male","","","","","","","null","<p> Now you will see the animals again and can search their chests for treasure. </p>
            <p> This time, you will not see how much treasure you earned, but you will earn more bonus money for making better choices. </p>","","instructions","","","","","","","","","","","",""
"html-keyboard-response","96","575463","0.0-3.0-11.0-10.0-0.0","spark_pilot_norest","8474","3","20","Male","","","","","","","null","<div style=""font-size:100px;color:red;"">Starting in...</div>","null","","","","","","","","","","","","",""
"html-keyboard-response","97","576470","0.0-3.0-11.0-10.0-1.0","spark_pilot_norest","8474","3","20","Male","","","","","","","null","<div style=""font-size:200px;color:red;"">3</div>","null","","","","","","","","","","","","",""
"html-keyboard-response","98","577480","0.0-3.0-11.0-10.0-2.0","spark_pilot_norest","8474","3","20","Male","","","","","","","null","<div style=""font-size:200px;color:red;"">2</div>","null","","","","","","","","","","","","",""
"html-keyboard-response","99","578489","0.0-3.0-11.0-10.0-3.0","spark_pilot_norest","8474","3","20","Male","","","","","","","null","<div style=""font-size:200px;color:red;"">1</div>","null","","","","","","","","","","","","",""
"revaluation","100","578992","0.0-3.0-11.0-11.0-0.0","spark_pilot_norest","8474","3","20","Male","","","false","","","","[499.30000000447035]","./assets/img/space/animals/cat.jpg","[""ArrowRight""]","practice block","space","0","{""ArrowUp,ArrowLeft"":3,""ArrowUp,ArrowRight"":36,""ArrowDown,ArrowLeft"":15,""ArrowDown,ArrowRight"":23}","true","ArrowUp,ArrowRight","","","","","","",""
"html-keyboard-response","101","579495","0.0-3.0-11.0-11.0-1.0","spark_pilot_norest","8474","3","20","Male","","","","","","","null","<div style=""font-size:60px;"">+</div>","null","fixation","","","","","","","","","","","",""
"revaluation","102","580016","0.0-3.0-11.0-11.0-0.1","spark_pilot_norest","8474","3","20","Male","","","false","","","","[517.2000000029802]","./assets/img/space/animals/rabbit.jpg","[""ArrowRight""]","practice block","space","0","{""ArrowUp,ArrowLeft"":3,""ArrowUp,ArrowRight"":36,""ArrowDown,ArrowLeft"":15,""ArrowDown,ArrowRight"":23}","true","ArrowDown,ArrowRight","","","","","","",""
"html-keyboard-response","103","580526","0.0-3.0-11.0-11.0-1.1","spark_pilot_norest","8474","3","20","Male","","","","","","","null","<div style=""font-size:60px;"">+</div>","null","fixation","","","","","","","","","","","",""
"learning-instructions","104","587076","0.0-3.0-12.0-0.0","spark_pilot_norest","8474","3","20","Male","","","","","","","1926.3999999985099","<p> Before you start, we're going to ask you a few questions about how the game works. </p>","","instructions","","","","","","","","","","","",""
"comp-q","105","596590","0.0-3.0-13.0-0.0-0.0","spark_pilot_norest","8474","3","20","Male","","","","","","","3882","<p> <b> True or False? </b> </p>
            <p> There can be 50 pieces of treasure in a given animal's chest. </p>","0","comp_question","","","","false","","","","","","","",""
"comp-q","106","604189","0.0-3.0-13.0-0.0-1.0","spark_pilot_norest","8474","3","20","Male","","","","","","","1031.8999999985099","<p> <b>Incorrect.</b> The amount of treasure in each chest can range from 0 to 40 pieces. </p>","0","comp_answer","","","","","","","","","","","",""
"comp-q","107","610724","0.0-3.0-13.0-0.1-0.1","spark_pilot_norest","8474","3","20","Male","","","","","","","965.5","<p> <b> True or False? </b> </p>
            <p> There can be 50 pieces of treasure in a given animal's chest. </p>","1","comp_question","","","","true","","","","","","","",""
"comp-q","108","618896","0.0-3.0-13.0-0.1-1.1","spark_pilot_norest","8474","3","20","Male","","","","","","","1469.7999999970198","<p> <b> That's right! </b> The amount of treasure in each chest can range from 0 to 40 pieces. </p>","0","comp_answer","","","","","","","","","","","",""
"comp-q","109","626767","0.0-3.0-13.0-0.2-0.2","spark_pilot_norest","8474","3","20","Male","","","","","","","708.7000000029802","<p> <b> True or False? </b> </p><p> In this game, all animals have the same amount of treasure in their left and right chests. </p>","1","comp_question","","","","true","","","","","","","",""
"comp-q","110","633384","0.0-3.0-13.0-0.2-1.2","spark_pilot_norest","8474","3","20","Male","","","","","","","1340.7000000029802","<p> <b> That's right! </b> Animals have different amounts of treasure in their treasure chests. </p>","0","comp_answer","","","","","","","","","","","",""
"comp-q","111","640202","0.0-3.0-13.0-0.3-0.3","spark_pilot_norest","8474","3","20","Male","","","","","","","931.2000000029802","<p> <b> True or False? </b> </p><p> The same animal will always be there if you go up in the same place. </p>","0","comp_question","","","","true","","","","","","","",""
"comp-q","112","647605","0.0-3.0-13.0-0.3-1.3","spark_pilot_norest","8474","3","20","Male","","","","","","","908.7999999970198","<p> <b> That's right! </b> One animal lives in the upper part and one lives in the lower part of every place. </p>","0","comp_answer","","","","","","","","","","","",""
"comp-q","113","653884","0.0-3.0-13.0-0.4-0.4","spark_pilot_norest","8474","3","20","Male","","","","","","","603.5","<p> <b> True or False? </b> </p><p> If you see a different picture, it means you are in a new place. </p>","0","comp_question","","","","false","","","","","","","",""
"comp-q","114","666481","0.0-3.0-13.0-0.4-1.4","spark_pilot_norest","8474","3","20","Male","","","","","","","1418.8999999985099","<p> <b>Incorrect.</b> Lots of different images may show the same place. For example,  you may see three different images that all remind you that you are in outer space. </p>","0","comp_answer","","","","","","","","","","","",""
"comp-q","115","672699","0.0-3.0-13.0-0.5-0.5","spark_pilot_norest","8474","3","20","Male","","","","","","","717.3000000044703","<p> <b> True or False? </b> </p><p> If you see a different picture, it means you are in a new place. </p>","1","comp_question","","","","true","","","","","","","",""
"comp-q","116","686703","0.0-3.0-13.0-0.5-1.5","spark_pilot_norest","8474","3","20","Male","","","","","","","2716.5","<p> <b> That's right! </b> Lots of different images may show the same place. For example,  you may see three different images that all remind you that you are in outer space. </p>","0","comp_answer","","","","","","","","","","","",""
"learning-instructions","117","698301","0.0-3.0-14.0-0.0","spark_pilot_norest","8474","3","20","Male","","","","","","","1682.1000000014901","<p> Good job. Remember to do your best because the amount of treasure you earn will be converted into bonus money. </p>
            <p> It’s time to start the real game! </p>","","instructions","","","","","","","","","","","",""
"learning-instructions","118","704250","0.0-4.0-0.0-0.0","spark_pilot_norest","8474","3","20","Male","","","","","","","3202.4000000059605","<p> This time you are searching for treasure in the <b>ocean</b>.</p>","","instructions","","","","","","","","","","","",""
"learning-instructions","119","723268","0.0-4.0-0.0-0.1","spark_pilot_norest","8474","3","20","Male","","","","","","","1611.7999999970198","<p><b>New</b> animals with <b>new</b> treasure chests live here. You need to explore to discover where the animal with the best treasure chest is.</p>
                    <p> Like before, once you figure out which animal has the chest with the most treasure, you should try to get to that animal and select that chest! </p>","","instructions","","","","","","","","","","","",""
"learning-instructions","120","739799","0.0-4.0-1.0-0.0","spark_pilot_norest","8474","3","20","Male","","","","","","","1795.2000000029802","<p> Remember, when you see a picture of the place, use the up and down keys to <b>find an animal</b>.</p>
            <p> When you encounter an animal, you should use the left and right keys to <b>select a treasure chest</b>.</p>
            <p> Don't forget to look out for the robber! </p>","","instructions","","","","","","","","","","","",""
"revaluation","121","745823","0.0-4.0-2.0-0.0","spark_pilot_norest","8474","3","20","Male","","","false","","","","[1042.1000000014901,539.3999999985099]","./assets/img/ocean/memory/39.jpg","[""ArrowUp"",""ArrowLeft""]","value training","ocean","23","{""ArrowUp,ArrowLeft"":23,""ArrowUp,ArrowRight"":10,""ArrowDown,ArrowLeft"":8,""ArrowDown,ArrowRight"":30}","false","ArrowUp,ArrowLeft","false","original","1","0","","",""
"html-keyboard-response","122","746337","0.0-4.0-2.0-1.0","spark_pilot_norest","8474","3","20","Male","","","","","","","null","<div style=""font-size:60px;"">+</div>","null","fixation","","","","","","","","","1","","",""
"revaluation","123","750354","0.0-4.0-2.0-0.1","spark_pilot_norest","8474","3","20","Male","","","true","","","","[]","./assets/img/ocean/memory/23.jpg","[]","value training","ocean","-5","{""ArrowUp,ArrowLeft"":23,""ArrowUp,ArrowRight"":10,""ArrowDown,ArrowLeft"":8,""ArrowDown,ArrowRight"":30}","false","","false","original","1","2","","",""
"html-keyboard-response","124","750863","0.0-4.0-2.0-1.1","spark_pilot_norest","8474","3","20","Male","","","","","","","null","<div style=""font-size:60px;"">+</div>","null","fixation","","","","","","","","","3","","",""
"revaluation","125","754880","0.0-4.0-2.0-0.2","spark_pilot_norest","8474","3","20","Male","","","false","","","","[698.1000000014901]","./assets/img/ocean/catch/3.jpg","[""ArrowUp""]","value training","ocean","-10","{""ArrowUp,ArrowLeft"":23,""ArrowUp,ArrowRight"":10,""ArrowDown,ArrowLeft"":8,""ArrowDown,ArrowRight"":30}","false","ArrowUp","true","original","1","4","","",""
"html-keyboard-response","126","755385","0.0-4.0-2.0-1.2","spark_pilot_norest","8474","3","20","Male","","","","","","","null","<div style=""font-size:60px;"">+</div>","null","fixation","","","","","","","","","5","","",""
"revaluation","127","759399","0.0-4.0-2.0-0.3","spark_pilot_norest","8474","3","20","Male","","","false","","","","[1210.8999999985099]","./assets/img/ocean/catch/2.jpg","[""spaceBar""]","value training","ocean","0","{""ArrowUp,ArrowLeft"":23,""ArrowUp,ArrowRight"":10,""ArrowDown,ArrowLeft"":8,""ArrowDown,ArrowRight"":30}","true","spaceBar","true","original","1","6","","",""
"html-keyboard-response","128","759906","0.0-4.0-2.0-1.3","spark_pilot_norest","8474","3","20","Male","","","","","","","null","<div style=""font-size:60px;"">+</div>","null","fixation","","","","","","","","","7","","",""
"revaluation","129","765929","0.0-4.0-2.0-0.4","spark_pilot_norest","8474","3","20","Male","","","false","","","","[641.1000000014901,947.3000000044703]","./assets/img/ocean/memory/27.jpg","[""ArrowUp"",""ArrowRight""]","value training","ocean","10","{""ArrowUp,ArrowLeft"":23,""ArrowUp,ArrowRight"":10,""ArrowDown,ArrowLeft"":8,""ArrowDown,ArrowRight"":30}","false","ArrowUp,ArrowRight","false","original","1","8","","",""
"html-keyboard-response","130","766435","0.0-4.0-2.0-1.4","spark_pilot_norest","8474","3","20","Male","","","","","","","null","<div style=""font-size:60px;"">+</div>","null","fixation","","","","","","","","","9","","",""
"revaluation","131","772463","0.0-4.0-2.0-0.5","spark_pilot_norest","8474","3","20","Male","","","false","","","","[950.4000000059605,705]","./assets/img/ocean/memory/21.jpg","[""ArrowUp"",""ArrowLeft""]","value training","ocean","23","{""ArrowUp,ArrowLeft"":23,""ArrowUp,ArrowRight"":10,""ArrowDown,ArrowLeft"":8,""ArrowDown,ArrowRight"":30}","false","ArrowUp,ArrowLeft","false","original","1","10","","",""
"html-keyboard-response","132","772969","0.0-4.0-2.0-1.5","spark_pilot_norest","8474","3","20","Male","","","","","","","null","<div style=""font-size:60px;"">+</div>","null","fixation","","","","","","","","","11","","",""
"revaluation","133","778995","0.0-4.0-2.0-0.6","spark_pilot_norest","8474","3","20","Male","","","false","","","","[701.7999999970198,550.5]","./assets/img/ocean/memory/5.jpg","[""ArrowDown"",""ArrowRight""]","value training","ocean","30","{""ArrowUp,ArrowLeft"":23,""ArrowUp,ArrowRight"":10,""ArrowDown,ArrowLeft"":8,""ArrowDown,ArrowRight"":30}","true","ArrowDown,ArrowRight","false","original","1","12","","",""
"html-keyboard-response","134","779506","0.0-4.0-2.0-1.6","spark_pilot_norest","8474","3","20","Male","","","","","","","null","<div style=""font-size:60px;"">+</div>","null","fixation","","","","","","","","","13","","",""
"revaluation","135","785532","0.0-4.0-2.0-0.7","spark_pilot_norest","8474","3","20","Male","","","false","","","","[981,347.30000000447035]","./assets/img/ocean/memory/34.jpg","[""ArrowDown"",""ArrowRight""]","value training","ocean","30","{""ArrowUp,ArrowLeft"":23,""ArrowUp,ArrowRight"":10,""ArrowDown,ArrowLeft"":8,""ArrowDown,ArrowRight"":30}","true","ArrowDown,ArrowRight","false","original","1","14","","",""
"html-keyboard-response","136","786041","0.0-4.0-2.0-1.7","spark_pilot_norest","8474","3","20","Male","","","","","","","null","<div style=""font-size:60px;"">+</div>","null","fixation","","","","","","","","","15","","",""
"revaluation","137","792068","0.0-4.0-2.0-0.8","spark_pilot_norest","8474","3","20","Male","","","false","","","","[607.5,366.30000000447035]","./assets/img/ocean/memory/34.jpg","[""ArrowDown"",""ArrowRight""]","value training","ocean","30","{""ArrowUp,ArrowLeft"":23,""ArrowUp,ArrowRight"":10,""ArrowDown,ArrowLeft"":8,""ArrowDown,ArrowRight"":30}","true","ArrowDown,ArrowRight","false","original","1","16","","",""
"html-keyboard-response","138","792578","0.0-4.0-2.0-1.8","spark_pilot_norest","8474","3","20","Male","","","","","","","null","<div style=""font-size:60px;"">+</div>","null","fixation","","","","","","","","","17","","",""
"revaluation","139","798601","0.0-4.0-2.0-0.9","spark_pilot_norest","8474","3","20","Male","","","false","","","","[412.8999999985099,311]","./assets/img/ocean/memory/36.jpg","[""ArrowDown"",""ArrowRight""]","value training","ocean","30","{""ArrowUp,ArrowLeft"":23,""ArrowUp,ArrowRight"":10,""ArrowDown,ArrowLeft"":8,""ArrowDown,ArrowRight"":30}","true","ArrowDown,ArrowRight","false","original","1","18","","",""
"html-keyboard-response","140","799106","0.0-4.0-2.0-1.9","spark_pilot_norest","8474","3","20","Male","","","","","","","null","<div style=""font-size:60px;"">+</div>","null","fixation","","","","","","","","","19","","",""
"revaluation","141","805130","0.0-4.0-2.0-0.10","spark_pilot_norest","8474","3","20","Male","","","false","","","","[736.1000000014901,442.1000000014901]","./assets/img/ocean/memory/17.jpg","[""ArrowDown"",""ArrowRight""]","value training","ocean","30","{""ArrowUp,ArrowLeft"":23,""ArrowUp,ArrowRight"":10,""ArrowDown,ArrowLeft"":8,""ArrowDown,ArrowRight"":30}","true","ArrowDown,ArrowRight","false","original","1","20","","",""
"html-keyboard-response","142","805635","0.0-4.0-2.0-1.10","spark_pilot_norest","8474","3","20","Male","","","","","","","null","<div style=""font-size:60px;"">+</div>","null","fixation","","","","","","","","","21","","",""
"revaluation","143","809652","0.0-4.0-2.0-0.11","spark_pilot_norest","8474","3","20","Male","","","false","","","","[605.7999999970198]","./assets/img/ocean/catch/1.jpg","[""ArrowDown""]","value training","ocean","-10","{""ArrowUp,ArrowLeft"":23,""ArrowUp,ArrowRight"":10,""ArrowDown,ArrowLeft"":8,""ArrowDown,ArrowRight"":30}","false","ArrowDown","true","original","1","22","","",""
"html-keyboard-response","144","810161","0.0-4.0-2.0-1.11","spark_pilot_norest","8474","3","20","Male","","","","","","","null","<div style=""font-size:60px;"">+</div>","null","fixation","","","","","","","","","23","","",""
"revaluation","145","816189","0.0-4.0-2.0-0.12","spark_pilot_norest","8474","3","20","Male","","","false","","","","[718.3999999985099,320.19999999552965]","./assets/img/ocean/memory/17.jpg","[""ArrowDown"",""ArrowRight""]","value training","ocean","30","{""ArrowUp,ArrowLeft"":23,""ArrowUp,ArrowRight"":10,""ArrowDown,ArrowLeft"":8,""ArrowDown,ArrowRight"":30}","true","ArrowDown,ArrowRight","false","original","1","24","","",""
"html-keyboard-response","146","816698","0.0-4.0-2.0-1.12","spark_pilot_norest","8474","3","20","Male","","","","","","","null","<div style=""font-size:60px;"">+</div>","null","fixation","","","","","","","","","25","","",""
"revaluation","147","820717","0.0-4.0-2.0-0.13","spark_pilot_norest","8474","3","20","Male","","","false","","","","[572.6999999955297]","./assets/img/ocean/catch/6.jpg","[""spaceBar""]","value training","ocean","0","{""ArrowUp,ArrowLeft"":23,""ArrowUp,ArrowRight"":10,""ArrowDown,ArrowLeft"":8,""ArrowDown,ArrowRight"":30}","true","spaceBar","true","original","1","26","","",""
"html-keyboard-response","148","821229","0.0-4.0-2.0-1.13","spark_pilot_norest","8474","3","20","Male","","","","","","","null","<div style=""font-size:60px;"">+</div>","null","fixation","","","","","","","","","27","","",""
"revaluation","149","827259","0.0-4.0-2.0-0.14","spark_pilot_norest","8474","3","20","Male","","","false","","","","[719.2000000029802,389.30000000447035]","./assets/img/ocean/memory/28.jpg","[""ArrowDown"",""ArrowRight""]","value training","ocean","30","{""ArrowUp,ArrowLeft"":23,""ArrowUp,ArrowRight"":10,""ArrowDown,ArrowLeft"":8,""ArrowDown,ArrowRight"":30}","true","ArrowDown,ArrowRight","false","original","1","28","","",""
"html-keyboard-response","150","827770","0.0-4.0-2.0-1.14","spark_pilot_norest","8474","3","20","Male","","","","","","","null","<div style=""font-size:60px;"">+</div>","null","fixation","","","","","","","","","29","","",""
"revaluation","151","831786","0.0-4.0-2.0-0.15","spark_pilot_norest","8474","3","20","Male","","","false","","","","[696.1999999955297]","./assets/img/ocean/catch/0.jpg","[""spaceBar""]","value training","ocean","0","{""ArrowUp,ArrowLeft"":23,""ArrowUp,ArrowRight"":10,""ArrowDown,ArrowLeft"":8,""ArrowDown,ArrowRight"":30}","true","spaceBar","true","original","1","30","","",""
"html-keyboard-response","152","832292","0.0-4.0-2.0-1.15","spark_pilot_norest","8474","3","20","Male","","","","","","","null","<div style=""font-size:60px;"">+</div>","null","fixation","","","","","","","","","31","","",""
"revaluation","153","838314","0.0-4.0-2.0-0.16","spark_pilot_norest","8474","3","20","Male","","","false","","","","[496.70000000298023,343.5]","./assets/img/ocean/memory/27.jpg","[""ArrowDown"",""ArrowRight""]","value training","ocean","30","{""ArrowUp,ArrowLeft"":23,""ArrowUp,ArrowRight"":10,""ArrowDown,ArrowLeft"":8,""ArrowDown,ArrowRight"":30}","true","ArrowDown,ArrowRight","false","original","1","32","","",""
"html-keyboard-response","154","838820","0.0-4.0-2.0-1.16","spark_pilot_norest","8474","3","20","Male","","","","","","","null","<div style=""font-size:60px;"">+</div>","null","fixation","","","","","","","","","33","","",""
"revaluation","155","844843","0.0-4.0-2.0-0.17","spark_pilot_norest","8474","3","20","Male","","","false","","","","[661.8000000044703,340.09999999403954]","./assets/img/ocean/memory/16.jpg","[""ArrowDown"",""ArrowRight""]","value training","ocean","30","{""ArrowUp,ArrowLeft"":23,""ArrowUp,ArrowRight"":10,""ArrowDown,ArrowLeft"":8,""ArrowDown,ArrowRight"":30}","true","ArrowDown,ArrowRight","false","original","1","34","","",""
"html-keyboard-response","156","845348","0.0-4.0-2.0-1.17","spark_pilot_norest","8474","3","20","Male","","","","","","","null","<div style=""font-size:60px;"">+</div>","null","fixation","","","","","","","","","35","","",""
"revaluation","157","851374","0.0-4.0-2.0-0.18","spark_pilot_norest","8474","3","20","Male","","","false","","","","[567.1000000014901,342.90000000596046]","./assets/img/ocean/memory/21.jpg","[""ArrowDown"",""ArrowRight""]","value training","ocean","30","{""ArrowUp,ArrowLeft"":23,""ArrowUp,ArrowRight"":10,""ArrowDown,ArrowLeft"":8,""ArrowDown,ArrowRight"":30}","true","ArrowDown,ArrowRight","false","original","1","36","","",""
"html-keyboard-response","158","851884","0.0-4.0-2.0-1.18","spark_pilot_norest","8474","3","20","Male","","","","","","","null","<div style=""font-size:60px;"">+</div>","null","fixation","","","","","","","","","37","","",""
"revaluation","159","857916","0.0-4.0-2.0-0.19","spark_pilot_norest","8474","3","20","Male","","","false","","","","[758.6000000014901,335.5]","./assets/img/ocean/memory/19.jpg","[""ArrowDown"",""ArrowRight""]","value training","ocean","30","{""ArrowUp,ArrowLeft"":23,""ArrowUp,ArrowRight"":10,""ArrowDown,ArrowLeft"":8,""ArrowDown,ArrowRight"":30}","true","ArrowDown,ArrowRight","false","original","1","38","","",""
"html-keyboard-response","160","858421","0.0-4.0-2.0-1.19","spark_pilot_norest","8474","3","20","Male","","","","","","","null","<div style=""font-size:60px;"">+</div>","null","fixation","","","","","","","","","39","","",""
"revaluation","161","864444","0.0-4.0-2.0-0.20","spark_pilot_norest","8474","3","20","Male","","","false","","","","[804,363.70000000298023]","./assets/img/ocean/memory/36.jpg","[""ArrowDown"",""ArrowRight""]","value training","ocean","30","{""ArrowUp,ArrowLeft"":23,""ArrowUp,ArrowRight"":10,""ArrowDown,ArrowLeft"":8,""ArrowDown,ArrowRight"":30}","true","ArrowDown,ArrowRight","false","original","1","40","","",""
"html-keyboard-response","162","864958","0.0-4.0-2.0-1.20","spark_pilot_norest","8474","3","20","Male","","","","","","","null","<div style=""font-size:60px;"">+</div>","null","fixation","","","","","","","","","41","","",""
"revaluation","163","870989","0.0-4.0-2.0-0.21","spark_pilot_norest","8474","3","20","Male","","","false","","","","[482.19999999552965,373.79999999701977]","./assets/img/ocean/memory/16.jpg","[""ArrowDown"",""ArrowRight""]","value training","ocean","30","{""ArrowUp,ArrowLeft"":23,""ArrowUp,ArrowRight"":10,""ArrowDown,ArrowLeft"":8,""ArrowDown,ArrowRight"":30}","true","ArrowDown,ArrowRight","false","original","1","42","","",""
"html-keyboard-response","164","871500","0.0-4.0-2.0-1.21","spark_pilot_norest","8474","3","20","Male","","","","","","","null","<div style=""font-size:60px;"">+</div>","null","fixation","","","","","","","","","43","","",""
"revaluation","165","877526","0.0-4.0-2.0-0.22","spark_pilot_norest","8474","3","20","Male","","","false","","","","[755.8000000044703,344.3999999985099]","./assets/img/ocean/memory/41.jpg","[""ArrowDown"",""ArrowRight""]","value training","ocean","30","{""ArrowUp,ArrowLeft"":23,""ArrowUp,ArrowRight"":10,""ArrowDown,ArrowLeft"":8,""ArrowDown,ArrowRight"":30}","true","ArrowDown,ArrowRight","false","original","1","44","","",""
"html-keyboard-response","166","878036","0.0-4.0-2.0-1.22","spark_pilot_norest","8474","3","20","Male","","","","","","","null","<div style=""font-size:60px;"">+</div>","null","fixation","","","","","","","","","45","","",""
"revaluation","167","884063","0.0-4.0-2.0-0.23","spark_pilot_norest","8474","3","20","Male","","","false","","","","[1076.5,370.6000000014901]","./assets/img/ocean/memory/30.jpg","[""ArrowDown"",""ArrowRight""]","value training","ocean","30","{""ArrowUp,ArrowLeft"":23,""ArrowUp,ArrowRight"":10,""ArrowDown,ArrowLeft"":8,""ArrowDown,ArrowRight"":30}","true","ArrowDown,ArrowRight","false","original","1","46","","",""
"html-keyboard-response","168","884573","0.0-4.0-2.0-1.23","spark_pilot_norest","8474","3","20","Male","","","","","","","null","<div style=""font-size:60px;"">+</div>","null","fixation","","","","","","","","","47","","",""
"revaluation","169","890599","0.0-4.0-2.0-0.24","spark_pilot_norest","8474","3","20","Male","","","false","","","","[683.8999999985099,418.70000000298023]","./assets/img/ocean/memory/12.jpg","[""ArrowDown"",""ArrowRight""]","value training","ocean","30","{""ArrowUp,ArrowLeft"":23,""ArrowUp,ArrowRight"":10,""ArrowDown,ArrowLeft"":8,""ArrowDown,ArrowRight"":30}","true","ArrowDown,ArrowRight","false","original","1","48","","",""
"html-keyboard-response","170","891109","0.0-4.0-2.0-1.24","spark_pilot_norest","8474","3","20","Male","","","","","","","null","<div style=""font-size:60px;"">+</div>","null","fixation","","","","","","","","","49","","",""
"revaluation","171","897133","0.0-4.0-2.0-0.25","spark_pilot_norest","8474","3","20","Male","","","false","","","","[656.1000000014901,473.5]","./assets/img/ocean/memory/29.jpg","[""ArrowDown"",""ArrowRight""]","value training","ocean","30","{""ArrowUp,ArrowLeft"":23,""ArrowUp,ArrowRight"":10,""ArrowDown,ArrowLeft"":8,""ArrowDown,ArrowRight"":30}","true","ArrowDown,ArrowRight","false","original","1","50","","",""
"html-keyboard-response","172","897637","0.0-4.0-2.0-1.25","spark_pilot_norest","8474","3","20","Male","","","","","","","null","<div style=""font-size:60px;"">+</div>","null","fixation","","","","","","","","","51","","",""
"revaluation","173","903663","0.0-4.0-2.0-0.26","spark_pilot_norest","8474","3","20","Male","","","false","","","","[741.2999999970198,393.6000000014901]","./assets/img/ocean/memory/10.jpg","[""ArrowDown"",""ArrowRight""]","value training","ocean","30","{""ArrowUp,ArrowLeft"":23,""ArrowUp,ArrowRight"":10,""ArrowDown,ArrowLeft"":8,""ArrowDown,ArrowRight"":30}","true","ArrowDown,ArrowRight","false","original","1","52","","",""
"html-keyboard-response","174","904173","0.0-4.0-2.0-1.26","spark_pilot_norest","8474","3","20","Male","","","","","","","null","<div style=""font-size:60px;"">+</div>","null","fixation","","","","","","","","","53","","",""
"revaluation","175","910197","0.0-4.0-2.0-0.27","spark_pilot_norest","8474","3","20","Male","","","false","","","","[460.3999999985099,480]","./assets/img/ocean/memory/23.jpg","[""ArrowDown"",""ArrowRight""]","value training","ocean","30","{""ArrowUp,ArrowLeft"":23,""ArrowUp,ArrowRight"":10,""ArrowDown,ArrowLeft"":8,""ArrowDown,ArrowRight"":30}","true","ArrowDown,ArrowRight","false","original","1","54","","",""
"html-keyboard-response","176","910702","0.0-4.0-2.0-1.27","spark_pilot_norest","8474","3","20","Male","","","","","","","null","<div style=""font-size:60px;"">+</div>","null","fixation","","","","","","","","","55","","",""
"revaluation","177","916724","0.0-4.0-2.0-0.28","spark_pilot_norest","8474","3","20","Male","","","false","","","","[702,462.70000000298023]","./assets/img/ocean/memory/39.jpg","[""ArrowDown"",""ArrowRight""]","value training","ocean","30","{""ArrowUp,ArrowLeft"":23,""ArrowUp,ArrowRight"":10,""ArrowDown,ArrowLeft"":8,""ArrowDown,ArrowRight"":30}","true","ArrowDown,ArrowRight","false","original","1","56","","",""
"html-keyboard-response","178","917230","0.0-4.0-2.0-1.28","spark_pilot_norest","8474","3","20","Male","","","","","","","null","<div style=""font-size:60px;"">+</div>","null","fixation","","","","","","","","","57","","",""
"revaluation","179","923253","0.0-4.0-2.0-0.29","spark_pilot_norest","8474","3","20","Male","","","false","","","","[578.3999999985099,333.70000000298023]","./assets/img/ocean/memory/0.jpg","[""ArrowDown"",""ArrowRight""]","value training","ocean","30","{""ArrowUp,ArrowLeft"":23,""ArrowUp,ArrowRight"":10,""ArrowDown,ArrowLeft"":8,""ArrowDown,ArrowRight"":30}","true","ArrowDown,ArrowRight","false","original","1","58","","",""
"html-keyboard-response","180","923758","0.0-4.0-2.0-1.29","spark_pilot_norest","8474","3","20","Male","","","","","","","null","<div style=""font-size:60px;"">+</div>","null","fixation","","","","","","","","","59","","",""
"revaluation","181","927775","0.0-4.0-2.0-0.30","spark_pilot_norest","8474","3","20","Male","","","false","","","","[1145]","./assets/img/ocean/catch/5.jpg","[""spaceBar""]","value training","ocean","0","{""ArrowUp,ArrowLeft"":23,""ArrowUp,ArrowRight"":10,""ArrowDown,ArrowLeft"":8,""ArrowDown,ArrowRight"":30}","true","spaceBar","true","original","1","60","","",""
"html-keyboard-response","182","928286","0.0-4.0-2.0-1.30","spark_pilot_norest","8474","3","20","Male","","","","","","","null","<div style=""font-size:60px;"">+</div>","null","fixation","","","","","","","","","61","","",""
"revaluation","183","934312","0.0-4.0-2.0-0.31","spark_pilot_norest","8474","3","20","Male","","","false","","","","[589.8000000044703,441.1000000014901]","./assets/img/ocean/memory/0.jpg","[""ArrowDown"",""ArrowRight""]","value training","ocean","30","{""ArrowUp,ArrowLeft"":23,""ArrowUp,ArrowRight"":10,""ArrowDown,ArrowLeft"":8,""ArrowDown,ArrowRight"":30}","true","ArrowDown,ArrowRight","false","original","1","62","","",""
"html-keyboard-response","184","934822","0.0-4.0-2.0-1.31","spark_pilot_norest","8474","3","20","Male","","","","","","","null","<div style=""font-size:60px;"">+</div>","null","fixation","","","","","","","","","63","","",""
"revaluation","185","938840","0.0-4.0-2.0-0.32","spark_pilot_norest","8474","3","20","Male","","","false","","","","[741.7999999970198]","./assets/img/ocean/catch/4.jpg","[""spaceBar""]","value training","ocean","0","{""ArrowUp,ArrowLeft"":23,""ArrowUp,ArrowRight"":10,""ArrowDown,ArrowLeft"":8,""ArrowDown,ArrowRight"":30}","true","spaceBar","true","original","1","64","","",""
"html-keyboard-response","186","939351","0.0-4.0-2.0-1.32","spark_pilot_norest","8474","3","20","Male","","","","","","","null","<div style=""font-size:60px;"">+</div>","null","fixation","","","","","","","","","65","","",""
"revaluation","187","945372","0.0-4.0-2.0-0.33","spark_pilot_norest","8474","3","20","Male","","","false","","","","[509.19999999552965,374.8999999985099]","./assets/img/ocean/memory/13.jpg","[""ArrowDown"",""ArrowRight""]","value training","ocean","30","{""ArrowUp,ArrowLeft"":23,""ArrowUp,ArrowRight"":10,""ArrowDown,ArrowLeft"":8,""ArrowDown,ArrowRight"":30}","true","ArrowDown,ArrowRight","false","original","1","66","","",""
"html-keyboard-response","188","945876","0.0-4.0-2.0-1.33","spark_pilot_norest","8474","3","20","Male","","","","","","","null","<div style=""font-size:60px;"">+</div>","null","fixation","","","","","","","","","67","","",""
"revaluation","189","949892","0.0-4.0-2.0-0.34","spark_pilot_norest","8474","3","20","Male","","","false","","","","[911]","./assets/img/ocean/catch/7.jpg","[""spaceBar""]","value training","ocean","0","{""ArrowUp,ArrowLeft"":23,""ArrowUp,ArrowRight"":10,""ArrowDown,ArrowLeft"":8,""ArrowDown,ArrowRight"":30}","true","spaceBar","true","original","1","68","","",""
"html-keyboard-response","190","950398","0.0-4.0-2.0-1.34","spark_pilot_norest","8474","3","20","Male","","","","","","","null","<div style=""font-size:60px;"">+</div>","null","fixation","","","","","","","","","69","","",""
"revaluation","191","956424","0.0-4.0-2.0-0.35","spark_pilot_norest","8474","3","20","Male","","","false","","","","[624.2000000029802,403.59999999403954]","./assets/img/ocean/memory/26.jpg","[""ArrowDown"",""ArrowRight""]","value training","ocean","30","{""ArrowUp,ArrowLeft"":23,""ArrowUp,ArrowRight"":10,""ArrowDown,ArrowLeft"":8,""ArrowDown,ArrowRight"":30}","true","ArrowDown,ArrowRight","false","original","1","70","","",""
"html-keyboard-response","192","956935","0.0-4.0-2.0-1.35","spark_pilot_norest","8474","3","20","Male","","","","","","","null","<div style=""font-size:60px;"">+</div>","null","fixation","","","","","","","","","71","","",""
"revaluation","193","962961","0.0-4.0-2.0-0.36","spark_pilot_norest","8474","3","20","Male","","","false","","","","[977,412.6000000014901]","./assets/img/ocean/memory/30.jpg","[""ArrowDown"",""ArrowRight""]","value training","ocean","30","{""ArrowUp,ArrowLeft"":23,""ArrowUp,ArrowRight"":10,""ArrowDown,ArrowLeft"":8,""ArrowDown,ArrowRight"":30}","true","ArrowDown,ArrowRight","false","original","1","72","","",""
"html-keyboard-response","194","963471","0.0-4.0-2.0-1.36","spark_pilot_norest","8474","3","20","Male","","","","","","","null","<div style=""font-size:60px;"">+</div>","null","fixation","","","","","","","","","73","","",""
"revaluation","195","969497","0.0-4.0-2.0-0.37","spark_pilot_norest","8474","3","20","Male","","","false","","","","[1031.6000000014901,999]","./assets/img/ocean/memory/13.jpg","[""ArrowDown"",""ArrowRight""]","value training","ocean","30","{""ArrowUp,ArrowLeft"":23,""ArrowUp,ArrowRight"":10,""ArrowDown,ArrowLeft"":8,""ArrowDown,ArrowRight"":30}","true","ArrowDown,ArrowRight","false","original","1","74","","",""
"html-keyboard-response","196","970008","0.0-4.0-2.0-1.37","spark_pilot_norest","8474","3","20","Male","","","","","","","null","<div style=""font-size:60px;"">+</div>","null","fixation","","","","","","","","","75","","",""
"revaluation","197","976032","0.0-4.0-2.0-0.38","spark_pilot_norest","8474","3","20","Male","","","false","","","","[972.3000000044703,1222]","./assets/img/ocean/memory/40.jpg","[""ArrowDown"",""ArrowRight""]","value training","ocean","30","{""ArrowUp,ArrowLeft"":23,""ArrowUp,ArrowRight"":10,""ArrowDown,ArrowLeft"":8,""ArrowDown,ArrowRight"":30}","true","ArrowDown,ArrowRight","false","original","1","76","","",""
"html-keyboard-response","198","976545","0.0-4.0-2.0-1.38","spark_pilot_norest","8474","3","20","Male","","","","","","","null","<div style=""font-size:60px;"">+</div>","null","fixation","","","","","","","","","77","","",""
"revaluation","199","982566","0.0-4.0-2.0-0.39","spark_pilot_norest","8474","3","20","Male","","","false","","","","[705.8000000044703,642.8999999985099]","./assets/img/ocean/memory/29.jpg","[""ArrowDown"",""ArrowRight""]","value training","ocean","30","{""ArrowUp,ArrowLeft"":23,""ArrowUp,ArrowRight"":10,""ArrowDown,ArrowLeft"":8,""ArrowDown,ArrowRight"":30}","true","ArrowDown,ArrowRight","false","original","1","78","","",""
"html-keyboard-response","200","983072","0.0-4.0-2.0-1.39","spark_pilot_norest","8474","3","20","Male","","","","","","","null","<div style=""font-size:60px;"">+</div>","null","fixation","","","","","","","","","79","","",""
"revaluation","201","989096","0.0-4.0-2.0-0.40","spark_pilot_norest","8474","3","20","Male","","","false","","","","[1182.3000000044703,522.1999999955297]","./assets/img/ocean/memory/22.jpg","[""ArrowDown"",""ArrowRight""]","value training","ocean","30","{""ArrowUp,ArrowLeft"":23,""ArrowUp,ArrowRight"":10,""ArrowDown,ArrowLeft"":8,""ArrowDown,ArrowRight"":30}","true","ArrowDown,ArrowRight","false","original","1","80","","",""
"html-keyboard-response","202","989602","0.0-4.0-2.0-1.40","spark_pilot_norest","8474","3","20","Male","","","","","","","null","<div style=""font-size:60px;"">+</div>","null","fixation","","","","","","","","","81","","",""
"revaluation","203","995632","0.0-4.0-2.0-0.41","spark_pilot_norest","8474","3","20","Male","","","false","","","","[444.1000000014901,379.20000000298023]","./assets/img/ocean/memory/22.jpg","[""ArrowDown"",""ArrowRight""]","value training","ocean","30","{""ArrowUp,ArrowLeft"":23,""ArrowUp,ArrowRight"":10,""ArrowDown,ArrowLeft"":8,""ArrowDown,ArrowRight"":30}","true","ArrowDown,ArrowRight","false","original","1","82","","",""
"html-keyboard-response","204","996136","0.0-4.0-2.0-1.41","spark_pilot_norest","8474","3","20","Male","","","","","","","null","<div style=""font-size:60px;"">+</div>","null","fixation","","","","","","","","","83","","",""
"revaluation","205","1002160","0.0-4.0-2.0-0.42","spark_pilot_norest","8474","3","20","Male","","","false","","","","[682.5,388.79999999701977]","./assets/img/ocean/memory/19.jpg","[""ArrowDown"",""ArrowRight""]","value training","ocean","30","{""ArrowUp,ArrowLeft"":23,""ArrowUp,ArrowRight"":10,""ArrowDown,ArrowLeft"":8,""ArrowDown,ArrowRight"":30}","true","ArrowDown,ArrowRight","false","original","1","84","","",""
"html-keyboard-response","206","1002665","0.0-4.0-2.0-1.42","spark_pilot_norest","8474","3","20","Male","","","","","","","null","<div style=""font-size:60px;"">+</div>","null","fixation","","","","","","","","","85","","",""
"revaluation","207","1008688","0.0-4.0-2.0-0.43","spark_pilot_norest","8474","3","20","Male","","","false","","","","[495.1000000014901,429.30000000447035]","./assets/img/ocean/memory/26.jpg","[""ArrowUp"",""ArrowLeft""]","value training","ocean","23","{""ArrowUp,ArrowLeft"":23,""ArrowUp,ArrowRight"":10,""ArrowDown,ArrowLeft"":8,""ArrowDown,ArrowRight"":30}","false","ArrowUp,ArrowLeft","false","original","1","86","","",""
"html-keyboard-response","208","1009193","0.0-4.0-2.0-1.43","spark_pilot_norest","8474","3","20","Male","","","","","","","null","<div style=""font-size:60px;"">+</div>","null","fixation","","","","","","","","","87","","",""
"revaluation","209","1015220","0.0-4.0-2.0-0.44","spark_pilot_norest","8474","3","20","Male","","","false","","","","[561.5,340]","./assets/img/ocean/memory/10.jpg","[""ArrowDown"",""ArrowRight""]","value training","ocean","30","{""ArrowUp,ArrowLeft"":23,""ArrowUp,ArrowRight"":10,""ArrowDown,ArrowLeft"":8,""ArrowDown,ArrowRight"":30}","true","ArrowDown,ArrowRight","false","original","1","88","","",""
"html-keyboard-response","210","1015728","0.0-4.0-2.0-1.44","spark_pilot_norest","8474","3","20","Male","","","","","","","null","<div style=""font-size:60px;"">+</div>","null","fixation","","","","","","","","","89","","",""
"revaluation","211","1021753","0.0-4.0-2.0-0.45","spark_pilot_norest","8474","3","20","Male","","","false","","","","[464.8999999985099,360.20000000298023]","./assets/img/ocean/memory/12.jpg","[""ArrowDown"",""ArrowRight""]","value training","ocean","30","{""ArrowUp,ArrowLeft"":23,""ArrowUp,ArrowRight"":10,""ArrowDown,ArrowLeft"":8,""ArrowDown,ArrowRight"":30}","true","ArrowDown,ArrowRight","false","original","1","90","","",""
"html-keyboard-response","212","1022255","0.0-4.0-2.0-1.45","spark_pilot_norest","8474","3","20","Male","","","","","","","null","<div style=""font-size:60px;"">+</div>","null","fixation","","","","","","","","","91","","",""
"revaluation","213","1028279","0.0-4.0-2.0-0.46","spark_pilot_norest","8474","3","20","Male","","","false","","","","[411.5,385.3999999985099]","./assets/img/ocean/memory/41.jpg","[""ArrowDown"",""ArrowRight""]","value training","ocean","30","{""ArrowUp,ArrowLeft"":23,""ArrowUp,ArrowRight"":10,""ArrowDown,ArrowLeft"":8,""ArrowDown,ArrowRight"":30}","true","ArrowDown,ArrowRight","false","original","1","92","","",""
"html-keyboard-response","214","1028785","0.0-4.0-2.0-1.46","spark_pilot_norest","8474","3","20","Male","","","","","","","null","<div style=""font-size:60px;"">+</div>","null","fixation","","","","","","","","","93","","",""
"revaluation","215","1034811","0.0-4.0-2.0-0.47","spark_pilot_norest","8474","3","20","Male","","","false","","","","[815.5,387.8999999985099]","./assets/img/ocean/memory/5.jpg","[""ArrowDown"",""ArrowRight""]","value training","ocean","30","{""ArrowUp,ArrowLeft"":23,""ArrowUp,ArrowRight"":10,""ArrowDown,ArrowLeft"":8,""ArrowDown,ArrowRight"":30}","true","ArrowDown,ArrowRight","false","original","1","94","","",""
"html-keyboard-response","216","1035322","0.0-4.0-2.0-1.47","spark_pilot_norest","8474","3","20","Male","","","","","","","null","<div style=""font-size:60px;"">+</div>","null","fixation","","","","","","","","","95","","",""
"revaluation","217","1041348","0.0-4.0-2.0-0.48","spark_pilot_norest","8474","3","20","Male","","","false","","","","[716.6999999955297,367.8999999985099]","./assets/img/ocean/memory/28.jpg","[""ArrowDown"",""ArrowRight""]","value training","ocean","30","{""ArrowUp,ArrowLeft"":23,""ArrowUp,ArrowRight"":10,""ArrowDown,ArrowLeft"":8,""ArrowDown,ArrowRight"":30}","true","ArrowDown,ArrowRight","false","original","1","96","","",""
"html-keyboard-response","218","1041857","0.0-4.0-2.0-1.48","spark_pilot_norest","8474","3","20","Male","","","","","","","null","<div style=""font-size:60px;"">+</div>","null","fixation","","","","","","","","","97","","",""
"revaluation","219","1047890","0.0-4.0-2.0-0.49","spark_pilot_norest","8474","3","20","Male","","","false","","","","[416,514.2999999970198]","./assets/img/ocean/memory/40.jpg","[""ArrowDown"",""ArrowRight""]","value training","ocean","30","{""ArrowUp,ArrowLeft"":23,""ArrowUp,ArrowRight"":10,""ArrowDown,ArrowLeft"":8,""ArrowDown,ArrowRight"":30}","true","ArrowDown,ArrowRight","false","original","1","98","","",""
"html-keyboard-response","220","1048400","0.0-4.0-2.0-1.49","spark_pilot_norest","8474","3","20","Male","","","","","","","null","<div style=""font-size:60px;"">+</div>","null","fixation","","","","","","","","","99","","",""
"learning-instructions","221","1064129","0.0-4.0-3.0-0.0","spark_pilot_norest","8474","3","20","Male","","","","","","","2768.2999999970198","<p> Now, you will travel with a friend who will choose whether you go up or down first. </p>
            <p> On these turns, you will just see the animal that they found. You will still get to choose which chest to search for treasure.</p>","","instructions","","","","","","","","","","","",""
"revaluation","222","1068153","0.0-4.0-4.0-0.0","spark_pilot_norest","8474","3","20","Male","","","false","","","","[774.2999999970198]","./assets/img/ocean/animals/octopus.jpg","[""ArrowRight""]","revaluation","ocean","30","{""ArrowUp,ArrowLeft"":23,""ArrowUp,ArrowRight"":10,""ArrowDown,ArrowLeft"":8,""ArrowDown,ArrowRight"":30}","true","ArrowDown,ArrowRight","","original","1","0","","",""
"html-keyboard-response","223","1068675","0.0-4.0-4.0-1.0","spark_pilot_norest","8474","3","20","Male","","","","","","","null","<div style=""font-size:60px;"">+</div>","null","fixation","","","","","","","","","1","","",""
"revaluation","224","1072693","0.0-4.0-4.0-0.1","spark_pilot_norest","8474","3","20","Male","","","false","","","","[801.7000000029802]","./assets/img/ocean/animals/seahorse.jpg","[""ArrowLeft""]","revaluation","ocean","23","{""ArrowUp,ArrowLeft"":23,""ArrowUp,ArrowRight"":10,""ArrowDown,ArrowLeft"":8,""ArrowDown,ArrowRight"":30}","true","ArrowUp,ArrowLeft","","original","1","2","","",""
"html-keyboard-response","225","1073204","0.0-4.0-4.0-1.1","spark_pilot_norest","8474","3","20","Male","","","","","","","null","<div style=""font-size:60px;"">+</div>","null","fixation","","","","","","","","","3","","",""
"revaluation","226","1077218","0.0-4.0-4.0-0.2","spark_pilot_norest","8474","3","20","Male","","","false","","","","[482.5]","./assets/img/ocean/animals/octopus.jpg","[""ArrowRight""]","revaluation","ocean","30","{""ArrowUp,ArrowLeft"":23,""ArrowUp,ArrowRight"":10,""ArrowDown,ArrowLeft"":8,""ArrowDown,ArrowRight"":30}","true","ArrowDown,ArrowRight","","original","1","4","","",""
"html-keyboard-response","227","1077721","0.0-4.0-4.0-1.2","spark_pilot_norest","8474","3","20","Male","","","","","","","null","<div style=""font-size:60px;"">+</div>","null","fixation","","","","","","","","","5","","",""
"revaluation","228","1081740","0.0-4.0-4.0-0.3","spark_pilot_norest","8474","3","20","Male","","","false","","","","[430.70000000298023]","./assets/img/ocean/animals/seahorse.jpg","[""ArrowLeft""]","revaluation","ocean","23","{""ArrowUp,ArrowLeft"":23,""ArrowUp,ArrowRight"":10,""ArrowDown,ArrowLeft"":8,""ArrowDown,ArrowRight"":30}","true","ArrowUp,ArrowLeft","","original","1","6","","",""
"html-keyboard-response","229","1082251","0.0-4.0-4.0-1.3","spark_pilot_norest","8474","3","20","Male","","","","","","","null","<div style=""font-size:60px;"">+</div>","null","fixation","","","","","","","","","7","","",""
"revaluation","230","1086267","0.0-4.0-4.0-0.4","spark_pilot_norest","8474","3","20","Male","","","false","","","","[625.4000000059605]","./assets/img/ocean/animals/seahorse.jpg","[""ArrowLeft""]","revaluation","ocean","23","{""ArrowUp,ArrowLeft"":23,""ArrowUp,ArrowRight"":10,""ArrowDown,ArrowLeft"":8,""ArrowDown,ArrowRight"":30}","true","ArrowUp,ArrowLeft","","original","1","8","","",""
"html-keyboard-response","231","1086780","0.0-4.0-4.0-1.4","spark_pilot_norest","8474","3","20","Male","","","","","","","null","<div style=""font-size:60px;"">+</div>","null","fixation","","","","","","","","","9","","",""
"revaluation","232","1090801","0.0-4.0-4.0-0.5","spark_pilot_norest","8474","3","20","Male","","","false","","","","[433.8999999985099]","./assets/img/ocean/animals/seahorse.jpg","[""ArrowLeft""]","revaluation","ocean","23","{""ArrowUp,ArrowLeft"":23,""ArrowUp,ArrowRight"":10,""ArrowDown,ArrowLeft"":8,""ArrowDown,ArrowRight"":30}","true","ArrowUp,ArrowLeft","","original","1","10","","",""
"html-keyboard-response","233","1091308","0.0-4.0-4.0-1.5","spark_pilot_norest","8474","3","20","Male","","","","","","","null","<div style=""font-size:60px;"">+</div>","null","fixation","","","","","","","","","11","","",""
"revaluation","234","1095325","0.0-4.0-4.0-0.6","spark_pilot_norest","8474","3","20","Male","","","false","","","","[539.5]","./assets/img/ocean/animals/octopus.jpg","[""ArrowRight""]","revaluation","ocean","30","{""ArrowUp,ArrowLeft"":23,""ArrowUp,ArrowRight"":10,""ArrowDown,ArrowLeft"":8,""ArrowDown,ArrowRight"":30}","true","ArrowDown,ArrowRight","","original","1","12","","",""
"html-keyboard-response","235","1095834","0.0-4.0-4.0-1.6","spark_pilot_norest","8474","3","20","Male","","","","","","","null","<div style=""font-size:60px;"">+</div>","null","fixation","","","","","","","","","13","","",""
"revaluation","236","1099852","0.0-4.0-4.0-0.7","spark_pilot_norest","8474","3","20","Male","","","false","","","","[612.6000000014901]","./assets/img/ocean/animals/seahorse.jpg","[""ArrowLeft""]","revaluation","ocean","23","{""ArrowUp,ArrowLeft"":23,""ArrowUp,ArrowRight"":10,""ArrowDown,ArrowLeft"":8,""ArrowDown,ArrowRight"":30}","true","ArrowUp,ArrowLeft","","original","1","14","","",""
"html-keyboard-response","237","1100362","0.0-4.0-4.0-1.7","spark_pilot_norest","8474","3","20","Male","","","","","","","null","<div style=""font-size:60px;"">+</div>","null","fixation","","","","","","","","","15","","",""
"revaluation","238","1104379","0.0-4.0-4.0-0.8","spark_pilot_norest","8474","3","20","Male","","","false","","","","[1081.8999999985099]","./assets/img/ocean/animals/seahorse.jpg","[""ArrowLeft""]","revaluation","ocean","23","{""ArrowUp,ArrowLeft"":23,""ArrowUp,ArrowRight"":10,""ArrowDown,ArrowLeft"":8,""ArrowDown,ArrowRight"":30}","true","ArrowUp,ArrowLeft","","original","1","16","","",""
"html-keyboard-response","239","1104892","0.0-4.0-4.0-1.8","spark_pilot_norest","8474","3","20","Male","","","","","","","null","<div style=""font-size:60px;"">+</div>","null","fixation","","","","","","","","","17","","",""
"revaluation","240","1108911","0.0-4.0-4.0-0.9","spark_pilot_norest","8474","3","20","Male","","","false","","","","[568.2999999970198]","./assets/img/ocean/animals/octopus.jpg","[""ArrowRight""]","revaluation","ocean","30","{""ArrowUp,ArrowLeft"":23,""ArrowUp,ArrowRight"":10,""ArrowDown,ArrowLeft"":8,""ArrowDown,ArrowRight"":30}","true","ArrowDown,ArrowRight","","original","1","18","","",""
"html-keyboard-response","241","1109421","0.0-4.0-4.0-1.9","spark_pilot_norest","8474","3","20","Male","","","","","","","null","<div style=""font-size:60px;"">+</div>","null","fixation","","","","","","","","","19","","",""
"revaluation","242","1113435","0.0-4.0-4.0-0.10","spark_pilot_norest","8474","3","20","Male","","","false","","","","[731.5]","./assets/img/ocean/animals/octopus.jpg","[""ArrowRight""]","revaluation","ocean","30","{""ArrowUp,ArrowLeft"":23,""ArrowUp,ArrowRight"":10,""ArrowDown,ArrowLeft"":8,""ArrowDown,ArrowRight"":30}","true","ArrowDown,ArrowRight","","original","1","20","","",""
"html-keyboard-response","243","1113940","0.0-4.0-4.0-1.10","spark_pilot_norest","8474","3","20","Male","","","","","","","null","<div style=""font-size:60px;"">+</div>","null","fixation","","","","","","","","","21","","",""
"revaluation","244","1117957","0.0-4.0-4.0-0.11","spark_pilot_norest","8474","3","20","Male","","","false","","","","[492.79999999701977]","./assets/img/ocean/animals/octopus.jpg","[""ArrowRight""]","revaluation","ocean","30","{""ArrowUp,ArrowLeft"":23,""ArrowUp,ArrowRight"":10,""ArrowDown,ArrowLeft"":8,""ArrowDown,ArrowRight"":30}","true","ArrowDown,ArrowRight","","original","1","22","","",""
"html-keyboard-response","245","1118468","0.0-4.0-4.0-1.11","spark_pilot_norest","8474","3","20","Male","","","","","","","null","<div style=""font-size:60px;"">+</div>","null","fixation","","","","","","","","","23","","",""
"revaluation","246","1122486","0.0-4.0-4.0-0.12","spark_pilot_norest","8474","3","20","Male","","","false","","","","[479.70000000298023]","./assets/img/ocean/animals/octopus.jpg","[""ArrowRight""]","revaluation","ocean","30","{""ArrowUp,ArrowLeft"":23,""ArrowUp,ArrowRight"":10,""ArrowDown,ArrowLeft"":8,""ArrowDown,ArrowRight"":30}","true","ArrowDown,ArrowRight","","original","1","24","","",""
"html-keyboard-response","247","1122995","0.0-4.0-4.0-1.12","spark_pilot_norest","8474","3","20","Male","","","","","","","null","<div style=""font-size:60px;"">+</div>","null","fixation","","","","","","","","","25","","",""
"revaluation","248","1127012","0.0-4.0-4.0-0.13","spark_pilot_norest","8474","3","20","Male","","","false","","","","[471.3999999985099]","./assets/img/ocean/animals/seahorse.jpg","[""ArrowRight""]","revaluation","ocean","10","{""ArrowUp,ArrowLeft"":23,""ArrowUp,ArrowRight"":10,""ArrowDown,ArrowLeft"":8,""ArrowDown,ArrowRight"":30}","false","ArrowUp,ArrowRight","","original","1","26","","",""
"html-keyboard-response","249","1127523","0.0-4.0-4.0-1.13","spark_pilot_norest","8474","3","20","Male","","","","","","","null","<div style=""font-size:60px;"">+</div>","null","fixation","","","","","","","","","27","","",""
"revaluation","250","1131542","0.0-4.0-4.0-0.14","spark_pilot_norest","8474","3","20","Male","","","false","","","","[509.5]","./assets/img/ocean/animals/octopus.jpg","[""ArrowRight""]","revaluation","ocean","30","{""ArrowUp,ArrowLeft"":23,""ArrowUp,ArrowRight"":10,""ArrowDown,ArrowLeft"":8,""ArrowDown,ArrowRight"":30}","true","ArrowDown,ArrowRight","","original","1","28","","",""
"html-keyboard-response","251","1132053","0.0-4.0-4.0-1.14","spark_pilot_norest","8474","3","20","Male","","","","","","","null","<div style=""font-size:60px;"">+</div>","null","fixation","","","","","","","","","29","","",""
"revaluation","252","1136070","0.0-4.0-4.0-0.15","spark_pilot_norest","8474","3","20","Male","","","false","","","","[577.3000000044703]","./assets/img/ocean/animals/octopus.jpg","[""ArrowRight""]","revaluation","ocean","30","{""ArrowUp,ArrowLeft"":23,""ArrowUp,ArrowRight"":10,""ArrowDown,ArrowLeft"":8,""ArrowDown,ArrowRight"":30}","true","ArrowDown,ArrowRight","","original","1","30","","",""
"html-keyboard-response","253","1136579","0.0-4.0-4.0-1.15","spark_pilot_norest","8474","3","20","Male","","","","","","","null","<div style=""font-size:60px;"">+</div>","null","fixation","","","","","","","","","31","","",""
"revaluation","254","1140598","0.0-4.0-4.0-0.16","spark_pilot_norest","8474","3","20","Male","","","false","","","","[556.2999999970198]","./assets/img/ocean/animals/seahorse.jpg","[""ArrowRight""]","revaluation","ocean","10","{""ArrowUp,ArrowLeft"":23,""ArrowUp,ArrowRight"":10,""ArrowDown,ArrowLeft"":8,""ArrowDown,ArrowRight"":30}","false","ArrowUp,ArrowRight","","original","1","32","","",""
"html-keyboard-response","255","1141110","0.0-4.0-4.0-1.16","spark_pilot_norest","8474","3","20","Male","","","","","","","null","<div style=""font-size:60px;"">+</div>","null","fixation","","","","","","","","","33","","",""
"revaluation","256","1145125","0.0-4.0-4.0-0.17","spark_pilot_norest","8474","3","20","Male","","","false","","","","[729.3999999985099]","./assets/img/ocean/animals/seahorse.jpg","[""ArrowLeft""]","revaluation","ocean","23","{""ArrowUp,ArrowLeft"":23,""ArrowUp,ArrowRight"":10,""ArrowDown,ArrowLeft"":8,""ArrowDown,ArrowRight"":30}","true","ArrowUp,ArrowLeft","","original","1","34","","",""
"html-keyboard-response","257","1145638","0.0-4.0-4.0-1.17","spark_pilot_norest","8474","3","20","Male","","","","","","","null","<div style=""font-size:60px;"">+</div>","null","fixation","","","","","","","","","35","","",""
"learning-instructions","258","1153758","0.0-4.0-5.0-0.0","spark_pilot_norest","8474","3","20","Male","","","","","","","null","<p> You have almost finished this part of the game! </p>
            <p> We are going to ask you to make a few more choices. </p>","","instructions","","","","","","","","","","","",""
"learning-instructions","259","1169739","0.0-4.0-5.0-0.1","spark_pilot_norest","8474","3","20","Male","","","","","","","null","<p> First, you need to decide whether to go up or down. When you see each picture, use the arrow keys to make your choice. </p>
            <p><b>You will not see which animal you found, but try to get to the one that will give you the most treasure.</b></p>","","instructions","","","","","","","","","","","",""
"html-keyboard-response","260","1170749","0.0-4.0-6.0-0.0","spark_pilot_norest","8474","3","20","Male","","","","","","","null","<div style=""font-size:100px;color:red;"">Starting in...</div>","null","","","","","","","","","","","","",""
"html-keyboard-response","261","1171759","0.0-4.0-6.0-1.0","spark_pilot_norest","8474","3","20","Male","","","","","","","null","<div style=""font-size:200px;color:red;"">3</div>","null","","","","","","","","","","","","",""
"html-keyboard-response","262","1172765","0.0-4.0-6.0-2.0","spark_pilot_norest","8474","3","20","Male","","","","","","","null","<div style=""font-size:200px;color:red;"">2</div>","null","","","","","","","","","","","","",""
"html-keyboard-response","263","1173774","0.0-4.0-6.0-3.0","spark_pilot_norest","8474","3","20","Male","","","","","","","null","<div style=""font-size:200px;color:red;"">1</div>","null","","","","","","","","","","","","",""
"revaluation","264","1175380","0.0-4.0-7.0-0.0","spark_pilot_norest","8474","3","20","Male","","","false","","","","[1603.2999999970198]","./assets/img/ocean/test/1.jpg","[""ArrowUp""]","first stage test","ocean","0","{""ArrowUp,ArrowLeft"":23,""ArrowUp,ArrowRight"":10,""ArrowDown,ArrowLeft"":8,""ArrowDown,ArrowRight"":30}","false","ArrowUp","false","original","1","","","",""
"html-keyboard-response","265","1175887","0.0-4.0-7.0-1.0","spark_pilot_norest","8474","3","20","Male","","","","","","","null","<div style=""font-size:60px;"">+</div>","null","fixation","","","","","","","","","","","",""
"revaluation","266","1178450","0.0-4.0-7.0-0.1","spark_pilot_norest","8474","3","20","Male","","","false","","","","[2560.89999999851]","./assets/img/ocean/test/0.jpg","[""ArrowUp""]","first stage test","ocean","0","{""ArrowUp,ArrowLeft"":23,""ArrowUp,ArrowRight"":10,""ArrowDown,ArrowLeft"":8,""ArrowDown,ArrowRight"":30}","false","ArrowUp","false","original","1","","","",""
"html-keyboard-response","267","1178958","0.0-4.0-7.0-1.1","spark_pilot_norest","8474","3","20","Male","","","","","","","null","<div style=""font-size:60px;"">+</div>","null","fixation","","","","","","","","","","","",""
"revaluation","268","1180088","0.0-4.0-7.0-0.2","spark_pilot_norest","8474","3","20","Male","","","false","","","","[1125.4000000059605]","./assets/img/ocean/test/3.jpg","[""ArrowUp""]","first stage test","ocean","0","{""ArrowUp,ArrowLeft"":23,""ArrowUp,ArrowRight"":10,""ArrowDown,ArrowLeft"":8,""ArrowDown,ArrowRight"":30}","false","ArrowUp","false","original","1","","","",""
"html-keyboard-response","269","1180599","0.0-4.0-7.0-1.2","spark_pilot_norest","8474","3","20","Male","","","","","","","null","<div style=""font-size:60px;"">+</div>","null","fixation","","","","","","","","","","","",""
"revaluation","270","1181165","0.0-4.0-7.0-0.3","spark_pilot_norest","8474","3","20","Male","","","false","","","","[562.6000000014901]","./assets/img/ocean/test/2.jpg","[""ArrowUp""]","first stage test","ocean","0","{""ArrowUp,ArrowLeft"":23,""ArrowUp,ArrowRight"":10,""ArrowDown,ArrowLeft"":8,""ArrowDown,ArrowRight"":30}","false","ArrowUp","false","original","1","","","",""
"html-keyboard-response","271","1181671","0.0-4.0-7.0-1.3","spark_pilot_norest","8474","3","20","Male","","","","","","","null","<div style=""font-size:60px;"">+</div>","null","fixation","","","","","","","","","","","",""
"learning-instructions","272","1195020","0.0-4.0-8.0-0.0","spark_pilot_norest","8474","3","20","Male","","","","","","","null","<p> Now you will see the animals again and can search their chests for treasure. </p>
            <p> This time, you will not see how much treasure you earned, but you will earn more bonus money for making better choices. </p>","","instructions","","","","","","","","","","","",""
"html-keyboard-response","273","1196031","0.0-4.0-9.0-0.0","spark_pilot_norest","8474","3","20","Male","","","","","","","null","<div style=""font-size:100px;color:red;"">Starting in...</div>","null","","","","","","","","","","","","",""
"html-keyboard-response","274","1197039","0.0-4.0-9.0-1.0","spark_pilot_norest","8474","3","20","Male","","","","","","","null","<div style=""font-size:200px;color:red;"">3</div>","null","","","","","","","","","","","","",""
"html-keyboard-response","275","1198045","0.0-4.0-9.0-2.0","spark_pilot_norest","8474","3","20","Male","","","","","","","null","<div style=""font-size:200px;color:red;"">2</div>","null","","","","","","","","","","","","",""
"html-keyboard-response","276","1199055","0.0-4.0-9.0-3.0","spark_pilot_norest","8474","3","20","Male","","","","","","","null","<div style=""font-size:200px;color:red;"">1</div>","null","","","","","","","","","","","","",""
"revaluation","277","1199880","0.0-4.0-10.0-0.0","spark_pilot_norest","8474","3","20","Male","","","false","","","","[820.5]","./assets/img/ocean/animals/seahorse.jpg","[""ArrowLeft""]","second stage test","ocean","0","{""ArrowUp,ArrowLeft"":23,""ArrowUp,ArrowRight"":10,""ArrowDown,ArrowLeft"":8,""ArrowDown,ArrowRight"":30}","true","ArrowUp,ArrowLeft","","original","1","","","",""
"html-keyboard-response","278","1200390","0.0-4.0-10.0-1.0","spark_pilot_norest","8474","3","20","Male","","","","","","","null","<div style=""font-size:60px;"">+</div>","null","fixation","","","","","","","","","","","",""
"revaluation","279","1200903","0.0-4.0-10.0-0.1","spark_pilot_norest","8474","3","20","Male","","","false","","","","[510.20000000298023]","./assets/img/ocean/animals/seahorse.jpg","[""ArrowLeft""]","second stage test","ocean","0","{""ArrowUp,ArrowLeft"":23,""ArrowUp,ArrowRight"":10,""ArrowDown,ArrowLeft"":8,""ArrowDown,ArrowRight"":30}","true","ArrowUp,ArrowLeft","","original","1","","","",""
"html-keyboard-response","280","1201408","0.0-4.0-10.0-1.1","spark_pilot_norest","8474","3","20","Male","","","","","","","null","<div style=""font-size:60px;"">+</div>","null","fixation","","","","","","","","","","","",""
"revaluation","281","1201792","0.0-4.0-10.0-0.2","spark_pilot_norest","8474","3","20","Male","","","false","","","","[381]","./assets/img/ocean/animals/seahorse.jpg","[""ArrowLeft""]","second stage test","ocean","0","{""ArrowUp,ArrowLeft"":23,""ArrowUp,ArrowRight"":10,""ArrowDown,ArrowLeft"":8,""ArrowDown,ArrowRight"":30}","true","ArrowUp,ArrowLeft","","original","1","","","",""
"html-keyboard-response","282","1202300","0.0-4.0-10.0-1.2","spark_pilot_norest","8474","3","20","Male","","","","","","","null","<div style=""font-size:60px;"">+</div>","null","fixation","","","","","","","","","","","",""
"revaluation","283","1202802","0.0-4.0-10.0-0.3","spark_pilot_norest","8474","3","20","Male","","","false","","","","[498]","./assets/img/ocean/animals/seahorse.jpg","[""ArrowLeft""]","second stage test","ocean","0","{""ArrowUp,ArrowLeft"":23,""ArrowUp,ArrowRight"":10,""ArrowDown,ArrowLeft"":8,""ArrowDown,ArrowRight"":30}","true","ArrowUp,ArrowLeft","","original","1","","","",""
"html-keyboard-response","284","1203310","0.0-4.0-10.0-1.3","spark_pilot_norest","8474","3","20","Male","","","","","","","null","<div style=""font-size:60px;"">+</div>","null","fixation","","","","","","","","","","","",""
"revaluation","285","1204368","0.0-4.0-10.0-0.4","spark_pilot_norest","8474","3","20","Male","","","false","","","","[1054.2999999970198]","./assets/img/ocean/animals/octopus.jpg","[""ArrowRight""]","second stage test","ocean","0","{""ArrowUp,ArrowLeft"":23,""ArrowUp,ArrowRight"":10,""ArrowDown,ArrowLeft"":8,""ArrowDown,ArrowRight"":30}","true","ArrowDown,ArrowRight","","original","1","","","",""
"html-keyboard-response","286","1204878","0.0-4.0-10.0-1.4","spark_pilot_norest","8474","3","20","Male","","","","","","","null","<div style=""font-size:60px;"">+</div>","null","fixation","","","","","","","","","","","",""
"revaluation","287","1205275","0.0-4.0-10.0-0.5","spark_pilot_norest","8474","3","20","Male","","","false","","","","[394.5]","./assets/img/ocean/animals/octopus.jpg","[""ArrowRight""]","second stage test","ocean","0","{""ArrowUp,ArrowLeft"":23,""ArrowUp,ArrowRight"":10,""ArrowDown,ArrowLeft"":8,""ArrowDown,ArrowRight"":30}","true","ArrowDown,ArrowRight","","original","1","","","",""
"html-keyboard-response","288","1205780","0.0-4.0-10.0-1.5","spark_pilot_norest","8474","3","20","Male","","","","","","","null","<div style=""font-size:60px;"">+</div>","null","fixation","","","","","","","","","","","",""
"revaluation","289","1206186","0.0-4.0-10.0-0.6","spark_pilot_norest","8474","3","20","Male","","","false","","","","[401.6000000014901]","./assets/img/ocean/animals/octopus.jpg","[""ArrowRight""]","second stage test","ocean","0","{""ArrowUp,ArrowLeft"":23,""ArrowUp,ArrowRight"":10,""ArrowDown,ArrowLeft"":8,""ArrowDown,ArrowRight"":30}","true","ArrowDown,ArrowRight","","original","1","","","",""
"html-keyboard-response","290","1206692","0.0-4.0-10.0-1.6","spark_pilot_norest","8474","3","20","Male","","","","","","","null","<div style=""font-size:60px;"">+</div>","null","fixation","","","","","","","","","","","",""
"revaluation","291","1207067","0.0-4.0-10.0-0.7","spark_pilot_norest","8474","3","20","Male","","","false","","","","[371.19999999552965]","./assets/img/ocean/animals/octopus.jpg","[""ArrowRight""]","second stage test","ocean","0","{""ArrowUp,ArrowLeft"":23,""ArrowUp,ArrowRight"":10,""ArrowDown,ArrowLeft"":8,""ArrowDown,ArrowRight"":30}","true","ArrowDown,ArrowRight","","original","1","","","",""
"html-keyboard-response","292","1207572","0.0-4.0-10.0-1.7","spark_pilot_norest","8474","3","20","Male","","","","","","","null","<div style=""font-size:60px;"">+</div>","null","fixation","","","","","","","","","","","",""
"learning-instructions","293","1214295","0.0-4.0-0.1-0.2","spark_pilot_norest","8474","3","20","Male","","","","","","","3883.9000000059605","<p> This time you are searching for treasure in the <b>canyon</b>.</p>","","instructions","","","","","","","","","","","",""
"learning-instructions","294","1235184","0.0-4.0-0.1-0.3","spark_pilot_norest","8474","3","20","Male","","","","","","","3636.39999999851","<p><b>New</b> animals with <b>new</b> treasure chests live here. You need to explore to discover where the animal with the best treasure chest is.</p>
                    <p> Like before, once you figure out which animal has the chest with the most treasure, you should try to get to that animal and select that chest! </p>","","instructions","","","","","","","","","","","",""
"learning-instructions","295","1251726","0.0-4.0-1.1-0.1","spark_pilot_norest","8474","3","20","Male","","","","","","","1811.4000000059605","<p> Remember, when you see a picture of the place, use the up and down keys to <b>find an animal</b>.</p>
            <p> When you encounter an animal, you should use the left and right keys to <b>select a treasure chest</b>.</p>
            <p> Don't forget to look out for the robber! </p>","","instructions","","","","","","","","","","","",""
"revaluation","296","1257752","0.0-4.0-2.1-0.50","spark_pilot_norest","8474","3","20","Male","","","false","","","","[1178.3999999985099,1006.5999999940395]","./assets/img/canyon/memory/28.jpg","[""ArrowDown"",""ArrowLeft""]","value training","canyon","5","{""ArrowUp,ArrowLeft"":26,""ArrowUp,ArrowRight"":10,""ArrowDown,ArrowLeft"":5,""ArrowDown,ArrowRight"":17}","false","ArrowDown,ArrowLeft","false","revaluation","2","0","","",""
"html-keyboard-response","297","1258254","0.0-4.0-2.1-1.50","spark_pilot_norest","8474","3","20","Male","","","","","","","null","<div style=""font-size:60px;"">+</div>","null","fixation","","","","","","","","","1","","",""
"revaluation","298","1264279","0.0-4.0-2.1-0.51","spark_pilot_norest","8474","3","20","Male","","","false","","","","[1030.2000000029802,1257.9000000059605]","./assets/img/canyon/memory/30.jpg","[""ArrowUp"",""ArrowLeft""]","value training","canyon","26","{""ArrowUp,ArrowLeft"":26,""ArrowUp,ArrowRight"":10,""ArrowDown,ArrowLeft"":5,""ArrowDown,ArrowRight"":17}","true","ArrowUp,ArrowLeft","false","revaluation","2","2","","",""
"html-keyboard-response","299","1264782","0.0-4.0-2.1-1.51","spark_pilot_norest","8474","3","20","Male","","","","","","","null","<div style=""font-size:60px;"">+</div>","null","fixation","","","","","","","","","3","","",""
"revaluation","300","1270807","0.0-4.0-2.1-0.52","spark_pilot_norest","8474","3","20","Male","","","false","","","","[785.7999999970198,414.5]","./assets/img/canyon/memory/19.jpg","[""ArrowUp"",""ArrowLeft""]","value training","canyon","26","{""ArrowUp,ArrowLeft"":26,""ArrowUp,ArrowRight"":10,""ArrowDown,ArrowLeft"":5,""ArrowDown,ArrowRight"":17}","true","ArrowUp,ArrowLeft","false","revaluation","2","4","","",""
"html-keyboard-response","301","1271312","0.0-4.0-2.1-1.52","spark_pilot_norest","8474","3","20","Male","","","","","","","null","<div style=""font-size:60px;"">+</div>","null","fixation","","","","","","","","","5","","",""
"revaluation","302","1277335","0.0-4.0-2.1-0.53","spark_pilot_norest","8474","3","20","Male","","","false","","","","[528.9000000059605,421.1000000014901]","./assets/img/canyon/memory/26.jpg","[""ArrowDown"",""ArrowRight""]","value training","canyon","17","{""ArrowUp,ArrowLeft"":26,""ArrowUp,ArrowRight"":10,""ArrowDown,ArrowLeft"":5,""ArrowDown,ArrowRight"":17}","false","ArrowDown,ArrowRight","false","revaluation","2","6","","",""
"html-keyboard-response","303","1277839","0.0-4.0-2.1-1.53","spark_pilot_norest","8474","3","20","Male","","","","","","","null","<div style=""font-size:60px;"">+</div>","null","fixation","","","","","","","","","7","","",""
"revaluation","304","1283863","0.0-4.0-2.1-0.54","spark_pilot_norest","8474","3","20","Male","","","false","","","","[579.1999999955297,1237]","./assets/img/canyon/memory/27.jpg","[""ArrowUp"",""ArrowLeft""]","value training","canyon","26","{""ArrowUp,ArrowLeft"":26,""ArrowUp,ArrowRight"":10,""ArrowDown,ArrowLeft"":5,""ArrowDown,ArrowRight"":17}","true","ArrowUp,ArrowLeft","false","revaluation","2","8","","",""
"html-keyboard-response","305","1284369","0.0-4.0-2.1-1.54","spark_pilot_norest","8474","3","20","Male","","","","","","","null","<div style=""font-size:60px;"">+</div>","null","fixation","","","","","","","","","9","","",""
"revaluation","306","1290393","0.0-4.0-2.1-0.55","spark_pilot_norest","8474","3","20","Male","","","false","","","","[419.19999999552965,336.5]","./assets/img/canyon/memory/19.jpg","[""ArrowUp"",""ArrowLeft""]","value training","canyon","26","{""ArrowUp,ArrowLeft"":26,""ArrowUp,ArrowRight"":10,""ArrowDown,ArrowLeft"":5,""ArrowDown,ArrowRight"":17}","true","ArrowUp,ArrowLeft","false","revaluation","2","10","","",""
"html-keyboard-response","307","1290905","0.0-4.0-2.1-1.55","spark_pilot_norest","8474","3","20","Male","","","","","","","null","<div style=""font-size:60px;"">+</div>","null","fixation","","","","","","","","","11","","",""
"revaluation","308","1296927","0.0-4.0-2.1-0.56","spark_pilot_norest","8474","3","20","Male","","","false","","","","[501.90000000596046,342.6000000014901]","./assets/img/canyon/memory/22.jpg","[""ArrowUp"",""ArrowLeft""]","value training","canyon","26","{""ArrowUp,ArrowLeft"":26,""ArrowUp,ArrowRight"":10,""ArrowDown,ArrowLeft"":5,""ArrowDown,ArrowRight"":17}","true","ArrowUp,ArrowLeft","false","revaluation","2","12","","",""
"html-keyboard-response","309","1297434","0.0-4.0-2.1-1.56","spark_pilot_norest","8474","3","20","Male","","","","","","","null","<div style=""font-size:60px;"">+</div>","null","fixation","","","","","","","","","13","","",""
"revaluation","310","1303457","0.0-4.0-2.1-0.57","spark_pilot_norest","8474","3","20","Male","","","false","","","","[404.79999999701977,395.1000000014901]","./assets/img/canyon/memory/17.jpg","[""ArrowUp"",""ArrowLeft""]","value training","canyon","26","{""ArrowUp,ArrowLeft"":26,""ArrowUp,ArrowRight"":10,""ArrowDown,ArrowLeft"":5,""ArrowDown,ArrowRight"":17}","true","ArrowUp,ArrowLeft","false","revaluation","2","14","","",""
