"trial_type","trial_index","time_elapsed","internal_node_id","task_version","subject_id","assigned_condition","age","gender","success","timeout","failed_images","failed_audio","failed_video","browser_interaction","rt","stimulus","response","task_part","environment","score","rewardMap","correct","fullState","isCatch","condition","order","trial_num","key_press","ground_truth","bonus"
"pavlovia","0","1931","0.0-0.0","spark_pilot_norest","10689","6","8","Female","","","","","","","","","","","","","","","","","","","","","",""
"preload","1","65666","0.0-1.0","spark_pilot_norest","10689","6","8","Female","true","false","[]","[]","[]","[{""event"":""blur"",""trial"":2,""time"":103213},{""event"":""focus"",""trial"":2,""time"":181569},{""event"":""blur"",""trial"":37,""time"":463356},{""event"":""focus"",""trial"":37,""time"":467744}]","","","","","","","","","","","","","","","",""
"fullscreen","2","186370","0.0-2.0","spark_pilot_norest","10689","6","8","Female","true","","","","","","","","","","","","","","","","","","","","",""
"audio-button-response","3","216647","0.0-3.0-0.0-0.0","spark_pilot_norest","10689","6","8","Female","","","","","","","29994","./assets/audio/audiotest/turtle.mp3","2","audio_test","","","","","","","","","","","",""
"learning-instructions","4","237986","0.0-3.0-1.0-0.0","spark_pilot_norest","10689","6","8","Female","","","","","","","14332.800000011921","<p> Welcome! Please remember to stay in fullscreen mode and don't click away from the experiment. </p>","","instructions","","","","","","","","","","","",""
"learning-instructions","5","250338","0.0-3.0-1.0-0.1","spark_pilot_norest","10689","6","8","Female","","","","","","","3912.2999999970198","<p> Today you will be playing a game to earn treasure. </p>
            <p> At the end of the experiment, you will earn a bonus based on how much treasure you find. </p>
            <img src='./assets/img/instructions/treasure.jpg' class='instructions-image'>","","instructions","","","","","","","","","","","",""
"learning-instructions","6","260866","0.0-3.0-1.0-0.2","spark_pilot_norest","10689","6","8","Female","","","","","","","2239","<p> Animals have hidden treasure in treasure chests. </p>
            <p> You need to first find an animal and then choose which of their treasure chests to search. </p>
            <img src='./assets/img/space/animals/cat.jpg' class='instructions-image'>","","instructions","","","","","","","","","","","",""
"learning-instructions","7","280196","0.0-3.0-1.0-0.3","spark_pilot_norest","10689","6","8","Female","","","","","","","6127.70000000298","<p> In each round, you will search for treasure in a different place. In the real game, there will be two rounds. </p>
            <p> You will begin with a separate, practice round where you will search for treasure in outer space. </p>
            <img src='./assets/img/space/0.jpg' class='instructions-image'>","","instructions","","","","","","","","","","","",""
"learning-instructions","8","296396","0.0-3.0-1.0-0.4","spark_pilot_norest","10689","6","8","Female","","","","","","","4739.399999991059","<p> On every turn, you will see a picture of the place that you are in, but the specific image may be different each time. </p>
            <p> For example, both of these images mean you are in outer space. </p>
            <img src='./assets/img/instructions/outerspace.jpg' class='instructions-image'>","","instructions","","","","","","","","","","","",""
"learning-instructions","9","311480","0.0-3.0-1.0-0.5","spark_pilot_norest","10689","6","8","Female","","","","","","","7226.9000000059605","<p> You need to decide which direction to travel in. </p>
            <p> You can choose between going <b>up or down</b> by using the arrow keys. </p>
            <img src='./assets/img/instructions/updown.jpg' class='instructions-image'>","","instructions","","","","","","","","","","","",""
"learning-instructions","10","326968","0.0-3.0-1.0-0.6","spark_pilot_norest","10689","6","8","Female","","","","","","","6641","<p> You will have <b>2 seconds</b> to make your choice. </p>
            <p> If you do not make a choice within 2 seconds, you will not find an animal or earn treasure. </p>
            <img src='./assets/img/instructions/2seconds.jpg' class='instructions-image'>","","instructions","","","","","","","","","","","",""
"learning-instructions","11","336077","0.0-3.0-1.0-0.7","spark_pilot_norest","10689","6","8","Female","","","","","","","2050.699999988079","<p> Let’s try practicing that now! </p>
            <p> When you see a picture of the place you are in, press the <b>up</b> key to travel up. </p>
            <img src='./assets/img/instructions/pressUp.jpg' class='instructions-image'>","","instructions","","","","","","","","","","","",""
"revaluation","12","340144","0.0-3.0-2.0-0.0","spark_pilot_norest","10689","6","8","Female","","true","","","","","[]","./assets/img/space/0.jpg","[]","first stage practice","space","-5","null","null","","false","","","","","",""
"html-keyboard-response","13","340651","0.0-3.0-2.0-1.0","spark_pilot_norest","10689","6","8","Female","","","","","","","null","<div style=""font-size:60px;"">+</div>","null","fixation","","","","","","","","","","","",""
"revaluation","14","344673","0.0-3.0-2.0-0.1","spark_pilot_norest","10689","6","8","Female","","false","","","","","[1216.2000000029802]","./assets/img/space/1.jpg","[""ArrowUp""]","first stage practice","space","0","null","null","ArrowUp","false","","","","","",""
"html-keyboard-response","15","345179","0.0-3.0-2.0-1.1","spark_pilot_norest","10689","6","8","Female","","","","","","","null","<div style=""font-size:60px;"">+</div>","null","fixation","","","","","","","","","","","",""
"revaluation","16","349200","0.0-3.0-2.0-0.2","spark_pilot_norest","10689","6","8","Female","","true","","","","","[]","./assets/img/space/2.jpg","[]","first stage practice","space","-5","null","null","","false","","","","","",""
"html-keyboard-response","17","349704","0.0-3.0-2.0-1.2","spark_pilot_norest","10689","6","8","Female","","","","","","","null","<div style=""font-size:60px;"">+</div>","null","fixation","","","","","","","","","","","",""
"learning-instructions","18","360256","0.0-3.0-3.0-0.0","spark_pilot_norest","10689","6","8","Female","","","","","","","5836.5999999940395","<p> Great job! Now try pressing the <b>down</b> key to travel down. </p>
            <img src='./assets/img/instructions/pressDown.jpg' class='instructions-image'>","","instructions","","","","","","","","","","","",""
"revaluation","19","364276","0.0-3.0-4.0-0.0","spark_pilot_norest","10689","6","8","Female","","false","","","","","[1281.3999999910593]","./assets/img/space/3.jpg","[""ArrowDown""]","first stage practice","space","0","null","null","ArrowDown","false","","","","","",""
"html-keyboard-response","20","364786","0.0-3.0-4.0-1.0","spark_pilot_norest","10689","6","8","Female","","","","","","","null","<div style=""font-size:60px;"">+</div>","null","fixation","","","","","","","","","","","",""
"revaluation","21","368803","0.0-3.0-4.0-0.1","spark_pilot_norest","10689","6","8","Female","","false","","","","","[526.1000000089407]","./assets/img/space/4.jpg","[""ArrowDown""]","first stage practice","space","0","null","null","ArrowDown","false","","","","","",""
"html-keyboard-response","22","369314","0.0-3.0-4.0-1.1","spark_pilot_norest","10689","6","8","Female","","","","","","","null","<div style=""font-size:60px;"">+</div>","null","fixation","","","","","","","","","","","",""
"revaluation","23","373331","0.0-3.0-4.0-0.2","spark_pilot_norest","10689","6","8","Female","","false","","","","","[1447.3999999910593]","./assets/img/space/5.jpg","[""ArrowDown""]","first stage practice","space","0","null","null","ArrowDown","false","","","","","",""
"html-keyboard-response","24","373834","0.0-3.0-4.0-1.2","spark_pilot_norest","10689","6","8","Female","","","","","","","null","<div style=""font-size:60px;"">+</div>","null","fixation","","","","","","","","","","","",""
"learning-instructions","25","388991","0.0-3.0-5.0-0.0","spark_pilot_norest","10689","6","8","Female","","","","","","","5269","<p> The animals don’t move, so the animal in the upper part of a place will stay in the upper part of a place, and the animal in the lower part of a place will stay in the lower part of a place. </p>","","instructions","","","","","","","","","","","",""
"learning-instructions","26","406640","0.0-3.0-5.0-0.1","spark_pilot_norest","10689","6","8","Female","","","","","","","8486.90000000596","<p> Each animal has two treasure chests for you to choose from. </p>
            <p> The amount of treasure in each chest can range from <b> 0 to 40 pieces.</b></p>","","instructions","","","","","","","","","","","",""
"learning-instructions","27","425273","0.0-3.0-5.0-0.2","spark_pilot_norest","10689","6","8","Female","","","","","","","7406.899999991059","<p> You should decide which chest to search for treasure by using the <b>left</b> and <b>right</b> arrow keys. </p>
            <p><b> Pay attention to which animal is on the screen, as the animals have different treasure chests. </b></p>
            <img src='./assets/img/instructions/leftright.jpg' class='instructions-image'>","","instructions","","","","","","","","","","","",""
"learning-instructions","28","436943","0.0-3.0-5.0-0.3","spark_pilot_norest","10689","6","8","Female","","","","","","","5277.9000000059605","<p> Let’s try practicing that now. </p>
            <p> When you see an animal, choose which chest to search for treasure. </p>
            <img src='./assets/img/instructions/chooseChest.jpg' class='instructions-image'>","","instructions","","","","","","","","","","","",""
"revaluation","29","440958","0.0-3.0-6.0-0.0","spark_pilot_norest","10689","6","8","Female","","false","","","","","[1251.2000000029802]","./assets/img/space/animals/cat.jpg","[""ArrowLeft""]","second stage practice","space","3","{""ArrowUp,ArrowLeft"":3,""ArrowUp,ArrowRight"":36,""ArrowDown,ArrowLeft"":15,""ArrowDown,ArrowRight"":23}","false","ArrowUp,ArrowLeft","","","","","","",""
"html-keyboard-response","30","441463","0.0-3.0-6.0-1.0","spark_pilot_norest","10689","6","8","Female","","","","","","","null","<div style=""font-size:60px;"">+</div>","null","fixation","","","","","","","","","","","",""
"revaluation","31","445477","0.0-3.0-6.0-0.1","spark_pilot_norest","10689","6","8","Female","","false","","","","","[1144.7000000029802]","./assets/img/space/animals/cat.jpg","[""ArrowRight""]","second stage practice","space","36","{""ArrowUp,ArrowLeft"":3,""ArrowUp,ArrowRight"":36,""ArrowDown,ArrowLeft"":15,""ArrowDown,ArrowRight"":23}","true","ArrowUp,ArrowRight","","","","","","",""
"html-keyboard-response","32","445985","0.0-3.0-6.0-1.1","spark_pilot_norest","10689","6","8","Female","","","","","","","null","<div style=""font-size:60px;"">+</div>","null","fixation","","","","","","","","","","","",""
"revaluation","33","450000","0.0-3.0-6.0-0.2","spark_pilot_norest","10689","6","8","Female","","false","","","","","[718.9000000059605]","./assets/img/space/animals/rabbit.jpg","[""ArrowRight""]","second stage practice","space","23","{""ArrowUp,ArrowLeft"":3,""ArrowUp,ArrowRight"":36,""ArrowDown,ArrowLeft"":15,""ArrowDown,ArrowRight"":23}","true","ArrowDown,ArrowRight","","","","","","",""
"html-keyboard-response","34","450501","0.0-3.0-6.0-1.2","spark_pilot_norest","10689","6","8","Female","","","","","","","null","<div style=""font-size:60px;"">+</div>","null","fixation","","","","","","","","","","","",""
"revaluation","35","454518","0.0-3.0-6.0-0.3","spark_pilot_norest","10689","6","8","Female","","false","","","","","[992.9000000059605]","./assets/img/space/animals/rabbit.jpg","[""ArrowRight""]","second stage practice","space","23","{""ArrowUp,ArrowLeft"":3,""ArrowUp,ArrowRight"":36,""ArrowDown,ArrowLeft"":15,""ArrowDown,ArrowRight"":23}","true","ArrowDown,ArrowRight","","","","","","",""
"html-keyboard-response","36","455023","0.0-3.0-6.0-1.3","spark_pilot_norest","10689","6","8","Female","","","","","","[{""event"":""blur"",""trial"":2,""time"":103213},{""event"":""focus"",""trial"":2,""time"":181569},{""event"":""blur"",""trial"":37,""time"":463356},{""event"":""focus"",""trial"":37,""time"":467744}]","null","<div style=""font-size:60px;"">+</div>","null","fixation","","","","","","","","","","","",""
"learning-instructions","37","475551","0.0-3.0-7.0-0.0","spark_pilot_norest","10689","6","8","Female","","","","","","","3652.199999988079","<p> Great job. Now let’s try putting it together. </p>
            <p> On each turn, you will first see a picture to remind you of the place you are in, and you need to choose whether to go up or down. </p>
            <p> Then you will see an animal and choose which of its chests to search for treasure. </p>","","instructions","","","","","","","","","","","",""
"learning-instructions","38","492175","0.0-3.0-7.0-0.1","spark_pilot_norest","10689","6","8","Female","","","","","","","8278.5","<p> When you choose whether to go up or down, try to go to the animal with the chest with the most treasure. </p>
            <p> Try practicing that now! </p>","","instructions","","","","","","","","","","","",""
"revaluation","39","498197","0.0-3.0-8.0-0.0","spark_pilot_norest","10689","6","8","Female","","false","","","","","[498.29999999701977,1136.2999999970198]","./assets/img/space/6.jpg","[""ArrowUp"",""ArrowRight""]","full practice","space","36","{""ArrowUp,ArrowLeft"":3,""ArrowUp,ArrowRight"":36,""ArrowDown,ArrowLeft"":15,""ArrowDown,ArrowRight"":23}","true","ArrowUp,ArrowRight","false","","","","","",""
"html-keyboard-response","40","498705","0.0-3.0-8.0-1.0","spark_pilot_norest","10689","6","8","Female","","","","","","","null","<div style=""font-size:60px;"">+</div>","null","fixation","","","","","","","","","","","",""
"revaluation","41","504736","0.0-3.0-8.0-0.1","spark_pilot_norest","10689","6","8","Female","","false","","","","","[1269.7000000029802,818.5]","./assets/img/space/7.jpg","[""ArrowDown"",""ArrowRight""]","full practice","space","23","{""ArrowUp,ArrowLeft"":3,""ArrowUp,ArrowRight"":36,""ArrowDown,ArrowLeft"":15,""ArrowDown,ArrowRight"":23}","false","ArrowDown,ArrowRight","false","","","","","",""
"html-keyboard-response","42","505246","0.0-3.0-8.0-1.1","spark_pilot_norest","10689","6","8","Female","","","","","","","null","<div style=""font-size:60px;"">+</div>","null","fixation","","","","","","","","","","","",""
"revaluation","43","511273","0.0-3.0-8.0-0.2","spark_pilot_norest","10689","6","8","Female","","false","","","","","[1833.5,771.1000000089407]","./assets/img/space/8.jpg","[""ArrowUp"",""ArrowRight""]","full practice","space","36","{""ArrowUp,ArrowLeft"":3,""ArrowUp,ArrowRight"":36,""ArrowDown,ArrowLeft"":15,""ArrowDown,ArrowRight"":23}","true","ArrowUp,ArrowRight","false","","","","","",""
"html-keyboard-response","44","511783","0.0-3.0-8.0-1.2","spark_pilot_norest","10689","6","8","Female","","","","","","","null","<div style=""font-size:60px;"">+</div>","null","fixation","","","","","","","","","","","",""
"revaluation","45","515796","0.0-3.0-8.0-0.3","spark_pilot_norest","10689","6","8","Female","","true","","","","","[]","./assets/img/space/9.jpg","[]","full practice","space","-5","{""ArrowUp,ArrowLeft"":3,""ArrowUp,ArrowRight"":36,""ArrowDown,ArrowLeft"":15,""ArrowDown,ArrowRight"":23}","false","","false","","","","","",""
"html-keyboard-response","46","516298","0.0-3.0-8.0-1.3","spark_pilot_norest","10689","6","8","Female","","","","","","","null","<div style=""font-size:60px;"">+</div>","null","fixation","","","","","","","","","","","",""
"revaluation","47","522327","0.0-3.0-8.0-0.4","spark_pilot_norest","10689","6","8","Female","","false","","","","","[518.5,1267.7999999970198]","./assets/img/space/10.jpg","[""ArrowUp"",""ArrowRight""]","full practice","space","36","{""ArrowUp,ArrowLeft"":3,""ArrowUp,ArrowRight"":36,""ArrowDown,ArrowLeft"":15,""ArrowDown,ArrowRight"":23}","true","ArrowUp,ArrowRight","false","","","","","",""
"html-keyboard-response","48","522837","0.0-3.0-8.0-1.4","spark_pilot_norest","10689","6","8","Female","","","","","","","null","<div style=""font-size:60px;"">+</div>","null","fixation","","","","","","","","","","","",""
"learning-instructions","49","535769","0.0-3.0-9.0-0.0","spark_pilot_norest","10689","6","8","Female","","","","","","","2515.2000000029802","<p> One last thing: sometimes, you will see a robber. The robber can be anywhere in the picture. </p>
            <p> If you do not stop them, you will lose treasure. </p>
            <img src='./assets/img/instructions/robber.jpg' class='instructions-image'>","","instructions","","","","","","","","","","","",""
"learning-instructions","50","557075","0.0-3.0-9.0-0.1","spark_pilot_norest","10689","6","8","Female","","","","","","","14093","<p> If you see the robber, you should <b>press the space bar</b> rather than using the arrow keys. </p>
            <p> Try practicing that now! </p>","","instructions","","","","","","","","","","","",""
"revaluation","51","561093","0.0-3.0-10.0-0.0","spark_pilot_norest","10689","6","8","Female","","false","","","","","[1489]","./assets/img/space/catch/0.jpg","[""ArrowUp""]","catch practice","space","-10","{""ArrowUp,ArrowLeft"":3,""ArrowUp,ArrowRight"":36,""ArrowDown,ArrowLeft"":15,""ArrowDown,ArrowRight"":23}","false","ArrowUp","true","","","","","",""
"html-keyboard-response","52","561598","0.0-3.0-10.0-1.0","spark_pilot_norest","10689","6","8","Female","","","","","","","null","<div style=""font-size:60px;"">+</div>","null","fixation","","","","","","","","","","","",""
"revaluation","53","565615","0.0-3.0-10.0-0.1","spark_pilot_norest","10689","6","8","Female","","false","","","","","[1108.2000000029802]","./assets/img/space/catch/1.jpg","[""spaceBar""]","catch practice","space","0","{""ArrowUp,ArrowLeft"":3,""ArrowUp,ArrowRight"":36,""ArrowDown,ArrowLeft"":15,""ArrowDown,ArrowRight"":23}","true","spaceBar","true","","","","","",""
"html-keyboard-response","54","566126","0.0-3.0-10.0-1.1","spark_pilot_norest","10689","6","8","Female","","","","","","","null","<div style=""font-size:60px;"">+</div>","null","fixation","","","","","","","","","","","",""
"revaluation","55","570143","0.0-3.0-10.0-0.2","spark_pilot_norest","10689","6","8","Female","","false","","","","","[597.2999999970198]","./assets/img/space/catch/2.jpg","[""spaceBar""]","catch practice","space","0","{""ArrowUp,ArrowLeft"":3,""ArrowUp,ArrowRight"":36,""ArrowDown,ArrowLeft"":15,""ArrowDown,ArrowRight"":23}","true","spaceBar","true","","","","","",""
"html-keyboard-response","56","570654","0.0-3.0-10.0-1.2","spark_pilot_norest","10689","6","8","Female","","","","","","","null","<div style=""font-size:60px;"">+</div>","null","fixation","","","","","","","","","","","",""
"learning-instructions","57","585837","0.0-3.0-11.0-0.0-0.0","spark_pilot_norest","10689","6","8","Female","","","","","","","9900.60000000894","<p> Now, you will practice a shortened version of the game to get a sense of how it all fits together. </p>","","instructions","","","","","","","","","","","",""
"learning-instructions","58","591488","0.0-3.0-11.0-0.0-0.1","spark_pilot_norest","10689","6","8","Female","","","","","","","2432.699999988079","<p>This time you are searching for treasure in outer space.</p>","","instructions","","","","","","","","","","","",""
"learning-instructions","59","607804","0.0-3.0-11.0-1.0-0.0","spark_pilot_norest","10689","6","8","Female","","","","","","","1426.2000000029802","<p> Remember, when you see a picture of the place, use the up and down keys to <b>find an animal</b>.</p>
            <p> When you encounter an animal, you should use the left and right keys to <b>select a treasure chest</b>.</p>
            <p> Don't forget to look out for the robber! </p>","","instructions","","","","","","","","","","","",""
"revaluation","60","611826","0.0-3.0-11.0-2.0-0.0","spark_pilot_norest","10689","6","8","Female","","true","","","","","[]","./assets/img/space/11.jpg","[]","practice block","space","-5","{""ArrowUp,ArrowLeft"":3,""ArrowUp,ArrowRight"":36,""ArrowDown,ArrowLeft"":15,""ArrowDown,ArrowRight"":23}","false","","false","","","","","",""
"html-keyboard-response","61","612333","0.0-3.0-11.0-2.0-1.0","spark_pilot_norest","10689","6","8","Female","","","","","","","null","<div style=""font-size:60px;"">+</div>","null","fixation","","","","","","","","","","","",""
"revaluation","62","618358","0.0-3.0-11.0-2.0-0.1","spark_pilot_norest","10689","6","8","Female","","false","","","","","[1144.300000011921,698]","./assets/img/space/12.jpg","[""ArrowUp"",""ArrowRight""]","practice block","space","36","{""ArrowUp,ArrowLeft"":3,""ArrowUp,ArrowRight"":36,""ArrowDown,ArrowLeft"":15,""ArrowDown,ArrowRight"":23}","true","ArrowUp,ArrowRight","false","","","","","",""
"html-keyboard-response","63","618869","0.0-3.0-11.0-2.0-1.1","spark_pilot_norest","10689","6","8","Female","","","","","","","null","<div style=""font-size:60px;"">+</div>","null","fixation","","","","","","","","","","","",""
"revaluation","64","624889","0.0-3.0-11.0-2.0-0.2","spark_pilot_norest","10689","6","8","Female","","false","","","","","[1572.9000000059605,600.2000000029802]","./assets/img/space/13.jpg","[""ArrowUp"",""ArrowRight""]","practice block","space","36","{""ArrowUp,ArrowLeft"":3,""ArrowUp,ArrowRight"":36,""ArrowDown,ArrowLeft"":15,""ArrowDown,ArrowRight"":23}","true","ArrowUp,ArrowRight","false","","","","","",""
"html-keyboard-response","65","625396","0.0-3.0-11.0-2.0-1.2","spark_pilot_norest","10689","6","8","Female","","","","","","","null","<div style=""font-size:60px;"">+</div>","null","fixation","","","","","","","","","","","",""
"revaluation","66","631420","0.0-3.0-11.0-2.0-0.3","spark_pilot_norest","10689","6","8","Female","","false","","","","","[669.9000000059605,529.7999999970198]","./assets/img/space/14.jpg","[""ArrowDown"",""ArrowRight""]","practice block","space","23","{""ArrowUp,ArrowLeft"":3,""ArrowUp,ArrowRight"":36,""ArrowDown,ArrowLeft"":15,""ArrowDown,ArrowRight"":23}","false","ArrowDown,ArrowRight","false","","","","","",""
"html-keyboard-response","67","631924","0.0-3.0-11.0-2.0-1.3","spark_pilot_norest","10689","6","8","Female","","","","","","","null","<div style=""font-size:60px;"">+</div>","null","fixation","","","","","","","","","","","",""
"revaluation","68","637946","0.0-3.0-11.0-2.0-0.4","spark_pilot_norest","10689","6","8","Female","","false","","","","","[589.4000000059605,1224.5]","./assets/img/space/11.jpg","[""ArrowUp"",""ArrowLeft""]","practice block","space","3","{""ArrowUp,ArrowLeft"":3,""ArrowUp,ArrowRight"":36,""ArrowDown,ArrowLeft"":15,""ArrowDown,ArrowRight"":23}","false","ArrowUp,ArrowLeft","false","","","","","",""
"html-keyboard-response","69","638452","0.0-3.0-11.0-2.0-1.4","spark_pilot_norest","10689","6","8","Female","","","","","","","null","<div style=""font-size:60px;"">+</div>","null","fixation","","","","","","","","","","","",""
"revaluation","70","644476","0.0-3.0-11.0-2.0-0.5","spark_pilot_norest","10689","6","8","Female","","false","","","","","[1485.2999999970198,760.5999999940395]","./assets/img/space/12.jpg","[""ArrowUp"",""ArrowRight""]","practice block","space","36","{""ArrowUp,ArrowLeft"":3,""ArrowUp,ArrowRight"":36,""ArrowDown,ArrowLeft"":15,""ArrowDown,ArrowRight"":23}","true","ArrowUp,ArrowRight","false","","","","","",""
"html-keyboard-response","71","644981","0.0-3.0-11.0-2.0-1.5","spark_pilot_norest","10689","6","8","Female","","","","","","","null","<div style=""font-size:60px;"">+</div>","null","fixation","","","","","","","","","","","",""
"revaluation","72","651012","0.0-3.0-11.0-2.0-0.6","spark_pilot_norest","10689","6","8","Female","","false","","","","","[484.1000000089407,626.8999999910593]","./assets/img/space/13.jpg","[""ArrowDown"",""ArrowLeft""]","practice block","space","15","{""ArrowUp,ArrowLeft"":3,""ArrowUp,ArrowRight"":36,""ArrowDown,ArrowLeft"":15,""ArrowDown,ArrowRight"":23}","false","ArrowDown,ArrowLeft","false","","","","","",""
"html-keyboard-response","73","651523","0.0-3.0-11.0-2.0-1.6","spark_pilot_norest","10689","6","8","Female","","","","","","","null","<div style=""font-size:60px;"">+</div>","null","fixation","","","","","","","","","","","",""
"revaluation","74","657549","0.0-3.0-11.0-2.0-0.7","spark_pilot_norest","10689","6","8","Female","","false","","","","","[1324.7000000029802,791.0999999940395]","./assets/img/space/14.jpg","[""ArrowUp"",""ArrowRight""]","practice block","space","36","{""ArrowUp,ArrowLeft"":3,""ArrowUp,ArrowRight"":36,""ArrowDown,ArrowLeft"":15,""ArrowDown,ArrowRight"":23}","true","ArrowUp,ArrowRight","false","","","","","",""
"html-keyboard-response","75","658060","0.0-3.0-11.0-2.0-1.7","spark_pilot_norest","10689","6","8","Female","","","","","","","null","<div style=""font-size:60px;"">+</div>","null","fixation","","","","","","","","","","","",""
"revaluation","76","662077","0.0-3.0-11.0-2.0-0.8","spark_pilot_norest","10689","6","8","Female","","false","","","","","[1235.6000000089407]","./assets/img/space/catch/3.jpg","[""spaceBar""]","practice block","space","0","{""ArrowUp,ArrowLeft"":3,""ArrowUp,ArrowRight"":36,""ArrowDown,ArrowLeft"":15,""ArrowDown,ArrowRight"":23}","true","spaceBar","true","","","","","",""
"html-keyboard-response","77","662587","0.0-3.0-11.0-2.0-1.8","spark_pilot_norest","10689","6","8","Female","","","","","","","null","<div style=""font-size:60px;"">+</div>","null","fixation","","","","","","","","","","","",""
"learning-instructions","78","680337","0.0-3.0-11.0-3.0-0.0","spark_pilot_norest","10689","6","8","Female","","","","","","","4729.0999999940395","<p> Now, you will travel with a friend who will choose whether you go up or down first. </p>
            <p> On these turns, you will just see the animal that they found. You will still get to choose which chest to search for treasure.</p>","","instructions","","","","","","","","","","","",""
"revaluation","79","684355","0.0-3.0-11.0-4.0-0.0","spark_pilot_norest","10689","6","8","Female","","false","","","","","[1675]","./assets/img/space/animals/rabbit.jpg","[""ArrowRight""]","practice block","space","23","{""ArrowUp,ArrowLeft"":3,""ArrowUp,ArrowRight"":36,""ArrowDown,ArrowLeft"":15,""ArrowDown,ArrowRight"":23}","true","ArrowDown,ArrowRight","","","","","","",""
"html-keyboard-response","80","684860","0.0-3.0-11.0-4.0-1.0","spark_pilot_norest","10689","6","8","Female","","","","","","","null","<div style=""font-size:60px;"">+</div>","null","fixation","","","","","","","","","","","",""
"revaluation","81","688883","0.0-3.0-11.0-4.0-0.1","spark_pilot_norest","10689","6","8","Female","","false","","","","","[1510.6000000089407]","./assets/img/space/animals/rabbit.jpg","[""ArrowRight""]","practice block","space","23","{""ArrowUp,ArrowLeft"":3,""ArrowUp,ArrowRight"":36,""ArrowDown,ArrowLeft"":15,""ArrowDown,ArrowRight"":23}","true","ArrowDown,ArrowRight","","","","","","",""
"html-keyboard-response","82","689388","0.0-3.0-11.0-4.0-1.1","spark_pilot_norest","10689","6","8","Female","","","","","","","null","<div style=""font-size:60px;"">+</div>","null","fixation","","","","","","","","","","","",""
"revaluation","83","693404","0.0-3.0-11.0-4.0-0.2","spark_pilot_norest","10689","6","8","Female","","false","","","","","[847.5]","./assets/img/space/animals/cat.jpg","[""ArrowRight""]","practice block","space","36","{""ArrowUp,ArrowLeft"":3,""ArrowUp,ArrowRight"":36,""ArrowDown,ArrowLeft"":15,""ArrowDown,ArrowRight"":23}","true","ArrowUp,ArrowRight","","","","","","",""
"html-keyboard-response","84","693915","0.0-3.0-11.0-4.0-1.2","spark_pilot_norest","10689","6","8","Female","","","","","","","null","<div style=""font-size:60px;"">+</div>","null","fixation","","","","","","","","","","","",""
"revaluation","85","697933","0.0-3.0-11.0-4.0-0.3","spark_pilot_norest","10689","6","8","Female","","false","","","","","[794.3999999910593]","./assets/img/space/animals/cat.jpg","[""ArrowRight""]","practice block","space","36","{""ArrowUp,ArrowLeft"":3,""ArrowUp,ArrowRight"":36,""ArrowDown,ArrowLeft"":15,""ArrowDown,ArrowRight"":23}","true","ArrowUp,ArrowRight","","","","","","",""
"html-keyboard-response","86","698443","0.0-3.0-11.0-4.0-1.3","spark_pilot_norest","10689","6","8","Female","","","","","","","null","<div style=""font-size:60px;"">+</div>","null","fixation","","","","","","","","","","","",""
"learning-instructions","87","706637","0.0-3.0-11.0-5.0-0.0","spark_pilot_norest","10689","6","8","Female","","","","","","","null","<p> You have almost finished this part of the game! </p>
            <p> We are going to ask you to make a few more choices. </p>","","instructions","","","","","","","","","","","",""
"learning-instructions","88","722756","0.0-3.0-11.0-5.0-0.1","spark_pilot_norest","10689","6","8","Female","","","","","","","null","<p> First, you need to decide whether to go up or down. When you see each picture, use the arrow keys to make your choice. </p>
            <p><b>You will not see which animal you found, but try to get to the one that will give you the most treasure.</b></p>","","instructions","","","","","","","","","","","",""
"html-keyboard-response","89","723764","0.0-3.0-11.0-6.0-0.0","spark_pilot_norest","10689","6","8","Female","","","","","","","null","<div style=""font-size:100px;color:red;"">Starting in...</div>","null","","","","","","","","","","","","",""
"html-keyboard-response","90","724768","0.0-3.0-11.0-6.0-1.0","spark_pilot_norest","10689","6","8","Female","","","","","","","null","<div style=""font-size:200px;color:red;"">3</div>","null","","","","","","","","","","","","",""
"html-keyboard-response","91","725779","0.0-3.0-11.0-6.0-2.0","spark_pilot_norest","10689","6","8","Female","","","","","","","null","<div style=""font-size:200px;color:red;"">2</div>","null","","","","","","","","","","","","",""
"html-keyboard-response","92","726786","0.0-3.0-11.0-6.0-3.0","spark_pilot_norest","10689","6","8","Female","","","","","","","null","<div style=""font-size:200px;color:red;"">1</div>","null","","","","","","","","","","","","",""
"revaluation","93","728049","0.0-3.0-11.0-7.0","spark_pilot_norest","10689","6","8","Female","","false","","","","","[1259.3999999910593]","./assets/img/space/15.jpg","[""ArrowUp""]","practice block","space","0","{""ArrowUp,ArrowLeft"":3,""ArrowUp,ArrowRight"":36,""ArrowDown,ArrowLeft"":15,""ArrowDown,ArrowRight"":23}","true","ArrowUp","false","","","","","",""
"html-keyboard-response","94","728555","0.0-3.0-11.0-8.0","spark_pilot_norest","10689","6","8","Female","","","","","","","null","<div style=""font-size:60px;"">+</div>","null","fixation","","","","","","","","","","","",""
"learning-instructions","95","742036","0.0-3.0-11.0-9.0-0.0","spark_pilot_norest","10689","6","8","Female","","","","","","","null","<p> Now you will see the animals again and can search their chests for treasure. </p>
            <p> This time, you will not see how much treasure you earned, but you will earn more bonus money for making better choices. </p>","","instructions","","","","","","","","","","","",""
"html-keyboard-response","96","743042","0.0-3.0-11.0-10.0-0.0","spark_pilot_norest","10689","6","8","Female","","","","","","","null","<div style=""font-size:100px;color:red;"">Starting in...</div>","null","","","","","","","","","","","","",""
"html-keyboard-response","97","744047","0.0-3.0-11.0-10.0-1.0","spark_pilot_norest","10689","6","8","Female","","","","","","","null","<div style=""font-size:200px;color:red;"">3</div>","null","","","","","","","","","","","","",""
"html-keyboard-response","98","745056","0.0-3.0-11.0-10.0-2.0","spark_pilot_norest","10689","6","8","Female","","","","","","","null","<div style=""font-size:200px;color:red;"">2</div>","null","","","","","","","","","","","","",""
"html-keyboard-response","99","746066","0.0-3.0-11.0-10.0-3.0","spark_pilot_norest","10689","6","8","Female","","","","","","","null","<div style=""font-size:200px;color:red;"">1</div>","null","","","","","","","","","","","","",""
"revaluation","100","747485","0.0-3.0-11.0-11.0-0.0","spark_pilot_norest","10689","6","8","Female","","false","","","","","[1416.2999999970198]","./assets/img/space/animals/cat.jpg","[""ArrowRight""]","practice block","space","0","{""ArrowUp,ArrowLeft"":3,""ArrowUp,ArrowRight"":36,""ArrowDown,ArrowLeft"":15,""ArrowDown,ArrowRight"":23}","true","ArrowUp,ArrowRight","","","","","","",""
"html-keyboard-response","101","747994","0.0-3.0-11.0-11.0-1.0","spark_pilot_norest","10689","6","8","Female","","","","","","","null","<div style=""font-size:60px;"">+</div>","null","fixation","","","","","","","","","","","",""
"revaluation","102","749317","0.0-3.0-11.0-11.0-0.1","spark_pilot_norest","10689","6","8","Female","","false","","","","","[1320.5]","./assets/img/space/animals/rabbit.jpg","[""ArrowRight""]","practice block","space","0","{""ArrowUp,ArrowLeft"":3,""ArrowUp,ArrowRight"":36,""ArrowDown,ArrowLeft"":15,""ArrowDown,ArrowRight"":23}","true","ArrowDown,ArrowRight","","","","","","",""
"html-keyboard-response","103","749823","0.0-3.0-11.0-11.0-1.1","spark_pilot_norest","10689","6","8","Female","","","","","","","null","<div style=""font-size:60px;"">+</div>","null","fixation","","","","","","","","","","","",""
"learning-instructions","104","758139","0.0-3.0-12.0-0.0","spark_pilot_norest","10689","6","8","Female","","","","","","","3684.3999999910593","<p> Before you start, we're going to ask you a few questions about how the game works. </p>","","instructions","","","","","","","","","","","",""
"comp-q","105","767612","0.0-3.0-13.0-0.0-0.0","spark_pilot_norest","10689","6","8","Female","","","","","","","3841.8999999910593","<p> <b> True or False? </b> </p>
            <p> There can be 50 pieces of treasure in a given animal's chest. </p>","1","comp_question","","","","true","","","","","","","",""
"comp-q","106","777662","0.0-3.0-13.0-0.0-1.0","spark_pilot_norest","10689","6","8","Female","","","","","","","3336.5","<p> <b> That's right! </b> The amount of treasure in each chest can range from 0 to 40 pieces. </p>","0","comp_answer","","","","","","","","","","","",""
"comp-q","107","786622","0.0-3.0-13.0-0.1-0.1","spark_pilot_norest","10689","6","8","Female","","","","","","","1766.2999999970198","<p> <b> True or False? </b> </p><p> In this game, all animals have the same amount of treasure in their left and right chests. </p>","1","comp_question","","","","true","","","","","","","",""
"comp-q","108","794401","0.0-3.0-13.0-0.1-1.1","spark_pilot_norest","10689","6","8","Female","","","","","","","2498.699999988079","<p> <b> That's right! </b> Animals have different amounts of treasure in their treasure chests. </p>","0","comp_answer","","","","","","","","","","","",""
"comp-q","109","802763","0.0-3.0-13.0-0.2-0.2","spark_pilot_norest","10689","6","8","Female","","","","","","","2483.7000000029802","<p> <b> True or False? </b> </p><p> The same animal will always be there if you go up in the same place. </p>","0","comp_question","","","","true","","","","","","","",""
"comp-q","110","816273","0.0-3.0-13.0-0.2-1.2","spark_pilot_norest","10689","6","8","Female","","","","","","","7008.0999999940395","<p> <b> That's right! </b> One animal lives in the upper part and one lives in the lower part of every place. </p>","0","comp_answer","","","","","","","","","","","",""
"comp-q","111","824321","0.0-3.0-13.0-0.3-0.3","spark_pilot_norest","10689","6","8","Female","","","","","","","2471.5","<p> <b> True or False? </b> </p><p> If you see a different picture, it means you are in a new place. </p>","0","comp_question","","","","false","","","","","","","",""
"comp-q","112","839229","0.0-3.0-13.0-0.3-1.3","spark_pilot_norest","10689","6","8","Female","","","","","","","3725.800000011921","<p> <b>Incorrect.</b> Lots of different images may show the same place. For example,  you may see three different images that all remind you that you are in outer space. </p>","0","comp_answer","","","","","","","","","","","",""
"comp-q","113","848413","0.0-3.0-13.0-0.4-0.4","spark_pilot_norest","10689","6","8","Female","","","","","","","3680.2000000029802","<p> <b> True or False? </b> </p><p> If you see a different picture, it means you are in a new place. </p>","1","comp_question","","","","true","","","","","","","",""
"comp-q","114","862822","0.0-3.0-13.0-0.4-1.4","spark_pilot_norest","10689","6","8","Female","","","","","","","3094.699999988079","<p> <b> That's right! </b> Lots of different images may show the same place. For example,  you may see three different images that all remind you that you are in outer space. </p>","0","comp_answer","","","","","","","","","","","",""
"learning-instructions","115","874514","0.0-3.0-14.0-0.0","spark_pilot_norest","10689","6","8","Female","","","","","","","1500.3999999910593","<p> Good job. Remember to do your best because the amount of treasure you earn will be converted into bonus money. </p>
            <p> It’s time to start the real game! </p>","","instructions","","","","","","","","","","","",""
"learning-instructions","116","879913","0.0-4.0-0.0-0.0","spark_pilot_norest","10689","6","8","Female","","","","","","","2574.300000011921","<p> This time you are searching for treasure in the <b>canyon</b>.</p>","","instructions","","","","","","","","","","","",""
"learning-instructions","117","899539","0.0-4.0-0.0-0.1","spark_pilot_norest","10689","6","8","Female","","","","","","","2196.5","<p><b>New</b> animals with <b>new</b> treasure chests live here. You need to explore to discover where the animal with the best treasure chest is.</p>
                    <p> Like before, once you figure out which animal has the chest with the most treasure, you should try to get to that animal and select that chest! </p>","","instructions","","","","","","","","","","","",""
"learning-instructions","118","915583","0.0-4.0-1.0-0.0","spark_pilot_norest","10689","6","8","Female","","","","","","","1313.2000000029802","<p> Remember, when you see a picture of the place, use the up and down keys to <b>find an animal</b>.</p>
            <p> When you encounter an animal, you should use the left and right keys to <b>select a treasure chest</b>.</p>
            <p> Don't forget to look out for the robber! </p>","","instructions","","","","","","","","","","","",""
"revaluation","119","921607","0.0-4.0-2.0-0.0","spark_pilot_norest","10689","6","8","Female","","false","","","","","[1303.5999999940395,712.8000000119209]","./assets/img/canyon/memory/32.jpg","[""ArrowUp"",""ArrowRight""]","value training","canyon","10","{""ArrowUp,ArrowLeft"":23,""ArrowUp,ArrowRight"":10,""ArrowDown,ArrowLeft"":8,""ArrowDown,ArrowRight"":30}","false","ArrowUp,ArrowRight","false","revaluation","1","0","","",""
"html-keyboard-response","120","922110","0.0-4.0-2.0-1.0","spark_pilot_norest","10689","6","8","Female","","","","","","","null","<div style=""font-size:60px;"">+</div>","null","fixation","","","","","","","","","1","","",""
"revaluation","121","928131","0.0-4.0-2.0-0.1","spark_pilot_norest","10689","6","8","Female","","false","","","","","[1839,1420]","./assets/img/canyon/memory/11.jpg","[""ArrowDown"",""ArrowLeft""]","value training","canyon","8","{""ArrowUp,ArrowLeft"":23,""ArrowUp,ArrowRight"":10,""ArrowDown,ArrowLeft"":8,""ArrowDown,ArrowRight"":30}","false","ArrowDown,ArrowLeft","false","revaluation","1","2","","",""
"html-keyboard-response","122","928639","0.0-4.0-2.0-1.1","spark_pilot_norest","10689","6","8","Female","","","","","","","null","<div style=""font-size:60px;"">+</div>","null","fixation","","","","","","","","","3","","",""
"revaluation","123","934662","0.0-4.0-2.0-0.2","spark_pilot_norest","10689","6","8","Female","","false","","","","","[1701.3999999910593,427.70000000298023]","./assets/img/canyon/memory/34.jpg","[""ArrowUp"",""ArrowRight""]","value training","canyon","10","{""ArrowUp,ArrowLeft"":23,""ArrowUp,ArrowRight"":10,""ArrowDown,ArrowLeft"":8,""ArrowDown,ArrowRight"":30}","false","ArrowUp,ArrowRight","false","revaluation","1","4","","",""
"html-keyboard-response","124","935167","0.0-4.0-2.0-1.2","spark_pilot_norest","10689","6","8","Female","","","","","","","null","<div style=""font-size:60px;"">+</div>","null","fixation","","","","","","","","","5","","",""
"revaluation","125","941187","0.0-4.0-2.0-0.3","spark_pilot_norest","10689","6","8","Female","","false","","","","","[1226.0999999940395,1068.2999999970198]","./assets/img/canyon/memory/15.jpg","[""ArrowUp"",""ArrowLeft""]","value training","canyon","23","{""ArrowUp,ArrowLeft"":23,""ArrowUp,ArrowRight"":10,""ArrowDown,ArrowLeft"":8,""ArrowDown,ArrowRight"":30}","false","ArrowUp,ArrowLeft","false","revaluation","1","6","","",""
"html-keyboard-response","126","941691","0.0-4.0-2.0-1.3","spark_pilot_norest","10689","6","8","Female","","","","","","","null","<div style=""font-size:60px;"">+</div>","null","fixation","","","","","","","","","7","","",""
"revaluation","127","947710","0.0-4.0-2.0-0.4","spark_pilot_norest","10689","6","8","Female","","false","","","","","[563.1999999880791,477]","./assets/img/canyon/memory/5.jpg","[""ArrowUp"",""ArrowLeft""]","value training","canyon","23","{""ArrowUp,ArrowLeft"":23,""ArrowUp,ArrowRight"":10,""ArrowDown,ArrowLeft"":8,""ArrowDown,ArrowRight"":30}","false","ArrowUp,ArrowLeft","false","revaluation","1","8","","",""
"html-keyboard-response","128","948212","0.0-4.0-2.0-1.4","spark_pilot_norest","10689","6","8","Female","","","","","","","null","<div style=""font-size:60px;"">+</div>","null","fixation","","","","","","","","","9","","",""
"revaluation","129","954238","0.0-4.0-2.0-0.5","spark_pilot_norest","10689","6","8","Female","","false","","","","","[435.1000000089407,525]","./assets/img/canyon/memory/39.jpg","[""ArrowUp"",""ArrowLeft""]","value training","canyon","23","{""ArrowUp,ArrowLeft"":23,""ArrowUp,ArrowRight"":10,""ArrowDown,ArrowLeft"":8,""ArrowDown,ArrowRight"":30}","false","ArrowUp,ArrowLeft","false","revaluation","1","10","","",""
"html-keyboard-response","130","954744","0.0-4.0-2.0-1.5","spark_pilot_norest","10689","6","8","Female","","","","","","","null","<div style=""font-size:60px;"">+</div>","null","fixation","","","","","","","","","11","","",""
"revaluation","131","958763","0.0-4.0-2.0-0.6","spark_pilot_norest","10689","6","8","Female","","false","","","","","[1558.5999999940395]","./assets/img/canyon/catch/2.jpg","[""spaceBar""]","value training","canyon","0","{""ArrowUp,ArrowLeft"":23,""ArrowUp,ArrowRight"":10,""ArrowDown,ArrowLeft"":8,""ArrowDown,ArrowRight"":30}","true","spaceBar","true","revaluation","1","12","","",""
"html-keyboard-response","132","959271","0.0-4.0-2.0-1.6","spark_pilot_norest","10689","6","8","Female","","","","","","","null","<div style=""font-size:60px;"">+</div>","null","fixation","","","","","","","","","13","","",""
"revaluation","133","965291","0.0-4.0-2.0-0.7","spark_pilot_norest","10689","6","8","Female","","false","","","","","[1760.6000000089407,715.2999999970198]","./assets/img/canyon/memory/38.jpg","[""ArrowUp"",""ArrowRight""]","value training","canyon","10","{""ArrowUp,ArrowLeft"":23,""ArrowUp,ArrowRight"":10,""ArrowDown,ArrowLeft"":8,""ArrowDown,ArrowRight"":30}","false","ArrowUp,ArrowRight","false","revaluation","1","14","","",""
"html-keyboard-response","134","965797","0.0-4.0-2.0-1.7","spark_pilot_norest","10689","6","8","Female","","","","","","","null","<div style=""font-size:60px;"">+</div>","null","fixation","","","","","","","","","15","","",""
"revaluation","135","971820","0.0-4.0-2.0-0.8","spark_pilot_norest","10689","6","8","Female","","false","","","","","[849.9000000059605,870.5]","./assets/img/canyon/memory/27.jpg","[""ArrowUp"",""ArrowLeft""]","value training","canyon","23","{""ArrowUp,ArrowLeft"":23,""ArrowUp,ArrowRight"":10,""ArrowDown,ArrowLeft"":8,""ArrowDown,ArrowRight"":30}","false","ArrowUp,ArrowLeft","false","revaluation","1","16","","",""
"html-keyboard-response","136","972324","0.0-4.0-2.0-1.8","spark_pilot_norest","10689","6","8","Female","","","","","","","null","<div style=""font-size:60px;"">+</div>","null","fixation","","","","","","","","","17","","",""
"revaluation","137","978351","0.0-4.0-2.0-0.9","spark_pilot_norest","10689","6","8","Female","","false","","","","","[1866.1000000089407,1643.5]","./assets/img/canyon/memory/15.jpg","[""ArrowUp"",""ArrowRight""]","value training","canyon","10","{""ArrowUp,ArrowLeft"":23,""ArrowUp,ArrowRight"":10,""ArrowDown,ArrowLeft"":8,""ArrowDown,ArrowRight"":30}","false","ArrowUp,ArrowRight","false","revaluation","1","18","","",""
"html-keyboard-response","138","978861","0.0-4.0-2.0-1.9","spark_pilot_norest","10689","6","8","Female","","","","","","","null","<div style=""font-size:60px;"">+</div>","null","fixation","","","","","","","","","19","","",""
"revaluation","139","984883","0.0-4.0-2.0-0.10","spark_pilot_norest","10689","6","8","Female","","false","","","","","[625.1000000089407,955.2999999970198]","./assets/img/canyon/memory/29.jpg","[""ArrowDown"",""ArrowLeft""]","value training","canyon","8","{""ArrowUp,ArrowLeft"":23,""ArrowUp,ArrowRight"":10,""ArrowDown,ArrowLeft"":8,""ArrowDown,ArrowRight"":30}","false","ArrowDown,ArrowLeft","false","revaluation","1","20","","",""
"html-keyboard-response","140","985391","0.0-4.0-2.0-1.10","spark_pilot_norest","10689","6","8","Female","","","","","","","null","<div style=""font-size:60px;"">+</div>","null","fixation","","","","","","","","","21","","",""
"revaluation","141","991418","0.0-4.0-2.0-0.11","spark_pilot_norest","10689","6","8","Female","","false","","","","","[1679.2999999970198,619.5]","./assets/img/canyon/memory/16.jpg","[""ArrowDown"",""ArrowRight""]","value training","canyon","30","{""ArrowUp,ArrowLeft"":23,""ArrowUp,ArrowRight"":10,""ArrowDown,ArrowLeft"":8,""ArrowDown,ArrowRight"":30}","true","ArrowDown,ArrowRight","false","revaluation","1","22","","",""
"html-keyboard-response","142","991923","0.0-4.0-2.0-1.11","spark_pilot_norest","10689","6","8","Female","","","","","","","null","<div style=""font-size:60px;"">+</div>","null","fixation","","","","","","","","","23","","",""
"revaluation","143","997947","0.0-4.0-2.0-0.12","spark_pilot_norest","10689","6","8","Female","","false","","","","","[1059.5,470.09999999403954]","./assets/img/canyon/memory/34.jpg","[""ArrowUp"",""ArrowLeft""]","value training","canyon","23","{""ArrowUp,ArrowLeft"":23,""ArrowUp,ArrowRight"":10,""ArrowDown,ArrowLeft"":8,""ArrowDown,ArrowRight"":30}","false","ArrowUp,ArrowLeft","false","revaluation","1","24","","",""
"html-keyboard-response","144","998455","0.0-4.0-2.0-1.12","spark_pilot_norest","10689","6","8","Female","","","","","","","null","<div style=""font-size:60px;"">+</div>","null","fixation","","","","","","","","","25","","",""
"revaluation","145","1004479","0.0-4.0-2.0-0.13","spark_pilot_norest","10689","6","8","Female","","false","","","","","[855.7999999970198,451.29999999701977]","./assets/img/canyon/memory/17.jpg","[""ArrowDown"",""ArrowRight""]","value training","canyon","30","{""ArrowUp,ArrowLeft"":23,""ArrowUp,ArrowRight"":10,""ArrowDown,ArrowLeft"":8,""ArrowDown,ArrowRight"":30}","true","ArrowDown,ArrowRight","false","revaluation","1","26","","",""
"html-keyboard-response","146","1004991","0.0-4.0-2.0-1.13","spark_pilot_norest","10689","6","8","Female","","","","","","","null","<div style=""font-size:60px;"">+</div>","null","fixation","","","","","","","","","27","","",""
"revaluation","147","1011015","0.0-4.0-2.0-0.14","spark_pilot_norest","10689","6","8","Female","","false","","","","","[447.5,634.8999999910593]","./assets/img/canyon/memory/22.jpg","[""ArrowUp"",""ArrowLeft""]","value training","canyon","23","{""ArrowUp,ArrowLeft"":23,""ArrowUp,ArrowRight"":10,""ArrowDown,ArrowLeft"":8,""ArrowDown,ArrowRight"":30}","false","ArrowUp,ArrowLeft","false","revaluation","1","28","","",""
"html-keyboard-response","148","1011526","0.0-4.0-2.0-1.14","spark_pilot_norest","10689","6","8","Female","","","","","","","null","<div style=""font-size:60px;"">+</div>","null","fixation","","","","","","","","","29","","",""
"revaluation","149","1017546","0.0-4.0-2.0-0.15","spark_pilot_norest","10689","6","8","Female","","false","","","","","[1136.7000000029802,994.5]","./assets/img/canyon/memory/24.jpg","[""ArrowUp"",""ArrowLeft""]","value training","canyon","23","{""ArrowUp,ArrowLeft"":23,""ArrowUp,ArrowRight"":10,""ArrowDown,ArrowLeft"":8,""ArrowDown,ArrowRight"":30}","false","ArrowUp,ArrowLeft","false","revaluation","1","30","","",""
"html-keyboard-response","150","1018052","0.0-4.0-2.0-1.15","spark_pilot_norest","10689","6","8","Female","","","","","","","null","<div style=""font-size:60px;"">+</div>","null","fixation","","","","","","","","","31","","",""
"revaluation","151","1024075","0.0-4.0-2.0-0.16","spark_pilot_norest","10689","6","8","Female","","true","","","","","[1018.2999999970198]","./assets/img/canyon/memory/39.jpg","[""ArrowDown""]","value training","canyon","-5","{""ArrowUp,ArrowLeft"":23,""ArrowUp,ArrowRight"":10,""ArrowDown,ArrowLeft"":8,""ArrowDown,ArrowRight"":30}","false","ArrowDown","false","revaluation","1","32","","",""
"html-keyboard-response","152","1024581","0.0-4.0-2.0-1.16","spark_pilot_norest","10689","6","8","Female","","","","","","","null","<div style=""font-size:60px;"">+</div>","null","fixation","","","","","","","","","33","","",""
"revaluation","153","1030603","0.0-4.0-2.0-0.17","spark_pilot_norest","10689","6","8","Female","","false","","","","","[1008.9000000059605,435]","./assets/img/canyon/memory/27.jpg","[""ArrowDown"",""ArrowRight""]","value training","canyon","30","{""ArrowUp,ArrowLeft"":23,""ArrowUp,ArrowRight"":10,""ArrowDown,ArrowLeft"":8,""ArrowDown,ArrowRight"":30}","true","ArrowDown,ArrowRight","false","revaluation","1","34","","",""
"html-keyboard-response","154","1031106","0.0-4.0-2.0-1.17","spark_pilot_norest","10689","6","8","Female","","","","","","","null","<div style=""font-size:60px;"">+</div>","null","fixation","","","","","","","","","35","","",""
"revaluation","155","1035123","0.0-4.0-2.0-0.18","spark_pilot_norest","10689","6","8","Female","","false","","","","","[435.70000000298023]","./assets/img/canyon/catch/1.jpg","[""ArrowDown""]","value training","canyon","-10","{""ArrowUp,ArrowLeft"":23,""ArrowUp,ArrowRight"":10,""ArrowDown,ArrowLeft"":8,""ArrowDown,ArrowRight"":30}","false","ArrowDown","true","revaluation","1","36","","",""
"html-keyboard-response","156","1035629","0.0-4.0-2.0-1.18","spark_pilot_norest","10689","6","8","Female","","","","","","","null","<div style=""font-size:60px;"">+</div>","null","fixation","","","","","","","","","37","","",""
"revaluation","157","1039645","0.0-4.0-2.0-0.19","spark_pilot_norest","10689","6","8","Female","","true","","","","","[]","./assets/img/canyon/memory/17.jpg","[]","value training","canyon","-5","{""ArrowUp,ArrowLeft"":23,""ArrowUp,ArrowRight"":10,""ArrowDown,ArrowLeft"":8,""ArrowDown,ArrowRight"":30}","false","","false","revaluation","1","38","","",""
"html-keyboard-response","158","1040149","0.0-4.0-2.0-1.19","spark_pilot_norest","10689","6","8","Female","","","","","","","null","<div style=""font-size:60px;"">+</div>","null","fixation","","","","","","","","","39","","",""
"revaluation","159","1044165","0.0-4.0-2.0-0.20","spark_pilot_norest","10689","6","8","Female","","false","","","","","[1176.2999999970198]","./assets/img/canyon/catch/4.jpg","[""spaceBar""]","value training","canyon","0","{""ArrowUp,ArrowLeft"":23,""ArrowUp,ArrowRight"":10,""ArrowDown,ArrowLeft"":8,""ArrowDown,ArrowRight"":30}","true","spaceBar","true","revaluation","1","40","","",""
"html-keyboard-response","160","1044666","0.0-4.0-2.0-1.20","spark_pilot_norest","10689","6","8","Female","","","","","","","null","<div style=""font-size:60px;"">+</div>","null","fixation","","","","","","","","","41","","",""
"revaluation","161","1048682","0.0-4.0-2.0-0.21","spark_pilot_norest","10689","6","8","Female","","true","","","","","[]","./assets/img/canyon/memory/3.jpg","[]","value training","canyon","-5","{""ArrowUp,ArrowLeft"":23,""ArrowUp,ArrowRight"":10,""ArrowDown,ArrowLeft"":8,""ArrowDown,ArrowRight"":30}","false","","false","revaluation","1","42","","",""
"html-keyboard-response","162","1049188","0.0-4.0-2.0-1.21","spark_pilot_norest","10689","6","8","Female","","","","","","","null","<div style=""font-size:60px;"">+</div>","null","fixation","","","","","","","","","43","","",""
"revaluation","163","1053205","0.0-4.0-2.0-0.22","spark_pilot_norest","10689","6","8","Female","","true","","","","","[]","./assets/img/canyon/memory/20.jpg","[]","value training","canyon","-5","{""ArrowUp,ArrowLeft"":23,""ArrowUp,ArrowRight"":10,""ArrowDown,ArrowLeft"":8,""ArrowDown,ArrowRight"":30}","false","","false","revaluation","1","44","","",""
"html-keyboard-response","164","1053710","0.0-4.0-2.0-1.22","spark_pilot_norest","10689","6","8","Female","","","","","","","null","<div style=""font-size:60px;"">+</div>","null","fixation","","","","","","","","","45","","",""
"revaluation","165","1057733","0.0-4.0-2.0-0.23","spark_pilot_norest","10689","6","8","Female","","false","","","","","[1055.9000000059605]","./assets/img/canyon/catch/5.jpg","[""spaceBar""]","value training","canyon","0","{""ArrowUp,ArrowLeft"":23,""ArrowUp,ArrowRight"":10,""ArrowDown,ArrowLeft"":8,""ArrowDown,ArrowRight"":30}","true","spaceBar","true","revaluation","1","46","","",""
"html-keyboard-response","166","1058237","0.0-4.0-2.0-1.23","spark_pilot_norest","10689","6","8","Female","","","","","","","null","<div style=""font-size:60px;"">+</div>","null","fixation","","","","","","","","","47","","",""
"revaluation","167","1064269","0.0-4.0-2.0-0.24","spark_pilot_norest","10689","6","8","Female","","false","","","","","[760.1000000089407,525.5]","./assets/img/canyon/memory/41.jpg","[""ArrowUp"",""ArrowRight""]","value training","canyon","10","{""ArrowUp,ArrowLeft"":23,""ArrowUp,ArrowRight"":10,""ArrowDown,ArrowLeft"":8,""ArrowDown,ArrowRight"":30}","false","ArrowUp,ArrowRight","false","revaluation","1","48","","",""
"html-keyboard-response","168","1064772","0.0-4.0-2.0-1.24","spark_pilot_norest","10689","6","8","Female","","","","","","","null","<div style=""font-size:60px;"">+</div>","null","fixation","","","","","","","","","49","","",""
"revaluation","169","1070794","0.0-4.0-2.0-0.25","spark_pilot_norest","10689","6","8","Female","","false","","","","","[1710.2000000029802,1072.0999999940395]","./assets/img/canyon/memory/6.jpg","[""ArrowUp"",""ArrowLeft""]","value training","canyon","23","{""ArrowUp,ArrowLeft"":23,""ArrowUp,ArrowRight"":10,""ArrowDown,ArrowLeft"":8,""ArrowDown,ArrowRight"":30}","false","ArrowUp,ArrowLeft","false","revaluation","1","50","","",""
"html-keyboard-response","170","1071299","0.0-4.0-2.0-1.25","spark_pilot_norest","10689","6","8","Female","","","","","","","null","<div style=""font-size:60px;"">+</div>","null","fixation","","","","","","","","","51","","",""
"revaluation","171","1077324","0.0-4.0-2.0-0.26","spark_pilot_norest","10689","6","8","Female","","false","","","","","[702.4000000059605,1666.7000000029802]","./assets/img/canyon/memory/4.jpg","[""ArrowDown"",""ArrowLeft""]","value training","canyon","8","{""ArrowUp,ArrowLeft"":23,""ArrowUp,ArrowRight"":10,""ArrowDown,ArrowLeft"":8,""ArrowDown,ArrowRight"":30}","false","ArrowDown,ArrowLeft","false","revaluation","1","52","","",""
"html-keyboard-response","172","1077827","0.0-4.0-2.0-1.26","spark_pilot_norest","10689","6","8","Female","","","","","","","null","<div style=""font-size:60px;"">+</div>","null","fixation","","","","","","","","","53","","",""
"revaluation","173","1081846","0.0-4.0-2.0-0.27","spark_pilot_norest","10689","6","8","Female","","true","","","","","[]","./assets/img/canyon/memory/21.jpg","[]","value training","canyon","-5","{""ArrowUp,ArrowLeft"":23,""ArrowUp,ArrowRight"":10,""ArrowDown,ArrowLeft"":8,""ArrowDown,ArrowRight"":30}","false","","false","revaluation","1","54","","",""
"html-keyboard-response","174","1082357","0.0-4.0-2.0-1.27","spark_pilot_norest","10689","6","8","Female","","","","","","","null","<div style=""font-size:60px;"">+</div>","null","fixation","","","","","","","","","55","","",""
"revaluation","175","1086369","0.0-4.0-2.0-0.28","spark_pilot_norest","10689","6","8","Female","","false","","","","","[1303.7999999970198]","./assets/img/canyon/catch/3.jpg","[""spaceBar""]","value training","canyon","0","{""ArrowUp,ArrowLeft"":23,""ArrowUp,ArrowRight"":10,""ArrowDown,ArrowLeft"":8,""ArrowDown,ArrowRight"":30}","true","spaceBar","true","revaluation","1","56","","",""
"html-keyboard-response","176","1086876","0.0-4.0-2.0-1.28","spark_pilot_norest","10689","6","8","Female","","","","","","","null","<div style=""font-size:60px;"">+</div>","null","fixation","","","","","","","","","57","","",""
"revaluation","177","1092899","0.0-4.0-2.0-0.29","spark_pilot_norest","10689","6","8","Female","","false","","","","","[1001.0999999940395,1043.7000000029802]","./assets/img/canyon/memory/3.jpg","[""ArrowUp"",""ArrowRight""]","value training","canyon","10","{""ArrowUp,ArrowLeft"":23,""ArrowUp,ArrowRight"":10,""ArrowDown,ArrowLeft"":8,""ArrowDown,ArrowRight"":30}","false","ArrowUp,ArrowRight","false","revaluation","1","58","","",""
"html-keyboard-response","178","1093404","0.0-4.0-2.0-1.29","spark_pilot_norest","10689","6","8","Female","","","","","","","null","<div style=""font-size:60px;"">+</div>","null","fixation","","","","","","","","","59","","",""
"revaluation","179","1099429","0.0-4.0-2.0-0.30","spark_pilot_norest","10689","6","8","Female","","false","","","","","[1041.2000000029802,1155.6000000089407]","./assets/img/canyon/memory/29.jpg","[""ArrowUp"",""ArrowLeft""]","value training","canyon","23","{""ArrowUp,ArrowLeft"":23,""ArrowUp,ArrowRight"":10,""ArrowDown,ArrowLeft"":8,""ArrowDown,ArrowRight"":30}","false","ArrowUp,ArrowLeft","false","revaluation","1","60","","",""
"html-keyboard-response","180","1099940","0.0-4.0-2.0-1.30","spark_pilot_norest","10689","6","8","Female","","","","","","","null","<div style=""font-size:60px;"">+</div>","null","fixation","","","","","","","","","61","","",""
"revaluation","181","1105966","0.0-4.0-2.0-0.31","spark_pilot_norest","10689","6","8","Female","","false","","","","","[1129.2000000029802,755.0999999940395]","./assets/img/canyon/memory/22.jpg","[""ArrowUp"",""ArrowLeft""]","value training","canyon","23","{""ArrowUp,ArrowLeft"":23,""ArrowUp,ArrowRight"":10,""ArrowDown,ArrowLeft"":8,""ArrowDown,ArrowRight"":30}","false","ArrowUp,ArrowLeft","false","revaluation","1","62","","",""
"html-keyboard-response","182","1106476","0.0-4.0-2.0-1.31","spark_pilot_norest","10689","6","8","Female","","","","","","","null","<div style=""font-size:60px;"">+</div>","null","fixation","","","","","","","","","63","","",""
"revaluation","183","1112496","0.0-4.0-2.0-0.32","spark_pilot_norest","10689","6","8","Female","","false","","","","","[656.5,834.7999999970198]","./assets/img/canyon/memory/41.jpg","[""ArrowDown"",""ArrowRight""]","value training","canyon","30","{""ArrowUp,ArrowLeft"":23,""ArrowUp,ArrowRight"":10,""ArrowDown,ArrowLeft"":8,""ArrowDown,ArrowRight"":30}","true","ArrowDown,ArrowRight","false","revaluation","1","64","","",""
"html-keyboard-response","184","1113004","0.0-4.0-2.0-1.32","spark_pilot_norest","10689","6","8","Female","","","","","","","null","<div style=""font-size:60px;"">+</div>","null","fixation","","","","","","","","","65","","",""
"revaluation","185","1117018","0.0-4.0-2.0-0.33","spark_pilot_norest","10689","6","8","Female","","false","","","","","[1071.9000000059605]","./assets/img/canyon/catch/0.jpg","[""spaceBar""]","value training","canyon","0","{""ArrowUp,ArrowLeft"":23,""ArrowUp,ArrowRight"":10,""ArrowDown,ArrowLeft"":8,""ArrowDown,ArrowRight"":30}","true","spaceBar","true","revaluation","1","66","","",""
"html-keyboard-response","186","1117520","0.0-4.0-2.0-1.33","spark_pilot_norest","10689","6","8","Female","","","","","","","null","<div style=""font-size:60px;"">+</div>","null","fixation","","","","","","","","","67","","",""
"revaluation","187","1123549","0.0-4.0-2.0-0.34","spark_pilot_norest","10689","6","8","Female","","false","","","","","[1356.7000000029802,861.6000000089407]","./assets/img/canyon/memory/21.jpg","[""ArrowDown"",""ArrowRight""]","value training","canyon","30","{""ArrowUp,ArrowLeft"":23,""ArrowUp,ArrowRight"":10,""ArrowDown,ArrowLeft"":8,""ArrowDown,ArrowRight"":30}","true","ArrowDown,ArrowRight","false","revaluation","1","68","","",""
"html-keyboard-response","188","1124059","0.0-4.0-2.0-1.34","spark_pilot_norest","10689","6","8","Female","","","","","","","null","<div style=""font-size:60px;"">+</div>","null","fixation","","","","","","","","","69","","",""
"revaluation","189","1130084","0.0-4.0-2.0-0.35","spark_pilot_norest","10689","6","8","Female","","false","","","","","[1633.3999999910593,860.2000000029802]","./assets/img/canyon/memory/18.jpg","[""ArrowDown"",""ArrowRight""]","value training","canyon","30","{""ArrowUp,ArrowLeft"":23,""ArrowUp,ArrowRight"":10,""ArrowDown,ArrowLeft"":8,""ArrowDown,ArrowRight"":30}","true","ArrowDown,ArrowRight","false","revaluation","1","70","","",""
"html-keyboard-response","190","1130594","0.0-4.0-2.0-1.35","spark_pilot_norest","10689","6","8","Female","","","","","","","null","<div style=""font-size:60px;"">+</div>","null","fixation","","","","","","","","","71","","",""
"revaluation","191","1134613","0.0-4.0-2.0-0.36","spark_pilot_norest","10689","6","8","Female","","false","","","","","[1074.1000000089407]","./assets/img/canyon/catch/6.jpg","[""spaceBar""]","value training","canyon","0","{""ArrowUp,ArrowLeft"":23,""ArrowUp,ArrowRight"":10,""ArrowDown,ArrowLeft"":8,""ArrowDown,ArrowRight"":30}","true","spaceBar","true","revaluation","1","72","","",""
"html-keyboard-response","192","1135123","0.0-4.0-2.0-1.36","spark_pilot_norest","10689","6","8","Female","","","","","","","null","<div style=""font-size:60px;"">+</div>","null","fixation","","","","","","","","","73","","",""
"revaluation","193","1141145","0.0-4.0-2.0-0.37","spark_pilot_norest","10689","6","8","Female","","false","","","","","[1216.7000000029802,635]","./assets/img/canyon/memory/6.jpg","[""ArrowDown"",""ArrowRight""]","value training","canyon","30","{""ArrowUp,ArrowLeft"":23,""ArrowUp,ArrowRight"":10,""ArrowDown,ArrowLeft"":8,""ArrowDown,ArrowRight"":30}","true","ArrowDown,ArrowRight","false","revaluation","1","74","","",""
"html-keyboard-response","194","1141652","0.0-4.0-2.0-1.37","spark_pilot_norest","10689","6","8","Female","","","","","","","null","<div style=""font-size:60px;"">+</div>","null","fixation","","","","","","","","","75","","",""
"revaluation","195","1147674","0.0-4.0-2.0-0.38","spark_pilot_norest","10689","6","8","Female","","false","","","","","[1136.5,510.30000001192093]","./assets/img/canyon/memory/38.jpg","[""ArrowDown"",""ArrowRight""]","value training","canyon","30","{""ArrowUp,ArrowLeft"":23,""ArrowUp,ArrowRight"":10,""ArrowDown,ArrowLeft"":8,""ArrowDown,ArrowRight"":30}","true","ArrowDown,ArrowRight","false","revaluation","1","76","","",""
"html-keyboard-response","196","1148176","0.0-4.0-2.0-1.38","spark_pilot_norest","10689","6","8","Female","","","","","","","null","<div style=""font-size:60px;"">+</div>","null","fixation","","","","","","","","","77","","",""
"revaluation","197","1154204","0.0-4.0-2.0-0.39","spark_pilot_norest","10689","6","8","Female","","false","","","","","[836.5,365.29999999701977]","./assets/img/canyon/memory/4.jpg","[""ArrowDown"",""ArrowRight""]","value training","canyon","30","{""ArrowUp,ArrowLeft"":23,""ArrowUp,ArrowRight"":10,""ArrowDown,ArrowLeft"":8,""ArrowDown,ArrowRight"":30}","true","ArrowDown,ArrowRight","false","revaluation","1","78","","",""
"html-keyboard-response","198","1154705","0.0-4.0-2.0-1.39","spark_pilot_norest","10689","6","8","Female","","","","","","","null","<div style=""font-size:60px;"">+</div>","null","fixation","","","","","","","","","79","","",""
"revaluation","199","1160729","0.0-4.0-2.0-0.40","spark_pilot_norest","10689","6","8","Female","","false","","","","","[811.9000000059605,447.5]","./assets/img/canyon/memory/24.jpg","[""ArrowDown"",""ArrowRight""]","value training","canyon","30","{""ArrowUp,ArrowLeft"":23,""ArrowUp,ArrowRight"":10,""ArrowDown,ArrowLeft"":8,""ArrowDown,ArrowRight"":30}","true","ArrowDown,ArrowRight","false","revaluation","1","80","","",""
"html-keyboard-response","200","1161236","0.0-4.0-2.0-1.40","spark_pilot_norest","10689","6","8","Female","","","","","","","null","<div style=""font-size:60px;"">+</div>","null","fixation","","","","","","","","","81","","",""
"revaluation","201","1167265","0.0-4.0-2.0-0.41","spark_pilot_norest","10689","6","8","Female","","false","","","","","[895.8000000119209,566.0999999940395]","./assets/img/canyon/memory/20.jpg","[""ArrowDown"",""ArrowRight""]","value training","canyon","30","{""ArrowUp,ArrowLeft"":23,""ArrowUp,ArrowRight"":10,""ArrowDown,ArrowLeft"":8,""ArrowDown,ArrowRight"":30}","true","ArrowDown,ArrowRight","false","revaluation","1","82","","",""
"html-keyboard-response","202","1167772","0.0-4.0-2.0-1.41","spark_pilot_norest","10689","6","8","Female","","","","","","","null","<div style=""font-size:60px;"">+</div>","null","fixation","","","","","","","","","83","","",""
"revaluation","203","1173802","0.0-4.0-2.0-0.42","spark_pilot_norest","10689","6","8","Female","","false","","","","","[1927.7999999970198,839.4000000059605]","./assets/img/canyon/memory/32.jpg","[""ArrowDown"",""ArrowRight""]","value training","canyon","30","{""ArrowUp,ArrowLeft"":23,""ArrowUp,ArrowRight"":10,""ArrowDown,ArrowLeft"":8,""ArrowDown,ArrowRight"":30}","true","ArrowDown,ArrowRight","false","revaluation","1","84","","",""
"html-keyboard-response","204","1174306","0.0-4.0-2.0-1.42","spark_pilot_norest","10689","6","8","Female","","","","","","","null","<div style=""font-size:60px;"">+</div>","null","fixation","","","","","","","","","85","","",""
"revaluation","205","1180331","0.0-4.0-2.0-0.43","spark_pilot_norest","10689","6","8","Female","","false","","","","","[617.2999999970198,391.09999999403954]","./assets/img/canyon/memory/16.jpg","[""ArrowDown"",""ArrowRight""]","value training","canyon","30","{""ArrowUp,ArrowLeft"":23,""ArrowUp,ArrowRight"":10,""ArrowDown,ArrowLeft"":8,""ArrowDown,ArrowRight"":30}","true","ArrowDown,ArrowRight","false","revaluation","1","86","","",""
"html-keyboard-response","206","1180841","0.0-4.0-2.0-1.43","spark_pilot_norest","10689","6","8","Female","","","","","","","null","<div style=""font-size:60px;"">+</div>","null","fixation","","","","","","","","","87","","",""
"revaluation","207","1186865","0.0-4.0-2.0-0.44","spark_pilot_norest","10689","6","8","Female","","false","","","","","[1649.7000000029802,1095]","./assets/img/canyon/memory/11.jpg","[""ArrowDown"",""ArrowRight""]","value training","canyon","30","{""ArrowUp,ArrowLeft"":23,""ArrowUp,ArrowRight"":10,""ArrowDown,ArrowLeft"":8,""ArrowDown,ArrowRight"":30}","true","ArrowDown,ArrowRight","false","revaluation","1","88","","",""
"html-keyboard-response","208","1187372","0.0-4.0-2.0-1.44","spark_pilot_norest","10689","6","8","Female","","","","","","","null","<div style=""font-size:60px;"">+</div>","null","fixation","","","","","","","","","89","","",""
"revaluation","209","1193399","0.0-4.0-2.0-0.45","spark_pilot_norest","10689","6","8","Female","","false","","","","","[1015.0999999940395,466.59999999403954]","./assets/img/canyon/memory/18.jpg","[""ArrowDown"",""ArrowRight""]","value training","canyon","30","{""ArrowUp,ArrowLeft"":23,""ArrowUp,ArrowRight"":10,""ArrowDown,ArrowLeft"":8,""ArrowDown,ArrowRight"":30}","true","ArrowDown,ArrowRight","false","revaluation","1","90","","",""
"html-keyboard-response","210","1193903","0.0-4.0-2.0-1.45","spark_pilot_norest","10689","6","8","Female","","","","","","","null","<div style=""font-size:60px;"">+</div>","null","fixation","","","","","","","","","91","","",""
"revaluation","211","1199919","0.0-4.0-2.0-0.46","spark_pilot_norest","10689","6","8","Female","","false","","","","","[828.2999999970198,639.8000000119209]","./assets/img/canyon/memory/5.jpg","[""ArrowDown"",""ArrowRight""]","value training","canyon","30","{""ArrowUp,ArrowLeft"":23,""ArrowUp,ArrowRight"":10,""ArrowDown,ArrowLeft"":8,""ArrowDown,ArrowRight"":30}","true","ArrowDown,ArrowRight","false","revaluation","1","92","","",""
"html-keyboard-response","212","1200423","0.0-4.0-2.0-1.46","spark_pilot_norest","10689","6","8","Female","","","","","","","null","<div style=""font-size:60px;"">+</div>","null","fixation","","","","","","","","","93","","",""
"revaluation","213","1204439","0.0-4.0-2.0-0.47","spark_pilot_norest","10689","6","8","Female","","false","","","","","[804.5]","./assets/img/canyon/catch/7.jpg","[""spaceBar""]","value training","canyon","0","{""ArrowUp,ArrowLeft"":23,""ArrowUp,ArrowRight"":10,""ArrowDown,ArrowLeft"":8,""ArrowDown,ArrowRight"":30}","true","spaceBar","true","revaluation","1","94","","",""
"html-keyboard-response","214","1204943","0.0-4.0-2.0-1.47","spark_pilot_norest","10689","6","8","Female","","","","","","","null","<div style=""font-size:60px;"">+</div>","null","fixation","","","","","","","","","95","","",""
"revaluation","215","1210967","0.0-4.0-2.0-0.48","spark_pilot_norest","10689","6","8","Female","","false","","","","","[1412,444.59999999403954]","./assets/img/canyon/memory/7.jpg","[""ArrowDown"",""ArrowRight""]","value training","canyon","30","{""ArrowUp,ArrowLeft"":23,""ArrowUp,ArrowRight"":10,""ArrowDown,ArrowLeft"":8,""ArrowDown,ArrowRight"":30}","true","ArrowDown,ArrowRight","false","revaluation","1","96","","",""
"html-keyboard-response","216","1211472","0.0-4.0-2.0-1.48","spark_pilot_norest","10689","6","8","Female","","","","","","","null","<div style=""font-size:60px;"">+</div>","null","fixation","","","","","","","","","97","","",""
"revaluation","217","1217495","0.0-4.0-2.0-0.49","spark_pilot_norest","10689","6","8","Female","","false","","","","","[963.2999999970198,623.6000000089407]","./assets/img/canyon/memory/7.jpg","[""ArrowDown"",""ArrowRight""]","value training","canyon","30","{""ArrowUp,ArrowLeft"":23,""ArrowUp,ArrowRight"":10,""ArrowDown,ArrowLeft"":8,""ArrowDown,ArrowRight"":30}","true","ArrowDown,ArrowRight","false","revaluation","1","98","","",""
"html-keyboard-response","218","1218001","0.0-4.0-2.0-1.49","spark_pilot_norest","10689","6","8","Female","","","","","","","null","<div style=""font-size:60px;"">+</div>","null","fixation","","","","","","","","","99","","",""
"learning-instructions","219","1239606","0.0-4.0-3.0-0.0","spark_pilot_norest","10689","6","8","Female","","","","","","","8505.79999999702","<p> Now, you will travel with a friend who will choose whether you go up or down first. </p>
            <p> On these turns, you will just see the animal that they found. You will still get to choose which chest to search for treasure.</p>","","instructions","","","","","","","","","","","",""
"revaluation","220","1243632","0.0-4.0-4.0-0.0","spark_pilot_norest","10689","6","8","Female","","false","","","","","[1805.6000000089407]","./assets/img/canyon/animals/lion.jpg","[""ArrowRight""]","revaluation","canyon","15","{""ArrowUp,ArrowLeft"":27,""ArrowUp,ArrowRight"":15,""ArrowDown,ArrowLeft"":21,""ArrowDown,ArrowRight"":7}","false","ArrowUp,ArrowRight","","revaluation","1","0","","",""
"html-keyboard-response","221","1244139","0.0-4.0-4.0-1.0","spark_pilot_norest","10689","6","8","Female","","","","","","","null","<div style=""font-size:60px;"">+</div>","null","fixation","","","","","","","","","1","","",""
"revaluation","222","1248160","0.0-4.0-4.0-0.1","spark_pilot_norest","10689","6","8","Female","","false","","","","","[1761.7999999970198]","./assets/img/canyon/animals/lion.jpg","[""ArrowRight""]","revaluation","canyon","15","{""ArrowUp,ArrowLeft"":27,""ArrowUp,ArrowRight"":15,""ArrowDown,ArrowLeft"":21,""ArrowDown,ArrowRight"":7}","false","ArrowUp,ArrowRight","","revaluation","1","2","","",""
"html-keyboard-response","223","1248665","0.0-4.0-4.0-1.1","spark_pilot_norest","10689","6","8","Female","","","","","","","null","<div style=""font-size:60px;"">+</div>","null","fixation","","","","","","","","","3","","",""
"revaluation","224","1252682","0.0-4.0-4.0-0.2","spark_pilot_norest","10689","6","8","Female","","false","","","","","[923.1000000089407]","./assets/img/canyon/animals/lion.jpg","[""ArrowLeft""]","revaluation","canyon","27","{""ArrowUp,ArrowLeft"":27,""ArrowUp,ArrowRight"":15,""ArrowDown,ArrowLeft"":21,""ArrowDown,ArrowRight"":7}","true","ArrowUp,ArrowLeft","","revaluation","1","4","","",""
"html-keyboard-response","225","1253193","0.0-4.0-4.0-1.2","spark_pilot_norest","10689","6","8","Female","","","","","","","null","<div style=""font-size:60px;"">+</div>","null","fixation","","","","","","","","","5","","",""
"revaluation","226","1257210","0.0-4.0-4.0-0.3","spark_pilot_norest","10689","6","8","Female","","false","","","","","[1030.5]","./assets/img/canyon/animals/giraffe.jpg","[""ArrowLeft""]","revaluation","canyon","21","{""ArrowUp,ArrowLeft"":27,""ArrowUp,ArrowRight"":15,""ArrowDown,ArrowLeft"":21,""ArrowDown,ArrowRight"":7}","true","ArrowDown,ArrowLeft","","revaluation","1","6","","",""
"html-keyboard-response","227","1257720","0.0-4.0-4.0-1.3","spark_pilot_norest","10689","6","8","Female","","","","","","","null","<div style=""font-size:60px;"">+</div>","null","fixation","","","","","","","","","7","","",""
"revaluation","228","1261736","0.0-4.0-4.0-0.4","spark_pilot_norest","10689","6","8","Female","","false","","","","","[926.5]","./assets/img/canyon/animals/giraffe.jpg","[""ArrowRight""]","revaluation","canyon","7","{""ArrowUp,ArrowLeft"":27,""ArrowUp,ArrowRight"":15,""ArrowDown,ArrowLeft"":21,""ArrowDown,ArrowRight"":7}","false","ArrowDown,ArrowRight","","revaluation","1","8","","",""
"html-keyboard-response","229","1262238","0.0-4.0-4.0-1.4","spark_pilot_norest","10689","6","8","Female","","","","","","","null","<div style=""font-size:60px;"">+</div>","null","fixation","","","","","","","","","9","","",""
"revaluation","230","1266255","0.0-4.0-4.0-0.5","spark_pilot_norest","10689","6","8","Female","","false","","","","","[320.29999999701977]","./assets/img/canyon/animals/giraffe.jpg","[""ArrowLeft""]","revaluation","canyon","21","{""ArrowUp,ArrowLeft"":27,""ArrowUp,ArrowRight"":15,""ArrowDown,ArrowLeft"":21,""ArrowDown,ArrowRight"":7}","true","ArrowDown,ArrowLeft","","revaluation","1","10","","",""
"html-keyboard-response","231","1266760","0.0-4.0-4.0-1.5","spark_pilot_norest","10689","6","8","Female","","","","","","","null","<div style=""font-size:60px;"">+</div>","null","fixation","","","","","","","","","11","","",""
"revaluation","232","1270778","0.0-4.0-4.0-0.6","spark_pilot_norest","10689","6","8","Female","","false","","","","","[918.5]","./assets/img/canyon/animals/giraffe.jpg","[""ArrowLeft""]","revaluation","canyon","21","{""ArrowUp,ArrowLeft"":27,""ArrowUp,ArrowRight"":15,""ArrowDown,ArrowLeft"":21,""ArrowDown,ArrowRight"":7}","true","ArrowDown,ArrowLeft","","revaluation","1","12","","",""
"html-keyboard-response","233","1271288","0.0-4.0-4.0-1.6","spark_pilot_norest","10689","6","8","Female","","","","","","","null","<div style=""font-size:60px;"">+</div>","null","fixation","","","","","","","","","13","","",""
"revaluation","234","1275305","0.0-4.0-4.0-0.7","spark_pilot_norest","10689","6","8","Female","","false","","","","","[738.7999999970198]","./assets/img/canyon/animals/lion.jpg","[""ArrowLeft""]","revaluation","canyon","27","{""ArrowUp,ArrowLeft"":27,""ArrowUp,ArrowRight"":15,""ArrowDown,ArrowLeft"":21,""ArrowDown,ArrowRight"":7}","true","ArrowUp,ArrowLeft","","revaluation","1","14","","",""
"html-keyboard-response","235","1275810","0.0-4.0-4.0-1.7","spark_pilot_norest","10689","6","8","Female","","","","","","","null","<div style=""font-size:60px;"">+</div>","null","fixation","","","","","","","","","15","","",""
"revaluation","236","1279833","0.0-4.0-4.0-0.8","spark_pilot_norest","10689","6","8","Female","","false","","","","","[408.8999999910593]","./assets/img/canyon/animals/lion.jpg","[""ArrowLeft""]","revaluation","canyon","27","{""ArrowUp,ArrowLeft"":27,""ArrowUp,ArrowRight"":15,""ArrowDown,ArrowLeft"":21,""ArrowDown,ArrowRight"":7}","true","ArrowUp,ArrowLeft","","revaluation","1","16","","",""
"html-keyboard-response","237","1280338","0.0-4.0-4.0-1.8","spark_pilot_norest","10689","6","8","Female","","","","","","","null","<div style=""font-size:60px;"">+</div>","null","fixation","","","","","","","","","17","","",""
"revaluation","238","1284362","0.0-4.0-4.0-0.9","spark_pilot_norest","10689","6","8","Female","","false","","","","","[705.3000000119209]","./assets/img/canyon/animals/giraffe.jpg","[""ArrowLeft""]","revaluation","canyon","21","{""ArrowUp,ArrowLeft"":27,""ArrowUp,ArrowRight"":15,""ArrowDown,ArrowLeft"":21,""ArrowDown,ArrowRight"":7}","true","ArrowDown,ArrowLeft","","revaluation","1","18","","",""
"html-keyboard-response","239","1284870","0.0-4.0-4.0-1.9","spark_pilot_norest","10689","6","8","Female","","","","","","","null","<div style=""font-size:60px;"">+</div>","null","fixation","","","","","","","","","19","","",""
"revaluation","240","1288889","0.0-4.0-4.0-0.10","spark_pilot_norest","10689","6","8","Female","","false","","","","","[573.1000000089407]","./assets/img/canyon/animals/giraffe.jpg","[""ArrowLeft""]","revaluation","canyon","21","{""ArrowUp,ArrowLeft"":27,""ArrowUp,ArrowRight"":15,""ArrowDown,ArrowLeft"":21,""ArrowDown,ArrowRight"":7}","true","ArrowDown,ArrowLeft","","revaluation","1","20","","",""
"html-keyboard-response","241","1289391","0.0-4.0-4.0-1.10","spark_pilot_norest","10689","6","8","Female","","","","","","","null","<div style=""font-size:60px;"">+</div>","null","fixation","","","","","","","","","21","","",""
"revaluation","242","1293405","0.0-4.0-4.0-0.11","spark_pilot_norest","10689","6","8","Female","","false","","","","","[619]","./assets/img/canyon/animals/lion.jpg","[""ArrowLeft""]","revaluation","canyon","27","{""ArrowUp,ArrowLeft"":27,""ArrowUp,ArrowRight"":15,""ArrowDown,ArrowLeft"":21,""ArrowDown,ArrowRight"":7}","true","ArrowUp,ArrowLeft","","revaluation","1","22","","",""
"html-keyboard-response","243","1293912","0.0-4.0-4.0-1.11","spark_pilot_norest","10689","6","8","Female","","","","","","","null","<div style=""font-size:60px;"">+</div>","null","fixation","","","","","","","","","23","","",""
"revaluation","244","1297927","0.0-4.0-4.0-0.12","spark_pilot_norest","10689","6","8","Female","","false","","","","","[1745.0999999940395]","./assets/img/canyon/animals/lion.jpg","[""ArrowLeft""]","revaluation","canyon","27","{""ArrowUp,ArrowLeft"":27,""ArrowUp,ArrowRight"":15,""ArrowDown,ArrowLeft"":21,""ArrowDown,ArrowRight"":7}","true","ArrowUp,ArrowLeft","","revaluation","1","24","","",""
"html-keyboard-response","245","1298431","0.0-4.0-4.0-1.12","spark_pilot_norest","10689","6","8","Female","","","","","","","null","<div style=""font-size:60px;"">+</div>","null","fixation","","","","","","","","","25","","",""
"revaluation","246","1302449","0.0-4.0-4.0-0.13","spark_pilot_norest","10689","6","8","Female","","false","","","","","[882.3999999910593]","./assets/img/canyon/animals/giraffe.jpg","[""ArrowLeft""]","revaluation","canyon","21","{""ArrowUp,ArrowLeft"":27,""ArrowUp,ArrowRight"":15,""ArrowDown,ArrowLeft"":21,""ArrowDown,ArrowRight"":7}","true","ArrowDown,ArrowLeft","","revaluation","1","26","","",""
"html-keyboard-response","247","1302954","0.0-4.0-4.0-1.13","spark_pilot_norest","10689","6","8","Female","","","","","","","null","<div style=""font-size:60px;"">+</div>","null","fixation","","","","","","","","","27","","",""
"revaluation","248","1306977","0.0-4.0-4.0-0.14","spark_pilot_norest","10689","6","8","Female","","false","","","","","[898.9000000059605]","./assets/img/canyon/animals/giraffe.jpg","[""ArrowLeft""]","revaluation","canyon","21","{""ArrowUp,ArrowLeft"":27,""ArrowUp,ArrowRight"":15,""ArrowDown,ArrowLeft"":21,""ArrowDown,ArrowRight"":7}","true","ArrowDown,ArrowLeft","","revaluation","1","28","","",""
"html-keyboard-response","249","1307481","0.0-4.0-4.0-1.14","spark_pilot_norest","10689","6","8","Female","","","","","","","null","<div style=""font-size:60px;"">+</div>","null","fixation","","","","","","","","","29","","",""
"revaluation","250","1311501","0.0-4.0-4.0-0.15","spark_pilot_norest","10689","6","8","Female","","false","","","","","[994.7999999970198]","./assets/img/canyon/animals/lion.jpg","[""ArrowLeft""]","revaluation","canyon","27","{""ArrowUp,ArrowLeft"":27,""ArrowUp,ArrowRight"":15,""ArrowDown,ArrowLeft"":21,""ArrowDown,ArrowRight"":7}","true","ArrowUp,ArrowLeft","","revaluation","1","30","","",""
"html-keyboard-response","251","1312009","0.0-4.0-4.0-1.15","spark_pilot_norest","10689","6","8","Female","","","","","","","null","<div style=""font-size:60px;"">+</div>","null","fixation","","","","","","","","","31","","",""
"revaluation","252","1316024","0.0-4.0-4.0-0.16","spark_pilot_norest","10689","6","8","Female","","false","","","","","[851.5]","./assets/img/canyon/animals/giraffe.jpg","[""ArrowLeft""]","revaluation","canyon","21","{""ArrowUp,ArrowLeft"":27,""ArrowUp,ArrowRight"":15,""ArrowDown,ArrowLeft"":21,""ArrowDown,ArrowRight"":7}","true","ArrowDown,ArrowLeft","","revaluation","1","32","","",""
"html-keyboard-response","253","1316527","0.0-4.0-4.0-1.16","spark_pilot_norest","10689","6","8","Female","","","","","","","null","<div style=""font-size:60px;"">+</div>","null","fixation","","","","","","","","","33","","",""
"revaluation","254","1320543","0.0-4.0-4.0-0.17","spark_pilot_norest","10689","6","8","Female","","false","","","","","[948.9000000059605]","./assets/img/canyon/animals/lion.jpg","[""ArrowLeft""]","revaluation","canyon","27","{""ArrowUp,ArrowLeft"":27,""ArrowUp,ArrowRight"":15,""ArrowDown,ArrowLeft"":21,""ArrowDown,ArrowRight"":7}","true","ArrowUp,ArrowLeft","","revaluation","1","34","","",""
"html-keyboard-response","255","1321046","0.0-4.0-4.0-1.17","spark_pilot_norest","10689","6","8","Female","","","","","","","null","<div style=""font-size:60px;"">+</div>","null","fixation","","","","","","","","","35","","",""
"learning-instructions","256","1329376","0.0-4.0-5.0-0.0","spark_pilot_norest","10689","6","8","Female","","","","","","","null","<p> You have almost finished this part of the game! </p>
            <p> We are going to ask you to make a few more choices. </p>","","instructions","","","","","","","","","","","",""
"learning-instructions","257","1345356","0.0-4.0-5.0-0.1","spark_pilot_norest","10689","6","8","Female","","","","","","","null","<p> First, you need to decide whether to go up or down. When you see each picture, use the arrow keys to make your choice. </p>
            <p><b>You will not see which animal you found, but try to get to the one that will give you the most treasure.</b></p>","","instructions","","","","","","","","","","","",""
"html-keyboard-response","258","1346369","0.0-4.0-6.0-0.0","spark_pilot_norest","10689","6","8","Female","","","","","","","null","<div style=""font-size:100px;color:red;"">Starting in...</div>","null","","","","","","","","","","","","",""
"html-keyboard-response","259","1347373","0.0-4.0-6.0-1.0","spark_pilot_norest","10689","6","8","Female","","","","","","","null","<div style=""font-size:200px;color:red;"">3</div>","null","","","","","","","","","","","","",""
"html-keyboard-response","260","1348383","0.0-4.0-6.0-2.0","spark_pilot_norest","10689","6","8","Female","","","","","","","null","<div style=""font-size:200px;color:red;"">2</div>","null","","","","","","","","","","","","",""
"html-keyboard-response","261","1349388","0.0-4.0-6.0-3.0","spark_pilot_norest","10689","6","8","Female","","","","","","","null","<div style=""font-size:200px;color:red;"">1</div>","null","","","","","","","","","","","","",""
"revaluation","262","1350623","0.0-4.0-7.0-0.0","spark_pilot_norest","10689","6","8","Female","","false","","","","","[1231.3999999910593]","./assets/img/canyon/test/2.jpg","[""ArrowUp""]","first stage test","canyon","0","{""ArrowUp,ArrowLeft"":27,""ArrowUp,ArrowRight"":15,""ArrowDown,ArrowLeft"":21,""ArrowDown,ArrowRight"":7}","true","ArrowUp","false","revaluation","1","","","",""
"html-keyboard-response","263","1351125","0.0-4.0-7.0-1.0","spark_pilot_norest","10689","6","8","Female","","","","","","","null","<div style=""font-size:60px;"">+</div>","null","fixation","","","","","","","","","","","",""
"revaluation","264","1352246","0.0-4.0-7.0-0.1","spark_pilot_norest","10689","6","8","Female","","false","","","","","[1118.1000000089407]","./assets/img/canyon/test/3.jpg","[""ArrowUp""]","first stage test","canyon","0","{""ArrowUp,ArrowLeft"":27,""ArrowUp,ArrowRight"":15,""ArrowDown,ArrowLeft"":21,""ArrowDown,ArrowRight"":7}","true","ArrowUp","false","revaluation","1","","","",""
"html-keyboard-response","265","1352748","0.0-4.0-7.0-1.1","spark_pilot_norest","10689","6","8","Female","","","","","","","null","<div style=""font-size:60px;"">+</div>","null","fixation","","","","","","","","","","","",""
"revaluation","266","1353670","0.0-4.0-7.0-0.2","spark_pilot_norest","10689","6","8","Female","","false","","","","","[918.7000000029802]","./assets/img/canyon/test/0.jpg","[""ArrowUp""]","first stage test","canyon","0","{""ArrowUp,ArrowLeft"":27,""ArrowUp,ArrowRight"":15,""ArrowDown,ArrowLeft"":21,""ArrowDown,ArrowRight"":7}","true","ArrowUp","false","revaluation","1","","","",""
"html-keyboard-response","267","1354174","0.0-4.0-7.0-1.2","spark_pilot_norest","10689","6","8","Female","","","","","","","null","<div style=""font-size:60px;"">+</div>","null","fixation","","","","","","","","","","","",""
"revaluation","268","1355254","0.0-4.0-7.0-0.3","spark_pilot_norest","10689","6","8","Female","","false","","","","","[1077.2000000029802]","./assets/img/canyon/test/1.jpg","[""ArrowUp""]","first stage test","canyon","0","{""ArrowUp,ArrowLeft"":27,""ArrowUp,ArrowRight"":15,""ArrowDown,ArrowLeft"":21,""ArrowDown,ArrowRight"":7}","true","ArrowUp","false","revaluation","1","","","",""
"html-keyboard-response","269","1355755","0.0-4.0-7.0-1.3","spark_pilot_norest","10689","6","8","Female","","","","","","","null","<div style=""font-size:60px;"">+</div>","null","fixation","","","","","","","","","","","",""
"learning-instructions","270","1369104","0.0-4.0-8.0-0.0","spark_pilot_norest","10689","6","8","Female","","","","","","","null","<p> Now you will see the animals again and can search their chests for treasure. </p>
            <p> This time, you will not see how much treasure you earned, but you will earn more bonus money for making better choices. </p>","","instructions","","","","","","","","","","","",""
"html-keyboard-response","271","1370111","0.0-4.0-9.0-0.0","spark_pilot_norest","10689","6","8","Female","","","","","","","null","<div style=""font-size:100px;color:red;"">Starting in...</div>","null","","","","","","","","","","","","",""
"html-keyboard-response","272","1371117","0.0-4.0-9.0-1.0","spark_pilot_norest","10689","6","8","Female","","","","","","","null","<div style=""font-size:200px;color:red;"">3</div>","null","","","","","","","","","","","","",""
"html-keyboard-response","273","1372119","0.0-4.0-9.0-2.0","spark_pilot_norest","10689","6","8","Female","","","","","","","null","<div style=""font-size:200px;color:red;"">2</div>","null","","","","","","","","","","","","",""
"html-keyboard-response","274","1373124","0.0-4.0-9.0-3.0","spark_pilot_norest","10689","6","8","Female","","","","","","","null","<div style=""font-size:200px;color:red;"">1</div>","null","","","","","","","","","","","","",""
"revaluation","275","1376133","0.0-4.0-10.0-0.0","spark_pilot_norest","10689","6","8","Female","","false","","","","","[3006.5]","./assets/img/canyon/animals/lion.jpg","[""ArrowLeft""]","second stage test","canyon","0","{""ArrowUp,ArrowLeft"":27,""ArrowUp,ArrowRight"":15,""ArrowDown,ArrowLeft"":21,""ArrowDown,ArrowRight"":7}","true","ArrowUp,ArrowLeft","","revaluation","1","","","",""
"html-keyboard-response","276","1376636","0.0-4.0-10.0-1.0","spark_pilot_norest","10689","6","8","Female","","","","","","","null","<div style=""font-size:60px;"">+</div>","null","fixation","","","","","","","","","","","",""
"revaluation","277","1378134","0.0-4.0-10.0-0.1","spark_pilot_norest","10689","6","8","Female","","false","","","","","[1494.6000000089407]","./assets/img/canyon/animals/lion.jpg","[""ArrowLeft""]","second stage test","canyon","0","{""ArrowUp,ArrowLeft"":27,""ArrowUp,ArrowRight"":15,""ArrowDown,ArrowLeft"":21,""ArrowDown,ArrowRight"":7}","true","ArrowUp,ArrowLeft","","revaluation","1","","","",""
"html-keyboard-response","278","1378640","0.0-4.0-10.0-1.1","spark_pilot_norest","10689","6","8","Female","","","","","","","null","<div style=""font-size:60px;"">+</div>","null","fixation","","","","","","","","","","","",""
"revaluation","279","1379397","0.0-4.0-10.0-0.2","spark_pilot_norest","10689","6","8","Female","","false","","","","","[754.2000000029802]","./assets/img/canyon/animals/lion.jpg","[""ArrowLeft""]","second stage test","canyon","0","{""ArrowUp,ArrowLeft"":27,""ArrowUp,ArrowRight"":15,""ArrowDown,ArrowLeft"":21,""ArrowDown,ArrowRight"":7}","true","ArrowUp,ArrowLeft","","revaluation","1","","","",""
"html-keyboard-response","280","1379904","0.0-4.0-10.0-1.2","spark_pilot_norest","10689","6","8","Female","","","","","","","null","<div style=""font-size:60px;"">+</div>","null","fixation","","","","","","","","","","","",""
"revaluation","281","1380646","0.0-4.0-10.0-0.3","spark_pilot_norest","10689","6","8","Female","","false","","","","","[739.1000000089407]","./assets/img/canyon/animals/lion.jpg","[""ArrowLeft""]","second stage test","canyon","0","{""ArrowUp,ArrowLeft"":27,""ArrowUp,ArrowRight"":15,""ArrowDown,ArrowLeft"":21,""ArrowDown,ArrowRight"":7}","true","ArrowUp,ArrowLeft","","revaluation","1","","","",""
"html-keyboard-response","282","1381152","0.0-4.0-10.0-1.3","spark_pilot_norest","10689","6","8","Female","","","","","","","null","<div style=""font-size:60px;"">+</div>","null","fixation","","","","","","","","","","","",""
"revaluation","283","1382166","0.0-4.0-10.0-0.4","spark_pilot_norest","10689","6","8","Female","","false","","","","","[1010.7999999970198]","./assets/img/canyon/animals/giraffe.jpg","[""ArrowLeft""]","second stage test","canyon","0","{""ArrowUp,ArrowLeft"":27,""ArrowUp,ArrowRight"":15,""ArrowDown,ArrowLeft"":21,""ArrowDown,ArrowRight"":7}","true","ArrowDown,ArrowLeft","","revaluation","1","","","",""
"html-keyboard-response","284","1382670","0.0-4.0-10.0-1.4","spark_pilot_norest","10689","6","8","Female","","","","","","","null","<div style=""font-size:60px;"">+</div>","null","fixation","","","","","","","","","","","",""
"revaluation","285","1384166","0.0-4.0-10.0-0.5","spark_pilot_norest","10689","6","8","Female","","false","","","","","[1492.2999999970198]","./assets/img/canyon/animals/giraffe.jpg","[""ArrowRight""]","second stage test","canyon","0","{""ArrowUp,ArrowLeft"":27,""ArrowUp,ArrowRight"":15,""ArrowDown,ArrowLeft"":21,""ArrowDown,ArrowRight"":7}","false","ArrowDown,ArrowRight","","revaluation","1","","","",""
"html-keyboard-response","286","1384668","0.0-4.0-10.0-1.5","spark_pilot_norest","10689","6","8","Female","","","","","","","null","<div style=""font-size:60px;"">+</div>","null","fixation","","","","","","","","","","","",""
"revaluation","287","1386030","0.0-4.0-10.0-0.6","spark_pilot_norest","10689","6","8","Female","","false","","","","","[1358.6000000089407]","./assets/img/canyon/animals/giraffe.jpg","[""ArrowLeft""]","second stage test","canyon","0","{""ArrowUp,ArrowLeft"":27,""ArrowUp,ArrowRight"":15,""ArrowDown,ArrowLeft"":21,""ArrowDown,ArrowRight"":7}","true","ArrowDown,ArrowLeft","","revaluation","1","","","",""
"html-keyboard-response","288","1386535","0.0-4.0-10.0-1.6","spark_pilot_norest","10689","6","8","Female","","","","","","","null","<div style=""font-size:60px;"">+</div>","null","fixation","","","","","","","","","","","",""
"revaluation","289","1387101","0.0-4.0-10.0-0.7","spark_pilot_norest","10689","6","8","Female","","false","","","","","[563.5]","./assets/img/canyon/animals/giraffe.jpg","[""ArrowLeft""]","second stage test","canyon","0","{""ArrowUp,ArrowLeft"":27,""ArrowUp,ArrowRight"":15,""ArrowDown,ArrowLeft"":21,""ArrowDown,ArrowRight"":7}","true","ArrowDown,ArrowLeft","","revaluation","1","","","",""
"html-keyboard-response","290","1387605","0.0-4.0-10.0-1.7","spark_pilot_norest","10689","6","8","Female","","","","","","","null","<div style=""font-size:60px;"">+</div>","null","fixation","","","","","","","","","","","",""
"learning-instructions","291","1394424","0.0-4.0-0.1-0.2","spark_pilot_norest","10689","6","8","Female","","","","","","","4071.0999999940395","<p> This time you are searching for treasure in the <b>ocean</b>.</p>","","instructions","","","","","","","","","","","",""
"learning-instructions","292","1413118","0.0-4.0-0.1-0.3","spark_pilot_norest","10689","6","8","Female","","","","","","","1443.2999999970198","<p><b>New</b> animals with <b>new</b> treasure chests live here. You need to explore to discover where the animal with the best treasure chest is.</p>
                    <p> Like before, once you figure out which animal has the chest with the most treasure, you should try to get to that animal and select that chest! </p>","","instructions","","","","","","","","","","","",""
"learning-instructions","293","1429550","0.0-4.0-1.1-0.1","spark_pilot_norest","10689","6","8","Female","","","","","","","1697.0999999940395","<p> Remember, when you see a picture of the place, use the up and down keys to <b>find an animal</b>.</p>
            <p> When you encounter an animal, you should use the left and right keys to <b>select a treasure chest</b>.</p>
            <p> Don't forget to look out for the robber! </p>","","instructions","","","","","","","","","","","",""
"revaluation","294","1433564","0.0-4.0-2.1-0.50","spark_pilot_norest","10689","6","8","Female","","false","","","","","[1285]","./assets/img/ocean/catch/7.jpg","[""spaceBar""]","value training","ocean","0","{""ArrowUp,ArrowLeft"":26,""ArrowUp,ArrowRight"":10,""ArrowDown,ArrowLeft"":5,""ArrowDown,ArrowRight"":17}","true","spaceBar","true","original","2","0","","",""
"html-keyboard-response","295","1434066","0.0-4.0-2.1-1.50","spark_pilot_norest","10689","6","8","Female","","","","","","","null","<div style=""font-size:60px;"">+</div>","null","fixation","","","","","","","","","1","","",""
"revaluation","296","1440095","0.0-4.0-2.1-0.51","spark_pilot_norest","10689","6","8","Female","","false","","","","","[703.5999999940395,1438.7000000029802]","./assets/img/ocean/memory/34.jpg","[""ArrowUp"",""ArrowRight""]","value training","ocean","10","{""ArrowUp,ArrowLeft"":26,""ArrowUp,ArrowRight"":10,""ArrowDown,ArrowLeft"":5,""ArrowDown,ArrowRight"":17}","false","ArrowUp,ArrowRight","false","original","2","2","","",""
"html-keyboard-response","297","1440605","0.0-4.0-2.1-1.51","spark_pilot_norest","10689","6","8","Female","","","","","","","null","<div style=""font-size:60px;"">+</div>","null","fixation","","","","","","","","","3","","",""
"revaluation","298","1446631","0.0-4.0-2.1-0.52","spark_pilot_norest","10689","6","8","Female","","false","","","","","[1236.9000000059605,711.4000000059605]","./assets/img/ocean/memory/29.jpg","[""ArrowUp"",""ArrowLeft""]","value training","ocean","26","{""ArrowUp,ArrowLeft"":26,""ArrowUp,ArrowRight"":10,""ArrowDown,ArrowLeft"":5,""ArrowDown,ArrowRight"":17}","true","ArrowUp,ArrowLeft","false","original","2","4","","",""
"html-keyboard-response","299","1447142","0.0-4.0-2.1-1.52","spark_pilot_norest","10689","6","8","Female","","","","","","","null","<div style=""font-size:60px;"">+</div>","null","fixation","","","","","","","","","5","","",""
"revaluation","300","1453166","0.0-4.0-2.1-0.53","spark_pilot_norest","10689","6","8","Female","","false","","","","","[708.4000000059605,966.3000000119209]","./assets/img/ocean/memory/11.jpg","[""ArrowDown"",""ArrowLeft""]","value training","ocean","5","{""ArrowUp,ArrowLeft"":26,""ArrowUp,ArrowRight"":10,""ArrowDown,ArrowLeft"":5,""ArrowDown,ArrowRight"":17}","false","ArrowDown,ArrowLeft","false","original","2","6","","",""
"html-keyboard-response","301","1453678","0.0-4.0-2.1-1.53","spark_pilot_norest","10689","6","8","Female","","","","","","","null","<div style=""font-size:60px;"">+</div>","null","fixation","","","","","","","","","7","","",""
"revaluation","302","1459699","0.0-4.0-2.1-0.54","spark_pilot_norest","10689","6","8","Female","","false","","","","","[1555.7999999970198,973.7000000029802]","./assets/img/ocean/memory/38.jpg","[""ArrowDown"",""ArrowRight""]","value training","ocean","17","{""ArrowUp,ArrowLeft"":26,""ArrowUp,ArrowRight"":10,""ArrowDown,ArrowLeft"":5,""ArrowDown,ArrowRight"":17}","false","ArrowDown,ArrowRight","false","original","2","8","","",""
"html-keyboard-response","303","1460206","0.0-4.0-2.1-1.54","spark_pilot_norest","10689","6","8","Female","","","","","","","null","<div style=""font-size:60px;"">+</div>","null","fixation","","","","","","","","","9","","",""
"revaluation","304","1466230","0.0-4.0-2.1-0.55","spark_pilot_norest","10689","6","8","Female","","false","","","","","[1531.2000000029802,1191.5]","./assets/img/ocean/memory/22.jpg","[""ArrowUp"",""ArrowLeft""]","value training","ocean","26","{""ArrowUp,ArrowLeft"":26,""ArrowUp,ArrowRight"":10,""ArrowDown,ArrowLeft"":5,""ArrowDown,ArrowRight"":17}","true","ArrowUp,ArrowLeft","false","original","2","10","","",""
"html-keyboard-response","305","1466734","0.0-4.0-2.1-1.55","spark_pilot_norest","10689","6","8","Female","","","","","","","null","<div style=""font-size:60px;"">+</div>","null","fixation","","","","","","","","","11","","",""
"revaluation","306","1472760","0.0-4.0-2.1-0.56","spark_pilot_norest","10689","6","8","Female","","false","","","","","[1867.5,1261.5999999940395]","./assets/img/ocean/memory/21.jpg","[""ArrowDown"",""ArrowLeft""]","value training","ocean","5","{""ArrowUp,ArrowLeft"":26,""ArrowUp,ArrowRight"":10,""ArrowDown,ArrowLeft"":5,""ArrowDown,ArrowRight"":17}","false","ArrowDown,ArrowLeft","false","original","2","12","","",""
"html-keyboard-response","307","1473268","0.0-4.0-2.1-1.56","spark_pilot_norest","10689","6","8","Female","","","","","","","null","<div style=""font-size:60px;"">+</div>","null","fixation","","","","","","","","","13","","",""
"revaluation","308","1479290","0.0-4.0-2.1-0.57","spark_pilot_norest","10689","6","8","Female","","false","","","","","[1533.5999999940395,786.2000000029802]","./assets/img/ocean/memory/41.jpg","[""ArrowUp"",""ArrowRight""]","value training","ocean","10","{""ArrowUp,ArrowLeft"":26,""ArrowUp,ArrowRight"":10,""ArrowDown,ArrowLeft"":5,""ArrowDown,ArrowRight"":17}","false","ArrowUp,ArrowRight","false","original","2","14","","",""
"html-keyboard-response","309","1479796","0.0-4.0-2.1-1.57","spark_pilot_norest","10689","6","8","Female","","","","","","","null","<div style=""font-size:60px;"">+</div>","null","fixation","","","","","","","","","15","","",""
"revaluation","310","1485821","0.0-4.0-2.1-0.58","spark_pilot_norest","10689","6","8","Female","","false","","","","","[1349.800000011921,513.6000000089407]","./assets/img/ocean/memory/16.jpg","[""ArrowUp"",""ArrowLeft""]","value training","ocean","26","{""ArrowUp,ArrowLeft"":26,""ArrowUp,ArrowRight"":10,""ArrowDown,ArrowLeft"":5,""ArrowDown,ArrowRight"":17}","true","ArrowUp,ArrowLeft","false","original","2","16","","",""
"html-keyboard-response","311","1486326","0.0-4.0-2.1-1.58","spark_pilot_norest","10689","6","8","Female","","","","","","","null","<div style=""font-size:60px;"">+</div>","null","fixation","","","","","","","","","17","","",""
