"trial_type","trial_index","time_elapsed","internal_node_id","task_version","subject_id","assigned_condition","age","gender","success","timeout","failed_images","failed_audio","failed_video","browser_interaction","rt","stimulus","response","task_part","environment","score","rewardMap","correct","fullState","isCatch","condition","order","trial_num","key_press","ground_truth","bonus"
"pavlovia","0","2142","0.0-0.0","spark_pilot_norest","8309","4","8","Male","","","","","","","","","","","","","","","","","","","","","",""
"preload","1","16804","0.0-1.0","spark_pilot_norest","8309","4","8","Male","true","false","[]","[]","[]","[{""event"":""fullscreenenter"",""trial"":2,""time"":19653}]","","","","","","","","","","","","","","","",""
"fullscreen","2","20634","0.0-2.0","spark_pilot_norest","8309","4","8","Male","true","","","","","","","","","","","","","","","","","","","","",""
"audio-button-response","3","29522","0.0-3.0-0.0-0.0","spark_pilot_norest","8309","4","8","Male","","","","","","","8880","./assets/audio/audiotest/turtle.mp3","2","audio_test","","","","","","","","","","","",""
"learning-instructions","4","48272","0.0-3.0-1.0-0.0","spark_pilot_norest","8309","4","8","Male","","","","","","","11769.699999809265","<p> Welcome! Please remember to stay in fullscreen mode and don't click away from the experiment. </p>","","instructions","","","","","","","","","","","",""
"learning-instructions","5","57982","0.0-3.0-1.0-0.1","spark_pilot_norest","8309","4","8","Male","","","","","","","1298.5","<p> Today you will be playing a game to earn treasure. </p>
            <p> At the end of the experiment, you will earn a bonus based on how much treasure you find. </p>
            <img src='./assets/img/instructions/treasure.jpg' class='instructions-image'>","","instructions","","","","","","","","","","","",""
"learning-instructions","6","67782","0.0-3.0-1.0-0.2","spark_pilot_norest","8309","4","8","Male","","","","","","","1495.1000003814697","<p> Animals have hidden treasure in treasure chests. </p>
            <p> You need to first find an animal and then choose which of their treasure chests to search. </p>
            <img src='./assets/img/space/animals/cat.jpg' class='instructions-image'>","","instructions","","","","","","","","","","","",""
"learning-instructions","7","82988","0.0-3.0-1.0-0.3","spark_pilot_norest","8309","4","8","Male","","","","","","","2011.1999998092651","<p> In each round, you will search for treasure in a different place. In the real game, there will be two rounds. </p>
            <p> You will begin with a separate, practice round where you will search for treasure in outer space. </p>
            <img src='./assets/img/space/0.jpg' class='instructions-image'>","","instructions","","","","","","","","","","","",""
"learning-instructions","8","96438","0.0-3.0-1.0-0.4","spark_pilot_norest","8309","4","8","Male","","","","","","","1991","<p> On every turn, you will see a picture of the place that you are in, but the specific image may be different each time. </p>
            <p> For example, both of these images mean you are in outer space. </p>
            <img src='./assets/img/instructions/outerspace.jpg' class='instructions-image'>","","instructions","","","","","","","","","","","",""
"learning-instructions","9","105140","0.0-3.0-1.0-0.5","spark_pilot_norest","8309","4","8","Male","","","","","","","853.1999998092651","<p> You need to decide which direction to travel in. </p>
            <p> You can choose between going <b>up or down</b> by using the arrow keys. </p>
            <img src='./assets/img/instructions/updown.jpg' class='instructions-image'>","","instructions","","","","","","","","","","","",""
"learning-instructions","10","115769","0.0-3.0-1.0-0.6","spark_pilot_norest","8309","4","8","Male","","","","","","","1801.9000005722046","<p> You will have <b>2 seconds</b> to make your choice. </p>
            <p> If you do not make a choice within 2 seconds, you will not find an animal or earn treasure. </p>
            <img src='./assets/img/instructions/2seconds.jpg' class='instructions-image'>","","instructions","","","","","","","","","","","",""
"learning-instructions","11","124211","0.0-3.0-1.0-0.7","spark_pilot_norest","8309","4","8","Male","","","","","","","1377.1999998092651","<p> Let’s try practicing that now! </p>
            <p> When you see a picture of the place you are in, press the <b>up</b> key to travel up. </p>
            <img src='./assets/img/instructions/pressUp.jpg' class='instructions-image'>","","instructions","","","","","","","","","","","",""
"revaluation","12","128252","0.0-3.0-2.0-0.0","spark_pilot_norest","8309","4","8","Male","","false","","","","","[687.4000005722046]","./assets/img/space/0.jpg","[""ArrowUp""]","first stage practice","space","0","null","null","ArrowUp","false","","","","","",""
"html-keyboard-response","13","128771","0.0-3.0-2.0-1.0","spark_pilot_norest","8309","4","8","Male","","","","","","","null","<div style=""font-size:60px;"">+</div>","null","fixation","","","","","","","","","","","",""
"revaluation","14","132802","0.0-3.0-2.0-0.1","spark_pilot_norest","8309","4","8","Male","","false","","","","","[1407.5999994277954]","./assets/img/space/1.jpg","[""ArrowUp""]","first stage practice","space","0","null","null","ArrowUp","false","","","","","",""
"html-keyboard-response","15","133321","0.0-3.0-2.0-1.1","spark_pilot_norest","8309","4","8","Male","","","","","","","null","<div style=""font-size:60px;"">+</div>","null","fixation","","","","","","","","","","","",""
"revaluation","16","137351","0.0-3.0-2.0-0.2","spark_pilot_norest","8309","4","8","Male","","false","","","","","[660.6000003814697]","./assets/img/space/2.jpg","[""ArrowUp""]","first stage practice","space","0","null","null","ArrowUp","false","","","","","",""
"html-keyboard-response","17","137871","0.0-3.0-2.0-1.2","spark_pilot_norest","8309","4","8","Male","","","","","","","null","<div style=""font-size:60px;"">+</div>","null","fixation","","","","","","","","","","","",""
"learning-instructions","18","151090","0.0-3.0-3.0-0.0","spark_pilot_norest","8309","4","8","Male","","","","","","","8497.10000038147","<p> Great job! Now try pressing the <b>down</b> key to travel down. </p>
            <img src='./assets/img/instructions/pressDown.jpg' class='instructions-image'>","","instructions","","","","","","","","","","","",""
"revaluation","19","155122","0.0-3.0-4.0-0.0","spark_pilot_norest","8309","4","8","Male","","false","","","","","[615.5]","./assets/img/space/3.jpg","[""ArrowDown""]","first stage practice","space","0","null","null","ArrowDown","false","","","","","",""
"html-keyboard-response","20","155641","0.0-3.0-4.0-1.0","spark_pilot_norest","8309","4","8","Male","","","","","","","null","<div style=""font-size:60px;"">+</div>","null","fixation","","","","","","","","","","","",""
"revaluation","21","159671","0.0-3.0-4.0-0.1","spark_pilot_norest","8309","4","8","Male","","true","","","","","[]","./assets/img/space/4.jpg","[]","first stage practice","space","-5","null","null","","false","","","","","",""
"html-keyboard-response","22","160191","0.0-3.0-4.0-1.1","spark_pilot_norest","8309","4","8","Male","","","","","","","null","<div style=""font-size:60px;"">+</div>","null","fixation","","","","","","","","","","","",""
"revaluation","23","164206","0.0-3.0-4.0-0.2","spark_pilot_norest","8309","4","8","Male","","true","","","","","[]","./assets/img/space/5.jpg","[]","first stage practice","space","-5","null","null","","false","","","","","",""
"html-keyboard-response","24","164716","0.0-3.0-4.0-1.2","spark_pilot_norest","8309","4","8","Male","","","","","","","null","<div style=""font-size:60px;"">+</div>","null","fixation","","","","","","","","","","","",""
"learning-instructions","25","178649","0.0-3.0-5.0-0.0","spark_pilot_norest","8309","4","8","Male","","","","","","","4085.699999809265","<p> The animals don’t move, so the animal in the upper part of a place will stay in the upper part of a place, and the animal in the lower part of a place will stay in the lower part of a place. </p>","","instructions","","","","","","","","","","","",""
"learning-instructions","26","192590","0.0-3.0-5.0-0.1","spark_pilot_norest","8309","4","8","Male","","","","","","","4772.599999427795","<p> Each animal has two treasure chests for you to choose from. </p>
            <p> The amount of treasure in each chest can range from <b> 0 to 40 pieces.</b></p>","","instructions","","","","","","","","","","","",""
"learning-instructions","27","205394","0.0-3.0-5.0-0.2","spark_pilot_norest","8309","4","8","Male","","","","","","","1576.5","<p> You should decide which chest to search for treasure by using the <b>left</b> and <b>right</b> arrow keys. </p>
            <p><b> Pay attention to which animal is on the screen, as the animals have different treasure chests. </b></p>
            <img src='./assets/img/instructions/leftright.jpg' class='instructions-image'>","","instructions","","","","","","","","","","","",""
"learning-instructions","28","212583","0.0-3.0-5.0-0.3","spark_pilot_norest","8309","4","8","Male","","","","","","","806.1999998092651","<p> Let’s try practicing that now. </p>
            <p> When you see an animal, choose which chest to search for treasure. </p>
            <img src='./assets/img/instructions/chooseChest.jpg' class='instructions-image'>","","instructions","","","","","","","","","","","",""
"revaluation","29","216610","0.0-3.0-6.0-0.0","spark_pilot_norest","8309","4","8","Male","","false","","","","","[1155.0999994277954]","./assets/img/space/animals/rabbit.jpg","[""ArrowLeft""]","second stage practice","space","15","{""ArrowUp,ArrowLeft"":3,""ArrowUp,ArrowRight"":36,""ArrowDown,ArrowLeft"":15,""ArrowDown,ArrowRight"":23}","false","ArrowDown,ArrowLeft","","","","","","",""
"html-keyboard-response","30","217121","0.0-3.0-6.0-1.0","spark_pilot_norest","8309","4","8","Male","","","","","","","null","<div style=""font-size:60px;"">+</div>","null","fixation","","","","","","","","","","","",""
"revaluation","31","221155","0.0-3.0-6.0-0.1","spark_pilot_norest","8309","4","8","Male","","false","","","","","[755.2000007629395]","./assets/img/space/animals/cat.jpg","[""ArrowRight""]","second stage practice","space","36","{""ArrowUp,ArrowLeft"":3,""ArrowUp,ArrowRight"":36,""ArrowDown,ArrowLeft"":15,""ArrowDown,ArrowRight"":23}","true","ArrowUp,ArrowRight","","","","","","",""
"html-keyboard-response","32","221675","0.0-3.0-6.0-1.1","spark_pilot_norest","8309","4","8","Male","","","","","","","null","<div style=""font-size:60px;"">+</div>","null","fixation","","","","","","","","","","","",""
"revaluation","33","225705","0.0-3.0-6.0-0.2","spark_pilot_norest","8309","4","8","Male","","false","","","","","[419.80000019073486]","./assets/img/space/animals/rabbit.jpg","[""ArrowLeft""]","second stage practice","space","15","{""ArrowUp,ArrowLeft"":3,""ArrowUp,ArrowRight"":36,""ArrowDown,ArrowLeft"":15,""ArrowDown,ArrowRight"":23}","false","ArrowDown,ArrowLeft","","","","","","",""
"html-keyboard-response","34","226215","0.0-3.0-6.0-1.2","spark_pilot_norest","8309","4","8","Male","","","","","","","null","<div style=""font-size:60px;"">+</div>","null","fixation","","","","","","","","","","","",""
"revaluation","35","230236","0.0-3.0-6.0-0.3","spark_pilot_norest","8309","4","8","Male","","false","","","","","[471.6000003814697]","./assets/img/space/animals/cat.jpg","[""ArrowRight""]","second stage practice","space","36","{""ArrowUp,ArrowLeft"":3,""ArrowUp,ArrowRight"":36,""ArrowDown,ArrowLeft"":15,""ArrowDown,ArrowRight"":23}","true","ArrowUp,ArrowRight","","","","","","",""
"html-keyboard-response","36","230755","0.0-3.0-6.0-1.3","spark_pilot_norest","8309","4","8","Male","","","","","","","null","<div style=""font-size:60px;"">+</div>","null","fixation","","","","","","","","","","","",""
"learning-instructions","37","251739","0.0-3.0-7.0-0.0","spark_pilot_norest","8309","4","8","Male","","","","","","","4136.199999809265","<p> Great job. Now let’s try putting it together. </p>
            <p> On each turn, you will first see a picture to remind you of the place you are in, and you need to choose whether to go up or down. </p>
            <p> Then you will see an animal and choose which of its chests to search for treasure. </p>","","instructions","","","","","","","","","","","",""
"learning-instructions","38","263304","0.0-3.0-7.0-0.1","spark_pilot_norest","8309","4","8","Male","","","","","","","3271.5","<p> When you choose whether to go up or down, try to go to the animal with the chest with the most treasure. </p>
            <p> Try practicing that now! </p>","","instructions","","","","","","","","","","","",""
"revaluation","39","269341","0.0-3.0-8.0-0.0","spark_pilot_norest","8309","4","8","Male","","false","","","","","[871.3000001907349,1962.3999996185303]","./assets/img/space/6.jpg","[""ArrowUp"",""ArrowLeft""]","full practice","space","3","{""ArrowUp,ArrowLeft"":3,""ArrowUp,ArrowRight"":36,""ArrowDown,ArrowLeft"":15,""ArrowDown,ArrowRight"":23}","false","ArrowUp,ArrowLeft","false","","","","","",""
"html-keyboard-response","40","269860","0.0-3.0-8.0-1.0","spark_pilot_norest","8309","4","8","Male","","","","","","","null","<div style=""font-size:60px;"">+</div>","null","fixation","","","","","","","","","","","",""
"revaluation","41","275910","0.0-3.0-8.0-0.1","spark_pilot_norest","8309","4","8","Male","","false","","","","","[604.1999998092651,388.30000019073486]","./assets/img/space/7.jpg","[""ArrowDown"",""ArrowRight""]","full practice","space","23","{""ArrowUp,ArrowLeft"":3,""ArrowUp,ArrowRight"":36,""ArrowDown,ArrowLeft"":15,""ArrowDown,ArrowRight"":23}","false","ArrowDown,ArrowRight","false","","","","","",""
"html-keyboard-response","42","276430","0.0-3.0-8.0-1.1","spark_pilot_norest","8309","4","8","Male","","","","","","","null","<div style=""font-size:60px;"">+</div>","null","fixation","","","","","","","","","","","",""
"revaluation","43","282471","0.0-3.0-8.0-0.2","spark_pilot_norest","8309","4","8","Male","","false","","","","","[769.3000001907349,273.5]","./assets/img/space/8.jpg","[""ArrowUp"",""ArrowRight""]","full practice","space","36","{""ArrowUp,ArrowLeft"":3,""ArrowUp,ArrowRight"":36,""ArrowDown,ArrowLeft"":15,""ArrowDown,ArrowRight"":23}","true","ArrowUp,ArrowRight","false","","","","","",""
"html-keyboard-response","44","282990","0.0-3.0-8.0-1.2","spark_pilot_norest","8309","4","8","Male","","","","","","","null","<div style=""font-size:60px;"">+</div>","null","fixation","","","","","","","","","","","",""
"revaluation","45","289040","0.0-3.0-8.0-0.3","spark_pilot_norest","8309","4","8","Male","","false","","","","","[304.8999996185303,464.1000003814697]","./assets/img/space/9.jpg","[""ArrowDown"",""ArrowLeft""]","full practice","space","15","{""ArrowUp,ArrowLeft"":3,""ArrowUp,ArrowRight"":36,""ArrowDown,ArrowLeft"":15,""ArrowDown,ArrowRight"":23}","false","ArrowDown,ArrowLeft","false","","","","","",""
"html-keyboard-response","46","289543","0.0-3.0-8.0-1.3","spark_pilot_norest","8309","4","8","Male","","","","","","","null","<div style=""font-size:60px;"">+</div>","null","fixation","","","","","","","","","","","",""
"revaluation","47","295622","0.0-3.0-8.0-0.4","spark_pilot_norest","8309","4","8","Male","","false","","","","","[486.4000005722046,961.0999994277954]","./assets/img/space/10.jpg","[""ArrowUp"",""ArrowLeft""]","full practice","space","3","{""ArrowUp,ArrowLeft"":3,""ArrowUp,ArrowRight"":36,""ArrowDown,ArrowLeft"":15,""ArrowDown,ArrowRight"":23}","false","ArrowUp,ArrowLeft","false","","","","","",""
"html-keyboard-response","48","296139","0.0-3.0-8.0-1.4","spark_pilot_norest","8309","4","8","Male","","","","","","","null","<div style=""font-size:60px;"">+</div>","null","fixation","","","","","","","","","","","",""
"learning-instructions","49","310385","0.0-3.0-9.0-0.0","spark_pilot_norest","8309","4","8","Male","","","","","","","3799.5","<p> One last thing: sometimes, you will see a robber. The robber can be anywhere in the picture. </p>
            <p> If you do not stop them, you will lose treasure. </p>
            <img src='./assets/img/instructions/robber.jpg' class='instructions-image'>","","instructions","","","","","","","","","","","",""
"learning-instructions","50","321661","0.0-3.0-9.0-0.1","spark_pilot_norest","8309","4","8","Male","","","","","","","4086","<p> If you see the robber, you should <b>press the space bar</b> rather than using the arrow keys. </p>
            <p> Try practicing that now! </p>","","instructions","","","","","","","","","","","",""
"revaluation","51","325694","0.0-3.0-10.0-0.0","spark_pilot_norest","8309","4","8","Male","","false","","","","","[679.4000005722046]","./assets/img/space/catch/0.jpg","[""spaceBar""]","catch practice","space","0","{""ArrowUp,ArrowLeft"":3,""ArrowUp,ArrowRight"":36,""ArrowDown,ArrowLeft"":15,""ArrowDown,ArrowRight"":23}","true","spaceBar","true","","","","","",""
"html-keyboard-response","52","326215","0.0-3.0-10.0-1.0","spark_pilot_norest","8309","4","8","Male","","","","","","","null","<div style=""font-size:60px;"">+</div>","null","fixation","","","","","","","","","","","",""
"revaluation","53","330243","0.0-3.0-10.0-0.1","spark_pilot_norest","8309","4","8","Male","","false","","","","","[1480.9000005722046]","./assets/img/space/catch/1.jpg","[""spaceBar""]","catch practice","space","0","{""ArrowUp,ArrowLeft"":3,""ArrowUp,ArrowRight"":36,""ArrowDown,ArrowLeft"":15,""ArrowDown,ArrowRight"":23}","true","spaceBar","true","","","","","",""
"html-keyboard-response","54","330764","0.0-3.0-10.0-1.1","spark_pilot_norest","8309","4","8","Male","","","","","","","null","<div style=""font-size:60px;"">+</div>","null","fixation","","","","","","","","","","","",""
"revaluation","55","334793","0.0-3.0-10.0-0.2","spark_pilot_norest","8309","4","8","Male","","false","","","","","[584.8000001907349]","./assets/img/space/catch/2.jpg","[""spaceBar""]","catch practice","space","0","{""ArrowUp,ArrowLeft"":3,""ArrowUp,ArrowRight"":36,""ArrowDown,ArrowLeft"":15,""ArrowDown,ArrowRight"":23}","true","spaceBar","true","","","","","",""
"html-keyboard-response","56","335313","0.0-3.0-10.0-1.2","spark_pilot_norest","8309","4","8","Male","","","","","","","null","<div style=""font-size:60px;"">+</div>","null","fixation","","","","","","","","","","","",""
"learning-instructions","57","342863","0.0-3.0-11.0-0.0-0.0","spark_pilot_norest","8309","4","8","Male","","","","","","","2258.199999809265","<p> Now, you will practice a shortened version of the game to get a sense of how it all fits together. </p>","","instructions","","","","","","","","","","","",""
"learning-instructions","58","347387","0.0-3.0-11.0-0.0-0.1","spark_pilot_norest","8309","4","8","Male","","","","","","","1311","<p>This time you are searching for treasure in outer space.</p>","","instructions","","","","","","","","","","","",""
"learning-instructions","59","364972","0.0-3.0-11.0-1.0-0.0","spark_pilot_norest","8309","4","8","Male","","","","","","","2776.800000190735","<p> Remember, when you see a picture of the place, use the up and down keys to <b>find an animal</b>.</p>
            <p> When you encounter an animal, you should use the left and right keys to <b>select a treasure chest</b>.</p>
            <p> Don't forget to look out for the robber! </p>","","instructions","","","","","","","","","","","",""
"revaluation","60","371028","0.0-3.0-11.0-2.0-0.0","spark_pilot_norest","8309","4","8","Male","","false","","","","","[962.5,957]","./assets/img/space/11.jpg","[""ArrowDown"",""ArrowRight""]","practice block","space","23","{""ArrowUp,ArrowLeft"":3,""ArrowUp,ArrowRight"":36,""ArrowDown,ArrowLeft"":15,""ArrowDown,ArrowRight"":23}","false","ArrowDown,ArrowRight","false","","","","","",""
"html-keyboard-response","61","371538","0.0-3.0-11.0-2.0-1.0","spark_pilot_norest","8309","4","8","Male","","","","","","","null","<div style=""font-size:60px;"">+</div>","null","fixation","","","","","","","","","","","",""
"revaluation","62","375552","0.0-3.0-11.0-2.0-0.1","spark_pilot_norest","8309","4","8","Male","","true","","","","","[]","./assets/img/space/12.jpg","[]","practice block","space","-5","{""ArrowUp,ArrowLeft"":3,""ArrowUp,ArrowRight"":36,""ArrowDown,ArrowLeft"":15,""ArrowDown,ArrowRight"":23}","false","","false","","","","","",""
"html-keyboard-response","63","376057","0.0-3.0-11.0-2.0-1.1","spark_pilot_norest","8309","4","8","Male","","","","","","","null","<div style=""font-size:60px;"">+</div>","null","fixation","","","","","","","","","","","",""
"revaluation","64","382088","0.0-3.0-11.0-2.0-0.2","spark_pilot_norest","8309","4","8","Male","","false","","","","","[385.69999980926514,325.19999980926514]","./assets/img/space/13.jpg","[""ArrowDown"",""ArrowLeft""]","practice block","space","15","{""ArrowUp,ArrowLeft"":3,""ArrowUp,ArrowRight"":36,""ArrowDown,ArrowLeft"":15,""ArrowDown,ArrowRight"":23}","false","ArrowDown,ArrowLeft","false","","","","","",""
"html-keyboard-response","65","382607","0.0-3.0-11.0-2.0-1.2","spark_pilot_norest","8309","4","8","Male","","","","","","","null","<div style=""font-size:60px;"">+</div>","null","fixation","","","","","","","","","","","",""
"revaluation","66","388658","0.0-3.0-11.0-2.0-0.3","spark_pilot_norest","8309","4","8","Male","","false","","","","","[426.1000003814697,280.5]","./assets/img/space/14.jpg","[""ArrowUp"",""ArrowRight""]","practice block","space","36","{""ArrowUp,ArrowLeft"":3,""ArrowUp,ArrowRight"":36,""ArrowDown,ArrowLeft"":15,""ArrowDown,ArrowRight"":23}","true","ArrowUp,ArrowRight","false","","","","","",""
"html-keyboard-response","67","389177","0.0-3.0-11.0-2.0-1.3","spark_pilot_norest","8309","4","8","Male","","","","","","","null","<div style=""font-size:60px;"">+</div>","null","fixation","","","","","","","","","","","",""
"revaluation","68","395207","0.0-3.0-11.0-2.0-0.4","spark_pilot_norest","8309","4","8","Male","","false","","","","","[1745.3000001907349,782.5]","./assets/img/space/11.jpg","[""ArrowDown"",""ArrowRight""]","practice block","space","23","{""ArrowUp,ArrowLeft"":3,""ArrowUp,ArrowRight"":36,""ArrowDown,ArrowLeft"":15,""ArrowDown,ArrowRight"":23}","false","ArrowDown,ArrowRight","false","","","","","",""
"html-keyboard-response","69","395713","0.0-3.0-11.0-2.0-1.4","spark_pilot_norest","8309","4","8","Male","","","","","","","null","<div style=""font-size:60px;"">+</div>","null","fixation","","","","","","","","","","","",""
"revaluation","70","401738","0.0-3.0-11.0-2.0-0.5","spark_pilot_norest","8309","4","8","Male","","false","","","","","[1564.5999994277954,1316.5999994277954]","./assets/img/space/12.jpg","[""ArrowDown"",""ArrowLeft""]","practice block","space","15","{""ArrowUp,ArrowLeft"":3,""ArrowUp,ArrowRight"":36,""ArrowDown,ArrowLeft"":15,""ArrowDown,ArrowRight"":23}","false","ArrowDown,ArrowLeft","false","","","","","",""
"html-keyboard-response","71","402240","0.0-3.0-11.0-2.0-1.5","spark_pilot_norest","8309","4","8","Male","","","","","","","null","<div style=""font-size:60px;"">+</div>","null","fixation","","","","","","","","","","","",""
"revaluation","72","408288","0.0-3.0-11.0-2.0-0.6","spark_pilot_norest","8309","4","8","Male","","false","","","","","[424.3999996185303,410.6000003814697]","./assets/img/space/13.jpg","[""ArrowUp"",""ArrowLeft""]","practice block","space","3","{""ArrowUp,ArrowLeft"":3,""ArrowUp,ArrowRight"":36,""ArrowDown,ArrowLeft"":15,""ArrowDown,ArrowRight"":23}","false","ArrowUp,ArrowLeft","false","","","","","",""
"html-keyboard-response","73","408821","0.0-3.0-11.0-2.0-1.6","spark_pilot_norest","8309","4","8","Male","","","","","","","null","<div style=""font-size:60px;"">+</div>","null","fixation","","","","","","","","","","","",""
"revaluation","74","414840","0.0-3.0-11.0-2.0-0.7","spark_pilot_norest","8309","4","8","Male","","false","","","","","[1514.3000001907349,700.9000005722046]","./assets/img/space/14.jpg","[""ArrowDown"",""ArrowRight""]","practice block","space","23","{""ArrowUp,ArrowLeft"":3,""ArrowUp,ArrowRight"":36,""ArrowDown,ArrowLeft"":15,""ArrowDown,ArrowRight"":23}","false","ArrowDown,ArrowRight","false","","","","","",""
"html-keyboard-response","75","415342","0.0-3.0-11.0-2.0-1.7","spark_pilot_norest","8309","4","8","Male","","","","","","","null","<div style=""font-size:60px;"">+</div>","null","fixation","","","","","","","","","","","",""
"revaluation","76","419349","0.0-3.0-11.0-2.0-0.8","spark_pilot_norest","8309","4","8","Male","","false","","","","","[1274.5999994277954]","./assets/img/space/catch/3.jpg","[""spaceBar""]","practice block","space","0","{""ArrowUp,ArrowLeft"":3,""ArrowUp,ArrowRight"":36,""ArrowDown,ArrowLeft"":15,""ArrowDown,ArrowRight"":23}","true","spaceBar","true","","","","","",""
"html-keyboard-response","77","419850","0.0-3.0-11.0-2.0-1.8","spark_pilot_norest","8309","4","8","Male","","","","","","","null","<div style=""font-size:60px;"">+</div>","null","fixation","","","","","","","","","","","",""
"learning-instructions","78","440753","0.0-3.0-11.0-3.0-0.0","spark_pilot_norest","8309","4","8","Male","","","","","","","7309.10000038147","<p> Now, you will travel with a friend who will choose whether you go up or down first. </p>
            <p> On these turns, you will just see the animal that they found. You will still get to choose which chest to search for treasure.</p>","","instructions","","","","","","","","","","","",""
"revaluation","79","444775","0.0-3.0-11.0-4.0-0.0","spark_pilot_norest","8309","4","8","Male","","false","","","","","[1457]","./assets/img/space/animals/rabbit.jpg","[""ArrowRight""]","practice block","space","23","{""ArrowUp,ArrowLeft"":3,""ArrowUp,ArrowRight"":36,""ArrowDown,ArrowLeft"":15,""ArrowDown,ArrowRight"":23}","true","ArrowDown,ArrowRight","","","","","","",""
"html-keyboard-response","80","445282","0.0-3.0-11.0-4.0-1.0","spark_pilot_norest","8309","4","8","Male","","","","","","","null","<div style=""font-size:60px;"">+</div>","null","fixation","","","","","","","","","","","",""
"revaluation","81","449323","0.0-3.0-11.0-4.0-0.1","spark_pilot_norest","8309","4","8","Male","","false","","","","","[461]","./assets/img/space/animals/rabbit.jpg","[""ArrowLeft""]","practice block","space","15","{""ArrowUp,ArrowLeft"":3,""ArrowUp,ArrowRight"":36,""ArrowDown,ArrowLeft"":15,""ArrowDown,ArrowRight"":23}","false","ArrowDown,ArrowLeft","","","","","","",""
"html-keyboard-response","82","449832","0.0-3.0-11.0-4.0-1.1","spark_pilot_norest","8309","4","8","Male","","","","","","","null","<div style=""font-size:60px;"">+</div>","null","fixation","","","","","","","","","","","",""
"revaluation","83","453872","0.0-3.0-11.0-4.0-0.2","spark_pilot_norest","8309","4","8","Male","","false","","","","","[584.5999994277954]","./assets/img/space/animals/cat.jpg","[""ArrowRight""]","practice block","space","36","{""ArrowUp,ArrowLeft"":3,""ArrowUp,ArrowRight"":36,""ArrowDown,ArrowLeft"":15,""ArrowDown,ArrowRight"":23}","true","ArrowUp,ArrowRight","","","","","","",""
"html-keyboard-response","84","454384","0.0-3.0-11.0-4.0-1.2","spark_pilot_norest","8309","4","8","Male","","","","","","","null","<div style=""font-size:60px;"">+</div>","null","fixation","","","","","","","","","","","",""
"revaluation","85","458392","0.0-3.0-11.0-4.0-0.3","spark_pilot_norest","8309","4","8","Male","","false","","","","","[336]","./assets/img/space/animals/cat.jpg","[""ArrowRight""]","practice block","space","36","{""ArrowUp,ArrowLeft"":3,""ArrowUp,ArrowRight"":36,""ArrowDown,ArrowLeft"":15,""ArrowDown,ArrowRight"":23}","true","ArrowUp,ArrowRight","","","","","","",""
"html-keyboard-response","86","458913","0.0-3.0-11.0-4.0-1.3","spark_pilot_norest","8309","4","8","Male","","","","","","","null","<div style=""font-size:60px;"">+</div>","null","fixation","","","","","","","","","","","",""
"learning-instructions","87","467055","0.0-3.0-11.0-5.0-0.0","spark_pilot_norest","8309","4","8","Male","","","","","","","null","<p> You have almost finished this part of the game! </p>
            <p> We are going to ask you to make a few more choices. </p>","","instructions","","","","","","","","","","","",""
"learning-instructions","88","483112","0.0-3.0-11.0-5.0-0.1","spark_pilot_norest","8309","4","8","Male","","","","","","","null","<p> First, you need to decide whether to go up or down. When you see each picture, use the arrow keys to make your choice. </p>
            <p><b>You will not see which animal you found, but try to get to the one that will give you the most treasure.</b></p>","","instructions","","","","","","","","","","","",""
"html-keyboard-response","89","484117","0.0-3.0-11.0-6.0-0.0","spark_pilot_norest","8309","4","8","Male","","","","","","","null","<div style=""font-size:100px;color:red;"">Starting in...</div>","null","","","","","","","","","","","","",""
"html-keyboard-response","90","485122","0.0-3.0-11.0-6.0-1.0","spark_pilot_norest","8309","4","8","Male","","","","","","","null","<div style=""font-size:200px;color:red;"">3</div>","null","","","","","","","","","","","","",""
"html-keyboard-response","91","486142","0.0-3.0-11.0-6.0-2.0","spark_pilot_norest","8309","4","8","Male","","","","","","","null","<div style=""font-size:200px;color:red;"">2</div>","null","","","","","","","","","","","","",""
"html-keyboard-response","92","487162","0.0-3.0-11.0-6.0-3.0","spark_pilot_norest","8309","4","8","Male","","","","","","","null","<div style=""font-size:200px;color:red;"">1</div>","null","","","","","","","","","","","","",""
"revaluation","93","487676","0.0-3.0-11.0-7.0","spark_pilot_norest","8309","4","8","Male","","false","","","","","[512]","./assets/img/space/15.jpg","[""ArrowUp""]","practice block","space","0","{""ArrowUp,ArrowLeft"":3,""ArrowUp,ArrowRight"":36,""ArrowDown,ArrowLeft"":15,""ArrowDown,ArrowRight"":23}","true","ArrowUp","false","","","","","",""
"html-keyboard-response","94","488182","0.0-3.0-11.0-8.0","spark_pilot_norest","8309","4","8","Male","","","","","","","null","<div style=""font-size:60px;"">+</div>","null","fixation","","","","","","","","","","","",""
"learning-instructions","95","501616","0.0-3.0-11.0-9.0-0.0","spark_pilot_norest","8309","4","8","Male","","","","","","","null","<p> Now you will see the animals again and can search their chests for treasure. </p>
            <p> This time, you will not see how much treasure you earned, but you will earn more bonus money for making better choices. </p>","","instructions","","","","","","","","","","","",""
"html-keyboard-response","96","502626","0.0-3.0-11.0-10.0-0.0","spark_pilot_norest","8309","4","8","Male","","","","","","","null","<div style=""font-size:100px;color:red;"">Starting in...</div>","null","","","","","","","","","","","","",""
"html-keyboard-response","97","503638","0.0-3.0-11.0-10.0-1.0","spark_pilot_norest","8309","4","8","Male","","","","","","","null","<div style=""font-size:200px;color:red;"">3</div>","null","","","","","","","","","","","","",""
"html-keyboard-response","98","504646","0.0-3.0-11.0-10.0-2.0","spark_pilot_norest","8309","4","8","Male","","","","","","","null","<div style=""font-size:200px;color:red;"">2</div>","null","","","","","","","","","","","","",""
"html-keyboard-response","99","505666","0.0-3.0-11.0-10.0-3.0","spark_pilot_norest","8309","4","8","Male","","","","","","","null","<div style=""font-size:200px;color:red;"">1</div>","null","","","","","","","","","","","","",""
"revaluation","100","507709","0.0-3.0-11.0-11.0-0.0","spark_pilot_norest","8309","4","8","Male","","false","","","","","[2039.5]","./assets/img/space/animals/cat.jpg","[""ArrowRight""]","practice block","space","0","{""ArrowUp,ArrowLeft"":3,""ArrowUp,ArrowRight"":36,""ArrowDown,ArrowLeft"":15,""ArrowDown,ArrowRight"":23}","true","ArrowUp,ArrowRight","","","","","","",""
"html-keyboard-response","101","508216","0.0-3.0-11.0-11.0-1.0","spark_pilot_norest","8309","4","8","Male","","","","","","","null","<div style=""font-size:60px;"">+</div>","null","fixation","","","","","","","","","","","",""
"revaluation","102","508221","0.0-3.0-11.0-11.0-0.1","spark_pilot_norest","8309","4","8","Male","","false","","","","","[3]","./assets/img/space/animals/rabbit.jpg","[""ArrowRight""]","practice block","space","0","{""ArrowUp,ArrowLeft"":3,""ArrowUp,ArrowRight"":36,""ArrowDown,ArrowLeft"":15,""ArrowDown,ArrowRight"":23}","true","ArrowDown,ArrowRight","","","","","","",""
"html-keyboard-response","103","508736","0.0-3.0-11.0-11.0-1.1","spark_pilot_norest","8309","4","8","Male","","","","","","","null","<div style=""font-size:60px;"">+</div>","null","fixation","","","","","","","","","","","",""
"learning-instructions","104","518699","0.0-3.0-12.0-0.0","spark_pilot_norest","8309","4","8","Male","","","","","","","5361","<p> Before you start, we're going to ask you a few questions about how the game works. </p>","","instructions","","","","","","","","","","","",""
"comp-q","105","527525","0.0-3.0-13.0-0.0-0.0","spark_pilot_norest","8309","4","8","Male","","","","","","","3222.199999809265","<p> <b> True or False? </b> </p>
            <p> There can be 50 pieces of treasure in a given animal's chest. </p>","1","comp_question","","","","true","","","","","","","",""
"comp-q","106","538646","0.0-3.0-13.0-0.0-1.0","spark_pilot_norest","8309","4","8","Male","","","","","","","4427.5","<p> <b> That's right! </b> The amount of treasure in each chest can range from 0 to 40 pieces. </p>","0","comp_answer","","","","","","","","","","","",""
"comp-q","107","547470","0.0-3.0-13.0-0.1-0.1","spark_pilot_norest","8309","4","8","Male","","","","","","","1671.3000001907349","<p> <b> True or False? </b> </p><p> In this game, all animals have the same amount of treasure in their left and right chests. </p>","1","comp_question","","","","true","","","","","","","",""
"comp-q","108","556539","0.0-3.0-13.0-0.1-1.1","spark_pilot_norest","8309","4","8","Male","","","","","","","3800.9000005722046","<p> <b> That's right! </b> Animals have different amounts of treasure in their treasure chests. </p>","0","comp_answer","","","","","","","","","","","",""
"comp-q","109","568378","0.0-3.0-13.0-0.2-0.2","spark_pilot_norest","8309","4","8","Male","","","","","","","5973.800000190735","<p> <b> True or False? </b> </p><p> The same animal will always be there if you go up in the same place. </p>","1","comp_question","","","","false","","","","","","","",""
"comp-q","110","577764","0.0-3.0-13.0-0.2-1.2","spark_pilot_norest","8309","4","8","Male","","","","","","","3048.6000003814697","<p> <b>Incorrect.</b> One animal lives in the upper part and one lives in the lower part of every place. </p>","0","comp_answer","","","","","","","","","","","",""
"comp-q","111","584722","0.0-3.0-13.0-0.3-0.3","spark_pilot_norest","8309","4","8","Male","","","","","","","1128.1000003814697","<p> <b> True or False? </b> </p><p> The same animal will always be there if you go up in the same place. </p>","0","comp_question","","","","true","","","","","","","",""
"comp-q","112","597468","0.0-3.0-13.0-0.3-1.3","spark_pilot_norest","8309","4","8","Male","","","","","","","6294","<p> <b> That's right! </b> One animal lives in the upper part and one lives in the lower part of every place. </p>","0","comp_answer","","","","","","","","","","","",""
"comp-q","113","609119","0.0-3.0-13.0-0.4-0.4","spark_pilot_norest","8309","4","8","Male","","","","","","","6105.10000038147","<p> <b> True or False? </b> </p><p> If you see a different picture, it means you are in a new place. </p>","1","comp_question","","","","true","","","","","","","",""
"comp-q","114","624675","0.0-3.0-13.0-0.4-1.4","spark_pilot_norest","8309","4","8","Male","","","","","","","4281.799999237061","<p> <b> That's right! </b> Lots of different images may show the same place. For example,  you may see three different images that all remind you that you are in outer space. </p>","0","comp_answer","","","","","","","","","","","",""
"learning-instructions","115","638362","0.0-3.0-14.0-0.0","spark_pilot_norest","8309","4","8","Male","","","","","","","3798.300000190735","<p> Good job. Remember to do your best because the amount of treasure you earn will be converted into bonus money. </p>
            <p> It’s time to start the real game! </p>","","instructions","","","","","","","","","","","",""
"learning-instructions","116","644519","0.0-4.0-0.0-0.0","spark_pilot_norest","8309","4","8","Male","","","","","","","3435.5","<p> This time you are searching for treasure in the <b>ocean</b>.</p>","","instructions","","","","","","","","","","","",""
"learning-instructions","117","666366","0.0-4.0-0.0-0.1","spark_pilot_norest","8309","4","8","Male","","","","","","","4492.199999809265","<p><b>New</b> animals with <b>new</b> treasure chests live here. You need to explore to discover where the animal with the best treasure chest is.</p>
                    <p> Like before, once you figure out which animal has the chest with the most treasure, you should try to get to that animal and select that chest! </p>","","instructions","","","","","","","","","","","",""
"learning-instructions","118","682677","0.0-4.0-1.0-0.0","spark_pilot_norest","8309","4","8","Male","","","","","","","1584.4000005722046","<p> Remember, when you see a picture of the place, use the up and down keys to <b>find an animal</b>.</p>
            <p> When you encounter an animal, you should use the left and right keys to <b>select a treasure chest</b>.</p>
            <p> Don't forget to look out for the robber! </p>","","instructions","","","","","","","","","","","",""
"revaluation","119","688724","0.0-4.0-2.0-0.0","spark_pilot_norest","8309","4","8","Male","","false","","","","","[764.3000001907349,656.2999992370605]","./assets/img/ocean/memory/39.jpg","[""ArrowDown"",""ArrowRight""]","value training","ocean","17","{""ArrowUp,ArrowLeft"":26,""ArrowUp,ArrowRight"":10,""ArrowDown,ArrowLeft"":5,""ArrowDown,ArrowRight"":17}","false","ArrowDown,ArrowRight","false","revaluation","1","0","","",""
"html-keyboard-response","120","689244","0.0-4.0-2.0-1.0","spark_pilot_norest","8309","4","8","Male","","","","","","","null","<div style=""font-size:60px;"">+</div>","null","fixation","","","","","","","","","1","","",""
"revaluation","121","695290","0.0-4.0-2.0-0.1","spark_pilot_norest","8309","4","8","Male","","false","","","","","[1022.3999996185303,512.8999996185303]","./assets/img/ocean/memory/18.jpg","[""ArrowUp"",""ArrowRight""]","value training","ocean","10","{""ArrowUp,ArrowLeft"":26,""ArrowUp,ArrowRight"":10,""ArrowDown,ArrowLeft"":5,""ArrowDown,ArrowRight"":17}","false","ArrowUp,ArrowRight","false","revaluation","1","2","","",""
"html-keyboard-response","122","695804","0.0-4.0-2.0-1.1","spark_pilot_norest","8309","4","8","Male","","","","","","","null","<div style=""font-size:60px;"">+</div>","null","fixation","","","","","","","","","3","","",""
"revaluation","123","701864","0.0-4.0-2.0-0.2","spark_pilot_norest","8309","4","8","Male","","false","","","","","[274.6000003814697,306.6000003814697]","./assets/img/ocean/memory/17.jpg","[""ArrowDown"",""ArrowLeft""]","value training","ocean","5","{""ArrowUp,ArrowLeft"":26,""ArrowUp,ArrowRight"":10,""ArrowDown,ArrowLeft"":5,""ArrowDown,ArrowRight"":17}","false","ArrowDown,ArrowLeft","false","revaluation","1","4","","",""
"html-keyboard-response","124","702375","0.0-4.0-2.0-1.2","spark_pilot_norest","8309","4","8","Male","","","","","","","null","<div style=""font-size:60px;"">+</div>","null","fixation","","","","","","","","","5","","",""
"revaluation","125","706415","0.0-4.0-2.0-0.3","spark_pilot_norest","8309","4","8","Male","","false","","","","","[432.19999980926514]","./assets/img/ocean/catch/3.jpg","[""ArrowUp""]","value training","ocean","-10","{""ArrowUp,ArrowLeft"":26,""ArrowUp,ArrowRight"":10,""ArrowDown,ArrowLeft"":5,""ArrowDown,ArrowRight"":17}","false","ArrowUp","true","revaluation","1","6","","",""
"html-keyboard-response","126","706934","0.0-4.0-2.0-1.3","spark_pilot_norest","8309","4","8","Male","","","","","","","null","<div style=""font-size:60px;"">+</div>","null","fixation","","","","","","","","","7","","",""
"revaluation","127","710955","0.0-4.0-2.0-0.4","spark_pilot_norest","8309","4","8","Male","","false","","","","","[1274.1000003814697]","./assets/img/ocean/catch/0.jpg","[""spaceBar""]","value training","ocean","0","{""ArrowUp,ArrowLeft"":26,""ArrowUp,ArrowRight"":10,""ArrowDown,ArrowLeft"":5,""ArrowDown,ArrowRight"":17}","true","spaceBar","true","revaluation","1","8","","",""
"html-keyboard-response","128","711456","0.0-4.0-2.0-1.4","spark_pilot_norest","8309","4","8","Male","","","","","","","null","<div style=""font-size:60px;"">+</div>","null","fixation","","","","","","","","","9","","",""
"revaluation","129","717486","0.0-4.0-2.0-0.5","spark_pilot_norest","8309","4","8","Male","","false","","","","","[838.1999998092651,400.9000005722046]","./assets/img/ocean/memory/7.jpg","[""ArrowUp"",""ArrowLeft""]","value training","ocean","26","{""ArrowUp,ArrowLeft"":26,""ArrowUp,ArrowRight"":10,""ArrowDown,ArrowLeft"":5,""ArrowDown,ArrowRight"":17}","true","ArrowUp,ArrowLeft","false","revaluation","1","10","","",""
"html-keyboard-response","130","717988","0.0-4.0-2.0-1.5","spark_pilot_norest","8309","4","8","Male","","","","","","","null","<div style=""font-size:60px;"">+</div>","null","fixation","","","","","","","","","11","","",""
"revaluation","131","724013","0.0-4.0-2.0-0.6","spark_pilot_norest","8309","4","8","Male","","false","","","","","[1718.1999998092651,696]","./assets/img/ocean/memory/24.jpg","[""ArrowUp"",""ArrowRight""]","value training","ocean","10","{""ArrowUp,ArrowLeft"":26,""ArrowUp,ArrowRight"":10,""ArrowDown,ArrowLeft"":5,""ArrowDown,ArrowRight"":17}","false","ArrowUp,ArrowRight","false","revaluation","1","12","","",""
"html-keyboard-response","132","724529","0.0-4.0-2.0-1.6","spark_pilot_norest","8309","4","8","Male","","","","","","","null","<div style=""font-size:60px;"">+</div>","null","fixation","","","","","","","","","13","","",""
"revaluation","133","730564","0.0-4.0-2.0-0.7","spark_pilot_norest","8309","4","8","Male","","false","","","","","[437.69999980926514,10.40000057220459]","./assets/img/ocean/memory/36.jpg","[""ArrowDown"",""ArrowRight""]","value training","ocean","17","{""ArrowUp,ArrowLeft"":26,""ArrowUp,ArrowRight"":10,""ArrowDown,ArrowLeft"":5,""ArrowDown,ArrowRight"":17}","false","ArrowDown,ArrowRight","false","revaluation","1","14","","",""
"html-keyboard-response","134","731080","0.0-4.0-2.0-1.7","spark_pilot_norest","8309","4","8","Male","","","","","","","null","<div style=""font-size:60px;"">+</div>","null","fixation","","","","","","","","","15","","",""
"revaluation","135","737116","0.0-4.0-2.0-0.8","spark_pilot_norest","8309","4","8","Male","","false","","","","","[801.3999996185303,248]","./assets/img/ocean/memory/3.jpg","[""ArrowDown"",""ArrowRight""]","value training","ocean","17","{""ArrowUp,ArrowLeft"":26,""ArrowUp,ArrowRight"":10,""ArrowDown,ArrowLeft"":5,""ArrowDown,ArrowRight"":17}","false","ArrowDown,ArrowRight","false","revaluation","1","16","","",""
"html-keyboard-response","136","737647","0.0-4.0-2.0-1.8","spark_pilot_norest","8309","4","8","Male","","","","","","","null","<div style=""font-size:60px;"">+</div>","null","fixation","","","","","","","","","17","","",""
"revaluation","137","741669","0.0-4.0-2.0-0.9","spark_pilot_norest","8309","4","8","Male","","true","","","","","[]","./assets/img/ocean/memory/8.jpg","[]","value training","ocean","-5","{""ArrowUp,ArrowLeft"":26,""ArrowUp,ArrowRight"":10,""ArrowDown,ArrowLeft"":5,""ArrowDown,ArrowRight"":17}","false","","false","revaluation","1","18","","",""
"html-keyboard-response","138","742172","0.0-4.0-2.0-1.9","spark_pilot_norest","8309","4","8","Male","","","","","","","null","<div style=""font-size:60px;"">+</div>","null","fixation","","","","","","","","","19","","",""
"revaluation","139","748218","0.0-4.0-2.0-0.10","spark_pilot_norest","8309","4","8","Male","","false","","","","","[780.9000005722046,627]","./assets/img/ocean/memory/28.jpg","[""ArrowDown"",""ArrowLeft""]","value training","ocean","5","{""ArrowUp,ArrowLeft"":26,""ArrowUp,ArrowRight"":10,""ArrowDown,ArrowLeft"":5,""ArrowDown,ArrowRight"":17}","false","ArrowDown,ArrowLeft","false","revaluation","1","20","","",""
"html-keyboard-response","140","748722","0.0-4.0-2.0-1.10","spark_pilot_norest","8309","4","8","Male","","","","","","","null","<div style=""font-size:60px;"">+</div>","null","fixation","","","","","","","","","21","","",""
"revaluation","141","754774","0.0-4.0-2.0-0.11","spark_pilot_norest","8309","4","8","Male","","false","","","","","[336.4000005722046,409.80000019073486]","./assets/img/ocean/memory/34.jpg","[""ArrowUp"",""ArrowRight""]","value training","ocean","10","{""ArrowUp,ArrowLeft"":26,""ArrowUp,ArrowRight"":10,""ArrowDown,ArrowLeft"":5,""ArrowDown,ArrowRight"":17}","false","ArrowUp,ArrowRight","false","revaluation","1","22","","",""
"html-keyboard-response","142","755290","0.0-4.0-2.0-1.11","spark_pilot_norest","8309","4","8","Male","","","","","","","null","<div style=""font-size:60px;"">+</div>","null","fixation","","","","","","","","","23","","",""
"revaluation","143","759378","0.0-4.0-2.0-0.12","spark_pilot_norest","8309","4","8","Male","","true","","","","","[]","./assets/img/ocean/memory/7.jpg","[]","value training","ocean","-5","{""ArrowUp,ArrowLeft"":26,""ArrowUp,ArrowRight"":10,""ArrowDown,ArrowLeft"":5,""ArrowDown,ArrowRight"":17}","false","","false","revaluation","1","24","","",""
"html-keyboard-response","144","759909","0.0-4.0-2.0-1.12","spark_pilot_norest","8309","4","8","Male","","","","","","","null","<div style=""font-size:60px;"">+</div>","null","fixation","","","","","","","","","25","","",""
"revaluation","145","763927","0.0-4.0-2.0-0.13","spark_pilot_norest","8309","4","8","Male","","true","","","","","[]","./assets/img/ocean/memory/20.jpg","[]","value training","ocean","-5","{""ArrowUp,ArrowLeft"":26,""ArrowUp,ArrowRight"":10,""ArrowDown,ArrowLeft"":5,""ArrowDown,ArrowRight"":17}","false","","false","revaluation","1","26","","",""
"html-keyboard-response","146","764444","0.0-4.0-2.0-1.13","spark_pilot_norest","8309","4","8","Male","","","","","","","null","<div style=""font-size:60px;"">+</div>","null","fixation","","","","","","","","","27","","",""
"revaluation","147","768492","0.0-4.0-2.0-0.14","spark_pilot_norest","8309","4","8","Male","","true","","","","","[]","./assets/img/ocean/memory/31.jpg","[]","value training","ocean","-5","{""ArrowUp,ArrowLeft"":26,""ArrowUp,ArrowRight"":10,""ArrowDown,ArrowLeft"":5,""ArrowDown,ArrowRight"":17}","false","","false","revaluation","1","28","","",""
"html-keyboard-response","148","769006","0.0-4.0-2.0-1.14","spark_pilot_norest","8309","4","8","Male","","","","","","","null","<div style=""font-size:60px;"">+</div>","null","fixation","","","","","","","","","29","","",""
"revaluation","149","775056","0.0-4.0-2.0-0.15","spark_pilot_norest","8309","4","8","Male","","false","","","","","[658.8000001907349,659.8999996185303]","./assets/img/ocean/memory/32.jpg","[""ArrowUp"",""ArrowLeft""]","value training","ocean","26","{""ArrowUp,ArrowLeft"":26,""ArrowUp,ArrowRight"":10,""ArrowDown,ArrowLeft"":5,""ArrowDown,ArrowRight"":17}","true","ArrowUp,ArrowLeft","false","revaluation","1","30","","",""
"html-keyboard-response","150","775577","0.0-4.0-2.0-1.15","spark_pilot_norest","8309","4","8","Male","","","","","","","null","<div style=""font-size:60px;"">+</div>","null","fixation","","","","","","","","","31","","",""
"revaluation","151","779597","0.0-4.0-2.0-0.16","spark_pilot_norest","8309","4","8","Male","","false","","","","","[873.1999998092651]","./assets/img/ocean/catch/7.jpg","[""spaceBar""]","value training","ocean","0","{""ArrowUp,ArrowLeft"":26,""ArrowUp,ArrowRight"":10,""ArrowDown,ArrowLeft"":5,""ArrowDown,ArrowRight"":17}","true","spaceBar","true","revaluation","1","32","","",""
"html-keyboard-response","152","780098","0.0-4.0-2.0-1.16","spark_pilot_norest","8309","4","8","Male","","","","","","","null","<div style=""font-size:60px;"">+</div>","null","fixation","","","","","","","","","33","","",""
"revaluation","153","786129","0.0-4.0-2.0-0.17","spark_pilot_norest","8309","4","8","Male","","false","","","","","[811,150.4000005722046]","./assets/img/ocean/memory/23.jpg","[""ArrowUp"",""ArrowRight""]","value training","ocean","10","{""ArrowUp,ArrowLeft"":26,""ArrowUp,ArrowRight"":10,""ArrowDown,ArrowLeft"":5,""ArrowDown,ArrowRight"":17}","false","ArrowUp,ArrowRight","false","revaluation","1","34","","",""
"html-keyboard-response","154","786645","0.0-4.0-2.0-1.17","spark_pilot_norest","8309","4","8","Male","","","","","","","null","<div style=""font-size:60px;"">+</div>","null","fixation","","","","","","","","","35","","",""
"revaluation","155","790671","0.0-4.0-2.0-0.18","spark_pilot_norest","8309","4","8","Male","","false","","","","","[1111.1000003814697]","./assets/img/ocean/catch/5.jpg","[""ArrowDown""]","value training","ocean","-10","{""ArrowUp,ArrowLeft"":26,""ArrowUp,ArrowRight"":10,""ArrowDown,ArrowLeft"":5,""ArrowDown,ArrowRight"":17}","false","ArrowDown","true","revaluation","1","36","","",""
"html-keyboard-response","156","791187","0.0-4.0-2.0-1.18","spark_pilot_norest","8309","4","8","Male","","","","","","","null","<div style=""font-size:60px;"">+</div>","null","fixation","","","","","","","","","37","","",""
"revaluation","157","797224","0.0-4.0-2.0-0.19","spark_pilot_norest","8309","4","8","Male","","false","","","","","[1198.0999994277954,827]","./assets/img/ocean/memory/39.jpg","[""ArrowDown"",""ArrowLeft""]","value training","ocean","5","{""ArrowUp,ArrowLeft"":26,""ArrowUp,ArrowRight"":10,""ArrowDown,ArrowLeft"":5,""ArrowDown,ArrowRight"":17}","false","ArrowDown,ArrowLeft","false","revaluation","1","38","","",""
"html-keyboard-response","158","797740","0.0-4.0-2.0-1.19","spark_pilot_norest","8309","4","8","Male","","","","","","","null","<div style=""font-size:60px;"">+</div>","null","fixation","","","","","","","","","39","","",""
"revaluation","159","803760","0.0-4.0-2.0-0.20","spark_pilot_norest","8309","4","8","Male","","false","","","","","[650.5,339.5999994277954]","./assets/img/ocean/memory/29.jpg","[""ArrowDown"",""ArrowLeft""]","value training","ocean","5","{""ArrowUp,ArrowLeft"":26,""ArrowUp,ArrowRight"":10,""ArrowDown,ArrowLeft"":5,""ArrowDown,ArrowRight"":17}","false","ArrowDown,ArrowLeft","false","revaluation","1","40","","",""
"html-keyboard-response","160","804277","0.0-4.0-2.0-1.20","spark_pilot_norest","8309","4","8","Male","","","","","","","null","<div style=""font-size:60px;"">+</div>","null","fixation","","","","","","","","","41","","",""
"revaluation","161","810319","0.0-4.0-2.0-0.21","spark_pilot_norest","8309","4","8","Male","","false","","","","","[952.9000005722046,702.6000003814697]","./assets/img/ocean/memory/13.jpg","[""ArrowUp"",""ArrowRight""]","value training","ocean","10","{""ArrowUp,ArrowLeft"":26,""ArrowUp,ArrowRight"":10,""ArrowDown,ArrowLeft"":5,""ArrowDown,ArrowRight"":17}","false","ArrowUp,ArrowRight","false","revaluation","1","42","","",""
"html-keyboard-response","162","810850","0.0-4.0-2.0-1.21","spark_pilot_norest","8309","4","8","Male","","","","","","","null","<div style=""font-size:60px;"">+</div>","null","fixation","","","","","","","","","43","","",""
"revaluation","163","816887","0.0-4.0-2.0-0.22","spark_pilot_norest","8309","4","8","Male","","false","","","","","[1157.3000001907349,1598.6999998092651]","./assets/img/ocean/memory/33.jpg","[""ArrowUp"",""ArrowLeft""]","value training","ocean","26","{""ArrowUp,ArrowLeft"":26,""ArrowUp,ArrowRight"":10,""ArrowDown,ArrowLeft"":5,""ArrowDown,ArrowRight"":17}","true","ArrowUp,ArrowLeft","false","revaluation","1","44","","",""
"html-keyboard-response","164","817428","0.0-4.0-2.0-1.22","spark_pilot_norest","8309","4","8","Male","","","","","","","null","<div style=""font-size:60px;"">+</div>","null","fixation","","","","","","","","","45","","",""
"revaluation","165","821442","0.0-4.0-2.0-0.23","spark_pilot_norest","8309","4","8","Male","","false","","","","","[883.5]","./assets/img/ocean/catch/2.jpg","[""spaceBar""]","value training","ocean","0","{""ArrowUp,ArrowLeft"":26,""ArrowUp,ArrowRight"":10,""ArrowDown,ArrowLeft"":5,""ArrowDown,ArrowRight"":17}","true","spaceBar","true","revaluation","1","46","","",""
"html-keyboard-response","166","821944","0.0-4.0-2.0-1.23","spark_pilot_norest","8309","4","8","Male","","","","","","","null","<div style=""font-size:60px;"">+</div>","null","fixation","","","","","","","","","47","","",""
"revaluation","167","827966","0.0-4.0-2.0-0.24","spark_pilot_norest","8309","4","8","Male","","false","","","","","[354.6000003814697,741.8999996185303]","./assets/img/ocean/memory/33.jpg","[""ArrowDown"",""ArrowLeft""]","value training","ocean","5","{""ArrowUp,ArrowLeft"":26,""ArrowUp,ArrowRight"":10,""ArrowDown,ArrowLeft"":5,""ArrowDown,ArrowRight"":17}","false","ArrowDown,ArrowLeft","false","revaluation","1","48","","",""
"html-keyboard-response","168","828469","0.0-4.0-2.0-1.24","spark_pilot_norest","8309","4","8","Male","","","","","","","null","<div style=""font-size:60px;"">+</div>","null","fixation","","","","","","","","","49","","",""
"revaluation","169","834509","0.0-4.0-2.0-0.25","spark_pilot_norest","8309","4","8","Male","","false","","","","","[649.2999992370605,521.6000003814697]","./assets/img/ocean/memory/34.jpg","[""ArrowDown"",""ArrowRight""]","value training","ocean","17","{""ArrowUp,ArrowLeft"":26,""ArrowUp,ArrowRight"":10,""ArrowDown,ArrowLeft"":5,""ArrowDown,ArrowRight"":17}","false","ArrowDown,ArrowRight","false","revaluation","1","50","","",""
"html-keyboard-response","170","835012","0.0-4.0-2.0-1.25","spark_pilot_norest","8309","4","8","Male","","","","","","","null","<div style=""font-size:60px;"">+</div>","null","fixation","","","","","","","","","51","","",""
"revaluation","171","841035","0.0-4.0-2.0-0.26","spark_pilot_norest","8309","4","8","Male","","false","","","","","[1001.8000001907349,1264.8000001907349]","./assets/img/ocean/memory/24.jpg","[""ArrowDown"",""ArrowLeft""]","value training","ocean","5","{""ArrowUp,ArrowLeft"":26,""ArrowUp,ArrowRight"":10,""ArrowDown,ArrowLeft"":5,""ArrowDown,ArrowRight"":17}","false","ArrowDown,ArrowLeft","false","revaluation","1","52","","",""
"html-keyboard-response","172","841575","0.0-4.0-2.0-1.26","spark_pilot_norest","8309","4","8","Male","","","","","","","null","<div style=""font-size:60px;"">+</div>","null","fixation","","","","","","","","","53","","",""
"revaluation","173","847602","0.0-4.0-2.0-0.27","spark_pilot_norest","8309","4","8","Male","","false","","","","","[1054.4000005722046,600.1999998092651]","./assets/img/ocean/memory/13.jpg","[""ArrowUp"",""ArrowLeft""]","value training","ocean","26","{""ArrowUp,ArrowLeft"":26,""ArrowUp,ArrowRight"":10,""ArrowDown,ArrowLeft"":5,""ArrowDown,ArrowRight"":17}","true","ArrowUp,ArrowLeft","false","revaluation","1","54","","",""
"html-keyboard-response","174","848113","0.0-4.0-2.0-1.27","spark_pilot_norest","8309","4","8","Male","","","","","","","null","<div style=""font-size:60px;"">+</div>","null","fixation","","","","","","","","","55","","",""
"revaluation","175","854138","0.0-4.0-2.0-0.28","spark_pilot_norest","8309","4","8","Male","","false","","","","","[832.3000001907349,847.4000005722046]","./assets/img/ocean/memory/14.jpg","[""ArrowDown"",""ArrowRight""]","value training","ocean","17","{""ArrowUp,ArrowLeft"":26,""ArrowUp,ArrowRight"":10,""ArrowDown,ArrowLeft"":5,""ArrowDown,ArrowRight"":17}","false","ArrowDown,ArrowRight","false","revaluation","1","56","","",""
"html-keyboard-response","176","854645","0.0-4.0-2.0-1.28","spark_pilot_norest","8309","4","8","Male","","","","","","","null","<div style=""font-size:60px;"">+</div>","null","fixation","","","","","","","","","57","","",""
"revaluation","177","860685","0.0-4.0-2.0-0.29","spark_pilot_norest","8309","4","8","Male","","false","","","","","[853.1999998092651,945.6000003814697]","./assets/img/ocean/memory/41.jpg","[""ArrowDown"",""ArrowRight""]","value training","ocean","17","{""ArrowUp,ArrowLeft"":26,""ArrowUp,ArrowRight"":10,""ArrowDown,ArrowLeft"":5,""ArrowDown,ArrowRight"":17}","false","ArrowDown,ArrowRight","false","revaluation","1","58","","",""
"html-keyboard-response","178","861201","0.0-4.0-2.0-1.29","spark_pilot_norest","8309","4","8","Male","","","","","","","null","<div style=""font-size:60px;"">+</div>","null","fixation","","","","","","","","","59","","",""
"revaluation","179","867251","0.0-4.0-2.0-0.30","spark_pilot_norest","8309","4","8","Male","","false","","","","","[297.19999980926514,438.4000005722046]","./assets/img/ocean/memory/32.jpg","[""ArrowUp"",""ArrowLeft""]","value training","ocean","26","{""ArrowUp,ArrowLeft"":26,""ArrowUp,ArrowRight"":10,""ArrowDown,ArrowLeft"":5,""ArrowDown,ArrowRight"":17}","true","ArrowUp,ArrowLeft","false","revaluation","1","60","","",""
"html-keyboard-response","180","867766","0.0-4.0-2.0-1.30","spark_pilot_norest","8309","4","8","Male","","","","","","","null","<div style=""font-size:60px;"">+</div>","null","fixation","","","","","","","","","61","","",""
"revaluation","181","873815","0.0-4.0-2.0-0.31","spark_pilot_norest","8309","4","8","Male","","false","","","","","[960.6999998092651,558.3000001907349]","./assets/img/ocean/memory/11.jpg","[""ArrowDown"",""ArrowRight""]","value training","ocean","17","{""ArrowUp,ArrowLeft"":26,""ArrowUp,ArrowRight"":10,""ArrowDown,ArrowLeft"":5,""ArrowDown,ArrowRight"":17}","false","ArrowDown,ArrowRight","false","revaluation","1","62","","",""
"html-keyboard-response","182","874337","0.0-4.0-2.0-1.31","spark_pilot_norest","8309","4","8","Male","","","","","","","null","<div style=""font-size:60px;"">+</div>","null","fixation","","","","","","","","","63","","",""
"revaluation","183","880364","0.0-4.0-2.0-0.32","spark_pilot_norest","8309","4","8","Male","","false","","","","","[1154.6000003814697,636.3999996185303]","./assets/img/ocean/memory/18.jpg","[""ArrowUp"",""ArrowLeft""]","value training","ocean","26","{""ArrowUp,ArrowLeft"":26,""ArrowUp,ArrowRight"":10,""ArrowDown,ArrowLeft"":5,""ArrowDown,ArrowRight"":17}","true","ArrowUp,ArrowLeft","false","revaluation","1","64","","",""
"html-keyboard-response","184","880895","0.0-4.0-2.0-1.32","spark_pilot_norest","8309","4","8","Male","","","","","","","null","<div style=""font-size:60px;"">+</div>","null","fixation","","","","","","","","","65","","",""
"revaluation","185","884918","0.0-4.0-2.0-0.33","spark_pilot_norest","8309","4","8","Male","","false","","","","","[1145.0999994277954]","./assets/img/ocean/catch/4.jpg","[""spaceBar""]","value training","ocean","0","{""ArrowUp,ArrowLeft"":26,""ArrowUp,ArrowRight"":10,""ArrowDown,ArrowLeft"":5,""ArrowDown,ArrowRight"":17}","true","spaceBar","true","revaluation","1","66","","",""
"html-keyboard-response","186","885427","0.0-4.0-2.0-1.33","spark_pilot_norest","8309","4","8","Male","","","","","","","null","<div style=""font-size:60px;"">+</div>","null","fixation","","","","","","","","","67","","",""
"revaluation","187","891461","0.0-4.0-2.0-0.34","spark_pilot_norest","8309","4","8","Male","","false","","","","","[1301,889.1000003814697]","./assets/img/ocean/memory/20.jpg","[""ArrowDown"",""ArrowRight""]","value training","ocean","17","{""ArrowUp,ArrowLeft"":26,""ArrowUp,ArrowRight"":10,""ArrowDown,ArrowLeft"":5,""ArrowDown,ArrowRight"":17}","false","ArrowDown,ArrowRight","false","revaluation","1","68","","",""
"html-keyboard-response","188","891971","0.0-4.0-2.0-1.34","spark_pilot_norest","8309","4","8","Male","","","","","","","null","<div style=""font-size:60px;"">+</div>","null","fixation","","","","","","","","","69","","",""
"revaluation","189","897987","0.0-4.0-2.0-0.35","spark_pilot_norest","8309","4","8","Male","","false","","","","","[876,985.2000007629395]","./assets/img/ocean/memory/28.jpg","[""ArrowUp"",""ArrowLeft""]","value training","ocean","26","{""ArrowUp,ArrowLeft"":26,""ArrowUp,ArrowRight"":10,""ArrowDown,ArrowLeft"":5,""ArrowDown,ArrowRight"":17}","true","ArrowUp,ArrowLeft","false","revaluation","1","70","","",""
"html-keyboard-response","190","898519","0.0-4.0-2.0-1.35","spark_pilot_norest","8309","4","8","Male","","","","","","","null","<div style=""font-size:60px;"">+</div>","null","fixation","","","","","","","","","71","","",""
"revaluation","191","904571","0.0-4.0-2.0-0.36","spark_pilot_norest","8309","4","8","Male","","false","","","","","[857.6999998092651,817.1000003814697]","./assets/img/ocean/memory/41.jpg","[""ArrowDown"",""ArrowRight""]","value training","ocean","17","{""ArrowUp,ArrowLeft"":26,""ArrowUp,ArrowRight"":10,""ArrowDown,ArrowLeft"":5,""ArrowDown,ArrowRight"":17}","false","ArrowDown,ArrowRight","false","revaluation","1","72","","",""
"html-keyboard-response","192","905087","0.0-4.0-2.0-1.36","spark_pilot_norest","8309","4","8","Male","","","","","","","null","<div style=""font-size:60px;"">+</div>","null","fixation","","","","","","","","","73","","",""
"revaluation","193","909109","0.0-4.0-2.0-0.37","spark_pilot_norest","8309","4","8","Male","","false","","","","","[859]","./assets/img/ocean/catch/1.jpg","[""spaceBar""]","value training","ocean","0","{""ArrowUp,ArrowLeft"":26,""ArrowUp,ArrowRight"":10,""ArrowDown,ArrowLeft"":5,""ArrowDown,ArrowRight"":17}","true","spaceBar","true","revaluation","1","74","","",""
"html-keyboard-response","194","909625","0.0-4.0-2.0-1.37","spark_pilot_norest","8309","4","8","Male","","","","","","","null","<div style=""font-size:60px;"">+</div>","null","fixation","","","","","","","","","75","","",""
"revaluation","195","915643","0.0-4.0-2.0-0.38","spark_pilot_norest","8309","4","8","Male","","false","","","","","[1411.3999996185303,1139.3999996185303]","./assets/img/ocean/memory/14.jpg","[""ArrowDown"",""ArrowLeft""]","value training","ocean","5","{""ArrowUp,ArrowLeft"":26,""ArrowUp,ArrowRight"":10,""ArrowDown,ArrowLeft"":5,""ArrowDown,ArrowRight"":17}","false","ArrowDown,ArrowLeft","false","revaluation","1","76","","",""
"html-keyboard-response","196","916175","0.0-4.0-2.0-1.38","spark_pilot_norest","8309","4","8","Male","","","","","","","null","<div style=""font-size:60px;"">+</div>","null","fixation","","","","","","","","","77","","",""
"revaluation","197","922249","0.0-4.0-2.0-0.39","spark_pilot_norest","8309","4","8","Male","","false","","","","","[786.3999996185303,1004]","./assets/img/ocean/memory/23.jpg","[""ArrowUp"",""ArrowRight""]","value training","ocean","10","{""ArrowUp,ArrowLeft"":26,""ArrowUp,ArrowRight"":10,""ArrowDown,ArrowLeft"":5,""ArrowDown,ArrowRight"":17}","false","ArrowUp,ArrowRight","false","revaluation","1","78","","",""
"html-keyboard-response","198","922781","0.0-4.0-2.0-1.39","spark_pilot_norest","8309","4","8","Male","","","","","","","null","<div style=""font-size:60px;"">+</div>","null","fixation","","","","","","","","","79","","",""
"revaluation","199","928818","0.0-4.0-2.0-0.40","spark_pilot_norest","8309","4","8","Male","","false","","","","","[1049.9000005722046,914.1999998092651]","./assets/img/ocean/memory/8.jpg","[""ArrowDown"",""ArrowRight""]","value training","ocean","17","{""ArrowUp,ArrowLeft"":26,""ArrowUp,ArrowRight"":10,""ArrowDown,ArrowLeft"":5,""ArrowDown,ArrowRight"":17}","false","ArrowDown,ArrowRight","false","revaluation","1","80","","",""
"html-keyboard-response","200","929349","0.0-4.0-2.0-1.40","spark_pilot_norest","8309","4","8","Male","","","","","","","null","<div style=""font-size:60px;"">+</div>","null","fixation","","","","","","","","","81","","",""
"revaluation","201","935385","0.0-4.0-2.0-0.41","spark_pilot_norest","8309","4","8","Male","","false","","","","","[1125.6000003814697,1362.8000001907349]","./assets/img/ocean/memory/11.jpg","[""ArrowDown"",""ArrowLeft""]","value training","ocean","5","{""ArrowUp,ArrowLeft"":26,""ArrowUp,ArrowRight"":10,""ArrowDown,ArrowLeft"":5,""ArrowDown,ArrowRight"":17}","false","ArrowDown,ArrowLeft","false","revaluation","1","82","","",""
"html-keyboard-response","202","935916","0.0-4.0-2.0-1.41","spark_pilot_norest","8309","4","8","Male","","","","","","","null","<div style=""font-size:60px;"">+</div>","null","fixation","","","","","","","","","83","","",""
"revaluation","203","941945","0.0-4.0-2.0-0.42","spark_pilot_norest","8309","4","8","Male","","false","","","","","[945.3000001907349,448]","./assets/img/ocean/memory/29.jpg","[""ArrowUp"",""ArrowRight""]","value training","ocean","10","{""ArrowUp,ArrowLeft"":26,""ArrowUp,ArrowRight"":10,""ArrowDown,ArrowLeft"":5,""ArrowDown,ArrowRight"":17}","false","ArrowUp,ArrowRight","false","revaluation","1","84","","",""
"html-keyboard-response","204","942463","0.0-4.0-2.0-1.42","spark_pilot_norest","8309","4","8","Male","","","","","","","null","<div style=""font-size:60px;"">+</div>","null","fixation","","","","","","","","","85","","",""
"revaluation","205","948492","0.0-4.0-2.0-0.43","spark_pilot_norest","8309","4","8","Male","","false","","","","","[1458.3999996185303,561.5999994277954]","./assets/img/ocean/memory/25.jpg","[""ArrowUp"",""ArrowRight""]","value training","ocean","10","{""ArrowUp,ArrowLeft"":26,""ArrowUp,ArrowRight"":10,""ArrowDown,ArrowLeft"":5,""ArrowDown,ArrowRight"":17}","false","ArrowUp,ArrowRight","false","revaluation","1","86","","",""
"html-keyboard-response","206","949007","0.0-4.0-2.0-1.43","spark_pilot_norest","8309","4","8","Male","","","","","","","null","<div style=""font-size:60px;"">+</div>","null","fixation","","","","","","","","","87","","",""
"revaluation","207","953034","0.0-4.0-2.0-0.44","spark_pilot_norest","8309","4","8","Male","","false","","","","","[1094.7999992370605]","./assets/img/ocean/catch/6.jpg","[""spaceBar""]","value training","ocean","0","{""ArrowUp,ArrowLeft"":26,""ArrowUp,ArrowRight"":10,""ArrowDown,ArrowLeft"":5,""ArrowDown,ArrowRight"":17}","true","spaceBar","true","revaluation","1","88","","",""
"html-keyboard-response","208","953549","0.0-4.0-2.0-1.44","spark_pilot_norest","8309","4","8","Male","","","","","","","null","<div style=""font-size:60px;"">+</div>","null","fixation","","","","","","","","","89","","",""
"revaluation","209","959592","0.0-4.0-2.0-0.45","spark_pilot_norest","8309","4","8","Male","","false","","","","","[975.3000001907349,971]","./assets/img/ocean/memory/3.jpg","[""ArrowDown"",""ArrowRight""]","value training","ocean","17","{""ArrowUp,ArrowLeft"":26,""ArrowUp,ArrowRight"":10,""ArrowDown,ArrowLeft"":5,""ArrowDown,ArrowRight"":17}","false","ArrowDown,ArrowRight","false","revaluation","1","90","","",""
"html-keyboard-response","210","960107","0.0-4.0-2.0-1.45","spark_pilot_norest","8309","4","8","Male","","","","","","","null","<div style=""font-size:60px;"">+</div>","null","fixation","","","","","","","","","91","","",""
"revaluation","211","966158","0.0-4.0-2.0-0.46","spark_pilot_norest","8309","4","8","Male","","false","","","","","[564.6000003814697,1392]","./assets/img/ocean/memory/17.jpg","[""ArrowDown"",""ArrowLeft""]","value training","ocean","5","{""ArrowUp,ArrowLeft"":26,""ArrowUp,ArrowRight"":10,""ArrowDown,ArrowLeft"":5,""ArrowDown,ArrowRight"":17}","false","ArrowDown,ArrowLeft","false","revaluation","1","92","","",""
"html-keyboard-response","212","966673","0.0-4.0-2.0-1.46","spark_pilot_norest","8309","4","8","Male","","","","","","","null","<div style=""font-size:60px;"">+</div>","null","fixation","","","","","","","","","93","","",""
"revaluation","213","972704","0.0-4.0-2.0-0.47","spark_pilot_norest","8309","4","8","Male","","false","","","","","[637.0999994277954,497.0999994277954]","./assets/img/ocean/memory/36.jpg","[""ArrowUp"",""ArrowRight""]","value training","ocean","10","{""ArrowUp,ArrowLeft"":26,""ArrowUp,ArrowRight"":10,""ArrowDown,ArrowLeft"":5,""ArrowDown,ArrowRight"":17}","false","ArrowUp,ArrowRight","false","revaluation","1","94","","",""
"html-keyboard-response","214","973213","0.0-4.0-2.0-1.47","spark_pilot_norest","8309","4","8","Male","","","","","","","null","<div style=""font-size:60px;"">+</div>","null","fixation","","","","","","","","","95","","",""
"revaluation","215","979223","0.0-4.0-2.0-0.48","spark_pilot_norest","8309","4","8","Male","","false","","","","","[1419.4000005722046,580.5]","./assets/img/ocean/memory/31.jpg","[""ArrowUp"",""ArrowLeft""]","value training","ocean","26","{""ArrowUp,ArrowLeft"":26,""ArrowUp,ArrowRight"":10,""ArrowDown,ArrowLeft"":5,""ArrowDown,ArrowRight"":17}","true","ArrowUp,ArrowLeft","false","revaluation","1","96","","",""
"html-keyboard-response","216","979755","0.0-4.0-2.0-1.48","spark_pilot_norest","8309","4","8","Male","","","","","","","null","<div style=""font-size:60px;"">+</div>","null","fixation","","","","","","","","","97","","",""
"revaluation","217","985787","0.0-4.0-2.0-0.49","spark_pilot_norest","8309","4","8","Male","","false","","","","","[620.3000001907349,580.3999996185303]","./assets/img/ocean/memory/25.jpg","[""ArrowUp"",""ArrowRight""]","value training","ocean","10","{""ArrowUp,ArrowLeft"":26,""ArrowUp,ArrowRight"":10,""ArrowDown,ArrowLeft"":5,""ArrowDown,ArrowRight"":17}","false","ArrowUp,ArrowRight","false","revaluation","1","98","","",""
"html-keyboard-response","218","986321","0.0-4.0-2.0-1.49","spark_pilot_norest","8309","4","8","Male","","","","","","","null","<div style=""font-size:60px;"">+</div>","null","fixation","","","","","","","","","99","","",""
"learning-instructions","219","1006221","0.0-4.0-3.0-0.0","spark_pilot_norest","8309","4","8","Male","","","","","","","6314.39999961853","<p> Now, you will travel with a friend who will choose whether you go up or down first. </p>
            <p> On these turns, you will just see the animal that they found. You will still get to choose which chest to search for treasure.</p>","","instructions","","","","","","","","","","","",""
"revaluation","220","1010252","0.0-4.0-4.0-0.0","spark_pilot_norest","8309","4","8","Male","","false","","","","","[921.8000001907349]","./assets/img/ocean/animals/seahorse.jpg","[""ArrowRight""]","revaluation","ocean","27","{""ArrowUp,ArrowLeft"":2,""ArrowUp,ArrowRight"":11,""ArrowDown,ArrowLeft"":8,""ArrowDown,ArrowRight"":27}","true","ArrowDown,ArrowRight","","revaluation","1","0","","",""
"html-keyboard-response","221","1010765","0.0-4.0-4.0-1.0","spark_pilot_norest","8309","4","8","Male","","","","","","","null","<div style=""font-size:60px;"">+</div>","null","fixation","","","","","","","","","1","","",""
"revaluation","222","1014791","0.0-4.0-4.0-0.1","spark_pilot_norest","8309","4","8","Male","","false","","","","","[554]","./assets/img/ocean/animals/octopus.jpg","[""ArrowLeft""]","revaluation","ocean","2","{""ArrowUp,ArrowLeft"":2,""ArrowUp,ArrowRight"":11,""ArrowDown,ArrowLeft"":8,""ArrowDown,ArrowRight"":27}","false","ArrowUp,ArrowLeft","","revaluation","1","2","","",""
"html-keyboard-response","223","1015295","0.0-4.0-4.0-1.1","spark_pilot_norest","8309","4","8","Male","","","","","","","null","<div style=""font-size:60px;"">+</div>","null","fixation","","","","","","","","","3","","",""
"revaluation","224","1019315","0.0-4.0-4.0-0.2","spark_pilot_norest","8309","4","8","Male","","false","","","","","[371.69999980926514]","./assets/img/ocean/animals/octopus.jpg","[""ArrowRight""]","revaluation","ocean","11","{""ArrowUp,ArrowLeft"":2,""ArrowUp,ArrowRight"":11,""ArrowDown,ArrowLeft"":8,""ArrowDown,ArrowRight"":27}","true","ArrowUp,ArrowRight","","revaluation","1","4","","",""
"html-keyboard-response","225","1019835","0.0-4.0-4.0-1.2","spark_pilot_norest","8309","4","8","Male","","","","","","","null","<div style=""font-size:60px;"">+</div>","null","fixation","","","","","","","","","5","","",""
"revaluation","226","1023875","0.0-4.0-4.0-0.3","spark_pilot_norest","8309","4","8","Male","","false","","","","","[355.29999923706055]","./assets/img/ocean/animals/seahorse.jpg","[""ArrowLeft""]","revaluation","ocean","8","{""ArrowUp,ArrowLeft"":2,""ArrowUp,ArrowRight"":11,""ArrowDown,ArrowLeft"":8,""ArrowDown,ArrowRight"":27}","false","ArrowDown,ArrowLeft","","revaluation","1","6","","",""
"html-keyboard-response","227","1024383","0.0-4.0-4.0-1.3","spark_pilot_norest","8309","4","8","Male","","","","","","","null","<div style=""font-size:60px;"">+</div>","null","fixation","","","","","","","","","7","","",""
"revaluation","228","1028405","0.0-4.0-4.0-0.4","spark_pilot_norest","8309","4","8","Male","","false","","","","","[383]","./assets/img/ocean/animals/seahorse.jpg","[""ArrowRight""]","revaluation","ocean","27","{""ArrowUp,ArrowLeft"":2,""ArrowUp,ArrowRight"":11,""ArrowDown,ArrowLeft"":8,""ArrowDown,ArrowRight"":27}","true","ArrowDown,ArrowRight","","revaluation","1","8","","",""
"html-keyboard-response","229","1028919","0.0-4.0-4.0-1.4","spark_pilot_norest","8309","4","8","Male","","","","","","","null","<div style=""font-size:60px;"">+</div>","null","fixation","","","","","","","","","9","","",""
"revaluation","230","1032942","0.0-4.0-4.0-0.5","spark_pilot_norest","8309","4","8","Male","","false","","","","","[699.3000001907349]","./assets/img/ocean/animals/octopus.jpg","[""ArrowLeft""]","revaluation","ocean","2","{""ArrowUp,ArrowLeft"":2,""ArrowUp,ArrowRight"":11,""ArrowDown,ArrowLeft"":8,""ArrowDown,ArrowRight"":27}","false","ArrowUp,ArrowLeft","","revaluation","1","10","","",""
"html-keyboard-response","231","1033445","0.0-4.0-4.0-1.5","spark_pilot_norest","8309","4","8","Male","","","","","","","null","<div style=""font-size:60px;"">+</div>","null","fixation","","","","","","","","","11","","",""
"revaluation","232","1037465","0.0-4.0-4.0-0.6","spark_pilot_norest","8309","4","8","Male","","false","","","","","[424.80000019073486]","./assets/img/ocean/animals/seahorse.jpg","[""ArrowRight""]","revaluation","ocean","27","{""ArrowUp,ArrowLeft"":2,""ArrowUp,ArrowRight"":11,""ArrowDown,ArrowLeft"":8,""ArrowDown,ArrowRight"":27}","true","ArrowDown,ArrowRight","","revaluation","1","12","","",""
"html-keyboard-response","233","1037982","0.0-4.0-4.0-1.6","spark_pilot_norest","8309","4","8","Male","","","","","","","null","<div style=""font-size:60px;"">+</div>","null","fixation","","","","","","","","","13","","",""
"revaluation","234","1042007","0.0-4.0-4.0-0.7","spark_pilot_norest","8309","4","8","Male","","false","","","","","[487.19999980926514]","./assets/img/ocean/animals/octopus.jpg","[""ArrowRight""]","revaluation","ocean","11","{""ArrowUp,ArrowLeft"":2,""ArrowUp,ArrowRight"":11,""ArrowDown,ArrowLeft"":8,""ArrowDown,ArrowRight"":27}","true","ArrowUp,ArrowRight","","revaluation","1","14","","",""
"html-keyboard-response","235","1042523","0.0-4.0-4.0-1.7","spark_pilot_norest","8309","4","8","Male","","","","","","","null","<div style=""font-size:60px;"">+</div>","null","fixation","","","","","","","","","15","","",""
"revaluation","236","1046538","0.0-4.0-4.0-0.8","spark_pilot_norest","8309","4","8","Male","","false","","","","","[893.8000001907349]","./assets/img/ocean/animals/octopus.jpg","[""ArrowRight""]","revaluation","ocean","11","{""ArrowUp,ArrowLeft"":2,""ArrowUp,ArrowRight"":11,""ArrowDown,ArrowLeft"":8,""ArrowDown,ArrowRight"":27}","true","ArrowUp,ArrowRight","","revaluation","1","16","","",""
"html-keyboard-response","237","1047054","0.0-4.0-4.0-1.8","spark_pilot_norest","8309","4","8","Male","","","","","","","null","<div style=""font-size:60px;"">+</div>","null","fixation","","","","","","","","","17","","",""
"revaluation","238","1051127","0.0-4.0-4.0-0.9","spark_pilot_norest","8309","4","8","Male","","false","","","","","[214.29999923706055]","./assets/img/ocean/animals/seahorse.jpg","[""ArrowRight""]","revaluation","ocean","27","{""ArrowUp,ArrowLeft"":2,""ArrowUp,ArrowRight"":11,""ArrowDown,ArrowLeft"":8,""ArrowDown,ArrowRight"":27}","true","ArrowDown,ArrowRight","","revaluation","1","18","","",""
"html-keyboard-response","239","1051669","0.0-4.0-4.0-1.9","spark_pilot_norest","8309","4","8","Male","","","","","","","null","<div style=""font-size:60px;"">+</div>","null","fixation","","","","","","","","","19","","",""
"revaluation","240","1055687","0.0-4.0-4.0-0.10","spark_pilot_norest","8309","4","8","Male","","false","","","","","[202.80000019073486]","./assets/img/ocean/animals/seahorse.jpg","[""ArrowLeft""]","revaluation","ocean","8","{""ArrowUp,ArrowLeft"":2,""ArrowUp,ArrowRight"":11,""ArrowDown,ArrowLeft"":8,""ArrowDown,ArrowRight"":27}","false","ArrowDown,ArrowLeft","","revaluation","1","20","","",""
"html-keyboard-response","241","1056203","0.0-4.0-4.0-1.10","spark_pilot_norest","8309","4","8","Male","","","","","","","null","<div style=""font-size:60px;"">+</div>","null","fixation","","","","","","","","","21","","",""
"revaluation","242","1060227","0.0-4.0-4.0-0.11","spark_pilot_norest","8309","4","8","Male","","false","","","","","[738]","./assets/img/ocean/animals/octopus.jpg","[""ArrowRight""]","revaluation","ocean","11","{""ArrowUp,ArrowLeft"":2,""ArrowUp,ArrowRight"":11,""ArrowDown,ArrowLeft"":8,""ArrowDown,ArrowRight"":27}","true","ArrowUp,ArrowRight","","revaluation","1","22","","",""
"html-keyboard-response","243","1060743","0.0-4.0-4.0-1.11","spark_pilot_norest","8309","4","8","Male","","","","","","","null","<div style=""font-size:60px;"">+</div>","null","fixation","","","","","","","","","23","","",""
"revaluation","244","1064752","0.0-4.0-4.0-0.12","spark_pilot_norest","8309","4","8","Male","","false","","","","","[1140.3999996185303]","./assets/img/ocean/animals/octopus.jpg","[""ArrowRight""]","revaluation","ocean","11","{""ArrowUp,ArrowLeft"":2,""ArrowUp,ArrowRight"":11,""ArrowDown,ArrowLeft"":8,""ArrowDown,ArrowRight"":27}","true","ArrowUp,ArrowRight","","revaluation","1","24","","",""
"html-keyboard-response","245","1065266","0.0-4.0-4.0-1.12","spark_pilot_norest","8309","4","8","Male","","","","","","","null","<div style=""font-size:60px;"">+</div>","null","fixation","","","","","","","","","25","","",""
"revaluation","246","1069339","0.0-4.0-4.0-0.13","spark_pilot_norest","8309","4","8","Male","","false","","","","","[928.8000001907349]","./assets/img/ocean/animals/seahorse.jpg","[""ArrowRight""]","revaluation","ocean","27","{""ArrowUp,ArrowLeft"":2,""ArrowUp,ArrowRight"":11,""ArrowDown,ArrowLeft"":8,""ArrowDown,ArrowRight"":27}","true","ArrowDown,ArrowRight","","revaluation","1","26","","",""
"html-keyboard-response","247","1069871","0.0-4.0-4.0-1.13","spark_pilot_norest","8309","4","8","Male","","","","","","","null","<div style=""font-size:60px;"">+</div>","null","fixation","","","","","","","","","27","","",""
"revaluation","248","1073889","0.0-4.0-4.0-0.14","spark_pilot_norest","8309","4","8","Male","","false","","","","","[484.0999994277954]","./assets/img/ocean/animals/seahorse.jpg","[""ArrowRight""]","revaluation","ocean","27","{""ArrowUp,ArrowLeft"":2,""ArrowUp,ArrowRight"":11,""ArrowDown,ArrowLeft"":8,""ArrowDown,ArrowRight"":27}","true","ArrowDown,ArrowRight","","revaluation","1","28","","",""
"html-keyboard-response","249","1074391","0.0-4.0-4.0-1.14","spark_pilot_norest","8309","4","8","Male","","","","","","","null","<div style=""font-size:60px;"">+</div>","null","fixation","","","","","","","","","29","","",""
"revaluation","250","1078410","0.0-4.0-4.0-0.15","spark_pilot_norest","8309","4","8","Male","","false","","","","","[160.4000005722046]","./assets/img/ocean/animals/octopus.jpg","[""ArrowRight""]","revaluation","ocean","11","{""ArrowUp,ArrowLeft"":2,""ArrowUp,ArrowRight"":11,""ArrowDown,ArrowLeft"":8,""ArrowDown,ArrowRight"":27}","true","ArrowUp,ArrowRight","","revaluation","1","30","","",""
"html-keyboard-response","251","1078926","0.0-4.0-4.0-1.15","spark_pilot_norest","8309","4","8","Male","","","","","","","null","<div style=""font-size:60px;"">+</div>","null","fixation","","","","","","","","","31","","",""
"revaluation","252","1082981","0.0-4.0-4.0-0.16","spark_pilot_norest","8309","4","8","Male","","false","","","","","[403.9000005722046]","./assets/img/ocean/animals/octopus.jpg","[""ArrowRight""]","revaluation","ocean","11","{""ArrowUp,ArrowLeft"":2,""ArrowUp,ArrowRight"":11,""ArrowDown,ArrowLeft"":8,""ArrowDown,ArrowRight"":27}","true","ArrowUp,ArrowRight","","revaluation","1","32","","",""
"html-keyboard-response","253","1083497","0.0-4.0-4.0-1.16","spark_pilot_norest","8309","4","8","Male","","","","","","","null","<div style=""font-size:60px;"">+</div>","null","fixation","","","","","","","","","33","","",""
"revaluation","254","1087522","0.0-4.0-4.0-0.17","spark_pilot_norest","8309","4","8","Male","","false","","","","","[477.9000005722046]","./assets/img/ocean/animals/seahorse.jpg","[""ArrowRight""]","revaluation","ocean","27","{""ArrowUp,ArrowLeft"":2,""ArrowUp,ArrowRight"":11,""ArrowDown,ArrowLeft"":8,""ArrowDown,ArrowRight"":27}","true","ArrowDown,ArrowRight","","revaluation","1","34","","",""
"html-keyboard-response","255","1088034","0.0-4.0-4.0-1.17","spark_pilot_norest","8309","4","8","Male","","","","","","","null","<div style=""font-size:60px;"">+</div>","null","fixation","","","","","","","","","35","","",""
"learning-instructions","256","1096816","0.0-4.0-5.0-0.0","spark_pilot_norest","8309","4","8","Male","","","","","","","null","<p> You have almost finished this part of the game! </p>
            <p> We are going to ask you to make a few more choices. </p>","","instructions","","","","","","","","","","","",""
"learning-instructions","257","1112796","0.0-4.0-5.0-0.1","spark_pilot_norest","8309","4","8","Male","","","","","","","null","<p> First, you need to decide whether to go up or down. When you see each picture, use the arrow keys to make your choice. </p>
            <p><b>You will not see which animal you found, but try to get to the one that will give you the most treasure.</b></p>","","instructions","","","","","","","","","","","",""
"html-keyboard-response","258","1113805","0.0-4.0-6.0-0.0","spark_pilot_norest","8309","4","8","Male","","","","","","","null","<div style=""font-size:100px;color:red;"">Starting in...</div>","null","","","","","","","","","","","","",""
"html-keyboard-response","259","1114825","0.0-4.0-6.0-1.0","spark_pilot_norest","8309","4","8","Male","","","","","","","null","<div style=""font-size:200px;color:red;"">3</div>","null","","","","","","","","","","","","",""
"html-keyboard-response","260","1115845","0.0-4.0-6.0-2.0","spark_pilot_norest","8309","4","8","Male","","","","","","","null","<div style=""font-size:200px;color:red;"">2</div>","null","","","","","","","","","","","","",""
"html-keyboard-response","261","1116865","0.0-4.0-6.0-3.0","spark_pilot_norest","8309","4","8","Male","","","","","","","null","<div style=""font-size:200px;color:red;"">1</div>","null","","","","","","","","","","","","",""
"revaluation","262","1117885","0.0-4.0-7.0-0.0","spark_pilot_norest","8309","4","8","Male","","false","","","","","[1017.0999994277954]","./assets/img/ocean/test/3.jpg","[""ArrowUp""]","first stage test","ocean","0","{""ArrowUp,ArrowLeft"":2,""ArrowUp,ArrowRight"":11,""ArrowDown,ArrowLeft"":8,""ArrowDown,ArrowRight"":27}","false","ArrowUp","false","revaluation","1","","","",""
"html-keyboard-response","263","1118395","0.0-4.0-7.0-1.0","spark_pilot_norest","8309","4","8","Male","","","","","","","null","<div style=""font-size:60px;"">+</div>","null","fixation","","","","","","","","","","","",""
"revaluation","264","1119249","0.0-4.0-7.0-0.1","spark_pilot_norest","8309","4","8","Male","","false","","","","","[850.6000003814697]","./assets/img/ocean/test/0.jpg","[""ArrowDown""]","first stage test","ocean","0","{""ArrowUp,ArrowLeft"":2,""ArrowUp,ArrowRight"":11,""ArrowDown,ArrowLeft"":8,""ArrowDown,ArrowRight"":27}","true","ArrowDown","false","revaluation","1","","","",""
"html-keyboard-response","265","1119765","0.0-4.0-7.0-1.1","spark_pilot_norest","8309","4","8","Male","","","","","","","null","<div style=""font-size:60px;"">+</div>","null","fixation","","","","","","","","","","","",""
"revaluation","266","1120337","0.0-4.0-7.0-0.2","spark_pilot_norest","8309","4","8","Male","","false","","","","","[570.2999992370605]","./assets/img/ocean/test/2.jpg","[""ArrowUp""]","first stage test","ocean","0","{""ArrowUp,ArrowLeft"":2,""ArrowUp,ArrowRight"":11,""ArrowDown,ArrowLeft"":8,""ArrowDown,ArrowRight"":27}","false","ArrowUp","false","revaluation","1","","","",""
"html-keyboard-response","267","1120855","0.0-4.0-7.0-1.2","spark_pilot_norest","8309","4","8","Male","","","","","","","null","<div style=""font-size:60px;"">+</div>","null","fixation","","","","","","","","","","","",""
"revaluation","268","1121195","0.0-4.0-7.0-0.3","spark_pilot_norest","8309","4","8","Male","","false","","","","","[336.4000005722046]","./assets/img/ocean/test/1.jpg","[""ArrowDown""]","first stage test","ocean","0","{""ArrowUp,ArrowLeft"":2,""ArrowUp,ArrowRight"":11,""ArrowDown,ArrowLeft"":8,""ArrowDown,ArrowRight"":27}","true","ArrowDown","false","revaluation","1","","","",""
"html-keyboard-response","269","1121715","0.0-4.0-7.0-1.3","spark_pilot_norest","8309","4","8","Male","","","","","","","null","<div style=""font-size:60px;"">+</div>","null","fixation","","","","","","","","","","","",""
"learning-instructions","270","1135062","0.0-4.0-8.0-0.0","spark_pilot_norest","8309","4","8","Male","","","","","","","null","<p> Now you will see the animals again and can search their chests for treasure. </p>
            <p> This time, you will not see how much treasure you earned, but you will earn more bonus money for making better choices. </p>","","instructions","","","","","","","","","","","",""
"html-keyboard-response","271","1136065","0.0-4.0-9.0-0.0","spark_pilot_norest","8309","4","8","Male","","","","","","","null","<div style=""font-size:100px;color:red;"">Starting in...</div>","null","","","","","","","","","","","","",""
"html-keyboard-response","272","1137086","0.0-4.0-9.0-1.0","spark_pilot_norest","8309","4","8","Male","","","","","","","null","<div style=""font-size:200px;color:red;"">3</div>","null","","","","","","","","","","","","",""
"html-keyboard-response","273","1138105","0.0-4.0-9.0-2.0","spark_pilot_norest","8309","4","8","Male","","","","","","","null","<div style=""font-size:200px;color:red;"">2</div>","null","","","","","","","","","","","","",""
"html-keyboard-response","274","1139125","0.0-4.0-9.0-3.0","spark_pilot_norest","8309","4","8","Male","","","","","","","null","<div style=""font-size:200px;color:red;"">1</div>","null","","","","","","","","","","","","",""
"revaluation","275","1139698","0.0-4.0-10.0-0.0","spark_pilot_norest","8309","4","8","Male","","false","","","","","[570.4000005722046]","./assets/img/ocean/animals/octopus.jpg","[""ArrowLeft""]","second stage test","ocean","0","{""ArrowUp,ArrowLeft"":2,""ArrowUp,ArrowRight"":11,""ArrowDown,ArrowLeft"":8,""ArrowDown,ArrowRight"":27}","false","ArrowUp,ArrowLeft","","revaluation","1","","","",""
"html-keyboard-response","276","1140215","0.0-4.0-10.0-1.0","spark_pilot_norest","8309","4","8","Male","","","","","","","null","<div style=""font-size:60px;"">+</div>","null","fixation","","","","","","","","","","","",""
"revaluation","277","1140787","0.0-4.0-10.0-0.1","spark_pilot_norest","8309","4","8","Male","","false","","","","","[570.1000003814697]","./assets/img/ocean/animals/octopus.jpg","[""ArrowRight""]","second stage test","ocean","0","{""ArrowUp,ArrowLeft"":2,""ArrowUp,ArrowRight"":11,""ArrowDown,ArrowLeft"":8,""ArrowDown,ArrowRight"":27}","true","ArrowUp,ArrowRight","","revaluation","1","","","",""
"html-keyboard-response","278","1141295","0.0-4.0-10.0-1.1","spark_pilot_norest","8309","4","8","Male","","","","","","","null","<div style=""font-size:60px;"">+</div>","null","fixation","","","","","","","","","","","",""
"revaluation","279","1142215","0.0-4.0-10.0-0.2","spark_pilot_norest","8309","4","8","Male","","false","","","","","[916.8000001907349]","./assets/img/ocean/animals/octopus.jpg","[""ArrowLeft""]","second stage test","ocean","0","{""ArrowUp,ArrowLeft"":2,""ArrowUp,ArrowRight"":11,""ArrowDown,ArrowLeft"":8,""ArrowDown,ArrowRight"":27}","false","ArrowUp,ArrowLeft","","revaluation","1","","","",""
"html-keyboard-response","280","1142725","0.0-4.0-10.0-1.2","spark_pilot_norest","8309","4","8","Male","","","","","","","null","<div style=""font-size:60px;"">+</div>","null","fixation","","","","","","","","","","","",""
"revaluation","281","1143059","0.0-4.0-10.0-0.3","spark_pilot_norest","8309","4","8","Male","","false","","","","","[330.3999996185303]","./assets/img/ocean/animals/octopus.jpg","[""ArrowRight""]","second stage test","ocean","0","{""ArrowUp,ArrowLeft"":2,""ArrowUp,ArrowRight"":11,""ArrowDown,ArrowLeft"":8,""ArrowDown,ArrowRight"":27}","true","ArrowUp,ArrowRight","","revaluation","1","","","",""
"html-keyboard-response","282","1143566","0.0-4.0-10.0-1.3","spark_pilot_norest","8309","4","8","Male","","","","","","","null","<div style=""font-size:60px;"">+</div>","null","fixation","","","","","","","","","","","",""
"revaluation","283","1144607","0.0-4.0-10.0-0.4","spark_pilot_norest","8309","4","8","Male","","false","","","","","[1037.6000003814697]","./assets/img/ocean/animals/seahorse.jpg","[""ArrowLeft""]","second stage test","ocean","0","{""ArrowUp,ArrowLeft"":2,""ArrowUp,ArrowRight"":11,""ArrowDown,ArrowLeft"":8,""ArrowDown,ArrowRight"":27}","false","ArrowDown,ArrowLeft","","revaluation","1","","","",""
"html-keyboard-response","284","1145125","0.0-4.0-10.0-1.4","spark_pilot_norest","8309","4","8","Male","","","","","","","null","<div style=""font-size:60px;"">+</div>","null","fixation","","","","","","","","","","","",""
"revaluation","285","1145498","0.0-4.0-10.0-0.5","spark_pilot_norest","8309","4","8","Male","","false","","","","","[369.5]","./assets/img/ocean/animals/seahorse.jpg","[""ArrowLeft""]","second stage test","ocean","0","{""ArrowUp,ArrowLeft"":2,""ArrowUp,ArrowRight"":11,""ArrowDown,ArrowLeft"":8,""ArrowDown,ArrowRight"":27}","false","ArrowDown,ArrowLeft","","revaluation","1","","","",""
"html-keyboard-response","286","1146006","0.0-4.0-10.0-1.5","spark_pilot_norest","8309","4","8","Male","","","","","","","null","<div style=""font-size:60px;"">+</div>","null","fixation","","","","","","","","","","","",""
"revaluation","287","1146287","0.0-4.0-10.0-0.6","spark_pilot_norest","8309","4","8","Male","","false","","","","","[280.30000019073486]","./assets/img/ocean/animals/seahorse.jpg","[""ArrowRight""]","second stage test","ocean","0","{""ArrowUp,ArrowLeft"":2,""ArrowUp,ArrowRight"":11,""ArrowDown,ArrowLeft"":8,""ArrowDown,ArrowRight"":27}","true","ArrowDown,ArrowRight","","revaluation","1","","","",""
"html-keyboard-response","288","1146805","0.0-4.0-10.0-1.6","spark_pilot_norest","8309","4","8","Male","","","","","","","null","<div style=""font-size:60px;"">+</div>","null","fixation","","","","","","","","","","","",""
"revaluation","289","1147057","0.0-4.0-10.0-0.7","spark_pilot_norest","8309","4","8","Male","","false","","","","","[248.5]","./assets/img/ocean/animals/seahorse.jpg","[""ArrowRight""]","second stage test","ocean","0","{""ArrowUp,ArrowLeft"":2,""ArrowUp,ArrowRight"":11,""ArrowDown,ArrowLeft"":8,""ArrowDown,ArrowRight"":27}","true","ArrowDown,ArrowRight","","revaluation","1","","","",""
"html-keyboard-response","290","1147565","0.0-4.0-10.0-1.7","spark_pilot_norest","8309","4","8","Male","","","","","","","null","<div style=""font-size:60px;"">+</div>","null","fixation","","","","","","","","","","","",""
"learning-instructions","291","1157419","0.0-4.0-0.1-0.2","spark_pilot_norest","8309","4","8","Male","","","","","","","7062.10000038147","<p> This time you are searching for treasure in the <b>canyon</b>.</p>","","instructions","","","","","","","","","","","",""
"learning-instructions","292","1180771","0.0-4.0-0.1-0.3","spark_pilot_norest","8309","4","8","Male","","","","","","","6108","<p><b>New</b> animals with <b>new</b> treasure chests live here. You need to explore to discover where the animal with the best treasure chest is.</p>
                    <p> Like before, once you figure out which animal has the chest with the most treasure, you should try to get to that animal and select that chest! </p>","","instructions","","","","","","","","","","","",""
"learning-instructions","293","1198765","0.0-4.0-1.1-0.1","spark_pilot_norest","8309","4","8","Male","","","","","","","3261.5999994277954","<p> Remember, when you see a picture of the place, use the up and down keys to <b>find an animal</b>.</p>
            <p> When you encounter an animal, you should use the left and right keys to <b>select a treasure chest</b>.</p>
            <p> Don't forget to look out for the robber! </p>","","instructions","","","","","","","","","","","",""
"revaluation","294","1204811","0.0-4.0-2.1-0.50","spark_pilot_norest","8309","4","8","Male","","true","","","","","[1329.8999996185303]","./assets/img/canyon/memory/34.jpg","[""ArrowDown""]","value training","canyon","-5","{""ArrowUp,ArrowLeft"":23,""ArrowUp,ArrowRight"":10,""ArrowDown,ArrowLeft"":8,""ArrowDown,ArrowRight"":30}","false","ArrowDown","false","original","2","0","","",""
"html-keyboard-response","295","1205331","0.0-4.0-2.1-1.50","spark_pilot_norest","8309","4","8","Male","","","","","","","null","<div style=""font-size:60px;"">+</div>","null","fixation","","","","","","","","","1","","",""
"revaluation","296","1211382","0.0-4.0-2.1-0.51","spark_pilot_norest","8309","4","8","Male","","false","","","","","[503.30000019073486,446.69999980926514]","./assets/img/canyon/memory/8.jpg","[""ArrowUp"",""ArrowLeft""]","value training","canyon","23","{""ArrowUp,ArrowLeft"":23,""ArrowUp,ArrowRight"":10,""ArrowDown,ArrowLeft"":8,""ArrowDown,ArrowRight"":30}","false","ArrowUp,ArrowLeft","false","original","2","2","","",""
"html-keyboard-response","297","1211901","0.0-4.0-2.1-1.51","spark_pilot_norest","8309","4","8","Male","","","","","","","null","<div style=""font-size:60px;"">+</div>","null","fixation","","","","","","","","","3","","",""
"revaluation","298","1217951","0.0-4.0-2.1-0.52","spark_pilot_norest","8309","4","8","Male","","false","","","","","[885.3999996185303,747.3999996185303]","./assets/img/canyon/memory/34.jpg","[""ArrowDown"",""ArrowRight""]","value training","canyon","30","{""ArrowUp,ArrowLeft"":23,""ArrowUp,ArrowRight"":10,""ArrowDown,ArrowLeft"":8,""ArrowDown,ArrowRight"":30}","true","ArrowDown,ArrowRight","false","original","2","4","","",""
"html-keyboard-response","299","1218471","0.0-4.0-2.1-1.52","spark_pilot_norest","8309","4","8","Male","","","","","","","null","<div style=""font-size:60px;"">+</div>","null","fixation","","","","","","","","","5","","",""
"revaluation","300","1224502","0.0-4.0-2.1-0.53","spark_pilot_norest","8309","4","8","Male","","false","","","","","[969.4000005722046,711.1000003814697]","./assets/img/canyon/memory/14.jpg","[""ArrowDown"",""ArrowLeft""]","value training","canyon","8","{""ArrowUp,ArrowLeft"":23,""ArrowUp,ArrowRight"":10,""ArrowDown,ArrowLeft"":8,""ArrowDown,ArrowRight"":30}","false","ArrowDown,ArrowLeft","false","original","2","6","","",""
"html-keyboard-response","301","1225021","0.0-4.0-2.1-1.53","spark_pilot_norest","8309","4","8","Male","","","","","","","null","<div style=""font-size:60px;"">+</div>","null","fixation","","","","","","","","","7","","",""
"revaluation","302","1231036","0.0-4.0-2.1-0.54","spark_pilot_norest","8309","4","8","Male","","false","","","","","[1756,667.9000005722046]","./assets/img/canyon/memory/33.jpg","[""ArrowUp"",""ArrowRight""]","value training","canyon","10","{""ArrowUp,ArrowLeft"":23,""ArrowUp,ArrowRight"":10,""ArrowDown,ArrowLeft"":8,""ArrowDown,ArrowRight"":30}","false","ArrowUp,ArrowRight","false","original","2","8","","",""
"html-keyboard-response","303","1231552","0.0-4.0-2.1-1.54","spark_pilot_norest","8309","4","8","Male","","","","","","","null","<div style=""font-size:60px;"">+</div>","null","fixation","","","","","","","","","9","","",""
"revaluation","304","1237595","0.0-4.0-2.1-0.55","spark_pilot_norest","8309","4","8","Male","","false","","","","","[1671.8000001907349,1269.3999996185303]","./assets/img/canyon/memory/8.jpg","[""ArrowDown"",""ArrowRight""]","value training","canyon","30","{""ArrowUp,ArrowLeft"":23,""ArrowUp,ArrowRight"":10,""ArrowDown,ArrowLeft"":8,""ArrowDown,ArrowRight"":30}","true","ArrowDown,ArrowRight","false","original","2","10","","",""
"html-keyboard-response","305","1238112","0.0-4.0-2.1-1.55","spark_pilot_norest","8309","4","8","Male","","","","","","","null","<div style=""font-size:60px;"">+</div>","null","fixation","","","","","","","","","11","","",""
"revaluation","306","1244174","0.0-4.0-2.1-0.56","spark_pilot_norest","8309","4","8","Male","","false","","","","","[324,414.3999996185303]","./assets/img/canyon/memory/39.jpg","[""ArrowUp"",""ArrowLeft""]","value training","canyon","23","{""ArrowUp,ArrowLeft"":23,""ArrowUp,ArrowRight"":10,""ArrowDown,ArrowLeft"":8,""ArrowDown,ArrowRight"":30}","false","ArrowUp,ArrowLeft","false","original","2","12","","",""
"html-keyboard-response","307","1244706","0.0-4.0-2.1-1.56","spark_pilot_norest","8309","4","8","Male","","","","","","","null","<div style=""font-size:60px;"">+</div>","null","fixation","","","","","","","","","13","","",""
"revaluation","308","1250732","0.0-4.0-2.1-0.57","spark_pilot_norest","8309","4","8","Male","","false","","","","","[1117.8999996185303,1270.6999998092651]","./assets/img/canyon/memory/17.jpg","[""ArrowDown"",""ArrowRight""]","value training","canyon","30","{""ArrowUp,ArrowLeft"":23,""ArrowUp,ArrowRight"":10,""ArrowDown,ArrowLeft"":8,""ArrowDown,ArrowRight"":30}","true","ArrowDown,ArrowRight","false","original","2","14","","",""
"html-keyboard-response","309","1251247","0.0-4.0-2.1-1.57","spark_pilot_norest","8309","4","8","Male","","","","","","","null","<div style=""font-size:60px;"">+</div>","null","fixation","","","","","","","","","15","","",""
"revaluation","310","1255252","0.0-4.0-2.1-0.58","spark_pilot_norest","8309","4","8","Male","","false","","","","","[759]","./assets/img/canyon/catch/0.jpg","[""ArrowDown""]","value training","canyon","-10","{""ArrowUp,ArrowLeft"":23,""ArrowUp,ArrowRight"":10,""ArrowDown,ArrowLeft"":8,""ArrowDown,ArrowRight"":30}","false","ArrowDown","true","original","2","16","","",""
"html-keyboard-response","311","1255763","0.0-4.0-2.1-1.58","spark_pilot_norest","8309","4","8","Male","","","","","","","null","<div style=""font-size:60px;"">+</div>","null","fixation","","","","","","","","","17","","",""
"revaluation","312","1261796","0.0-4.0-2.1-0.59","spark_pilot_norest","8309","4","8","Male","","false","","","","","[1221,815.5]","./assets/img/canyon/memory/24.jpg","[""ArrowDown"",""ArrowRight""]","value training","canyon","30","{""ArrowUp,ArrowLeft"":23,""ArrowUp,ArrowRight"":10,""ArrowDown,ArrowLeft"":8,""ArrowDown,ArrowRight"":30}","true","ArrowDown,ArrowRight","false","original","2","18","","",""
"html-keyboard-response","313","1262327","0.0-4.0-2.1-1.59","spark_pilot_norest","8309","4","8","Male","","","","","","","null","<div style=""font-size:60px;"">+</div>","null","fixation","","","","","","","","","19","","",""
"revaluation","314","1266340","0.0-4.0-2.1-0.60","spark_pilot_norest","8309","4","8","Male","","false","","","","","[970.4000005722046]","./assets/img/canyon/catch/3.jpg","[""spaceBar""]","value training","canyon","0","{""ArrowUp,ArrowLeft"":23,""ArrowUp,ArrowRight"":10,""ArrowDown,ArrowLeft"":8,""ArrowDown,ArrowRight"":30}","true","spaceBar","true","original","2","20","","",""
"html-keyboard-response","315","1266856","0.0-4.0-2.1-1.60","spark_pilot_norest","8309","4","8","Male","","","","","","","null","<div style=""font-size:60px;"">+</div>","null","fixation","","","","","","","","","21","","",""
