"trial_type","trial_index","time_elapsed","internal_node_id","task_version","subject_id","assigned_condition","age","gender","success","timeout","failed_images","failed_audio","failed_video","browser_interaction","rt","stimulus","response","task_part","environment","score","rewardMap","correct","fullState","isCatch","condition","order","trial_num","key_press","ground_truth","bonus"
"pavlovia","0","26764","0.0-0.0","spark_pilot_norest","8566","1","10","Male","","","","","","","","","","","","","","","","","","","","","",""
"preload","1","66563","0.0-1.0","spark_pilot_norest","8566","1","10","Male","true","false","[]","[]","[]","[{""event"":""fullscreenenter"",""trial"":2,""time"":68395},{""event"":""blur"",""trial"":120,""time"":648929},{""event"":""focus"",""trial"":120,""time"":650624}]","","","","","","","","","","","","","","","",""
"fullscreen","2","69381","0.0-2.0","spark_pilot_norest","8566","1","10","Male","true","","","","","","","","","","","","","","","","","","","","",""
"audio-button-response","3","71238","0.0-3.0-0.0-0.0","spark_pilot_norest","8566","1","10","Male","","","","","","","1552","./assets/audio/audiotest/turtle.mp3","2","audio_test","","","","","","","","","","","",""
"learning-instructions","4","80288","0.0-3.0-1.0-0.0","spark_pilot_norest","8566","1","10","Male","","","","","","","2026.2000000476837","<p> Welcome! Please remember to stay in fullscreen mode and don't click away from the experiment. </p>","","instructions","","","","","","","","","","","",""
"learning-instructions","5","89721","0.0-3.0-1.0-0.1","spark_pilot_norest","8566","1","10","Male","","","","","","","983","<p> Today you will be playing a game to earn treasure. </p>
            <p> At the end of the experiment, you will earn a bonus based on how much treasure you find. </p>
            <img src='./assets/img/instructions/treasure.jpg' class='instructions-image'>","","instructions","","","","","","","","","","","",""
"learning-instructions","6","99248","0.0-3.0-1.0-0.2","spark_pilot_norest","8566","1","10","Male","","","","","","","1230.1000000238419","<p> Animals have hidden treasure in treasure chests. </p>
            <p> You need to first find an animal and then choose which of their treasure chests to search. </p>
            <img src='./assets/img/space/animals/cat.jpg' class='instructions-image'>","","instructions","","","","","","","","","","","",""
"learning-instructions","7","113555","0.0-3.0-1.0-0.3","spark_pilot_norest","8566","1","10","Male","","","","","","","1126.3000000715256","<p> In each round, you will search for treasure in a different place. In the real game, there will be two rounds. </p>
            <p> You will begin with a separate, practice round where you will search for treasure in outer space. </p>
            <img src='./assets/img/space/0.jpg' class='instructions-image'>","","instructions","","","","","","","","","","","",""
"learning-instructions","8","126519","0.0-3.0-1.0-0.4","spark_pilot_norest","8566","1","10","Male","","","","","","","1521.1999999284744","<p> On every turn, you will see a picture of the place that you are in, but the specific image may be different each time. </p>
            <p> For example, both of these images mean you are in outer space. </p>
            <img src='./assets/img/instructions/outerspace.jpg' class='instructions-image'>","","instructions","","","","","","","","","","","",""
"learning-instructions","9","135556","0.0-3.0-1.0-0.5","spark_pilot_norest","8566","1","10","Male","","","","","","","1187.7000000476837","<p> You need to decide which direction to travel in. </p>
            <p> You can choose between going <b>up or down</b> by using the arrow keys. </p>
            <img src='./assets/img/instructions/updown.jpg' class='instructions-image'>","","instructions","","","","","","","","","","","",""
"learning-instructions","10","146018","0.0-3.0-1.0-0.6","spark_pilot_norest","8566","1","10","Male","","","","","","","1621.1000000238419","<p> You will have <b>2 seconds</b> to make your choice. </p>
            <p> If you do not make a choice within 2 seconds, you will not find an animal or earn treasure. </p>
            <img src='./assets/img/instructions/2seconds.jpg' class='instructions-image'>","","instructions","","","","","","","","","","","",""
"learning-instructions","11","154796","0.0-3.0-1.0-0.7","spark_pilot_norest","8566","1","10","Male","","","","","","","1728","<p> Let’s try practicing that now! </p>
            <p> When you see a picture of the place you are in, press the <b>up</b> key to travel up. </p>
            <img src='./assets/img/instructions/pressUp.jpg' class='instructions-image'>","","instructions","","","","","","","","","","","",""
"revaluation","12","158833","0.0-3.0-2.0-0.0","spark_pilot_norest","8566","1","10","Male","","false","","","","","[1428.5]","./assets/img/space/0.jpg","[""ArrowUp""]","first stage practice","space","0","null","null","ArrowUp","false","","","","","",""
"html-keyboard-response","13","159343","0.0-3.0-2.0-1.0","spark_pilot_norest","8566","1","10","Male","","","","","","","null","<div style=""font-size:60px;"">+</div>","null","fixation","","","","","","","","","","","",""
"revaluation","14","163372","0.0-3.0-2.0-0.1","spark_pilot_norest","8566","1","10","Male","","true","","","","","[]","./assets/img/space/1.jpg","[]","first stage practice","space","-5","null","null","","false","","","","","",""
"html-keyboard-response","15","163885","0.0-3.0-2.0-1.1","spark_pilot_norest","8566","1","10","Male","","","","","","","null","<div style=""font-size:60px;"">+</div>","null","fixation","","","","","","","","","","","",""
"revaluation","16","167902","0.0-3.0-2.0-0.2","spark_pilot_norest","8566","1","10","Male","","false","","","","","[74.70000004768372]","./assets/img/space/2.jpg","[""ArrowUp""]","first stage practice","space","0","null","null","ArrowUp","false","","","","","",""
"html-keyboard-response","17","168417","0.0-3.0-2.0-1.2","spark_pilot_norest","8566","1","10","Male","","","","","","","null","<div style=""font-size:60px;"">+</div>","null","fixation","","","","","","","","","","","",""
"learning-instructions","18","174802","0.0-3.0-3.0-0.0","spark_pilot_norest","8566","1","10","Male","","","","","","","1665.1000000238419","<p> Great job! Now try pressing the <b>down</b> key to travel down. </p>
            <img src='./assets/img/instructions/pressDown.jpg' class='instructions-image'>","","instructions","","","","","","","","","","","",""
"revaluation","19","178810","0.0-3.0-4.0-0.0","spark_pilot_norest","8566","1","10","Male","","false","","","","","[870]","./assets/img/space/3.jpg","[""ArrowDown""]","first stage practice","space","0","null","null","ArrowDown","false","","","","","",""
"html-keyboard-response","20","179326","0.0-3.0-4.0-1.0","spark_pilot_norest","8566","1","10","Male","","","","","","","null","<div style=""font-size:60px;"">+</div>","null","fixation","","","","","","","","","","","",""
"revaluation","21","183355","0.0-3.0-4.0-0.1","spark_pilot_norest","8566","1","10","Male","","true","","","","","[]","./assets/img/space/4.jpg","[]","first stage practice","space","-5","null","null","","false","","","","","",""
"html-keyboard-response","22","183868","0.0-3.0-4.0-1.1","spark_pilot_norest","8566","1","10","Male","","","","","","","null","<div style=""font-size:60px;"">+</div>","null","fixation","","","","","","","","","","","",""
"revaluation","23","187896","0.0-3.0-4.0-0.2","spark_pilot_norest","8566","1","10","Male","","true","","","","","[]","./assets/img/space/5.jpg","[]","first stage practice","space","-5","null","null","","false","","","","","",""
"html-keyboard-response","24","188412","0.0-3.0-4.0-1.2","spark_pilot_norest","8566","1","10","Male","","","","","","","null","<div style=""font-size:60px;"">+</div>","null","fixation","","","","","","","","","","","",""
"learning-instructions","25","200735","0.0-3.0-5.0-0.0","spark_pilot_norest","8566","1","10","Male","","","","","","","2428.399999976158","<p> The animals don’t move, so the animal in the upper part of a place will stay in the upper part of a place, and the animal in the lower part of a place will stay in the lower part of a place. </p>","","instructions","","","","","","","","","","","",""
"learning-instructions","26","211786","0.0-3.0-5.0-0.1","spark_pilot_norest","8566","1","10","Male","","","","","","","1920.2000000476837","<p> Each animal has two treasure chests for you to choose from. </p>
            <p> The amount of treasure in each chest can range from <b> 0 to 40 pieces.</b></p>","","instructions","","","","","","","","","","","",""
"learning-instructions","27","224279","0.0-3.0-5.0-0.2","spark_pilot_norest","8566","1","10","Male","","","","","","","1261.5","<p> You should decide which chest to search for treasure by using the <b>left</b> and <b>right</b> arrow keys. </p>
            <p><b> Pay attention to which animal is on the screen, as the animals have different treasure chests. </b></p>
            <img src='./assets/img/instructions/leftright.jpg' class='instructions-image'>","","instructions","","","","","","","","","","","",""
"learning-instructions","28","232248","0.0-3.0-5.0-0.3","spark_pilot_norest","8566","1","10","Male","","","","","","","1611.5","<p> Let’s try practicing that now. </p>
            <p> When you see an animal, choose which chest to search for treasure. </p>
            <img src='./assets/img/instructions/chooseChest.jpg' class='instructions-image'>","","instructions","","","","","","","","","","","",""
"revaluation","29","236273","0.0-3.0-6.0-0.0","spark_pilot_norest","8566","1","10","Male","","false","","","","","[936.2000000476837]","./assets/img/space/animals/rabbit.jpg","[""ArrowRight""]","second stage practice","space","23","{""ArrowUp,ArrowLeft"":3,""ArrowUp,ArrowRight"":36,""ArrowDown,ArrowLeft"":15,""ArrowDown,ArrowRight"":23}","true","ArrowDown,ArrowRight","","","","","","",""
"html-keyboard-response","30","236785","0.0-3.0-6.0-1.0","spark_pilot_norest","8566","1","10","Male","","","","","","","null","<div style=""font-size:60px;"">+</div>","null","fixation","","","","","","","","","","","",""
"revaluation","31","240808","0.0-3.0-6.0-0.1","spark_pilot_norest","8566","1","10","Male","","false","","","","","[387.6999999284744]","./assets/img/space/animals/cat.jpg","[""ArrowLeft""]","second stage practice","space","3","{""ArrowUp,ArrowLeft"":3,""ArrowUp,ArrowRight"":36,""ArrowDown,ArrowLeft"":15,""ArrowDown,ArrowRight"":23}","false","ArrowUp,ArrowLeft","","","","","","",""
"html-keyboard-response","32","241323","0.0-3.0-6.0-1.1","spark_pilot_norest","8566","1","10","Male","","","","","","","null","<div style=""font-size:60px;"">+</div>","null","fixation","","","","","","","","","","","",""
"revaluation","33","245348","0.0-3.0-6.0-0.2","spark_pilot_norest","8566","1","10","Male","","false","","","","","[492.39999997615814]","./assets/img/space/animals/rabbit.jpg","[""ArrowLeft""]","second stage practice","space","15","{""ArrowUp,ArrowLeft"":3,""ArrowUp,ArrowRight"":36,""ArrowDown,ArrowLeft"":15,""ArrowDown,ArrowRight"":23}","false","ArrowDown,ArrowLeft","","","","","","",""
"html-keyboard-response","34","245860","0.0-3.0-6.0-1.2","spark_pilot_norest","8566","1","10","Male","","","","","","","null","<div style=""font-size:60px;"">+</div>","null","fixation","","","","","","","","","","","",""
"revaluation","35","249883","0.0-3.0-6.0-0.3","spark_pilot_norest","8566","1","10","Male","","false","","","","","[434]","./assets/img/space/animals/cat.jpg","[""ArrowLeft""]","second stage practice","space","3","{""ArrowUp,ArrowLeft"":3,""ArrowUp,ArrowRight"":36,""ArrowDown,ArrowLeft"":15,""ArrowDown,ArrowRight"":23}","false","ArrowUp,ArrowLeft","","","","","","",""
"html-keyboard-response","36","250397","0.0-3.0-6.0-1.3","spark_pilot_norest","8566","1","10","Male","","","","","","","null","<div style=""font-size:60px;"">+</div>","null","fixation","","","","","","","","","","","",""
"learning-instructions","37","270879","0.0-3.0-7.0-0.0","spark_pilot_norest","8566","1","10","Male","","","","","","","3623.2000000476837","<p> Great job. Now let’s try putting it together. </p>
            <p> On each turn, you will first see a picture to remind you of the place you are in, and you need to choose whether to go up or down. </p>
            <p> Then you will see an animal and choose which of its chests to search for treasure. </p>","","instructions","","","","","","","","","","","",""
"learning-instructions","38","280823","0.0-3.0-7.0-0.1","spark_pilot_norest","8566","1","10","Male","","","","","","","1677","<p> When you choose whether to go up or down, try to go to the animal with the chest with the most treasure. </p>
            <p> Try practicing that now! </p>","","instructions","","","","","","","","","","","",""
"revaluation","39","286846","0.0-3.0-8.0-0.0","spark_pilot_norest","8566","1","10","Male","","false","","","","","[1232.5,581.3999999761581]","./assets/img/space/6.jpg","[""ArrowDown"",""ArrowRight""]","full practice","space","23","{""ArrowUp,ArrowLeft"":3,""ArrowUp,ArrowRight"":36,""ArrowDown,ArrowLeft"":15,""ArrowDown,ArrowRight"":23}","false","ArrowDown,ArrowRight","false","","","","","",""
"html-keyboard-response","40","287360","0.0-3.0-8.0-1.0","spark_pilot_norest","8566","1","10","Male","","","","","","","null","<div style=""font-size:60px;"">+</div>","null","fixation","","","","","","","","","","","",""
"revaluation","41","293393","0.0-3.0-8.0-0.1","spark_pilot_norest","8566","1","10","Male","","false","","","","","[513.3000000715256,1159.5]","./assets/img/space/7.jpg","[""ArrowUp"",""ArrowLeft""]","full practice","space","3","{""ArrowUp,ArrowLeft"":3,""ArrowUp,ArrowRight"":36,""ArrowDown,ArrowLeft"":15,""ArrowDown,ArrowRight"":23}","false","ArrowUp,ArrowLeft","false","","","","","",""
"html-keyboard-response","42","293910","0.0-3.0-8.0-1.1","spark_pilot_norest","8566","1","10","Male","","","","","","","null","<div style=""font-size:60px;"">+</div>","null","fixation","","","","","","","","","","","",""
"revaluation","43","299943","0.0-3.0-8.0-0.2","spark_pilot_norest","8566","1","10","Male","","false","","","","","[723.8000000715256,507.10000002384186]","./assets/img/space/8.jpg","[""ArrowDown"",""ArrowRight""]","full practice","space","23","{""ArrowUp,ArrowLeft"":3,""ArrowUp,ArrowRight"":36,""ArrowDown,ArrowLeft"":15,""ArrowDown,ArrowRight"":23}","false","ArrowDown,ArrowRight","false","","","","","",""
"html-keyboard-response","44","300457","0.0-3.0-8.0-1.2","spark_pilot_norest","8566","1","10","Male","","","","","","","null","<div style=""font-size:60px;"">+</div>","null","fixation","","","","","","","","","","","",""
"revaluation","45","306482","0.0-3.0-8.0-0.3","spark_pilot_norest","8566","1","10","Male","","false","","","","","[1646.4000000953674,1143.7999999523163]","./assets/img/space/9.jpg","[""ArrowDown"",""ArrowLeft""]","full practice","space","15","{""ArrowUp,ArrowLeft"":3,""ArrowUp,ArrowRight"":36,""ArrowDown,ArrowLeft"":15,""ArrowDown,ArrowRight"":23}","false","ArrowDown,ArrowLeft","false","","","","","",""
"html-keyboard-response","46","306993","0.0-3.0-8.0-1.3","spark_pilot_norest","8566","1","10","Male","","","","","","","null","<div style=""font-size:60px;"">+</div>","null","fixation","","","","","","","","","","","",""
"revaluation","47","313009","0.0-3.0-8.0-0.4","spark_pilot_norest","8566","1","10","Male","","false","","","","","[778.1000000238419,400.5]","./assets/img/space/10.jpg","[""ArrowDown"",""ArrowRight""]","full practice","space","23","{""ArrowUp,ArrowLeft"":3,""ArrowUp,ArrowRight"":36,""ArrowDown,ArrowLeft"":15,""ArrowDown,ArrowRight"":23}","false","ArrowDown,ArrowRight","false","","","","","",""
"html-keyboard-response","48","313510","0.0-3.0-8.0-1.4","spark_pilot_norest","8566","1","10","Male","","","","","","","null","<div style=""font-size:60px;"">+</div>","null","fixation","","","","","","","","","","","",""
"learning-instructions","49","325478","0.0-3.0-9.0-0.0","spark_pilot_norest","8566","1","10","Male","","","","","","","1612","<p> One last thing: sometimes, you will see a robber. The robber can be anywhere in the picture. </p>
            <p> If you do not stop them, you will lose treasure. </p>
            <img src='./assets/img/instructions/robber.jpg' class='instructions-image'>","","instructions","","","","","","","","","","","",""
"learning-instructions","50","334016","0.0-3.0-9.0-0.1","spark_pilot_norest","8566","1","10","Male","","","","","","","1379.5","<p> If you see the robber, you should <b>press the space bar</b> rather than using the arrow keys. </p>
            <p> Try practicing that now! </p>","","instructions","","","","","","","","","","","",""
"revaluation","51","338034","0.0-3.0-10.0-0.0","spark_pilot_norest","8566","1","10","Male","","false","","","","","[1078.8999999761581]","./assets/img/space/catch/0.jpg","[""spaceBar""]","catch practice","space","0","{""ArrowUp,ArrowLeft"":3,""ArrowUp,ArrowRight"":36,""ArrowDown,ArrowLeft"":15,""ArrowDown,ArrowRight"":23}","true","spaceBar","true","","","","","",""
"html-keyboard-response","52","338546","0.0-3.0-10.0-1.0","spark_pilot_norest","8566","1","10","Male","","","","","","","null","<div style=""font-size:60px;"">+</div>","null","fixation","","","","","","","","","","","",""
"revaluation","53","342569","0.0-3.0-10.0-0.1","spark_pilot_norest","8566","1","10","Male","","false","","","","","[518.2999999523163]","./assets/img/space/catch/1.jpg","[""spaceBar""]","catch practice","space","0","{""ArrowUp,ArrowLeft"":3,""ArrowUp,ArrowRight"":36,""ArrowDown,ArrowLeft"":15,""ArrowDown,ArrowRight"":23}","true","spaceBar","true","","","","","",""
"html-keyboard-response","54","343083","0.0-3.0-10.0-1.1","spark_pilot_norest","8566","1","10","Male","","","","","","","null","<div style=""font-size:60px;"">+</div>","null","fixation","","","","","","","","","","","",""
"revaluation","55","347096","0.0-3.0-10.0-0.2","spark_pilot_norest","8566","1","10","Male","","false","","","","","[100.39999997615814]","./assets/img/space/catch/2.jpg","[""spaceBar""]","catch practice","space","0","{""ArrowUp,ArrowLeft"":3,""ArrowUp,ArrowRight"":36,""ArrowDown,ArrowLeft"":15,""ArrowDown,ArrowRight"":23}","true","spaceBar","true","","","","","",""
"html-keyboard-response","56","347610","0.0-3.0-10.0-1.2","spark_pilot_norest","8566","1","10","Male","","","","","","","null","<div style=""font-size:60px;"">+</div>","null","fixation","","","","","","","","","","","",""
"learning-instructions","57","354152","0.0-3.0-11.0-0.0-0.0","spark_pilot_norest","8566","1","10","Male","","","","","","","1255.2000000476837","<p> Now, you will practice a shortened version of the game to get a sense of how it all fits together. </p>","","instructions","","","","","","","","","","","",""
"learning-instructions","58","359608","0.0-3.0-11.0-0.0-0.1","spark_pilot_norest","8566","1","10","Male","","","","","","","2271.399999976158","<p>This time you are searching for treasure in outer space.</p>","","instructions","","","","","","","","","","","",""
"learning-instructions","59","376054","0.0-3.0-11.0-1.0-0.0","spark_pilot_norest","8566","1","10","Male","","","","","","","1637.7000000476837","<p> Remember, when you see a picture of the place, use the up and down keys to <b>find an animal</b>.</p>
            <p> When you encounter an animal, you should use the left and right keys to <b>select a treasure chest</b>.</p>
            <p> Don't forget to look out for the robber! </p>","","instructions","","","","","","","","","","","",""
"revaluation","60","382076","0.0-3.0-11.0-2.0-0.0","spark_pilot_norest","8566","1","10","Male","","false","","","","","[1703.5,734.8000000715256]","./assets/img/space/11.jpg","[""ArrowDown"",""ArrowRight""]","practice block","space","23","{""ArrowUp,ArrowLeft"":3,""ArrowUp,ArrowRight"":36,""ArrowDown,ArrowLeft"":15,""ArrowDown,ArrowRight"":23}","false","ArrowDown,ArrowRight","false","","","","","",""
"html-keyboard-response","61","382591","0.0-3.0-11.0-2.0-1.0","spark_pilot_norest","8566","1","10","Male","","","","","","","null","<div style=""font-size:60px;"">+</div>","null","fixation","","","","","","","","","","","",""
"revaluation","62","388620","0.0-3.0-11.0-2.0-0.1","spark_pilot_norest","8566","1","10","Male","","false","","","","","[1613.2999999523163,659.5]","./assets/img/space/12.jpg","[""ArrowDown"",""ArrowRight""]","practice block","space","23","{""ArrowUp,ArrowLeft"":3,""ArrowUp,ArrowRight"":36,""ArrowDown,ArrowLeft"":15,""ArrowDown,ArrowRight"":23}","false","ArrowDown,ArrowRight","false","","","","","",""
"html-keyboard-response","63","389133","0.0-3.0-11.0-2.0-1.1","spark_pilot_norest","8566","1","10","Male","","","","","","","null","<div style=""font-size:60px;"">+</div>","null","fixation","","","","","","","","","","","",""
"revaluation","64","395171","0.0-3.0-11.0-2.0-0.2","spark_pilot_norest","8566","1","10","Male","","false","","","","","[1600.5999999046326,479.60000002384186]","./assets/img/space/13.jpg","[""ArrowUp"",""ArrowLeft""]","practice block","space","3","{""ArrowUp,ArrowLeft"":3,""ArrowUp,ArrowRight"":36,""ArrowDown,ArrowLeft"":15,""ArrowDown,ArrowRight"":23}","false","ArrowUp,ArrowLeft","false","","","","","",""
"html-keyboard-response","65","395684","0.0-3.0-11.0-2.0-1.2","spark_pilot_norest","8566","1","10","Male","","","","","","","null","<div style=""font-size:60px;"">+</div>","null","fixation","","","","","","","","","","","",""
"revaluation","66","401714","0.0-3.0-11.0-2.0-0.3","spark_pilot_norest","8566","1","10","Male","","false","","","","","[810.1000000238419,410.7000000476837]","./assets/img/space/14.jpg","[""ArrowUp"",""ArrowRight""]","practice block","space","36","{""ArrowUp,ArrowLeft"":3,""ArrowUp,ArrowRight"":36,""ArrowDown,ArrowLeft"":15,""ArrowDown,ArrowRight"":23}","true","ArrowUp,ArrowRight","false","","","","","",""
"html-keyboard-response","67","402227","0.0-3.0-11.0-2.0-1.3","spark_pilot_norest","8566","1","10","Male","","","","","","","null","<div style=""font-size:60px;"">+</div>","null","fixation","","","","","","","","","","","",""
"revaluation","68","406242","0.0-3.0-11.0-2.0-0.4","spark_pilot_norest","8566","1","10","Male","","true","","","","","[]","./assets/img/space/11.jpg","[]","practice block","space","-5","{""ArrowUp,ArrowLeft"":3,""ArrowUp,ArrowRight"":36,""ArrowDown,ArrowLeft"":15,""ArrowDown,ArrowRight"":23}","false","","false","","","","","",""
"html-keyboard-response","69","406744","0.0-3.0-11.0-2.0-1.4","spark_pilot_norest","8566","1","10","Male","","","","","","","null","<div style=""font-size:60px;"">+</div>","null","fixation","","","","","","","","","","","",""
"revaluation","70","412753","0.0-3.0-11.0-2.0-0.5","spark_pilot_norest","8566","1","10","Male","","false","","","","","[330,509.2999999523163]","./assets/img/space/12.jpg","[""ArrowDown"",""ArrowRight""]","practice block","space","23","{""ArrowUp,ArrowLeft"":3,""ArrowUp,ArrowRight"":36,""ArrowDown,ArrowLeft"":15,""ArrowDown,ArrowRight"":23}","false","ArrowDown,ArrowRight","false","","","","","",""
"html-keyboard-response","71","413255","0.0-3.0-11.0-2.0-1.5","spark_pilot_norest","8566","1","10","Male","","","","","","","null","<div style=""font-size:60px;"">+</div>","null","fixation","","","","","","","","","","","",""
"revaluation","72","419261","0.0-3.0-11.0-2.0-0.6","spark_pilot_norest","8566","1","10","Male","","false","","","","","[838.8999999761581,587.6000000238419]","./assets/img/space/13.jpg","[""ArrowDown"",""ArrowLeft""]","practice block","space","15","{""ArrowUp,ArrowLeft"":3,""ArrowUp,ArrowRight"":36,""ArrowDown,ArrowLeft"":15,""ArrowDown,ArrowRight"":23}","false","ArrowDown,ArrowLeft","false","","","","","",""
"html-keyboard-response","73","419763","0.0-3.0-11.0-2.0-1.6","spark_pilot_norest","8566","1","10","Male","","","","","","","null","<div style=""font-size:60px;"">+</div>","null","fixation","","","","","","","","","","","",""
"revaluation","74","425784","0.0-3.0-11.0-2.0-0.7","spark_pilot_norest","8566","1","10","Male","","false","","","","","[740,654.9000000953674]","./assets/img/space/14.jpg","[""ArrowDown"",""ArrowRight""]","practice block","space","23","{""ArrowUp,ArrowLeft"":3,""ArrowUp,ArrowRight"":36,""ArrowDown,ArrowLeft"":15,""ArrowDown,ArrowRight"":23}","false","ArrowDown,ArrowRight","false","","","","","",""
"html-keyboard-response","75","426289","0.0-3.0-11.0-2.0-1.7","spark_pilot_norest","8566","1","10","Male","","","","","","","null","<div style=""font-size:60px;"">+</div>","null","fixation","","","","","","","","","","","",""
"revaluation","76","430293","0.0-3.0-11.0-2.0-0.8","spark_pilot_norest","8566","1","10","Male","","false","","","","","[1535.6000000238419]","./assets/img/space/catch/3.jpg","[""spaceBar""]","practice block","space","0","{""ArrowUp,ArrowLeft"":3,""ArrowUp,ArrowRight"":36,""ArrowDown,ArrowLeft"":15,""ArrowDown,ArrowRight"":23}","true","spaceBar","true","","","","","",""
"html-keyboard-response","77","430796","0.0-3.0-11.0-2.0-1.8","spark_pilot_norest","8566","1","10","Male","","","","","","","null","<div style=""font-size:60px;"">+</div>","null","fixation","","","","","","","","","","","",""
"learning-instructions","78","446368","0.0-3.0-11.0-3.0-0.0","spark_pilot_norest","8566","1","10","Male","","","","","","","2319","<p> Now, you will travel with a friend who will choose whether you go up or down first. </p>
            <p> On these turns, you will just see the animal that they found. You will still get to choose which chest to search for treasure.</p>","","instructions","","","","","","","","","","","",""
"revaluation","79","450384","0.0-3.0-11.0-4.0-0.0","spark_pilot_norest","8566","1","10","Male","","false","","","","","[1157.5]","./assets/img/space/animals/cat.jpg","[""ArrowRight""]","practice block","space","36","{""ArrowUp,ArrowLeft"":3,""ArrowUp,ArrowRight"":36,""ArrowDown,ArrowLeft"":15,""ArrowDown,ArrowRight"":23}","true","ArrowUp,ArrowRight","","","","","","",""
"html-keyboard-response","80","450897","0.0-3.0-11.0-4.0-1.0","spark_pilot_norest","8566","1","10","Male","","","","","","","null","<div style=""font-size:60px;"">+</div>","null","fixation","","","","","","","","","","","",""
"revaluation","81","454917","0.0-3.0-11.0-4.0-0.1","spark_pilot_norest","8566","1","10","Male","","false","","","","","[537.1000000238419]","./assets/img/space/animals/rabbit.jpg","[""ArrowRight""]","practice block","space","23","{""ArrowUp,ArrowLeft"":3,""ArrowUp,ArrowRight"":36,""ArrowDown,ArrowLeft"":15,""ArrowDown,ArrowRight"":23}","true","ArrowDown,ArrowRight","","","","","","",""
"html-keyboard-response","82","455419","0.0-3.0-11.0-4.0-1.1","spark_pilot_norest","8566","1","10","Male","","","","","","","null","<div style=""font-size:60px;"">+</div>","null","fixation","","","","","","","","","","","",""
"revaluation","83","459444","0.0-3.0-11.0-4.0-0.2","spark_pilot_norest","8566","1","10","Male","","false","","","","","[456.90000009536743]","./assets/img/space/animals/rabbit.jpg","[""ArrowLeft""]","practice block","space","15","{""ArrowUp,ArrowLeft"":3,""ArrowUp,ArrowRight"":36,""ArrowDown,ArrowLeft"":15,""ArrowDown,ArrowRight"":23}","false","ArrowDown,ArrowLeft","","","","","","",""
"html-keyboard-response","84","459949","0.0-3.0-11.0-4.0-1.2","spark_pilot_norest","8566","1","10","Male","","","","","","","null","<div style=""font-size:60px;"">+</div>","null","fixation","","","","","","","","","","","",""
"revaluation","85","463972","0.0-3.0-11.0-4.0-0.3","spark_pilot_norest","8566","1","10","Male","","false","","","","","[1336.1000000238419]","./assets/img/space/animals/cat.jpg","[""ArrowLeft""]","practice block","space","3","{""ArrowUp,ArrowLeft"":3,""ArrowUp,ArrowRight"":36,""ArrowDown,ArrowLeft"":15,""ArrowDown,ArrowRight"":23}","false","ArrowUp,ArrowLeft","","","","","","",""
"html-keyboard-response","86","464488","0.0-3.0-11.0-4.0-1.3","spark_pilot_norest","8566","1","10","Male","","","","","","","null","<div style=""font-size:60px;"">+</div>","null","fixation","","","","","","","","","","","",""
"learning-instructions","87","472646","0.0-3.0-11.0-5.0-0.0","spark_pilot_norest","8566","1","10","Male","","","","","","","null","<p> You have almost finished this part of the game! </p>
            <p> We are going to ask you to make a few more choices. </p>","","instructions","","","","","","","","","","","",""
"learning-instructions","88","488692","0.0-3.0-11.0-5.0-0.1","spark_pilot_norest","8566","1","10","Male","","","","","","","null","<p> First, you need to decide whether to go up or down. When you see each picture, use the arrow keys to make your choice. </p>
            <p><b>You will not see which animal you found, but try to get to the one that will give you the most treasure.</b></p>","","instructions","","","","","","","","","","","",""
"html-keyboard-response","89","489705","0.0-3.0-11.0-6.0-0.0","spark_pilot_norest","8566","1","10","Male","","","","","","","null","<div style=""font-size:100px;color:red;"">Starting in...</div>","null","","","","","","","","","","","","",""
"html-keyboard-response","90","490718","0.0-3.0-11.0-6.0-1.0","spark_pilot_norest","8566","1","10","Male","","","","","","","null","<div style=""font-size:200px;color:red;"">3</div>","null","","","","","","","","","","","","",""
"html-keyboard-response","91","491730","0.0-3.0-11.0-6.0-2.0","spark_pilot_norest","8566","1","10","Male","","","","","","","null","<div style=""font-size:200px;color:red;"">2</div>","null","","","","","","","","","","","","",""
"html-keyboard-response","92","492731","0.0-3.0-11.0-6.0-3.0","spark_pilot_norest","8566","1","10","Male","","","","","","","null","<div style=""font-size:200px;color:red;"">1</div>","null","","","","","","","","","","","","",""
"revaluation","93","493168","0.0-3.0-11.0-7.0","spark_pilot_norest","8566","1","10","Male","","false","","","","","[433.5]","./assets/img/space/15.jpg","[""ArrowDown""]","practice block","space","0","{""ArrowUp,ArrowLeft"":3,""ArrowUp,ArrowRight"":36,""ArrowDown,ArrowLeft"":15,""ArrowDown,ArrowRight"":23}","false","ArrowDown","false","","","","","",""
"html-keyboard-response","94","493671","0.0-3.0-11.0-8.0","spark_pilot_norest","8566","1","10","Male","","","","","","","null","<div style=""font-size:60px;"">+</div>","null","fixation","","","","","","","","","","","",""
"learning-instructions","95","507103","0.0-3.0-11.0-9.0-0.0","spark_pilot_norest","8566","1","10","Male","","","","","","","null","<p> Now you will see the animals again and can search their chests for treasure. </p>
            <p> This time, you will not see how much treasure you earned, but you will earn more bonus money for making better choices. </p>","","instructions","","","","","","","","","","","",""
"html-keyboard-response","96","508117","0.0-3.0-11.0-10.0-0.0","spark_pilot_norest","8566","1","10","Male","","","","","","","null","<div style=""font-size:100px;color:red;"">Starting in...</div>","null","","","","","","","","","","","","",""
"html-keyboard-response","97","509131","0.0-3.0-11.0-10.0-1.0","spark_pilot_norest","8566","1","10","Male","","","","","","","null","<div style=""font-size:200px;color:red;"">3</div>","null","","","","","","","","","","","","",""
"html-keyboard-response","98","510147","0.0-3.0-11.0-10.0-2.0","spark_pilot_norest","8566","1","10","Male","","","","","","","null","<div style=""font-size:200px;color:red;"">2</div>","null","","","","","","","","","","","","",""
"html-keyboard-response","99","511160","0.0-3.0-11.0-10.0-3.0","spark_pilot_norest","8566","1","10","Male","","","","","","","null","<div style=""font-size:200px;color:red;"">1</div>","null","","","","","","","","","","","","",""
"revaluation","100","511978","0.0-3.0-11.0-11.0-0.0","spark_pilot_norest","8566","1","10","Male","","false","","","","","[813.3999999761581]","./assets/img/space/animals/cat.jpg","[""ArrowRight""]","practice block","space","0","{""ArrowUp,ArrowLeft"":3,""ArrowUp,ArrowRight"":36,""ArrowDown,ArrowLeft"":15,""ArrowDown,ArrowRight"":23}","true","ArrowUp,ArrowRight","","","","","","",""
"html-keyboard-response","101","512480","0.0-3.0-11.0-11.0-1.0","spark_pilot_norest","8566","1","10","Male","","","","","","","null","<div style=""font-size:60px;"">+</div>","null","fixation","","","","","","","","","","","",""
"revaluation","102","513169","0.0-3.0-11.0-11.0-0.1","spark_pilot_norest","8566","1","10","Male","","false","","","","","[685.2000000476837]","./assets/img/space/animals/rabbit.jpg","[""ArrowLeft""]","practice block","space","0","{""ArrowUp,ArrowLeft"":3,""ArrowUp,ArrowRight"":36,""ArrowDown,ArrowLeft"":15,""ArrowDown,ArrowRight"":23}","false","ArrowDown,ArrowLeft","","","","","","",""
"html-keyboard-response","103","513681","0.0-3.0-11.0-11.0-1.1","spark_pilot_norest","8566","1","10","Male","","","","","","","null","<div style=""font-size:60px;"">+</div>","null","fixation","","","","","","","","","","","",""
"learning-instructions","104","520499","0.0-3.0-12.0-0.0","spark_pilot_norest","8566","1","10","Male","","","","","","","2220.7000000476837","<p> Before you start, we're going to ask you a few questions about how the game works. </p>","","instructions","","","","","","","","","","","",""
"comp-q","105","527253","0.0-3.0-13.0-0.0-0.0","spark_pilot_norest","8566","1","10","Male","","","","","","","1138.6999999284744","<p> <b> True or False? </b> </p>
            <p> There can be 50 pieces of treasure in a given animal's chest. </p>","0","comp_question","","","","false","","","","","","","",""
"comp-q","106","535706","0.0-3.0-13.0-0.0-1.0","spark_pilot_norest","8566","1","10","Male","","","","","","","1937.5","<p> <b>Incorrect.</b> The amount of treasure in each chest can range from 0 to 40 pieces. </p>","0","comp_answer","","","","","","","","","","","",""
"comp-q","107","542182","0.0-3.0-13.0-0.1-0.1","spark_pilot_norest","8566","1","10","Male","","","","","","","913.5","<p> <b> True or False? </b> </p>
            <p> There can be 50 pieces of treasure in a given animal's chest. </p>","1","comp_question","","","","true","","","","","","","",""
"comp-q","108","552493","0.0-3.0-13.0-0.1-1.1","spark_pilot_norest","8566","1","10","Male","","","","","","","3634.1999999284744","<p> <b> That's right! </b> The amount of treasure in each chest can range from 0 to 40 pieces. </p>","0","comp_answer","","","","","","","","","","","",""
"comp-q","109","560820","0.0-3.0-13.0-0.2-0.2","spark_pilot_norest","8566","1","10","Male","","","","","","","1181","<p> <b> True or False? </b> </p><p> In this game, all animals have the same amount of treasure in their left and right chests. </p>","1","comp_question","","","","true","","","","","","","",""
"comp-q","110","568530","0.0-3.0-13.0-0.2-1.2","spark_pilot_norest","8566","1","10","Male","","","","","","","2451.399999976158","<p> <b> That's right! </b> Animals have different amounts of treasure in their treasure chests. </p>","0","comp_answer","","","","","","","","","","","",""
"comp-q","111","576071","0.0-3.0-13.0-0.3-0.3","spark_pilot_norest","8566","1","10","Male","","","","","","","1672.2000000476837","<p> <b> True or False? </b> </p><p> The same animal will always be there if you go up in the same place. </p>","1","comp_question","","","","false","","","","","","","",""
"comp-q","112","584045","0.0-3.0-13.0-0.3-1.3","spark_pilot_norest","8566","1","10","Male","","","","","","","1646.6000000238419","<p> <b>Incorrect.</b> One animal lives in the upper part and one lives in the lower part of every place. </p>","0","comp_answer","","","","","","","","","","","",""
"comp-q","113","592224","0.0-3.0-13.0-0.4-0.4","spark_pilot_norest","8566","1","10","Male","","","","","","","2365.899999976158","<p> <b> True or False? </b> </p><p> The same animal will always be there if you go up in the same place. </p>","1","comp_question","","","","false","","","","","","","",""
"comp-q","114","600441","0.0-3.0-13.0-0.4-1.4","spark_pilot_norest","8566","1","10","Male","","","","","","","1942.5","<p> <b>Incorrect.</b> One animal lives in the upper part and one lives in the lower part of every place. </p>","0","comp_answer","","","","","","","","","","","",""
"comp-q","115","607190","0.0-3.0-13.0-0.5-0.5","spark_pilot_norest","8566","1","10","Male","","","","","","","932.1999999284744","<p> <b> True or False? </b> </p><p> The same animal will always be there if you go up in the same place. </p>","0","comp_question","","","","true","","","","","","","",""
"comp-q","116","614932","0.0-3.0-13.0-0.5-1.5","spark_pilot_norest","8566","1","10","Male","","","","","","","1284.2999999523163","<p> <b> That's right! </b> One animal lives in the upper part and one lives in the lower part of every place. </p>","0","comp_answer","","","","","","","","","","","",""
"comp-q","117","622090","0.0-3.0-13.0-0.6-0.6","spark_pilot_norest","8566","1","10","Male","","","","","","","1612.2999999523163","<p> <b> True or False? </b> </p><p> If you see a different picture, it means you are in a new place. </p>","0","comp_question","","","","false","","","","","","","",""
"comp-q","118","636859","0.0-3.0-13.0-0.6-1.6","spark_pilot_norest","8566","1","10","Male","","","","","","","3641.2000000476837","<p> <b>Incorrect.</b> Lots of different images may show the same place. For example,  you may see three different images that all remind you that you are in outer space. </p>","0","comp_answer","","","","","","","","","","","",""
"comp-q","119","642964","0.0-3.0-13.0-0.7-0.7","spark_pilot_norest","8566","1","10","Male","","","","","","[{""event"":""fullscreenenter"",""trial"":2,""time"":68395},{""event"":""blur"",""trial"":120,""time"":648929},{""event"":""focus"",""trial"":120,""time"":650624}]","595.5","<p> <b> True or False? </b> </p><p> If you see a different picture, it means you are in a new place. </p>","1","comp_question","","","","true","","","","","","","",""
"comp-q","120","655556","0.0-3.0-13.0-0.7-1.7","spark_pilot_norest","8566","1","10","Male","","","","","","","1318.1000000238419","<p> <b> That's right! </b> Lots of different images may show the same place. For example,  you may see three different images that all remind you that you are in outer space. </p>","0","comp_answer","","","","","","","","","","","",""
"learning-instructions","121","667034","0.0-3.0-14.0-0.0","spark_pilot_norest","8566","1","10","Male","","","","","","","1586","<p> Good job. Remember to do your best because the amount of treasure you earn will be converted into bonus money. </p>
            <p> It’s time to start the real game! </p>","","instructions","","","","","","","","","","","",""
"learning-instructions","122","670855","0.0-4.0-0.0-0.0","spark_pilot_norest","8566","1","10","Male","","","","","","","1127.2999999523163","<p> This time you are searching for treasure in the <b>ocean</b>.</p>","","instructions","","","","","","","","","","","",""
"learning-instructions","123","688873","0.0-4.0-0.0-0.1","spark_pilot_norest","8566","1","10","Male","","","","","","","734.5","<p><b>New</b> animals with <b>new</b> treasure chests live here. You need to explore to discover where the animal with the best treasure chest is.</p>
                    <p> Like before, once you figure out which animal has the chest with the most treasure, you should try to get to that animal and select that chest! </p>","","instructions","","","","","","","","","","","",""
"learning-instructions","124","704761","0.0-4.0-1.0-0.0","spark_pilot_norest","8566","1","10","Male","","","","","","","1162.8000000715256","<p> Remember, when you see a picture of the place, use the up and down keys to <b>find an animal</b>.</p>
            <p> When you encounter an animal, you should use the left and right keys to <b>select a treasure chest</b>.</p>
            <p> Don't forget to look out for the robber! </p>","","instructions","","","","","","","","","","","",""
"revaluation","125","710802","0.0-4.0-2.0-0.0","spark_pilot_norest","8566","1","10","Male","","false","","","","","[1549.3999999761581,788.6000000238419]","./assets/img/ocean/memory/15.jpg","[""ArrowDown"",""ArrowRight""]","value training","ocean","17","{""ArrowUp,ArrowLeft"":26,""ArrowUp,ArrowRight"":10,""ArrowDown,ArrowLeft"":5,""ArrowDown,ArrowRight"":17}","false","ArrowDown,ArrowRight","false","original","1","0","","",""
"html-keyboard-response","126","711319","0.0-4.0-2.0-1.0","spark_pilot_norest","8566","1","10","Male","","","","","","","null","<div style=""font-size:60px;"">+</div>","null","fixation","","","","","","","","","1","","",""
"revaluation","127","717357","0.0-4.0-2.0-0.1","spark_pilot_norest","8566","1","10","Male","","false","","","","","[411,526.1000000238419]","./assets/img/ocean/memory/40.jpg","[""ArrowUp"",""ArrowLeft""]","value training","ocean","26","{""ArrowUp,ArrowLeft"":26,""ArrowUp,ArrowRight"":10,""ArrowDown,ArrowLeft"":5,""ArrowDown,ArrowRight"":17}","true","ArrowUp,ArrowLeft","false","original","1","2","","",""
"html-keyboard-response","128","717873","0.0-4.0-2.0-1.1","spark_pilot_norest","8566","1","10","Male","","","","","","","null","<div style=""font-size:60px;"">+</div>","null","fixation","","","","","","","","","3","","",""
"revaluation","129","723912","0.0-4.0-2.0-0.2","spark_pilot_norest","8566","1","10","Male","","false","","","","","[166.60000002384186,477.3000000715256]","./assets/img/ocean/memory/17.jpg","[""ArrowUp"",""ArrowRight""]","value training","ocean","10","{""ArrowUp,ArrowLeft"":26,""ArrowUp,ArrowRight"":10,""ArrowDown,ArrowLeft"":5,""ArrowDown,ArrowRight"":17}","false","ArrowUp,ArrowRight","false","original","1","4","","",""
"html-keyboard-response","130","724424","0.0-4.0-2.0-1.2","spark_pilot_norest","8566","1","10","Male","","","","","","","null","<div style=""font-size:60px;"">+</div>","null","fixation","","","","","","","","","5","","",""
"revaluation","131","728447","0.0-4.0-2.0-0.3","spark_pilot_norest","8566","1","10","Male","","false","","","","","[356]","./assets/img/ocean/catch/3.jpg","[""ArrowUp""]","value training","ocean","-10","{""ArrowUp,ArrowLeft"":26,""ArrowUp,ArrowRight"":10,""ArrowDown,ArrowLeft"":5,""ArrowDown,ArrowRight"":17}","false","ArrowUp","true","original","1","6","","",""
"html-keyboard-response","132","728949","0.0-4.0-2.0-1.3","spark_pilot_norest","8566","1","10","Male","","","","","","","null","<div style=""font-size:60px;"">+</div>","null","fixation","","","","","","","","","7","","",""
"revaluation","133","734969","0.0-4.0-2.0-0.4","spark_pilot_norest","8566","1","10","Male","","false","","","","","[1109.7000000476837,555.8999999761581]","./assets/img/ocean/memory/1.jpg","[""ArrowUp"",""ArrowLeft""]","value training","ocean","26","{""ArrowUp,ArrowLeft"":26,""ArrowUp,ArrowRight"":10,""ArrowDown,ArrowLeft"":5,""ArrowDown,ArrowRight"":17}","true","ArrowUp,ArrowLeft","false","original","1","8","","",""
"html-keyboard-response","134","735472","0.0-4.0-2.0-1.4","spark_pilot_norest","8566","1","10","Male","","","","","","","null","<div style=""font-size:60px;"">+</div>","null","fixation","","","","","","","","","9","","",""
"revaluation","135","739478","0.0-4.0-2.0-0.5","spark_pilot_norest","8566","1","10","Male","","false","","","","","[1047.5]","./assets/img/ocean/catch/7.jpg","[""spaceBar""]","value training","ocean","0","{""ArrowUp,ArrowLeft"":26,""ArrowUp,ArrowRight"":10,""ArrowDown,ArrowLeft"":5,""ArrowDown,ArrowRight"":17}","true","spaceBar","true","original","1","10","","",""
"html-keyboard-response","136","739980","0.0-4.0-2.0-1.5","spark_pilot_norest","8566","1","10","Male","","","","","","","null","<div style=""font-size:60px;"">+</div>","null","fixation","","","","","","","","","11","","",""
"revaluation","137","745986","0.0-4.0-2.0-0.6","spark_pilot_norest","8566","1","10","Male","","false","","","","","[789.7000000476837,698.5]","./assets/img/ocean/memory/14.jpg","[""ArrowDown"",""ArrowRight""]","value training","ocean","17","{""ArrowUp,ArrowLeft"":26,""ArrowUp,ArrowRight"":10,""ArrowDown,ArrowLeft"":5,""ArrowDown,ArrowRight"":17}","false","ArrowDown,ArrowRight","false","original","1","12","","",""
"html-keyboard-response","138","746488","0.0-4.0-2.0-1.6","spark_pilot_norest","8566","1","10","Male","","","","","","","null","<div style=""font-size:60px;"">+</div>","null","fixation","","","","","","","","","13","","",""
"revaluation","139","752495","0.0-4.0-2.0-0.7","spark_pilot_norest","8566","1","10","Male","","false","","","","","[421.3000000715256,460.8000000715256]","./assets/img/ocean/memory/9.jpg","[""ArrowDown"",""ArrowLeft""]","value training","ocean","5","{""ArrowUp,ArrowLeft"":26,""ArrowUp,ArrowRight"":10,""ArrowDown,ArrowLeft"":5,""ArrowDown,ArrowRight"":17}","false","ArrowDown,ArrowLeft","false","original","1","14","","",""
"html-keyboard-response","140","752997","0.0-4.0-2.0-1.7","spark_pilot_norest","8566","1","10","Male","","","","","","","null","<div style=""font-size:60px;"">+</div>","null","fixation","","","","","","","","","15","","",""
"revaluation","141","759004","0.0-4.0-2.0-0.8","spark_pilot_norest","8566","1","10","Male","","false","","","","","[783.7000000476837,552.5999999046326]","./assets/img/ocean/memory/6.jpg","[""ArrowUp"",""ArrowLeft""]","value training","ocean","26","{""ArrowUp,ArrowLeft"":26,""ArrowUp,ArrowRight"":10,""ArrowDown,ArrowLeft"":5,""ArrowDown,ArrowRight"":17}","true","ArrowUp,ArrowLeft","false","original","1","16","","",""
"html-keyboard-response","142","759505","0.0-4.0-2.0-1.8","spark_pilot_norest","8566","1","10","Male","","","","","","","null","<div style=""font-size:60px;"">+</div>","null","fixation","","","","","","","","","17","","",""
"revaluation","143","765511","0.0-4.0-2.0-0.9","spark_pilot_norest","8566","1","10","Male","","false","","","","","[985,764.1000000238419]","./assets/img/ocean/memory/3.jpg","[""ArrowUp"",""ArrowRight""]","value training","ocean","10","{""ArrowUp,ArrowLeft"":26,""ArrowUp,ArrowRight"":10,""ArrowDown,ArrowLeft"":5,""ArrowDown,ArrowRight"":17}","false","ArrowUp,ArrowRight","false","original","1","18","","",""
"html-keyboard-response","144","766012","0.0-4.0-2.0-1.9","spark_pilot_norest","8566","1","10","Male","","","","","","","null","<div style=""font-size:60px;"">+</div>","null","fixation","","","","","","","","","19","","",""
"revaluation","145","772020","0.0-4.0-2.0-0.10","spark_pilot_norest","8566","1","10","Male","","false","","","","","[816.6999999284744,925.8999999761581]","./assets/img/ocean/memory/29.jpg","[""ArrowUp"",""ArrowLeft""]","value training","ocean","26","{""ArrowUp,ArrowLeft"":26,""ArrowUp,ArrowRight"":10,""ArrowDown,ArrowLeft"":5,""ArrowDown,ArrowRight"":17}","true","ArrowUp,ArrowLeft","false","original","1","20","","",""
"html-keyboard-response","146","772522","0.0-4.0-2.0-1.10","spark_pilot_norest","8566","1","10","Male","","","","","","","null","<div style=""font-size:60px;"">+</div>","null","fixation","","","","","","","","","21","","",""
"revaluation","147","778530","0.0-4.0-2.0-0.11","spark_pilot_norest","8566","1","10","Male","","false","","","","","[887.3999999761581,376]","./assets/img/ocean/memory/13.jpg","[""ArrowUp"",""ArrowLeft""]","value training","ocean","26","{""ArrowUp,ArrowLeft"":26,""ArrowUp,ArrowRight"":10,""ArrowDown,ArrowLeft"":5,""ArrowDown,ArrowRight"":17}","true","ArrowUp,ArrowLeft","false","original","1","22","","",""
"html-keyboard-response","148","779033","0.0-4.0-2.0-1.11","spark_pilot_norest","8566","1","10","Male","","","","","","","null","<div style=""font-size:60px;"">+</div>","null","fixation","","","","","","","","","23","","",""
"revaluation","149","785038","0.0-4.0-2.0-0.12","spark_pilot_norest","8566","1","10","Male","","false","","","","","[608,426]","./assets/img/ocean/memory/10.jpg","[""ArrowUp"",""ArrowLeft""]","value training","ocean","26","{""ArrowUp,ArrowLeft"":26,""ArrowUp,ArrowRight"":10,""ArrowDown,ArrowLeft"":5,""ArrowDown,ArrowRight"":17}","true","ArrowUp,ArrowLeft","false","original","1","24","","",""
"html-keyboard-response","150","785541","0.0-4.0-2.0-1.12","spark_pilot_norest","8566","1","10","Male","","","","","","","null","<div style=""font-size:60px;"">+</div>","null","fixation","","","","","","","","","25","","",""
"revaluation","151","791546","0.0-4.0-2.0-0.13","spark_pilot_norest","8566","1","10","Male","","false","","","","","[1010.5,499.60000002384186]","./assets/img/ocean/memory/40.jpg","[""ArrowUp"",""ArrowLeft""]","value training","ocean","26","{""ArrowUp,ArrowLeft"":26,""ArrowUp,ArrowRight"":10,""ArrowDown,ArrowLeft"":5,""ArrowDown,ArrowRight"":17}","true","ArrowUp,ArrowLeft","false","original","1","26","","",""
"html-keyboard-response","152","792062","0.0-4.0-2.0-1.13","spark_pilot_norest","8566","1","10","Male","","","","","","","null","<div style=""font-size:60px;"">+</div>","null","fixation","","","","","","","","","27","","",""
"revaluation","153","798067","0.0-4.0-2.0-0.14","spark_pilot_norest","8566","1","10","Male","","false","","","","","[779.9000000953674,778.8000000715256]","./assets/img/ocean/memory/28.jpg","[""ArrowUp"",""ArrowLeft""]","value training","ocean","26","{""ArrowUp,ArrowLeft"":26,""ArrowUp,ArrowRight"":10,""ArrowDown,ArrowLeft"":5,""ArrowDown,ArrowRight"":17}","true","ArrowUp,ArrowLeft","false","original","1","28","","",""
"html-keyboard-response","154","798569","0.0-4.0-2.0-1.14","spark_pilot_norest","8566","1","10","Male","","","","","","","null","<div style=""font-size:60px;"">+</div>","null","fixation","","","","","","","","","29","","",""
"revaluation","155","804576","0.0-4.0-2.0-0.15","spark_pilot_norest","8566","1","10","Male","","false","","","","","[1020.8999999761581,800.2999999523163]","./assets/img/ocean/memory/41.jpg","[""ArrowUp"",""ArrowLeft""]","value training","ocean","26","{""ArrowUp,ArrowLeft"":26,""ArrowUp,ArrowRight"":10,""ArrowDown,ArrowLeft"":5,""ArrowDown,ArrowRight"":17}","true","ArrowUp,ArrowLeft","false","original","1","30","","",""
"html-keyboard-response","156","805092","0.0-4.0-2.0-1.15","spark_pilot_norest","8566","1","10","Male","","","","","","","null","<div style=""font-size:60px;"">+</div>","null","fixation","","","","","","","","","31","","",""
"revaluation","157","811099","0.0-4.0-2.0-0.16","spark_pilot_norest","8566","1","10","Male","","false","","","","","[1157.8999999761581,636.3999999761581]","./assets/img/ocean/memory/9.jpg","[""ArrowUp"",""ArrowLeft""]","value training","ocean","26","{""ArrowUp,ArrowLeft"":26,""ArrowUp,ArrowRight"":10,""ArrowDown,ArrowLeft"":5,""ArrowDown,ArrowRight"":17}","true","ArrowUp,ArrowLeft","false","original","1","32","","",""
"html-keyboard-response","158","811601","0.0-4.0-2.0-1.16","spark_pilot_norest","8566","1","10","Male","","","","","","","null","<div style=""font-size:60px;"">+</div>","null","fixation","","","","","","","","","33","","",""
"revaluation","159","817609","0.0-4.0-2.0-0.17","spark_pilot_norest","8566","1","10","Male","","false","","","","","[1299.3000000715256,327.09999990463257]","./assets/img/ocean/memory/1.jpg","[""ArrowUp"",""ArrowLeft""]","value training","ocean","26","{""ArrowUp,ArrowLeft"":26,""ArrowUp,ArrowRight"":10,""ArrowDown,ArrowLeft"":5,""ArrowDown,ArrowRight"":17}","true","ArrowUp,ArrowLeft","false","original","1","34","","",""
"html-keyboard-response","160","818111","0.0-4.0-2.0-1.17","spark_pilot_norest","8566","1","10","Male","","","","","","","null","<div style=""font-size:60px;"">+</div>","null","fixation","","","","","","","","","35","","",""
"revaluation","161","824116","0.0-4.0-2.0-0.18","spark_pilot_norest","8566","1","10","Male","","false","","","","","[750,618.8999999761581]","./assets/img/ocean/memory/0.jpg","[""ArrowUp"",""ArrowLeft""]","value training","ocean","26","{""ArrowUp,ArrowLeft"":26,""ArrowUp,ArrowRight"":10,""ArrowDown,ArrowLeft"":5,""ArrowDown,ArrowRight"":17}","true","ArrowUp,ArrowLeft","false","original","1","36","","",""
"html-keyboard-response","162","824617","0.0-4.0-2.0-1.18","spark_pilot_norest","8566","1","10","Male","","","","","","","null","<div style=""font-size:60px;"">+</div>","null","fixation","","","","","","","","","37","","",""
"revaluation","163","830624","0.0-4.0-2.0-0.19","spark_pilot_norest","8566","1","10","Male","","false","","","","","[614.7000000476837,492.39999997615814]","./assets/img/ocean/memory/25.jpg","[""ArrowUp"",""ArrowLeft""]","value training","ocean","26","{""ArrowUp,ArrowLeft"":26,""ArrowUp,ArrowRight"":10,""ArrowDown,ArrowLeft"":5,""ArrowDown,ArrowRight"":17}","true","ArrowUp,ArrowLeft","false","original","1","38","","",""
"html-keyboard-response","164","831125","0.0-4.0-2.0-1.19","spark_pilot_norest","8566","1","10","Male","","","","","","","null","<div style=""font-size:60px;"">+</div>","null","fixation","","","","","","","","","39","","",""
"revaluation","165","837132","0.0-4.0-2.0-0.20","spark_pilot_norest","8566","1","10","Male","","false","","","","","[735.5,464.10000002384186]","./assets/img/ocean/memory/14.jpg","[""ArrowUp"",""ArrowLeft""]","value training","ocean","26","{""ArrowUp,ArrowLeft"":26,""ArrowUp,ArrowRight"":10,""ArrowDown,ArrowLeft"":5,""ArrowDown,ArrowRight"":17}","true","ArrowUp,ArrowLeft","false","original","1","40","","",""
"html-keyboard-response","166","837633","0.0-4.0-2.0-1.20","spark_pilot_norest","8566","1","10","Male","","","","","","","null","<div style=""font-size:60px;"">+</div>","null","fixation","","","","","","","","","41","","",""
"revaluation","167","841638","0.0-4.0-2.0-0.21","spark_pilot_norest","8566","1","10","Male","","false","","","","","[907.3999999761581]","./assets/img/ocean/catch/4.jpg","[""spaceBar""]","value training","ocean","0","{""ArrowUp,ArrowLeft"":26,""ArrowUp,ArrowRight"":10,""ArrowDown,ArrowLeft"":5,""ArrowDown,ArrowRight"":17}","true","spaceBar","true","original","1","42","","",""
"html-keyboard-response","168","842140","0.0-4.0-2.0-1.21","spark_pilot_norest","8566","1","10","Male","","","","","","","null","<div style=""font-size:60px;"">+</div>","null","fixation","","","","","","","","","43","","",""
"revaluation","169","848146","0.0-4.0-2.0-0.22","spark_pilot_norest","8566","1","10","Male","","false","","","","","[669.7999999523163,1068.8999999761581]","./assets/img/ocean/memory/25.jpg","[""ArrowUp"",""ArrowLeft""]","value training","ocean","26","{""ArrowUp,ArrowLeft"":26,""ArrowUp,ArrowRight"":10,""ArrowDown,ArrowLeft"":5,""ArrowDown,ArrowRight"":17}","true","ArrowUp,ArrowLeft","false","original","1","44","","",""
"html-keyboard-response","170","848660","0.0-4.0-2.0-1.22","spark_pilot_norest","8566","1","10","Male","","","","","","","null","<div style=""font-size:60px;"">+</div>","null","fixation","","","","","","","","","45","","",""
"revaluation","171","854667","0.0-4.0-2.0-0.23","spark_pilot_norest","8566","1","10","Male","","false","","","","","[1557.6999999284744,1077.4000000953674]","./assets/img/ocean/memory/15.jpg","[""ArrowUp"",""ArrowLeft""]","value training","ocean","26","{""ArrowUp,ArrowLeft"":26,""ArrowUp,ArrowRight"":10,""ArrowDown,ArrowLeft"":5,""ArrowDown,ArrowRight"":17}","true","ArrowUp,ArrowLeft","false","original","1","46","","",""
"html-keyboard-response","172","855169","0.0-4.0-2.0-1.23","spark_pilot_norest","8566","1","10","Male","","","","","","","null","<div style=""font-size:60px;"">+</div>","null","fixation","","","","","","","","","47","","",""
"revaluation","173","859176","0.0-4.0-2.0-0.24","spark_pilot_norest","8566","1","10","Male","","false","","","","","[789.5999999046326]","./assets/img/ocean/catch/2.jpg","[""spaceBar""]","value training","ocean","0","{""ArrowUp,ArrowLeft"":26,""ArrowUp,ArrowRight"":10,""ArrowDown,ArrowLeft"":5,""ArrowDown,ArrowRight"":17}","true","spaceBar","true","original","1","48","","",""
"html-keyboard-response","174","859687","0.0-4.0-2.0-1.24","spark_pilot_norest","8566","1","10","Male","","","","","","","null","<div style=""font-size:60px;"">+</div>","null","fixation","","","","","","","","","49","","",""
"revaluation","175","863693","0.0-4.0-2.0-0.25","spark_pilot_norest","8566","1","10","Male","","false","","","","","[972.1000000238419]","./assets/img/ocean/catch/0.jpg","[""spaceBar""]","value training","ocean","0","{""ArrowUp,ArrowLeft"":26,""ArrowUp,ArrowRight"":10,""ArrowDown,ArrowLeft"":5,""ArrowDown,ArrowRight"":17}","true","spaceBar","true","original","1","50","","",""
"html-keyboard-response","176","864194","0.0-4.0-2.0-1.25","spark_pilot_norest","8566","1","10","Male","","","","","","","null","<div style=""font-size:60px;"">+</div>","null","fixation","","","","","","","","","51","","",""
"revaluation","177","868199","0.0-4.0-2.0-0.26","spark_pilot_norest","8566","1","10","Male","","false","","","","","[764.8000000715256]","./assets/img/ocean/catch/5.jpg","[""spaceBar""]","value training","ocean","0","{""ArrowUp,ArrowLeft"":26,""ArrowUp,ArrowRight"":10,""ArrowDown,ArrowLeft"":5,""ArrowDown,ArrowRight"":17}","true","spaceBar","true","original","1","52","","",""
"html-keyboard-response","178","868702","0.0-4.0-2.0-1.26","spark_pilot_norest","8566","1","10","Male","","","","","","","null","<div style=""font-size:60px;"">+</div>","null","fixation","","","","","","","","","53","","",""
"revaluation","179","874709","0.0-4.0-2.0-0.27","spark_pilot_norest","8566","1","10","Male","","false","","","","","[1987.6000000238419,847.5]","./assets/img/ocean/memory/28.jpg","[""ArrowUp"",""ArrowLeft""]","value training","ocean","26","{""ArrowUp,ArrowLeft"":26,""ArrowUp,ArrowRight"":10,""ArrowDown,ArrowLeft"":5,""ArrowDown,ArrowRight"":17}","true","ArrowUp,ArrowLeft","false","original","1","54","","",""
"html-keyboard-response","180","875210","0.0-4.0-2.0-1.27","spark_pilot_norest","8566","1","10","Male","","","","","","","null","<div style=""font-size:60px;"">+</div>","null","fixation","","","","","","","","","55","","",""
"revaluation","181","879217","0.0-4.0-2.0-0.28","spark_pilot_norest","8566","1","10","Male","","true","","","","","[]","./assets/img/ocean/memory/2.jpg","[]","value training","ocean","-5","{""ArrowUp,ArrowLeft"":26,""ArrowUp,ArrowRight"":10,""ArrowDown,ArrowLeft"":5,""ArrowDown,ArrowRight"":17}","false","","false","original","1","56","","",""
"html-keyboard-response","182","879719","0.0-4.0-2.0-1.28","spark_pilot_norest","8566","1","10","Male","","","","","","","null","<div style=""font-size:60px;"">+</div>","null","fixation","","","","","","","","","57","","",""
"revaluation","183","883724","0.0-4.0-2.0-0.29","spark_pilot_norest","8566","1","10","Male","","false","","","","","[409.7000000476837]","./assets/img/ocean/catch/6.jpg","[""ArrowUp""]","value training","ocean","-10","{""ArrowUp,ArrowLeft"":26,""ArrowUp,ArrowRight"":10,""ArrowDown,ArrowLeft"":5,""ArrowDown,ArrowRight"":17}","false","ArrowUp","true","original","1","58","","",""
"html-keyboard-response","184","884226","0.0-4.0-2.0-1.29","spark_pilot_norest","8566","1","10","Male","","","","","","","null","<div style=""font-size:60px;"">+</div>","null","fixation","","","","","","","","","59","","",""
"revaluation","185","890233","0.0-4.0-2.0-0.30","spark_pilot_norest","8566","1","10","Male","","false","","","","","[903.6000000238419,463.3000000715256]","./assets/img/ocean/memory/6.jpg","[""ArrowUp"",""ArrowLeft""]","value training","ocean","26","{""ArrowUp,ArrowLeft"":26,""ArrowUp,ArrowRight"":10,""ArrowDown,ArrowLeft"":5,""ArrowDown,ArrowRight"":17}","true","ArrowUp,ArrowLeft","false","original","1","60","","",""
"html-keyboard-response","186","890735","0.0-4.0-2.0-1.30","spark_pilot_norest","8566","1","10","Male","","","","","","","null","<div style=""font-size:60px;"">+</div>","null","fixation","","","","","","","","","61","","",""
"revaluation","187","896749","0.0-4.0-2.0-0.31","spark_pilot_norest","8566","1","10","Male","","false","","","","","[775.1000000238419,626.5]","./assets/img/ocean/memory/13.jpg","[""ArrowUp"",""ArrowLeft""]","value training","ocean","26","{""ArrowUp,ArrowLeft"":26,""ArrowUp,ArrowRight"":10,""ArrowDown,ArrowLeft"":5,""ArrowDown,ArrowRight"":17}","true","ArrowUp,ArrowLeft","false","original","1","62","","",""
"html-keyboard-response","188","897252","0.0-4.0-2.0-1.31","spark_pilot_norest","8566","1","10","Male","","","","","","","null","<div style=""font-size:60px;"">+</div>","null","fixation","","","","","","","","","63","","",""
"revaluation","189","903259","0.0-4.0-2.0-0.32","spark_pilot_norest","8566","1","10","Male","","false","","","","","[817.2999999523163,486.09999990463257]","./assets/img/ocean/memory/2.jpg","[""ArrowUp"",""ArrowLeft""]","value training","ocean","26","{""ArrowUp,ArrowLeft"":26,""ArrowUp,ArrowRight"":10,""ArrowDown,ArrowLeft"":5,""ArrowDown,ArrowRight"":17}","true","ArrowUp,ArrowLeft","false","original","1","64","","",""
"html-keyboard-response","190","903761","0.0-4.0-2.0-1.32","spark_pilot_norest","8566","1","10","Male","","","","","","","null","<div style=""font-size:60px;"">+</div>","null","fixation","","","","","","","","","65","","",""
"revaluation","191","909767","0.0-4.0-2.0-0.33","spark_pilot_norest","8566","1","10","Male","","false","","","","","[678,818]","./assets/img/ocean/memory/33.jpg","[""ArrowUp"",""ArrowLeft""]","value training","ocean","26","{""ArrowUp,ArrowLeft"":26,""ArrowUp,ArrowRight"":10,""ArrowDown,ArrowLeft"":5,""ArrowDown,ArrowRight"":17}","true","ArrowUp,ArrowLeft","false","original","1","66","","",""
"html-keyboard-response","192","910268","0.0-4.0-2.0-1.33","spark_pilot_norest","8566","1","10","Male","","","","","","","null","<div style=""font-size:60px;"">+</div>","null","fixation","","","","","","","","","67","","",""
"revaluation","193","916276","0.0-4.0-2.0-0.34","spark_pilot_norest","8566","1","10","Male","","false","","","","","[932.5999999046326,631.5]","./assets/img/ocean/memory/19.jpg","[""ArrowUp"",""ArrowLeft""]","value training","ocean","26","{""ArrowUp,ArrowLeft"":26,""ArrowUp,ArrowRight"":10,""ArrowDown,ArrowLeft"":5,""ArrowDown,ArrowRight"":17}","true","ArrowUp,ArrowLeft","false","original","1","68","","",""
"html-keyboard-response","194","916778","0.0-4.0-2.0-1.34","spark_pilot_norest","8566","1","10","Male","","","","","","","null","<div style=""font-size:60px;"">+</div>","null","fixation","","","","","","","","","69","","",""
"revaluation","195","922783","0.0-4.0-2.0-0.35","spark_pilot_norest","8566","1","10","Male","","false","","","","","[873,592]","./assets/img/ocean/memory/8.jpg","[""ArrowUp"",""ArrowLeft""]","value training","ocean","26","{""ArrowUp,ArrowLeft"":26,""ArrowUp,ArrowRight"":10,""ArrowDown,ArrowLeft"":5,""ArrowDown,ArrowRight"":17}","true","ArrowUp,ArrowLeft","false","original","1","70","","",""
"html-keyboard-response","196","923286","0.0-4.0-2.0-1.35","spark_pilot_norest","8566","1","10","Male","","","","","","","null","<div style=""font-size:60px;"">+</div>","null","fixation","","","","","","","","","71","","",""
"revaluation","197","929291","0.0-4.0-2.0-0.36","spark_pilot_norest","8566","1","10","Male","","false","","","","","[1034.3000000715256,494]","./assets/img/ocean/memory/41.jpg","[""ArrowUp"",""ArrowLeft""]","value training","ocean","26","{""ArrowUp,ArrowLeft"":26,""ArrowUp,ArrowRight"":10,""ArrowDown,ArrowLeft"":5,""ArrowDown,ArrowRight"":17}","true","ArrowUp,ArrowLeft","false","original","1","72","","",""
"html-keyboard-response","198","929793","0.0-4.0-2.0-1.36","spark_pilot_norest","8566","1","10","Male","","","","","","","null","<div style=""font-size:60px;"">+</div>","null","fixation","","","","","","","","","73","","",""
"revaluation","199","935804","0.0-4.0-2.0-0.37","spark_pilot_norest","8566","1","10","Male","","false","","","","","[896.8000000715256,615.6000000238419]","./assets/img/ocean/memory/10.jpg","[""ArrowUp"",""ArrowLeft""]","value training","ocean","26","{""ArrowUp,ArrowLeft"":26,""ArrowUp,ArrowRight"":10,""ArrowDown,ArrowLeft"":5,""ArrowDown,ArrowRight"":17}","true","ArrowUp,ArrowLeft","false","original","1","74","","",""
"html-keyboard-response","200","936306","0.0-4.0-2.0-1.37","spark_pilot_norest","8566","1","10","Male","","","","","","","null","<div style=""font-size:60px;"">+</div>","null","fixation","","","","","","","","","75","","",""
"revaluation","201","942312","0.0-4.0-2.0-0.38","spark_pilot_norest","8566","1","10","Male","","false","","","","","[624.7999999523163,1563.7999999523163]","./assets/img/ocean/memory/8.jpg","[""ArrowUp"",""ArrowLeft""]","value training","ocean","26","{""ArrowUp,ArrowLeft"":26,""ArrowUp,ArrowRight"":10,""ArrowDown,ArrowLeft"":5,""ArrowDown,ArrowRight"":17}","true","ArrowUp,ArrowLeft","false","original","1","76","","",""
"html-keyboard-response","202","942814","0.0-4.0-2.0-1.38","spark_pilot_norest","8566","1","10","Male","","","","","","","null","<div style=""font-size:60px;"">+</div>","null","fixation","","","","","","","","","77","","",""
"revaluation","203","948820","0.0-4.0-2.0-0.39","spark_pilot_norest","8566","1","10","Male","","false","","","","","[177.70000004768372,376.60000002384186]","./assets/img/ocean/memory/3.jpg","[""ArrowUp"",""ArrowLeft""]","value training","ocean","26","{""ArrowUp,ArrowLeft"":26,""ArrowUp,ArrowRight"":10,""ArrowDown,ArrowLeft"":5,""ArrowDown,ArrowRight"":17}","true","ArrowUp,ArrowLeft","false","original","1","78","","",""
"html-keyboard-response","204","949321","0.0-4.0-2.0-1.39","spark_pilot_norest","8566","1","10","Male","","","","","","","null","<div style=""font-size:60px;"">+</div>","null","fixation","","","","","","","","","79","","",""
"revaluation","205","955328","0.0-4.0-2.0-0.40","spark_pilot_norest","8566","1","10","Male","","false","","","","","[969,208.20000004768372]","./assets/img/ocean/memory/33.jpg","[""ArrowUp"",""ArrowLeft""]","value training","ocean","26","{""ArrowUp,ArrowLeft"":26,""ArrowUp,ArrowRight"":10,""ArrowDown,ArrowLeft"":5,""ArrowDown,ArrowRight"":17}","true","ArrowUp,ArrowLeft","false","original","1","80","","",""
"html-keyboard-response","206","955830","0.0-4.0-2.0-1.40","spark_pilot_norest","8566","1","10","Male","","","","","","","null","<div style=""font-size:60px;"">+</div>","null","fixation","","","","","","","","","81","","",""
"revaluation","207","961837","0.0-4.0-2.0-0.41","spark_pilot_norest","8566","1","10","Male","","false","","","","","[811.1000000238419,158.70000004768372]","./assets/img/ocean/memory/17.jpg","[""ArrowUp"",""ArrowLeft""]","value training","ocean","26","{""ArrowUp,ArrowLeft"":26,""ArrowUp,ArrowRight"":10,""ArrowDown,ArrowLeft"":5,""ArrowDown,ArrowRight"":17}","true","ArrowUp,ArrowLeft","false","original","1","82","","",""
"html-keyboard-response","208","962339","0.0-4.0-2.0-1.41","spark_pilot_norest","8566","1","10","Male","","","","","","","null","<div style=""font-size:60px;"">+</div>","null","fixation","","","","","","","","","83","","",""
"revaluation","209","968346","0.0-4.0-2.0-0.42","spark_pilot_norest","8566","1","10","Male","","false","","","","","[870.7000000476837,308.89999997615814]","./assets/img/ocean/memory/29.jpg","[""ArrowUp"",""ArrowLeft""]","value training","ocean","26","{""ArrowUp,ArrowLeft"":26,""ArrowUp,ArrowRight"":10,""ArrowDown,ArrowLeft"":5,""ArrowDown,ArrowRight"":17}","true","ArrowUp,ArrowLeft","false","original","1","84","","",""
"html-keyboard-response","210","968847","0.0-4.0-2.0-1.42","spark_pilot_norest","8566","1","10","Male","","","","","","","null","<div style=""font-size:60px;"">+</div>","null","fixation","","","","","","","","","85","","",""
"revaluation","211","974853","0.0-4.0-2.0-0.43","spark_pilot_norest","8566","1","10","Male","","false","","","","","[1013.1999999284744,232.10000002384186]","./assets/img/ocean/memory/19.jpg","[""ArrowUp"",""ArrowLeft""]","value training","ocean","26","{""ArrowUp,ArrowLeft"":26,""ArrowUp,ArrowRight"":10,""ArrowDown,ArrowLeft"":5,""ArrowDown,ArrowRight"":17}","true","ArrowUp,ArrowLeft","false","original","1","86","","",""
"html-keyboard-response","212","975354","0.0-4.0-2.0-1.43","spark_pilot_norest","8566","1","10","Male","","","","","","","null","<div style=""font-size:60px;"">+</div>","null","fixation","","","","","","","","","87","","",""
"revaluation","213","981360","0.0-4.0-2.0-0.44","spark_pilot_norest","8566","1","10","Male","","false","","","","","[914.5999999046326,424.6999999284744]","./assets/img/ocean/memory/0.jpg","[""ArrowUp"",""ArrowLeft""]","value training","ocean","26","{""ArrowUp,ArrowLeft"":26,""ArrowUp,ArrowRight"":10,""ArrowDown,ArrowLeft"":5,""ArrowDown,ArrowRight"":17}","true","ArrowUp,ArrowLeft","false","original","1","88","","",""
"html-keyboard-response","214","981863","0.0-4.0-2.0-1.44","spark_pilot_norest","8566","1","10","Male","","","","","","","null","<div style=""font-size:60px;"">+</div>","null","fixation","","","","","","","","","89","","",""
"revaluation","215","987869","0.0-4.0-2.0-0.45","spark_pilot_norest","8566","1","10","Male","","false","","","","","[1397.5,606.6999999284744]","./assets/img/ocean/memory/37.jpg","[""ArrowUp"",""ArrowLeft""]","value training","ocean","26","{""ArrowUp,ArrowLeft"":26,""ArrowUp,ArrowRight"":10,""ArrowDown,ArrowLeft"":5,""ArrowDown,ArrowRight"":17}","true","ArrowUp,ArrowLeft","false","original","1","90","","",""
"html-keyboard-response","216","988371","0.0-4.0-2.0-1.45","spark_pilot_norest","8566","1","10","Male","","","","","","","null","<div style=""font-size:60px;"">+</div>","null","fixation","","","","","","","","","91","","",""
"revaluation","217","992377","0.0-4.0-2.0-0.46","spark_pilot_norest","8566","1","10","Male","","false","","","","","[29.299999952316284]","./assets/img/ocean/catch/1.jpg","[""spaceBar""]","value training","ocean","0","{""ArrowUp,ArrowLeft"":26,""ArrowUp,ArrowRight"":10,""ArrowDown,ArrowLeft"":5,""ArrowDown,ArrowRight"":17}","true","spaceBar","true","original","1","92","","",""
"html-keyboard-response","218","992878","0.0-4.0-2.0-1.46","spark_pilot_norest","8566","1","10","Male","","","","","","","null","<div style=""font-size:60px;"">+</div>","null","fixation","","","","","","","","","93","","",""
"revaluation","219","998884","0.0-4.0-2.0-0.47","spark_pilot_norest","8566","1","10","Male","","false","","","","","[1041.3999999761581,51.10000002384186]","./assets/img/ocean/memory/39.jpg","[""ArrowUp"",""ArrowLeft""]","value training","ocean","26","{""ArrowUp,ArrowLeft"":26,""ArrowUp,ArrowRight"":10,""ArrowDown,ArrowLeft"":5,""ArrowDown,ArrowRight"":17}","true","ArrowUp,ArrowLeft","false","original","1","94","","",""
"html-keyboard-response","220","999386","0.0-4.0-2.0-1.47","spark_pilot_norest","8566","1","10","Male","","","","","","","null","<div style=""font-size:60px;"">+</div>","null","fixation","","","","","","","","","95","","",""
"revaluation","221","1005392","0.0-4.0-2.0-0.48","spark_pilot_norest","8566","1","10","Male","","false","","","","","[1193.6999999284744,362.6999999284744]","./assets/img/ocean/memory/39.jpg","[""ArrowUp"",""ArrowLeft""]","value training","ocean","26","{""ArrowUp,ArrowLeft"":26,""ArrowUp,ArrowRight"":10,""ArrowDown,ArrowLeft"":5,""ArrowDown,ArrowRight"":17}","true","ArrowUp,ArrowLeft","false","original","1","96","","",""
"html-keyboard-response","222","1005894","0.0-4.0-2.0-1.48","spark_pilot_norest","8566","1","10","Male","","","","","","","null","<div style=""font-size:60px;"">+</div>","null","fixation","","","","","","","","","97","","",""
"revaluation","223","1011899","0.0-4.0-2.0-0.49","spark_pilot_norest","8566","1","10","Male","","false","","","","","[876.3000000715256,465.3000000715256]","./assets/img/ocean/memory/37.jpg","[""ArrowUp"",""ArrowLeft""]","value training","ocean","26","{""ArrowUp,ArrowLeft"":26,""ArrowUp,ArrowRight"":10,""ArrowDown,ArrowLeft"":5,""ArrowDown,ArrowRight"":17}","true","ArrowUp,ArrowLeft","false","original","1","98","","",""
"html-keyboard-response","224","1012401","0.0-4.0-2.0-1.49","spark_pilot_norest","8566","1","10","Male","","","","","","","null","<div style=""font-size:60px;"">+</div>","null","fixation","","","","","","","","","99","","",""
"learning-instructions","225","1027106","0.0-4.0-3.0-0.0","spark_pilot_norest","8566","1","10","Male","","","","","","","1474.2999999523163","<p> Now, you will travel with a friend who will choose whether you go up or down first. </p>
            <p> On these turns, you will just see the animal that they found. You will still get to choose which chest to search for treasure.</p>","","instructions","","","","","","","","","","","",""
"revaluation","226","1031113","0.0-4.0-4.0-0.0","spark_pilot_norest","8566","1","10","Male","","false","","","","","[1166.2999999523163]","./assets/img/ocean/animals/octopus.jpg","[""ArrowRight""]","revaluation","ocean","10","{""ArrowUp,ArrowLeft"":26,""ArrowUp,ArrowRight"":10,""ArrowDown,ArrowLeft"":5,""ArrowDown,ArrowRight"":17}","false","ArrowUp,ArrowRight","","original","1","0","","",""
"html-keyboard-response","227","1031630","0.0-4.0-4.0-1.0","spark_pilot_norest","8566","1","10","Male","","","","","","","null","<div style=""font-size:60px;"">+</div>","null","fixation","","","","","","","","","1","","",""
"revaluation","228","1035655","0.0-4.0-4.0-0.1","spark_pilot_norest","8566","1","10","Male","","false","","","","","[580.2999999523163]","./assets/img/ocean/animals/octopus.jpg","[""ArrowLeft""]","revaluation","ocean","26","{""ArrowUp,ArrowLeft"":26,""ArrowUp,ArrowRight"":10,""ArrowDown,ArrowLeft"":5,""ArrowDown,ArrowRight"":17}","true","ArrowUp,ArrowLeft","","original","1","2","","",""
"html-keyboard-response","229","1036168","0.0-4.0-4.0-1.1","spark_pilot_norest","8566","1","10","Male","","","","","","","null","<div style=""font-size:60px;"">+</div>","null","fixation","","","","","","","","","3","","",""
"revaluation","230","1040190","0.0-4.0-4.0-0.2","spark_pilot_norest","8566","1","10","Male","","false","","","","","[482.60000002384186]","./assets/img/ocean/animals/seahorse.jpg","[""ArrowLeft""]","revaluation","ocean","5","{""ArrowUp,ArrowLeft"":26,""ArrowUp,ArrowRight"":10,""ArrowDown,ArrowLeft"":5,""ArrowDown,ArrowRight"":17}","false","ArrowDown,ArrowLeft","","original","1","4","","",""
"html-keyboard-response","231","1040703","0.0-4.0-4.0-1.2","spark_pilot_norest","8566","1","10","Male","","","","","","","null","<div style=""font-size:60px;"">+</div>","null","fixation","","","","","","","","","5","","",""
"revaluation","232","1044720","0.0-4.0-4.0-0.3","spark_pilot_norest","8566","1","10","Male","","false","","","","","[397.3000000715256]","./assets/img/ocean/animals/octopus.jpg","[""ArrowLeft""]","revaluation","ocean","26","{""ArrowUp,ArrowLeft"":26,""ArrowUp,ArrowRight"":10,""ArrowDown,ArrowLeft"":5,""ArrowDown,ArrowRight"":17}","true","ArrowUp,ArrowLeft","","original","1","6","","",""
"html-keyboard-response","233","1045234","0.0-4.0-4.0-1.3","spark_pilot_norest","8566","1","10","Male","","","","","","","null","<div style=""font-size:60px;"">+</div>","null","fixation","","","","","","","","","7","","",""
"revaluation","234","1049260","0.0-4.0-4.0-0.4","spark_pilot_norest","8566","1","10","Male","","false","","","","","[566.8999999761581]","./assets/img/ocean/animals/octopus.jpg","[""ArrowLeft""]","revaluation","ocean","26","{""ArrowUp,ArrowLeft"":26,""ArrowUp,ArrowRight"":10,""ArrowDown,ArrowLeft"":5,""ArrowDown,ArrowRight"":17}","true","ArrowUp,ArrowLeft","","original","1","8","","",""
"html-keyboard-response","235","1049774","0.0-4.0-4.0-1.4","spark_pilot_norest","8566","1","10","Male","","","","","","","null","<div style=""font-size:60px;"">+</div>","null","fixation","","","","","","","","","9","","",""
"revaluation","236","1053793","0.0-4.0-4.0-0.5","spark_pilot_norest","8566","1","10","Male","","false","","","","","[1107.1000000238419]","./assets/img/ocean/animals/octopus.jpg","[""ArrowLeft""]","revaluation","ocean","26","{""ArrowUp,ArrowLeft"":26,""ArrowUp,ArrowRight"":10,""ArrowDown,ArrowLeft"":5,""ArrowDown,ArrowRight"":17}","true","ArrowUp,ArrowLeft","","original","1","10","","",""
"html-keyboard-response","237","1054311","0.0-4.0-4.0-1.5","spark_pilot_norest","8566","1","10","Male","","","","","","","null","<div style=""font-size:60px;"">+</div>","null","fixation","","","","","","","","","11","","",""
"revaluation","238","1058316","0.0-4.0-4.0-0.6","spark_pilot_norest","8566","1","10","Male","","false","","","","","[729.5]","./assets/img/ocean/animals/seahorse.jpg","[""ArrowLeft""]","revaluation","ocean","5","{""ArrowUp,ArrowLeft"":26,""ArrowUp,ArrowRight"":10,""ArrowDown,ArrowLeft"":5,""ArrowDown,ArrowRight"":17}","false","ArrowDown,ArrowLeft","","original","1","12","","",""
"html-keyboard-response","239","1058818","0.0-4.0-4.0-1.6","spark_pilot_norest","8566","1","10","Male","","","","","","","null","<div style=""font-size:60px;"">+</div>","null","fixation","","","","","","","","","13","","",""
"revaluation","240","1062824","0.0-4.0-4.0-0.7","spark_pilot_norest","8566","1","10","Male","","false","","","","","[421.6999999284744]","./assets/img/ocean/animals/seahorse.jpg","[""ArrowRight""]","revaluation","ocean","17","{""ArrowUp,ArrowLeft"":26,""ArrowUp,ArrowRight"":10,""ArrowDown,ArrowLeft"":5,""ArrowDown,ArrowRight"":17}","true","ArrowDown,ArrowRight","","original","1","14","","",""
"html-keyboard-response","241","1063325","0.0-4.0-4.0-1.7","spark_pilot_norest","8566","1","10","Male","","","","","","","null","<div style=""font-size:60px;"">+</div>","null","fixation","","","","","","","","","15","","",""
"revaluation","242","1067330","0.0-4.0-4.0-0.8","spark_pilot_norest","8566","1","10","Male","","false","","","","","[615.0999999046326]","./assets/img/ocean/animals/seahorse.jpg","[""ArrowLeft""]","revaluation","ocean","5","{""ArrowUp,ArrowLeft"":26,""ArrowUp,ArrowRight"":10,""ArrowDown,ArrowLeft"":5,""ArrowDown,ArrowRight"":17}","false","ArrowDown,ArrowLeft","","original","1","16","","",""
"html-keyboard-response","243","1067832","0.0-4.0-4.0-1.8","spark_pilot_norest","8566","1","10","Male","","","","","","","null","<div style=""font-size:60px;"">+</div>","null","fixation","","","","","","","","","17","","",""
"revaluation","244","1071838","0.0-4.0-4.0-0.9","spark_pilot_norest","8566","1","10","Male","","false","","","","","[727.6999999284744]","./assets/img/ocean/animals/seahorse.jpg","[""ArrowRight""]","revaluation","ocean","17","{""ArrowUp,ArrowLeft"":26,""ArrowUp,ArrowRight"":10,""ArrowDown,ArrowLeft"":5,""ArrowDown,ArrowRight"":17}","true","ArrowDown,ArrowRight","","original","1","18","","",""
"html-keyboard-response","245","1072341","0.0-4.0-4.0-1.9","spark_pilot_norest","8566","1","10","Male","","","","","","","null","<div style=""font-size:60px;"">+</div>","null","fixation","","","","","","","","","19","","",""
"revaluation","246","1076348","0.0-4.0-4.0-0.10","spark_pilot_norest","8566","1","10","Male","","false","","","","","[607.7999999523163]","./assets/img/ocean/animals/seahorse.jpg","[""ArrowRight""]","revaluation","ocean","17","{""ArrowUp,ArrowLeft"":26,""ArrowUp,ArrowRight"":10,""ArrowDown,ArrowLeft"":5,""ArrowDown,ArrowRight"":17}","true","ArrowDown,ArrowRight","","original","1","20","","",""
"html-keyboard-response","247","1076850","0.0-4.0-4.0-1.10","spark_pilot_norest","8566","1","10","Male","","","","","","","null","<div style=""font-size:60px;"">+</div>","null","fixation","","","","","","","","","21","","",""
"revaluation","248","1080855","0.0-4.0-4.0-0.11","spark_pilot_norest","8566","1","10","Male","","false","","","","","[920]","./assets/img/ocean/animals/seahorse.jpg","[""ArrowRight""]","revaluation","ocean","17","{""ArrowUp,ArrowLeft"":26,""ArrowUp,ArrowRight"":10,""ArrowDown,ArrowLeft"":5,""ArrowDown,ArrowRight"":17}","true","ArrowDown,ArrowRight","","original","1","22","","",""
"html-keyboard-response","249","1081357","0.0-4.0-4.0-1.11","spark_pilot_norest","8566","1","10","Male","","","","","","","null","<div style=""font-size:60px;"">+</div>","null","fixation","","","","","","","","","23","","",""
"revaluation","250","1085362","0.0-4.0-4.0-0.12","spark_pilot_norest","8566","1","10","Male","","false","","","","","[802.5999999046326]","./assets/img/ocean/animals/octopus.jpg","[""ArrowLeft""]","revaluation","ocean","26","{""ArrowUp,ArrowLeft"":26,""ArrowUp,ArrowRight"":10,""ArrowDown,ArrowLeft"":5,""ArrowDown,ArrowRight"":17}","true","ArrowUp,ArrowLeft","","original","1","24","","",""
"html-keyboard-response","251","1085864","0.0-4.0-4.0-1.12","spark_pilot_norest","8566","1","10","Male","","","","","","","null","<div style=""font-size:60px;"">+</div>","null","fixation","","","","","","","","","25","","",""
"revaluation","252","1089869","0.0-4.0-4.0-0.13","spark_pilot_norest","8566","1","10","Male","","false","","","","","[475.60000002384186]","./assets/img/ocean/animals/seahorse.jpg","[""ArrowLeft""]","revaluation","ocean","5","{""ArrowUp,ArrowLeft"":26,""ArrowUp,ArrowRight"":10,""ArrowDown,ArrowLeft"":5,""ArrowDown,ArrowRight"":17}","false","ArrowDown,ArrowLeft","","original","1","26","","",""
"html-keyboard-response","253","1090370","0.0-4.0-4.0-1.13","spark_pilot_norest","8566","1","10","Male","","","","","","","null","<div style=""font-size:60px;"">+</div>","null","fixation","","","","","","","","","27","","",""
"revaluation","254","1094374","0.0-4.0-4.0-0.14","spark_pilot_norest","8566","1","10","Male","","false","","","","","[2.5]","./assets/img/ocean/animals/octopus.jpg","[""ArrowRight""]","revaluation","ocean","10","{""ArrowUp,ArrowLeft"":26,""ArrowUp,ArrowRight"":10,""ArrowDown,ArrowLeft"":5,""ArrowDown,ArrowRight"":17}","false","ArrowUp,ArrowRight","","original","1","28","","",""
"html-keyboard-response","255","1094876","0.0-4.0-4.0-1.14","spark_pilot_norest","8566","1","10","Male","","","","","","","null","<div style=""font-size:60px;"">+</div>","null","fixation","","","","","","","","","29","","",""
"revaluation","256","1098892","0.0-4.0-4.0-0.15","spark_pilot_norest","8566","1","10","Male","","false","","","","","[534.2999999523163]","./assets/img/ocean/animals/octopus.jpg","[""ArrowLeft""]","revaluation","ocean","26","{""ArrowUp,ArrowLeft"":26,""ArrowUp,ArrowRight"":10,""ArrowDown,ArrowLeft"":5,""ArrowDown,ArrowRight"":17}","true","ArrowUp,ArrowLeft","","original","1","30","","",""
"html-keyboard-response","257","1099394","0.0-4.0-4.0-1.15","spark_pilot_norest","8566","1","10","Male","","","","","","","null","<div style=""font-size:60px;"">+</div>","null","fixation","","","","","","","","","31","","",""
"revaluation","258","1103400","0.0-4.0-4.0-0.16","spark_pilot_norest","8566","1","10","Male","","false","","","","","[0.20000004768371582]","./assets/img/ocean/animals/seahorse.jpg","[""ArrowRight""]","revaluation","ocean","17","{""ArrowUp,ArrowLeft"":26,""ArrowUp,ArrowRight"":10,""ArrowDown,ArrowLeft"":5,""ArrowDown,ArrowRight"":17}","true","ArrowDown,ArrowRight","","original","1","32","","",""
"html-keyboard-response","259","1103902","0.0-4.0-4.0-1.16","spark_pilot_norest","8566","1","10","Male","","","","","","","null","<div style=""font-size:60px;"">+</div>","null","fixation","","","","","","","","","33","","",""
"revaluation","260","1107907","0.0-4.0-4.0-0.17","spark_pilot_norest","8566","1","10","Male","","false","","","","","[838.2000000476837]","./assets/img/ocean/animals/octopus.jpg","[""ArrowLeft""]","revaluation","ocean","26","{""ArrowUp,ArrowLeft"":26,""ArrowUp,ArrowRight"":10,""ArrowDown,ArrowLeft"":5,""ArrowDown,ArrowRight"":17}","true","ArrowUp,ArrowLeft","","original","1","34","","",""
"html-keyboard-response","261","1108409","0.0-4.0-4.0-1.17","spark_pilot_norest","8566","1","10","Male","","","","","","","null","<div style=""font-size:60px;"">+</div>","null","fixation","","","","","","","","","35","","",""
"learning-instructions","262","1116872","0.0-4.0-5.0-0.0","spark_pilot_norest","8566","1","10","Male","","","","","","","null","<p> You have almost finished this part of the game! </p>
            <p> We are going to ask you to make a few more choices. </p>","","instructions","","","","","","","","","","","",""
"learning-instructions","263","1132856","0.0-4.0-5.0-0.1","spark_pilot_norest","8566","1","10","Male","","","","","","","null","<p> First, you need to decide whether to go up or down. When you see each picture, use the arrow keys to make your choice. </p>
            <p><b>You will not see which animal you found, but try to get to the one that will give you the most treasure.</b></p>","","instructions","","","","","","","","","","","",""
"html-keyboard-response","264","1133859","0.0-4.0-6.0-0.0","spark_pilot_norest","8566","1","10","Male","","","","","","","null","<div style=""font-size:100px;color:red;"">Starting in...</div>","null","","","","","","","","","","","","",""
"html-keyboard-response","265","1134863","0.0-4.0-6.0-1.0","spark_pilot_norest","8566","1","10","Male","","","","","","","null","<div style=""font-size:200px;color:red;"">3</div>","null","","","","","","","","","","","","",""
"html-keyboard-response","266","1135875","0.0-4.0-6.0-2.0","spark_pilot_norest","8566","1","10","Male","","","","","","","null","<div style=""font-size:200px;color:red;"">2</div>","null","","","","","","","","","","","","",""
"html-keyboard-response","267","1136887","0.0-4.0-6.0-3.0","spark_pilot_norest","8566","1","10","Male","","","","","","","null","<div style=""font-size:200px;color:red;"">1</div>","null","","","","","","","","","","","","",""
"revaluation","268","1137205","0.0-4.0-7.0-0.0","spark_pilot_norest","8566","1","10","Male","","false","","","","","[313.39999997615814]","./assets/img/ocean/test/3.jpg","[""ArrowUp""]","first stage test","ocean","0","{""ArrowUp,ArrowLeft"":26,""ArrowUp,ArrowRight"":10,""ArrowDown,ArrowLeft"":5,""ArrowDown,ArrowRight"":17}","true","ArrowUp","false","original","1","","","",""
"html-keyboard-response","269","1137713","0.0-4.0-7.0-1.0","spark_pilot_norest","8566","1","10","Male","","","","","","","null","<div style=""font-size:60px;"">+</div>","null","fixation","","","","","","","","","","","",""
"revaluation","270","1139084","0.0-4.0-7.0-0.1","spark_pilot_norest","8566","1","10","Male","","false","","","","","[1367.3999999761581]","./assets/img/ocean/test/2.jpg","[""ArrowUp""]","first stage test","ocean","0","{""ArrowUp,ArrowLeft"":26,""ArrowUp,ArrowRight"":10,""ArrowDown,ArrowLeft"":5,""ArrowDown,ArrowRight"":17}","true","ArrowUp","false","original","1","","","",""
"html-keyboard-response","271","1139601","0.0-4.0-7.0-1.1","spark_pilot_norest","8566","1","10","Male","","","","","","","null","<div style=""font-size:60px;"">+</div>","null","fixation","","","","","","","","","","","",""
"revaluation","272","1144035","0.0-4.0-7.0-0.2","spark_pilot_norest","8566","1","10","Male","","false","","","","","[4429.699999928474]","./assets/img/ocean/test/0.jpg","[""ArrowUp""]","first stage test","ocean","0","{""ArrowUp,ArrowLeft"":26,""ArrowUp,ArrowRight"":10,""ArrowDown,ArrowLeft"":5,""ArrowDown,ArrowRight"":17}","true","ArrowUp","false","original","1","","","",""
"html-keyboard-response","273","1144543","0.0-4.0-7.0-1.2","spark_pilot_norest","8566","1","10","Male","","","","","","","null","<div style=""font-size:60px;"">+</div>","null","fixation","","","","","","","","","","","",""
"revaluation","274","1145474","0.0-4.0-7.0-0.3","spark_pilot_norest","8566","1","10","Male","","false","","","","","[927]","./assets/img/ocean/test/1.jpg","[""ArrowUp""]","first stage test","ocean","0","{""ArrowUp,ArrowLeft"":26,""ArrowUp,ArrowRight"":10,""ArrowDown,ArrowLeft"":5,""ArrowDown,ArrowRight"":17}","true","ArrowUp","false","original","1","","","",""
"html-keyboard-response","275","1145989","0.0-4.0-7.0-1.3","spark_pilot_norest","8566","1","10","Male","","","","","","","null","<div style=""font-size:60px;"">+</div>","null","fixation","","","","","","","","","","","",""
"learning-instructions","276","1159352","0.0-4.0-8.0-0.0","spark_pilot_norest","8566","1","10","Male","","","","","","","null","<p> Now you will see the animals again and can search their chests for treasure. </p>
            <p> This time, you will not see how much treasure you earned, but you will earn more bonus money for making better choices. </p>","","instructions","","","","","","","","","","","",""
"html-keyboard-response","277","1160356","0.0-4.0-9.0-0.0","spark_pilot_norest","8566","1","10","Male","","","","","","","null","<div style=""font-size:100px;color:red;"">Starting in...</div>","null","","","","","","","","","","","","",""
"html-keyboard-response","278","1161370","0.0-4.0-9.0-1.0","spark_pilot_norest","8566","1","10","Male","","","","","","","null","<div style=""font-size:200px;color:red;"">3</div>","null","","","","","","","","","","","","",""
"html-keyboard-response","279","1162380","0.0-4.0-9.0-2.0","spark_pilot_norest","8566","1","10","Male","","","","","","","null","<div style=""font-size:200px;color:red;"">2</div>","null","","","","","","","","","","","","",""
"html-keyboard-response","280","1163390","0.0-4.0-9.0-3.0","spark_pilot_norest","8566","1","10","Male","","","","","","","null","<div style=""font-size:200px;color:red;"">1</div>","null","","","","","","","","","","","","",""
"revaluation","281","1163785","0.0-4.0-10.0-0.0","spark_pilot_norest","8566","1","10","Male","","false","","","","","[390.7000000476837]","./assets/img/ocean/animals/octopus.jpg","[""ArrowRight""]","second stage test","ocean","0","{""ArrowUp,ArrowLeft"":26,""ArrowUp,ArrowRight"":10,""ArrowDown,ArrowLeft"":5,""ArrowDown,ArrowRight"":17}","false","ArrowUp,ArrowRight","","original","1","","","",""
"html-keyboard-response","282","1164298","0.0-4.0-10.0-1.0","spark_pilot_norest","8566","1","10","Male","","","","","","","null","<div style=""font-size:60px;"">+</div>","null","fixation","","","","","","","","","","","",""
"revaluation","283","1165045","0.0-4.0-10.0-0.1","spark_pilot_norest","8566","1","10","Male","","false","","","","","[742.3999999761581]","./assets/img/ocean/animals/octopus.jpg","[""ArrowLeft""]","second stage test","ocean","0","{""ArrowUp,ArrowLeft"":26,""ArrowUp,ArrowRight"":10,""ArrowDown,ArrowLeft"":5,""ArrowDown,ArrowRight"":17}","true","ArrowUp,ArrowLeft","","original","1","","","",""
"html-keyboard-response","284","1165560","0.0-4.0-10.0-1.1","spark_pilot_norest","8566","1","10","Male","","","","","","","null","<div style=""font-size:60px;"">+</div>","null","fixation","","","","","","","","","","","",""
"revaluation","285","1166414","0.0-4.0-10.0-0.2","spark_pilot_norest","8566","1","10","Male","","false","","","","","[850.5]","./assets/img/ocean/animals/octopus.jpg","[""ArrowRight""]","second stage test","ocean","0","{""ArrowUp,ArrowLeft"":26,""ArrowUp,ArrowRight"":10,""ArrowDown,ArrowLeft"":5,""ArrowDown,ArrowRight"":17}","false","ArrowUp,ArrowRight","","original","1","","","",""
"html-keyboard-response","286","1166931","0.0-4.0-10.0-1.2","spark_pilot_norest","8566","1","10","Male","","","","","","","null","<div style=""font-size:60px;"">+</div>","null","fixation","","","","","","","","","","","",""
"revaluation","287","1167304","0.0-4.0-10.0-0.3","spark_pilot_norest","8566","1","10","Male","","false","","","","","[369.7000000476837]","./assets/img/ocean/animals/octopus.jpg","[""ArrowLeft""]","second stage test","ocean","0","{""ArrowUp,ArrowLeft"":26,""ArrowUp,ArrowRight"":10,""ArrowDown,ArrowLeft"":5,""ArrowDown,ArrowRight"":17}","true","ArrowUp,ArrowLeft","","original","1","","","",""
"html-keyboard-response","288","1167806","0.0-4.0-10.0-1.3","spark_pilot_norest","8566","1","10","Male","","","","","","","null","<div style=""font-size:60px;"">+</div>","null","fixation","","","","","","","","","","","",""
"revaluation","289","1167874","0.0-4.0-10.0-0.4","spark_pilot_norest","8566","1","10","Male","","false","","","","","[64.5]","./assets/img/ocean/animals/seahorse.jpg","[""ArrowRight""]","second stage test","ocean","0","{""ArrowUp,ArrowLeft"":26,""ArrowUp,ArrowRight"":10,""ArrowDown,ArrowLeft"":5,""ArrowDown,ArrowRight"":17}","true","ArrowDown,ArrowRight","","original","1","","","",""
"html-keyboard-response","290","1168382","0.0-4.0-10.0-1.4","spark_pilot_norest","8566","1","10","Male","","","","","","","null","<div style=""font-size:60px;"">+</div>","null","fixation","","","","","","","","","","","",""
"revaluation","291","1168624","0.0-4.0-10.0-0.5","spark_pilot_norest","8566","1","10","Male","","false","","","","","[238.70000004768372]","./assets/img/ocean/animals/seahorse.jpg","[""ArrowLeft""]","second stage test","ocean","0","{""ArrowUp,ArrowLeft"":26,""ArrowUp,ArrowRight"":10,""ArrowDown,ArrowLeft"":5,""ArrowDown,ArrowRight"":17}","false","ArrowDown,ArrowLeft","","original","1","","","",""
"html-keyboard-response","292","1169129","0.0-4.0-10.0-1.5","spark_pilot_norest","8566","1","10","Male","","","","","","","null","<div style=""font-size:60px;"">+</div>","null","fixation","","","","","","","","","","","",""
"revaluation","293","1169144","0.0-4.0-10.0-0.6","spark_pilot_norest","8566","1","10","Male","","false","","","","","[11.100000023841858]","./assets/img/ocean/animals/seahorse.jpg","[""ArrowRight""]","second stage test","ocean","0","{""ArrowUp,ArrowLeft"":26,""ArrowUp,ArrowRight"":10,""ArrowDown,ArrowLeft"":5,""ArrowDown,ArrowRight"":17}","true","ArrowDown,ArrowRight","","original","1","","","",""
"html-keyboard-response","294","1169660","0.0-4.0-10.0-1.6","spark_pilot_norest","8566","1","10","Male","","","","","","","null","<div style=""font-size:60px;"">+</div>","null","fixation","","","","","","","","","","","",""
"revaluation","295","1169684","0.0-4.0-10.0-0.7","spark_pilot_norest","8566","1","10","Male","","false","","","","","[21.100000023841858]","./assets/img/ocean/animals/seahorse.jpg","[""ArrowLeft""]","second stage test","ocean","0","{""ArrowUp,ArrowLeft"":26,""ArrowUp,ArrowRight"":10,""ArrowDown,ArrowLeft"":5,""ArrowDown,ArrowRight"":17}","false","ArrowDown,ArrowLeft","","original","1","","","",""
"html-keyboard-response","296","1170188","0.0-4.0-10.0-1.7","spark_pilot_norest","8566","1","10","Male","","","","","","","null","<div style=""font-size:60px;"">+</div>","null","fixation","","","","","","","","","","","",""
"learning-instructions","297","1176459","0.0-4.0-0.1-0.2","spark_pilot_norest","8566","1","10","Male","","","","","","","3483.1999999284744","<p> This time you are searching for treasure in the <b>canyon</b>.</p>","","instructions","","","","","","","","","","","",""
"learning-instructions","298","1195089","0.0-4.0-0.1-0.3","spark_pilot_norest","8566","1","10","Male","","","","","","","1382.2999999523163","<p><b>New</b> animals with <b>new</b> treasure chests live here. You need to explore to discover where the animal with the best treasure chest is.</p>
                    <p> Like before, once you figure out which animal has the chest with the most treasure, you should try to get to that animal and select that chest! </p>","","instructions","","","","","","","","","","","",""
"learning-instructions","299","1211842","0.0-4.0-1.1-0.1","spark_pilot_norest","8566","1","10","Male","","","","","","","2025.7999999523163","<p> Remember, when you see a picture of the place, use the up and down keys to <b>find an animal</b>.</p>
            <p> When you encounter an animal, you should use the left and right keys to <b>select a treasure chest</b>.</p>
            <p> Don't forget to look out for the robber! </p>","","instructions","","","","","","","","","","","",""
"revaluation","300","1215850","0.0-4.0-2.1-0.50","spark_pilot_norest","8566","1","10","Male","","false","","","","","[1079.8999999761581]","./assets/img/canyon/catch/6.jpg","[""ArrowUp""]","value training","canyon","-10","{""ArrowUp,ArrowLeft"":23,""ArrowUp,ArrowRight"":10,""ArrowDown,ArrowLeft"":8,""ArrowDown,ArrowRight"":30}","false","ArrowUp","true","revaluation","2","0","","",""
"html-keyboard-response","301","1216360","0.0-4.0-2.1-1.50","spark_pilot_norest","8566","1","10","Male","","","","","","","null","<div style=""font-size:60px;"">+</div>","null","fixation","","","","","","","","","1","","",""
"revaluation","302","1222408","0.0-4.0-2.1-0.51","spark_pilot_norest","8566","1","10","Male","","false","","","","","[790,667.1000000238419]","./assets/img/canyon/memory/25.jpg","[""ArrowUp"",""ArrowLeft""]","value training","canyon","23","{""ArrowUp,ArrowLeft"":23,""ArrowUp,ArrowRight"":10,""ArrowDown,ArrowLeft"":8,""ArrowDown,ArrowRight"":30}","false","ArrowUp,ArrowLeft","false","revaluation","2","2","","",""
"html-keyboard-response","303","1222921","0.0-4.0-2.1-1.51","spark_pilot_norest","8566","1","10","Male","","","","","","","null","<div style=""font-size:60px;"">+</div>","null","fixation","","","","","","","","","3","","",""
"revaluation","304","1226952","0.0-4.0-2.1-0.52","spark_pilot_norest","8566","1","10","Male","","false","","","","","[349.60000002384186]","./assets/img/canyon/catch/1.jpg","[""spaceBar""]","value training","canyon","0","{""ArrowUp,ArrowLeft"":23,""ArrowUp,ArrowRight"":10,""ArrowDown,ArrowLeft"":8,""ArrowDown,ArrowRight"":30}","true","spaceBar","true","revaluation","2","4","","",""
"html-keyboard-response","305","1227464","0.0-4.0-2.1-1.52","spark_pilot_norest","8566","1","10","Male","","","","","","","null","<div style=""font-size:60px;"">+</div>","null","fixation","","","","","","","","","5","","",""
"revaluation","306","1231492","0.0-4.0-2.1-0.53","spark_pilot_norest","8566","1","10","Male","","false","","","","","[35.800000071525574]","./assets/img/canyon/catch/0.jpg","[""spaceBar""]","value training","canyon","0","{""ArrowUp,ArrowLeft"":23,""ArrowUp,ArrowRight"":10,""ArrowDown,ArrowLeft"":8,""ArrowDown,ArrowRight"":30}","true","spaceBar","true","revaluation","2","6","","",""
"html-keyboard-response","307","1231995","0.0-4.0-2.1-1.53","spark_pilot_norest","8566","1","10","Male","","","","","","","null","<div style=""font-size:60px;"">+</div>","null","fixation","","","","","","","","","7","","",""
"revaluation","308","1238027","0.0-4.0-2.1-0.54","spark_pilot_norest","8566","1","10","Male","","false","","","","","[846.3000000715256,442.89999997615814]","./assets/img/canyon/memory/37.jpg","[""ArrowUp"",""ArrowRight""]","value training","canyon","10","{""ArrowUp,ArrowLeft"":23,""ArrowUp,ArrowRight"":10,""ArrowDown,ArrowLeft"":8,""ArrowDown,ArrowRight"":30}","false","ArrowUp,ArrowRight","false","revaluation","2","8","","",""
"html-keyboard-response","309","1238543","0.0-4.0-2.1-1.54","spark_pilot_norest","8566","1","10","Male","","","","","","","null","<div style=""font-size:60px;"">+</div>","null","fixation","","","","","","","","","9","","",""
"revaluation","310","1244551","0.0-4.0-2.1-0.55","spark_pilot_norest","8566","1","10","Male","","false","","","","","[827.0999999046326,396.5]","./assets/img/canyon/memory/3.jpg","[""ArrowUp"",""ArrowLeft""]","value training","canyon","23","{""ArrowUp,ArrowLeft"":23,""ArrowUp,ArrowRight"":10,""ArrowDown,ArrowLeft"":8,""ArrowDown,ArrowRight"":30}","false","ArrowUp,ArrowLeft","false","revaluation","2","10","","",""
"html-keyboard-response","311","1245052","0.0-4.0-2.1-1.55","spark_pilot_norest","8566","1","10","Male","","","","","","","null","<div style=""font-size:60px;"">+</div>","null","fixation","","","","","","","","","11","","",""
"revaluation","312","1251058","0.0-4.0-2.1-0.56","spark_pilot_norest","8566","1","10","Male","","false","","","","","[1118.8999999761581,478.7999999523163]","./assets/img/canyon/memory/29.jpg","[""ArrowUp"",""ArrowLeft""]","value training","canyon","23","{""ArrowUp,ArrowLeft"":23,""ArrowUp,ArrowRight"":10,""ArrowDown,ArrowLeft"":8,""ArrowDown,ArrowRight"":30}","false","ArrowUp,ArrowLeft","false","revaluation","2","12","","",""
"html-keyboard-response","313","1251561","0.0-4.0-2.1-1.56","spark_pilot_norest","8566","1","10","Male","","","","","","","null","<div style=""font-size:60px;"">+</div>","null","fixation","","","","","","","","","13","","",""
"revaluation","314","1257568","0.0-4.0-2.1-0.57","spark_pilot_norest","8566","1","10","Male","","false","","","","","[1440,738.2000000476837]","./assets/img/canyon/memory/15.jpg","[""ArrowUp"",""ArrowLeft""]","value training","canyon","23","{""ArrowUp,ArrowLeft"":23,""ArrowUp,ArrowRight"":10,""ArrowDown,ArrowLeft"":8,""ArrowDown,ArrowRight"":30}","false","ArrowUp,ArrowLeft","false","revaluation","2","14","","",""
