"trial_type","trial_index","time_elapsed","internal_node_id","task_version","subject_id","assigned_condition","age","gender","success","timeout","failed_images","failed_audio","failed_video","browser_interaction","rt","stimulus","response","task_part","environment","score","rewardMap","correct","fullState","isCatch","condition","order","trial_num","key_press","ground_truth","bonus"
"pavlovia","0","1056","0.0-0.0","spark_pilot_norest","10127","3","8","Male","","","","","","","","","","","","","","","","","","","","","",""
"preload","1","20608","0.0-1.0","spark_pilot_norest","10127","3","8","Male","true","false","[]","[]","[]","[{""event"":""fullscreenenter"",""trial"":2,""time"":24864}]","","","","","","","","","","","","","","","",""
"fullscreen","2","25849","0.0-2.0","spark_pilot_norest","10127","3","8","Male","true","","","","","","","","","","","","","","","","","","","","",""
"audio-button-response","3","28573","0.0-3.0-0.0-0.0","spark_pilot_norest","10127","3","8","Male","","","","","","","2051","./assets/audio/audiotest/turtle.mp3","2","audio_test","","","","","","","","","","","",""
"learning-instructions","4","37805","0.0-3.0-1.0-0.0","spark_pilot_norest","10127","3","8","Male","","","","","","","2242.7000000178814","<p> Welcome! Please remember to stay in fullscreen mode and don't click away from the experiment. </p>","","instructions","","","","","","","","","","","",""
"learning-instructions","5","49701","0.0-3.0-1.0-0.1","spark_pilot_norest","10127","3","8","Male","","","","","","","3488.800000011921","<p> Today you will be playing a game to earn treasure. </p>
            <p> At the end of the experiment, you will earn a bonus based on how much treasure you find. </p>
            <img src='./assets/img/instructions/treasure.jpg' class='instructions-image'>","","instructions","","","","","","","","","","","",""
"learning-instructions","6","60062","0.0-3.0-1.0-0.2","spark_pilot_norest","10127","3","8","Male","","","","","","","2097.600000023842","<p> Animals have hidden treasure in treasure chests. </p>
            <p> You need to first find an animal and then choose which of their treasure chests to search. </p>
            <img src='./assets/img/space/animals/cat.jpg' class='instructions-image'>","","instructions","","","","","","","","","","","",""
"learning-instructions","7","76286","0.0-3.0-1.0-0.3","spark_pilot_norest","10127","3","8","Male","","","","","","","3061.2000000178814","<p> In each round, you will search for treasure in a different place. In the real game, there will be two rounds. </p>
            <p> You will begin with a separate, practice round where you will search for treasure in outer space. </p>
            <img src='./assets/img/space/0.jpg' class='instructions-image'>","","instructions","","","","","","","","","","","",""
"learning-instructions","8","90574","0.0-3.0-1.0-0.4","spark_pilot_norest","10127","3","8","Male","","","","","","","2870.4000000059605","<p> On every turn, you will see a picture of the place that you are in, but the specific image may be different each time. </p>
            <p> For example, both of these images mean you are in outer space. </p>
            <img src='./assets/img/instructions/outerspace.jpg' class='instructions-image'>","","instructions","","","","","","","","","","","",""
"learning-instructions","9","102870","0.0-3.0-1.0-0.5","spark_pilot_norest","10127","3","8","Male","","","","","","","4468.199999988079","<p> You need to decide which direction to travel in. </p>
            <p> You can choose between going <b>up or down</b> by using the arrow keys. </p>
            <img src='./assets/img/instructions/updown.jpg' class='instructions-image'>","","instructions","","","","","","","","","","","",""
"learning-instructions","10","120701","0.0-3.0-1.0-0.6","spark_pilot_norest","10127","3","8","Male","","","","","","","9006.699999988079","<p> You will have <b>2 seconds</b> to make your choice. </p>
            <p> If you do not make a choice within 2 seconds, you will not find an animal or earn treasure. </p>
            <img src='./assets/img/instructions/2seconds.jpg' class='instructions-image'>","","instructions","","","","","","","","","","","",""
"learning-instructions","11","148845","0.0-3.0-1.0-0.7","spark_pilot_norest","10127","3","8","Male","","","","","","","21113.5","<p> Let’s try practicing that now! </p>
            <p> When you see a picture of the place you are in, press the <b>up</b> key to travel up. </p>
            <img src='./assets/img/instructions/pressUp.jpg' class='instructions-image'>","","instructions","","","","","","","","","","","",""
"revaluation","12","152872","0.0-3.0-2.0-0.0","spark_pilot_norest","10127","3","8","Male","","false","","","","","[1211.199999988079]","./assets/img/space/0.jpg","[""ArrowUp""]","first stage practice","space","0","null","null","ArrowUp","false","","","","","",""
"html-keyboard-response","13","153379","0.0-3.0-2.0-1.0","spark_pilot_norest","10127","3","8","Male","","","","","","","null","<div style=""font-size:60px;"">+</div>","null","fixation","","","","","","","","","","","",""
"revaluation","14","157410","0.0-3.0-2.0-0.1","spark_pilot_norest","10127","3","8","Male","","false","","","","","[1114.5999999940395]","./assets/img/space/1.jpg","[""ArrowUp""]","first stage practice","space","0","null","null","ArrowUp","false","","","","","",""
"html-keyboard-response","15","157913","0.0-3.0-2.0-1.1","spark_pilot_norest","10127","3","8","Male","","","","","","","null","<div style=""font-size:60px;"">+</div>","null","fixation","","","","","","","","","","","",""
"revaluation","16","161919","0.0-3.0-2.0-0.2","spark_pilot_norest","10127","3","8","Male","","false","","","","","[1113.5999999940395]","./assets/img/space/2.jpg","[""ArrowUp""]","first stage practice","space","0","null","null","ArrowUp","false","","","","","",""
"html-keyboard-response","17","162427","0.0-3.0-2.0-1.2","spark_pilot_norest","10127","3","8","Male","","","","","","","null","<div style=""font-size:60px;"">+</div>","null","fixation","","","","","","","","","","","",""
"learning-instructions","18","170896","0.0-3.0-3.0-0.0","spark_pilot_norest","10127","3","8","Male","","","","","","","3679.2999999821186","<p> Great job! Now try pressing the <b>down</b> key to travel down. </p>
            <img src='./assets/img/instructions/pressDown.jpg' class='instructions-image'>","","instructions","","","","","","","","","","","",""
"revaluation","19","174933","0.0-3.0-4.0-0.0","spark_pilot_norest","10127","3","8","Male","","false","","","","","[1108.800000011921]","./assets/img/space/3.jpg","[""ArrowDown""]","first stage practice","space","0","null","null","ArrowDown","false","","","","","",""
"html-keyboard-response","20","175451","0.0-3.0-4.0-1.0","spark_pilot_norest","10127","3","8","Male","","","","","","","null","<div style=""font-size:60px;"">+</div>","null","fixation","","","","","","","","","","","",""
"revaluation","21","179482","0.0-3.0-4.0-0.1","spark_pilot_norest","10127","3","8","Male","","false","","","","","[995.1999999880791]","./assets/img/space/4.jpg","[""ArrowDown""]","first stage practice","space","0","null","null","ArrowDown","false","","","","","",""
"html-keyboard-response","22","180002","0.0-3.0-4.0-1.1","spark_pilot_norest","10127","3","8","Male","","","","","","","null","<div style=""font-size:60px;"">+</div>","null","fixation","","","","","","","","","","","",""
"revaluation","23","184046","0.0-3.0-4.0-0.2","spark_pilot_norest","10127","3","8","Male","","true","","","","","[]","./assets/img/space/5.jpg","[]","first stage practice","space","-5","null","null","","false","","","","","",""
"html-keyboard-response","24","184561","0.0-3.0-4.0-1.2","spark_pilot_norest","10127","3","8","Male","","","","","","","null","<div style=""font-size:60px;"">+</div>","null","fixation","","","","","","","","","","","",""
"learning-instructions","25","197221","0.0-3.0-5.0-0.0","spark_pilot_norest","10127","3","8","Male","","","","","","","2777.2999999821186","<p> The animals don’t move, so the animal in the upper part of a place will stay in the upper part of a place, and the animal in the lower part of a place will stay in the lower part of a place. </p>","","instructions","","","","","","","","","","","",""
"learning-instructions","26","208733","0.0-3.0-5.0-0.1","spark_pilot_norest","10127","3","8","Male","","","","","","","2370.4000000059605","<p> Each animal has two treasure chests for you to choose from. </p>
            <p> The amount of treasure in each chest can range from <b> 0 to 40 pieces.</b></p>","","instructions","","","","","","","","","","","",""
"learning-instructions","27","223077","0.0-3.0-5.0-0.2","spark_pilot_norest","10127","3","8","Male","","","","","","","3142.2999999821186","<p> You should decide which chest to search for treasure by using the <b>left</b> and <b>right</b> arrow keys. </p>
            <p><b> Pay attention to which animal is on the screen, as the animals have different treasure chests. </b></p>
            <img src='./assets/img/instructions/leftright.jpg' class='instructions-image'>","","instructions","","","","","","","","","","","",""
"learning-instructions","28","231253","0.0-3.0-5.0-0.3","spark_pilot_norest","10127","3","8","Male","","","","","","","1808.0999999940395","<p> Let’s try practicing that now. </p>
            <p> When you see an animal, choose which chest to search for treasure. </p>
            <img src='./assets/img/instructions/chooseChest.jpg' class='instructions-image'>","","instructions","","","","","","","","","","","",""
"revaluation","29","235293","0.0-3.0-6.0-0.0","spark_pilot_norest","10127","3","8","Male","","true","","","","","[]","./assets/img/space/animals/cat.jpg","[]","second stage practice","space","-5","{""ArrowUp,ArrowLeft"":3,""ArrowUp,ArrowRight"":36,""ArrowDown,ArrowLeft"":15,""ArrowDown,ArrowRight"":23}","false","ArrowUp","","","","","","",""
"html-keyboard-response","30","235803","0.0-3.0-6.0-1.0","spark_pilot_norest","10127","3","8","Male","","","","","","","null","<div style=""font-size:60px;"">+</div>","null","fixation","","","","","","","","","","","",""
"revaluation","31","239842","0.0-3.0-6.0-0.1","spark_pilot_norest","10127","3","8","Male","","false","","","","","[1849.7000000178814]","./assets/img/space/animals/rabbit.jpg","[""ArrowRight""]","second stage practice","space","23","{""ArrowUp,ArrowLeft"":3,""ArrowUp,ArrowRight"":36,""ArrowDown,ArrowLeft"":15,""ArrowDown,ArrowRight"":23}","true","ArrowDown,ArrowRight","","","","","","",""
"html-keyboard-response","32","240352","0.0-3.0-6.0-1.1","spark_pilot_norest","10127","3","8","Male","","","","","","","null","<div style=""font-size:60px;"">+</div>","null","fixation","","","","","","","","","","","",""
"revaluation","33","244384","0.0-3.0-6.0-0.2","spark_pilot_norest","10127","3","8","Male","","false","","","","","[568.3000000119209]","./assets/img/space/animals/rabbit.jpg","[""ArrowLeft""]","second stage practice","space","15","{""ArrowUp,ArrowLeft"":3,""ArrowUp,ArrowRight"":36,""ArrowDown,ArrowLeft"":15,""ArrowDown,ArrowRight"":23}","false","ArrowDown,ArrowLeft","","","","","","",""
"html-keyboard-response","34","244900","0.0-3.0-6.0-1.2","spark_pilot_norest","10127","3","8","Male","","","","","","","null","<div style=""font-size:60px;"">+</div>","null","fixation","","","","","","","","","","","",""
"revaluation","35","248933","0.0-3.0-6.0-0.3","spark_pilot_norest","10127","3","8","Male","","false","","","","","[619.2999999821186]","./assets/img/space/animals/cat.jpg","[""ArrowRight""]","second stage practice","space","36","{""ArrowUp,ArrowLeft"":3,""ArrowUp,ArrowRight"":36,""ArrowDown,ArrowLeft"":15,""ArrowDown,ArrowRight"":23}","true","ArrowUp,ArrowRight","","","","","","",""
"html-keyboard-response","36","249440","0.0-3.0-6.0-1.3","spark_pilot_norest","10127","3","8","Male","","","","","","","null","<div style=""font-size:60px;"">+</div>","null","fixation","","","","","","","","","","","",""
"learning-instructions","37","269756","0.0-3.0-7.0-0.0","spark_pilot_norest","10127","3","8","Male","","","","","","","3501.5","<p> Great job. Now let’s try putting it together. </p>
            <p> On each turn, you will first see a picture to remind you of the place you are in, and you need to choose whether to go up or down. </p>
            <p> Then you will see an animal and choose which of its chests to search for treasure. </p>","","instructions","","","","","","","","","","","",""
"learning-instructions","38","281116","0.0-3.0-7.0-0.1","spark_pilot_norest","10127","3","8","Male","","","","","","","3103.5999999940395","<p> When you choose whether to go up or down, try to go to the animal with the chest with the most treasure. </p>
            <p> Try practicing that now! </p>","","instructions","","","","","","","","","","","",""
"revaluation","39","287162","0.0-3.0-8.0-0.0","spark_pilot_norest","10127","3","8","Male","","false","","","","","[1464.7000000178814,1273.4000000059605]","./assets/img/space/6.jpg","[""ArrowUp"",""ArrowRight""]","full practice","space","36","{""ArrowUp,ArrowLeft"":3,""ArrowUp,ArrowRight"":36,""ArrowDown,ArrowLeft"":15,""ArrowDown,ArrowRight"":23}","true","ArrowUp,ArrowRight","false","","","","","",""
"html-keyboard-response","40","287680","0.0-3.0-8.0-1.0","spark_pilot_norest","10127","3","8","Male","","","","","","","null","<div style=""font-size:60px;"">+</div>","null","fixation","","","","","","","","","","","",""
"revaluation","41","293721","0.0-3.0-8.0-0.1","spark_pilot_norest","10127","3","8","Male","","false","","","","","[1438.5,1083.0999999940395]","./assets/img/space/7.jpg","[""ArrowUp"",""ArrowLeft""]","full practice","space","3","{""ArrowUp,ArrowLeft"":3,""ArrowUp,ArrowRight"":36,""ArrowDown,ArrowLeft"":15,""ArrowDown,ArrowRight"":23}","false","ArrowUp,ArrowLeft","false","","","","","",""
"html-keyboard-response","42","294241","0.0-3.0-8.0-1.1","spark_pilot_norest","10127","3","8","Male","","","","","","","null","<div style=""font-size:60px;"">+</div>","null","fixation","","","","","","","","","","","",""
"revaluation","43","300274","0.0-3.0-8.0-0.2","spark_pilot_norest","10127","3","8","Male","","true","","","","","[782.5]","./assets/img/space/8.jpg","[""ArrowUp""]","full practice","space","-5","{""ArrowUp,ArrowLeft"":3,""ArrowUp,ArrowRight"":36,""ArrowDown,ArrowLeft"":15,""ArrowDown,ArrowRight"":23}","false","ArrowUp","false","","","","","",""
"html-keyboard-response","44","300795","0.0-3.0-8.0-1.2","spark_pilot_norest","10127","3","8","Male","","","","","","","null","<div style=""font-size:60px;"">+</div>","null","fixation","","","","","","","","","","","",""
"revaluation","45","306865","0.0-3.0-8.0-0.3","spark_pilot_norest","10127","3","8","Male","","false","","","","","[1195.0999999940395,589.6999999880791]","./assets/img/space/9.jpg","[""ArrowUp"",""ArrowRight""]","full practice","space","36","{""ArrowUp,ArrowLeft"":3,""ArrowUp,ArrowRight"":36,""ArrowDown,ArrowLeft"":15,""ArrowDown,ArrowRight"":23}","true","ArrowUp,ArrowRight","false","","","","","",""
"html-keyboard-response","46","307372","0.0-3.0-8.0-1.3","spark_pilot_norest","10127","3","8","Male","","","","","","","null","<div style=""font-size:60px;"">+</div>","null","fixation","","","","","","","","","","","",""
"revaluation","47","313385","0.0-3.0-8.0-0.4","spark_pilot_norest","10127","3","8","Male","","false","","","","","[1253,851.5999999940395]","./assets/img/space/10.jpg","[""ArrowDown"",""ArrowRight""]","full practice","space","23","{""ArrowUp,ArrowLeft"":3,""ArrowUp,ArrowRight"":36,""ArrowDown,ArrowLeft"":15,""ArrowDown,ArrowRight"":23}","false","ArrowDown,ArrowRight","false","","","","","",""
"html-keyboard-response","48","313889","0.0-3.0-8.0-1.4","spark_pilot_norest","10127","3","8","Male","","","","","","","null","<div style=""font-size:60px;"">+</div>","null","fixation","","","","","","","","","","","",""
"learning-instructions","49","330470","0.0-3.0-9.0-0.0","spark_pilot_norest","10127","3","8","Male","","","","","","","5908.700000017881","<p> One last thing: sometimes, you will see a robber. The robber can be anywhere in the picture. </p>
            <p> If you do not stop them, you will lose treasure. </p>
            <img src='./assets/img/instructions/robber.jpg' class='instructions-image'>","","instructions","","","","","","","","","","","",""
"learning-instructions","50","340654","0.0-3.0-9.0-0.1","spark_pilot_norest","10127","3","8","Male","","","","","","","3004.5","<p> If you see the robber, you should <b>press the space bar</b> rather than using the arrow keys. </p>
            <p> Try practicing that now! </p>","","instructions","","","","","","","","","","","",""
"revaluation","51","344679","0.0-3.0-10.0-0.0","spark_pilot_norest","10127","3","8","Male","","false","","","","","[1687.3999999761581]","./assets/img/space/catch/0.jpg","[""spaceBar""]","catch practice","space","0","{""ArrowUp,ArrowLeft"":3,""ArrowUp,ArrowRight"":36,""ArrowDown,ArrowLeft"":15,""ArrowDown,ArrowRight"":23}","true","spaceBar","true","","","","","",""
"html-keyboard-response","52","345197","0.0-3.0-10.0-1.0","spark_pilot_norest","10127","3","8","Male","","","","","","","null","<div style=""font-size:60px;"">+</div>","null","fixation","","","","","","","","","","","",""
"revaluation","53","349228","0.0-3.0-10.0-0.1","spark_pilot_norest","10127","3","8","Male","","false","","","","","[1478.4000000059605]","./assets/img/space/catch/1.jpg","[""spaceBar""]","catch practice","space","0","{""ArrowUp,ArrowLeft"":3,""ArrowUp,ArrowRight"":36,""ArrowDown,ArrowLeft"":15,""ArrowDown,ArrowRight"":23}","true","spaceBar","true","","","","","",""
"html-keyboard-response","54","349747","0.0-3.0-10.0-1.1","spark_pilot_norest","10127","3","8","Male","","","","","","","null","<div style=""font-size:60px;"">+</div>","null","fixation","","","","","","","","","","","",""
"revaluation","55","353789","0.0-3.0-10.0-0.2","spark_pilot_norest","10127","3","8","Male","","false","","","","","[704.2000000178814]","./assets/img/space/catch/2.jpg","[""spaceBar""]","catch practice","space","0","{""ArrowUp,ArrowLeft"":3,""ArrowUp,ArrowRight"":36,""ArrowDown,ArrowLeft"":15,""ArrowDown,ArrowRight"":23}","true","spaceBar","true","","","","","",""
"html-keyboard-response","56","354309","0.0-3.0-10.0-1.2","spark_pilot_norest","10127","3","8","Male","","","","","","","null","<div style=""font-size:60px;"">+</div>","null","fixation","","","","","","","","","","","",""
"learning-instructions","57","362422","0.0-3.0-11.0-0.0-0.0","spark_pilot_norest","10127","3","8","Male","","","","","","","2811.9000000059605","<p> Now, you will practice a shortened version of the game to get a sense of how it all fits together. </p>","","instructions","","","","","","","","","","","",""
"learning-instructions","58","369478","0.0-3.0-11.0-0.0-0.1","spark_pilot_norest","10127","3","8","Male","","","","","","","3867.9000000059605","<p>This time you are searching for treasure in outer space.</p>","","instructions","","","","","","","","","","","",""
"learning-instructions","59","387886","0.0-3.0-11.0-1.0-0.0","spark_pilot_norest","10127","3","8","Male","","","","","","","3636.899999976158","<p> Remember, when you see a picture of the place, use the up and down keys to <b>find an animal</b>.</p>
            <p> When you encounter an animal, you should use the left and right keys to <b>select a treasure chest</b>.</p>
            <p> Don't forget to look out for the robber! </p>","","instructions","","","","","","","","","","","",""
"revaluation","60","393918","0.0-3.0-11.0-2.0-0.0","spark_pilot_norest","10127","3","8","Male","","false","","","","","[1542.300000011921,1694.2000000178814]","./assets/img/space/11.jpg","[""ArrowUp"",""ArrowRight""]","practice block","space","36","{""ArrowUp,ArrowLeft"":3,""ArrowUp,ArrowRight"":36,""ArrowDown,ArrowLeft"":15,""ArrowDown,ArrowRight"":23}","true","ArrowUp,ArrowRight","false","","","","","",""
"html-keyboard-response","61","394437","0.0-3.0-11.0-2.0-1.0","spark_pilot_norest","10127","3","8","Male","","","","","","","null","<div style=""font-size:60px;"">+</div>","null","fixation","","","","","","","","","","","",""
"revaluation","62","400477","0.0-3.0-11.0-2.0-0.1","spark_pilot_norest","10127","3","8","Male","","false","","","","","[1164.7999999821186,1624.7000000178814]","./assets/img/space/12.jpg","[""ArrowUp"",""ArrowRight""]","practice block","space","36","{""ArrowUp,ArrowLeft"":3,""ArrowUp,ArrowRight"":36,""ArrowDown,ArrowLeft"":15,""ArrowDown,ArrowRight"":23}","true","ArrowUp,ArrowRight","false","","","","","",""
"html-keyboard-response","63","400987","0.0-3.0-11.0-2.0-1.1","spark_pilot_norest","10127","3","8","Male","","","","","","","null","<div style=""font-size:60px;"">+</div>","null","fixation","","","","","","","","","","","",""
"revaluation","64","407028","0.0-3.0-11.0-2.0-0.2","spark_pilot_norest","10127","3","8","Male","","false","","","","","[629,838.4000000059605]","./assets/img/space/13.jpg","[""ArrowUp"",""ArrowRight""]","practice block","space","36","{""ArrowUp,ArrowLeft"":3,""ArrowUp,ArrowRight"":36,""ArrowDown,ArrowLeft"":15,""ArrowDown,ArrowRight"":23}","true","ArrowUp,ArrowRight","false","","","","","",""
"html-keyboard-response","65","407544","0.0-3.0-11.0-2.0-1.2","spark_pilot_norest","10127","3","8","Male","","","","","","","null","<div style=""font-size:60px;"">+</div>","null","fixation","","","","","","","","","","","",""
"revaluation","66","413598","0.0-3.0-11.0-2.0-0.3","spark_pilot_norest","10127","3","8","Male","","false","","","","","[670.9000000059605,744]","./assets/img/space/14.jpg","[""ArrowDown"",""ArrowRight""]","practice block","space","23","{""ArrowUp,ArrowLeft"":3,""ArrowUp,ArrowRight"":36,""ArrowDown,ArrowLeft"":15,""ArrowDown,ArrowRight"":23}","false","ArrowDown,ArrowRight","false","","","","","",""
"html-keyboard-response","67","414107","0.0-3.0-11.0-2.0-1.3","spark_pilot_norest","10127","3","8","Male","","","","","","","null","<div style=""font-size:60px;"">+</div>","null","fixation","","","","","","","","","","","",""
"revaluation","68","420113","0.0-3.0-11.0-2.0-0.4","spark_pilot_norest","10127","3","8","Male","","false","","","","","[905.7000000178814,873]","./assets/img/space/11.jpg","[""ArrowUp"",""ArrowRight""]","practice block","space","36","{""ArrowUp,ArrowLeft"":3,""ArrowUp,ArrowRight"":36,""ArrowDown,ArrowLeft"":15,""ArrowDown,ArrowRight"":23}","true","ArrowUp,ArrowRight","false","","","","","",""
"html-keyboard-response","69","420615","0.0-3.0-11.0-2.0-1.4","spark_pilot_norest","10127","3","8","Male","","","","","","","null","<div style=""font-size:60px;"">+</div>","null","fixation","","","","","","","","","","","",""
"revaluation","70","426626","0.0-3.0-11.0-2.0-0.5","spark_pilot_norest","10127","3","8","Male","","false","","","","","[1176,599]","./assets/img/space/12.jpg","[""ArrowUp"",""ArrowRight""]","practice block","space","36","{""ArrowUp,ArrowLeft"":3,""ArrowUp,ArrowRight"":36,""ArrowDown,ArrowLeft"":15,""ArrowDown,ArrowRight"":23}","true","ArrowUp,ArrowRight","false","","","","","",""
"html-keyboard-response","71","427129","0.0-3.0-11.0-2.0-1.5","spark_pilot_norest","10127","3","8","Male","","","","","","","null","<div style=""font-size:60px;"">+</div>","null","fixation","","","","","","","","","","","",""
"revaluation","72","433141","0.0-3.0-11.0-2.0-0.6","spark_pilot_norest","10127","3","8","Male","","false","","","","","[1444.7999999821186,356.7000000178814]","./assets/img/space/13.jpg","[""ArrowUp"",""ArrowRight""]","practice block","space","36","{""ArrowUp,ArrowLeft"":3,""ArrowUp,ArrowRight"":36,""ArrowDown,ArrowLeft"":15,""ArrowDown,ArrowRight"":23}","true","ArrowUp,ArrowRight","false","","","","","",""
"html-keyboard-response","73","433643","0.0-3.0-11.0-2.0-1.6","spark_pilot_norest","10127","3","8","Male","","","","","","","null","<div style=""font-size:60px;"">+</div>","null","fixation","","","","","","","","","","","",""
"revaluation","74","439654","0.0-3.0-11.0-2.0-0.7","spark_pilot_norest","10127","3","8","Male","","false","","","","","[1139.0999999940395,515.2000000178814]","./assets/img/space/14.jpg","[""ArrowUp"",""ArrowRight""]","practice block","space","36","{""ArrowUp,ArrowLeft"":3,""ArrowUp,ArrowRight"":36,""ArrowDown,ArrowLeft"":15,""ArrowDown,ArrowRight"":23}","true","ArrowUp,ArrowRight","false","","","","","",""
"html-keyboard-response","75","440156","0.0-3.0-11.0-2.0-1.7","spark_pilot_norest","10127","3","8","Male","","","","","","","null","<div style=""font-size:60px;"">+</div>","null","fixation","","","","","","","","","","","",""
"revaluation","76","444167","0.0-3.0-11.0-2.0-0.8","spark_pilot_norest","10127","3","8","Male","","false","","","","","[1506.7000000178814]","./assets/img/space/catch/3.jpg","[""spaceBar""]","practice block","space","0","{""ArrowUp,ArrowLeft"":3,""ArrowUp,ArrowRight"":36,""ArrowDown,ArrowLeft"":15,""ArrowDown,ArrowRight"":23}","true","spaceBar","true","","","","","",""
"html-keyboard-response","77","444669","0.0-3.0-11.0-2.0-1.8","spark_pilot_norest","10127","3","8","Male","","","","","","","null","<div style=""font-size:60px;"">+</div>","null","fixation","","","","","","","","","","","",""
"learning-instructions","78","461886","0.0-3.0-11.0-3.0-0.0","spark_pilot_norest","10127","3","8","Male","","","","","","","3599","<p> Now, you will travel with a friend who will choose whether you go up or down first. </p>
            <p> On these turns, you will just see the animal that they found. You will still get to choose which chest to search for treasure.</p>","","instructions","","","","","","","","","","","",""
"revaluation","79","465915","0.0-3.0-11.0-4.0-0.0","spark_pilot_norest","10127","3","8","Male","","false","","","","","[1849]","./assets/img/space/animals/rabbit.jpg","[""ArrowRight""]","practice block","space","23","{""ArrowUp,ArrowLeft"":3,""ArrowUp,ArrowRight"":36,""ArrowDown,ArrowLeft"":15,""ArrowDown,ArrowRight"":23}","true","ArrowDown,ArrowRight","","","","","","",""
"html-keyboard-response","80","466424","0.0-3.0-11.0-4.0-1.0","spark_pilot_norest","10127","3","8","Male","","","","","","","null","<div style=""font-size:60px;"">+</div>","null","fixation","","","","","","","","","","","",""
"revaluation","81","470465","0.0-3.0-11.0-4.0-0.1","spark_pilot_norest","10127","3","8","Male","","false","","","","","[1177.7999999821186]","./assets/img/space/animals/cat.jpg","[""ArrowRight""]","practice block","space","36","{""ArrowUp,ArrowLeft"":3,""ArrowUp,ArrowRight"":36,""ArrowDown,ArrowLeft"":15,""ArrowDown,ArrowRight"":23}","true","ArrowUp,ArrowRight","","","","","","",""
"html-keyboard-response","82","470973","0.0-3.0-11.0-4.0-1.1","spark_pilot_norest","10127","3","8","Male","","","","","","","null","<div style=""font-size:60px;"">+</div>","null","fixation","","","","","","","","","","","",""
"revaluation","83","475003","0.0-3.0-11.0-4.0-0.2","spark_pilot_norest","10127","3","8","Male","","false","","","","","[497.30000001192093]","./assets/img/space/animals/rabbit.jpg","[""ArrowRight""]","practice block","space","23","{""ArrowUp,ArrowLeft"":3,""ArrowUp,ArrowRight"":36,""ArrowDown,ArrowLeft"":15,""ArrowDown,ArrowRight"":23}","true","ArrowDown,ArrowRight","","","","","","",""
"html-keyboard-response","84","475513","0.0-3.0-11.0-4.0-1.2","spark_pilot_norest","10127","3","8","Male","","","","","","","null","<div style=""font-size:60px;"">+</div>","null","fixation","","","","","","","","","","","",""
"revaluation","85","479534","0.0-3.0-11.0-4.0-0.3","spark_pilot_norest","10127","3","8","Male","","false","","","","","[677.5999999940395]","./assets/img/space/animals/cat.jpg","[""ArrowRight""]","practice block","space","36","{""ArrowUp,ArrowLeft"":3,""ArrowUp,ArrowRight"":36,""ArrowDown,ArrowLeft"":15,""ArrowDown,ArrowRight"":23}","true","ArrowUp,ArrowRight","","","","","","",""
"html-keyboard-response","86","480044","0.0-3.0-11.0-4.0-1.3","spark_pilot_norest","10127","3","8","Male","","","","","","","null","<div style=""font-size:60px;"">+</div>","null","fixation","","","","","","","","","","","",""
"learning-instructions","87","488208","0.0-3.0-11.0-5.0-0.0","spark_pilot_norest","10127","3","8","Male","","","","","","","null","<p> You have almost finished this part of the game! </p>
            <p> We are going to ask you to make a few more choices. </p>","","instructions","","","","","","","","","","","",""
"learning-instructions","88","504253","0.0-3.0-11.0-5.0-0.1","spark_pilot_norest","10127","3","8","Male","","","","","","","null","<p> First, you need to decide whether to go up or down. When you see each picture, use the arrow keys to make your choice. </p>
            <p><b>You will not see which animal you found, but try to get to the one that will give you the most treasure.</b></p>","","instructions","","","","","","","","","","","",""
"html-keyboard-response","89","505263","0.0-3.0-11.0-6.0-0.0","spark_pilot_norest","10127","3","8","Male","","","","","","","null","<div style=""font-size:100px;color:red;"">Starting in...</div>","null","","","","","","","","","","","","",""
"html-keyboard-response","90","506264","0.0-3.0-11.0-6.0-1.0","spark_pilot_norest","10127","3","8","Male","","","","","","","null","<div style=""font-size:200px;color:red;"">3</div>","null","","","","","","","","","","","","",""
"html-keyboard-response","91","507273","0.0-3.0-11.0-6.0-2.0","spark_pilot_norest","10127","3","8","Male","","","","","","","null","<div style=""font-size:200px;color:red;"">2</div>","null","","","","","","","","","","","","",""
"html-keyboard-response","92","508296","0.0-3.0-11.0-6.0-3.0","spark_pilot_norest","10127","3","8","Male","","","","","","","null","<div style=""font-size:200px;color:red;"">1</div>","null","","","","","","","","","","","","",""
"revaluation","93","508745","0.0-3.0-11.0-7.0","spark_pilot_norest","10127","3","8","Male","","false","","","","","[438.90000000596046]","./assets/img/space/15.jpg","[""ArrowUp""]","practice block","space","0","{""ArrowUp,ArrowLeft"":3,""ArrowUp,ArrowRight"":36,""ArrowDown,ArrowLeft"":15,""ArrowDown,ArrowRight"":23}","true","ArrowUp","false","","","","","",""
"html-keyboard-response","94","509263","0.0-3.0-11.0-8.0","spark_pilot_norest","10127","3","8","Male","","","","","","","null","<div style=""font-size:60px;"">+</div>","null","fixation","","","","","","","","","","","",""
"learning-instructions","95","522703","0.0-3.0-11.0-9.0-0.0","spark_pilot_norest","10127","3","8","Male","","","","","","","null","<p> Now you will see the animals again and can search their chests for treasure. </p>
            <p> This time, you will not see how much treasure you earned, but you will earn more bonus money for making better choices. </p>","","instructions","","","","","","","","","","","",""
"html-keyboard-response","96","523723","0.0-3.0-11.0-10.0-0.0","spark_pilot_norest","10127","3","8","Male","","","","","","","null","<div style=""font-size:100px;color:red;"">Starting in...</div>","null","","","","","","","","","","","","",""
"html-keyboard-response","97","524743","0.0-3.0-11.0-10.0-1.0","spark_pilot_norest","10127","3","8","Male","","","","","","","null","<div style=""font-size:200px;color:red;"">3</div>","null","","","","","","","","","","","","",""
"html-keyboard-response","98","525753","0.0-3.0-11.0-10.0-2.0","spark_pilot_norest","10127","3","8","Male","","","","","","","null","<div style=""font-size:200px;color:red;"">2</div>","null","","","","","","","","","","","","",""
"html-keyboard-response","99","526763","0.0-3.0-11.0-10.0-3.0","spark_pilot_norest","10127","3","8","Male","","","","","","","null","<div style=""font-size:200px;color:red;"">1</div>","null","","","","","","","","","","","","",""
"revaluation","100","527111","0.0-3.0-11.0-11.0-0.0","spark_pilot_norest","10127","3","8","Male","","false","","","","","[339]","./assets/img/space/animals/cat.jpg","[""ArrowRight""]","practice block","space","0","{""ArrowUp,ArrowLeft"":3,""ArrowUp,ArrowRight"":36,""ArrowDown,ArrowLeft"":15,""ArrowDown,ArrowRight"":23}","true","ArrowUp,ArrowRight","","","","","","",""
"html-keyboard-response","101","527625","0.0-3.0-11.0-11.0-1.0","spark_pilot_norest","10127","3","8","Male","","","","","","","null","<div style=""font-size:60px;"">+</div>","null","fixation","","","","","","","","","","","",""
"revaluation","102","528422","0.0-3.0-11.0-11.0-0.1","spark_pilot_norest","10127","3","8","Male","","false","","","","","[790.5]","./assets/img/space/animals/rabbit.jpg","[""ArrowRight""]","practice block","space","0","{""ArrowUp,ArrowLeft"":3,""ArrowUp,ArrowRight"":36,""ArrowDown,ArrowLeft"":15,""ArrowDown,ArrowRight"":23}","true","ArrowDown,ArrowRight","","","","","","",""
"html-keyboard-response","103","528933","0.0-3.0-11.0-11.0-1.1","spark_pilot_norest","10127","3","8","Male","","","","","","","null","<div style=""font-size:60px;"">+</div>","null","fixation","","","","","","","","","","","",""
"learning-instructions","104","541222","0.0-3.0-12.0-0.0","spark_pilot_norest","10127","3","8","Male","","","","","","","7677.0999999940395","<p> Before you start, we're going to ask you a few questions about how the game works. </p>","","instructions","","","","","","","","","","","",""
"comp-q","105","551473","0.0-3.0-13.0-0.0-0.0","spark_pilot_norest","10127","3","8","Male","","","","","","","4655.300000011921","<p> <b> True or False? </b> </p>
            <p> There can be 50 pieces of treasure in a given animal's chest. </p>","1","comp_question","","","","true","","","","","","","",""
"comp-q","106","560926","0.0-3.0-13.0-0.0-1.0","spark_pilot_norest","10127","3","8","Male","","","","","","","2790.0999999940395","<p> <b> That's right! </b> The amount of treasure in each chest can range from 0 to 40 pieces. </p>","0","comp_answer","","","","","","","","","","","",""
"comp-q","107","570478","0.0-3.0-13.0-0.1-0.1","spark_pilot_norest","10127","3","8","Male","","","","","","","2432.5999999940395","<p> <b> True or False? </b> </p><p> In this game, all animals have the same amount of treasure in their left and right chests. </p>","1","comp_question","","","","true","","","","","","","",""
"comp-q","108","580902","0.0-3.0-13.0-0.1-1.1","spark_pilot_norest","10127","3","8","Male","","","","","","","5195.800000011921","<p> <b> That's right! </b> Animals have different amounts of treasure in their treasure chests. </p>","0","comp_answer","","","","","","","","","","","",""
"comp-q","109","593014","0.0-3.0-13.0-0.2-0.2","spark_pilot_norest","10127","3","8","Male","","","","","","","6268.5","<p> <b> True or False? </b> </p><p> The same animal will always be there if you go up in the same place. </p>","0","comp_question","","","","true","","","","","","","",""
"comp-q","110","602230","0.0-3.0-13.0-0.2-1.2","spark_pilot_norest","10127","3","8","Male","","","","","","","2771.4000000059605","<p> <b> That's right! </b> One animal lives in the upper part and one lives in the lower part of every place. </p>","0","comp_answer","","","","","","","","","","","",""
"comp-q","111","609222","0.0-3.0-13.0-0.3-0.3","spark_pilot_norest","10127","3","8","Male","","","","","","","1456.199999988079","<p> <b> True or False? </b> </p><p> If you see a different picture, it means you are in a new place. </p>","0","comp_question","","","","false","","","","","","","",""
"comp-q","112","626614","0.0-3.0-13.0-0.3-1.3","spark_pilot_norest","10127","3","8","Male","","","","","","","6287.300000011921","<p> <b>Incorrect.</b> Lots of different images may show the same place. For example,  you may see three different images that all remind you that you are in outer space. </p>","0","comp_answer","","","","","","","","","","","",""
"comp-q","113","637550","0.0-3.0-13.0-0.4-0.4","spark_pilot_norest","10127","3","8","Male","","","","","","","5424.700000017881","<p> <b> True or False? </b> </p><p> If you see a different picture, it means you are in a new place. </p>","1","comp_question","","","","true","","","","","","","",""
"comp-q","114","655215","0.0-3.0-13.0-0.4-1.4","spark_pilot_norest","10127","3","8","Male","","","","","","","6426.4000000059605","<p> <b> That's right! </b> Lots of different images may show the same place. For example,  you may see three different images that all remind you that you are in outer space. </p>","0","comp_answer","","","","","","","","","","","",""
"learning-instructions","115","667518","0.0-3.0-14.0-0.0","spark_pilot_norest","10127","3","8","Male","","","","","","","2451.100000023842","<p> Good job. Remember to do your best because the amount of treasure you earn will be converted into bonus money. </p>
            <p> It’s time to start the real game! </p>","","instructions","","","","","","","","","","","",""
"learning-instructions","116","675582","0.0-4.0-0.0-0.0","spark_pilot_norest","10127","3","8","Male","","","","","","","5354.5","<p> This time you are searching for treasure in the <b>ocean</b>.</p>","","instructions","","","","","","","","","","","",""
"learning-instructions","117","695862","0.0-4.0-0.0-0.1","spark_pilot_norest","10127","3","8","Male","","","","","","","2975.9000000059605","<p><b>New</b> animals with <b>new</b> treasure chests live here. You need to explore to discover where the animal with the best treasure chest is.</p>
                    <p> Like before, once you figure out which animal has the chest with the most treasure, you should try to get to that animal and select that chest! </p>","","instructions","","","","","","","","","","","",""
"learning-instructions","118","712509","0.0-4.0-1.0-0.0","spark_pilot_norest","10127","3","8","Male","","","","","","","1921.2999999821186","<p> Remember, when you see a picture of the place, use the up and down keys to <b>find an animal</b>.</p>
            <p> When you encounter an animal, you should use the left and right keys to <b>select a treasure chest</b>.</p>
            <p> Don't forget to look out for the robber! </p>","","instructions","","","","","","","","","","","",""
"revaluation","119","718553","0.0-4.0-2.0-0.0","spark_pilot_norest","10127","3","8","Male","","false","","","","","[1287.5999999940395,1053.4000000059605]","./assets/img/ocean/memory/9.jpg","[""ArrowUp"",""ArrowRight""]","value training","ocean","10","{""ArrowUp,ArrowLeft"":23,""ArrowUp,ArrowRight"":10,""ArrowDown,ArrowLeft"":8,""ArrowDown,ArrowRight"":30}","false","ArrowUp,ArrowRight","false","original","1","0","","",""
"html-keyboard-response","120","719064","0.0-4.0-2.0-1.0","spark_pilot_norest","10127","3","8","Male","","","","","","","null","<div style=""font-size:60px;"">+</div>","null","fixation","","","","","","","","","1","","",""
"revaluation","121","725119","0.0-4.0-2.0-0.1","spark_pilot_norest","10127","3","8","Male","","false","","","","","[1281.5999999940395,859.5999999940395]","./assets/img/ocean/memory/7.jpg","[""ArrowDown"",""ArrowRight""]","value training","ocean","30","{""ArrowUp,ArrowLeft"":23,""ArrowUp,ArrowRight"":10,""ArrowDown,ArrowLeft"":8,""ArrowDown,ArrowRight"":30}","true","ArrowDown,ArrowRight","false","original","1","2","","",""
"html-keyboard-response","122","725624","0.0-4.0-2.0-1.1","spark_pilot_norest","10127","3","8","Male","","","","","","","null","<div style=""font-size:60px;"">+</div>","null","fixation","","","","","","","","","3","","",""
"revaluation","123","729655","0.0-4.0-2.0-0.2","spark_pilot_norest","10127","3","8","Male","","false","","","","","[773.7999999821186]","./assets/img/ocean/catch/3.jpg","[""ArrowDown""]","value training","ocean","-10","{""ArrowUp,ArrowLeft"":23,""ArrowUp,ArrowRight"":10,""ArrowDown,ArrowLeft"":8,""ArrowDown,ArrowRight"":30}","false","ArrowDown","true","original","1","4","","",""
"html-keyboard-response","124","730174","0.0-4.0-2.0-1.2","spark_pilot_norest","10127","3","8","Male","","","","","","","null","<div style=""font-size:60px;"">+</div>","null","fixation","","","","","","","","","5","","",""
"revaluation","125","736230","0.0-4.0-2.0-0.3","spark_pilot_norest","10127","3","8","Male","","false","","","","","[1281.199999988079,692.5]","./assets/img/ocean/memory/12.jpg","[""ArrowDown"",""ArrowRight""]","value training","ocean","30","{""ArrowUp,ArrowLeft"":23,""ArrowUp,ArrowRight"":10,""ArrowDown,ArrowLeft"":8,""ArrowDown,ArrowRight"":30}","true","ArrowDown,ArrowRight","false","original","1","6","","",""
"html-keyboard-response","126","736744","0.0-4.0-2.0-1.3","spark_pilot_norest","10127","3","8","Male","","","","","","","null","<div style=""font-size:60px;"">+</div>","null","fixation","","","","","","","","","7","","",""
"revaluation","127","742768","0.0-4.0-2.0-0.4","spark_pilot_norest","10127","3","8","Male","","false","","","","","[988.4000000059605,443.09999999403954]","./assets/img/ocean/memory/25.jpg","[""ArrowDown"",""ArrowRight""]","value training","ocean","30","{""ArrowUp,ArrowLeft"":23,""ArrowUp,ArrowRight"":10,""ArrowDown,ArrowLeft"":8,""ArrowDown,ArrowRight"":30}","true","ArrowDown,ArrowRight","false","original","1","8","","",""
"html-keyboard-response","128","743272","0.0-4.0-2.0-1.4","spark_pilot_norest","10127","3","8","Male","","","","","","","null","<div style=""font-size:60px;"">+</div>","null","fixation","","","","","","","","","9","","",""
"revaluation","129","749300","0.0-4.0-2.0-0.5","spark_pilot_norest","10127","3","8","Male","","false","","","","","[1172.0999999940395,855.8999999761581]","./assets/img/ocean/memory/10.jpg","[""ArrowDown"",""ArrowRight""]","value training","ocean","30","{""ArrowUp,ArrowLeft"":23,""ArrowUp,ArrowRight"":10,""ArrowDown,ArrowLeft"":8,""ArrowDown,ArrowRight"":30}","true","ArrowDown,ArrowRight","false","original","1","10","","",""
"html-keyboard-response","130","749802","0.0-4.0-2.0-1.5","spark_pilot_norest","10127","3","8","Male","","","","","","","null","<div style=""font-size:60px;"">+</div>","null","fixation","","","","","","","","","11","","",""
"revaluation","131","753818","0.0-4.0-2.0-0.6","spark_pilot_norest","10127","3","8","Male","","false","","","","","[1488.5999999940395]","./assets/img/ocean/catch/0.jpg","[""spaceBar""]","value training","ocean","0","{""ArrowUp,ArrowLeft"":23,""ArrowUp,ArrowRight"":10,""ArrowDown,ArrowLeft"":8,""ArrowDown,ArrowRight"":30}","true","spaceBar","true","original","1","12","","",""
"html-keyboard-response","132","754321","0.0-4.0-2.0-1.6","spark_pilot_norest","10127","3","8","Male","","","","","","","null","<div style=""font-size:60px;"">+</div>","null","fixation","","","","","","","","","13","","",""
"revaluation","133","758330","0.0-4.0-2.0-0.7","spark_pilot_norest","10127","3","8","Male","","false","","","","","[1759.300000011921]","./assets/img/ocean/catch/4.jpg","[""spaceBar""]","value training","ocean","0","{""ArrowUp,ArrowLeft"":23,""ArrowUp,ArrowRight"":10,""ArrowDown,ArrowLeft"":8,""ArrowDown,ArrowRight"":30}","true","spaceBar","true","original","1","14","","",""
"html-keyboard-response","134","758832","0.0-4.0-2.0-1.7","spark_pilot_norest","10127","3","8","Male","","","","","","","null","<div style=""font-size:60px;"">+</div>","null","fixation","","","","","","","","","15","","",""
"revaluation","135","762844","0.0-4.0-2.0-0.8","spark_pilot_norest","10127","3","8","Male","","false","","","","","[1309.5999999940395]","./assets/img/ocean/catch/6.jpg","[""spaceBar""]","value training","ocean","0","{""ArrowUp,ArrowLeft"":23,""ArrowUp,ArrowRight"":10,""ArrowDown,ArrowLeft"":8,""ArrowDown,ArrowRight"":30}","true","spaceBar","true","original","1","16","","",""
"html-keyboard-response","136","763348","0.0-4.0-2.0-1.8","spark_pilot_norest","10127","3","8","Male","","","","","","","null","<div style=""font-size:60px;"">+</div>","null","fixation","","","","","","","","","17","","",""
"revaluation","137","767359","0.0-4.0-2.0-0.9","spark_pilot_norest","10127","3","8","Male","","false","","","","","[986.6999999880791]","./assets/img/ocean/catch/2.jpg","[""spaceBar""]","value training","ocean","0","{""ArrowUp,ArrowLeft"":23,""ArrowUp,ArrowRight"":10,""ArrowDown,ArrowLeft"":8,""ArrowDown,ArrowRight"":30}","true","spaceBar","true","original","1","18","","",""
"html-keyboard-response","138","767861","0.0-4.0-2.0-1.9","spark_pilot_norest","10127","3","8","Male","","","","","","","null","<div style=""font-size:60px;"">+</div>","null","fixation","","","","","","","","","19","","",""
"revaluation","139","773873","0.0-4.0-2.0-0.10","spark_pilot_norest","10127","3","8","Male","","false","","","","","[1851.9000000059605,504.69999998807907]","./assets/img/ocean/memory/30.jpg","[""ArrowDown"",""ArrowRight""]","value training","ocean","30","{""ArrowUp,ArrowLeft"":23,""ArrowUp,ArrowRight"":10,""ArrowDown,ArrowLeft"":8,""ArrowDown,ArrowRight"":30}","true","ArrowDown,ArrowRight","false","original","1","20","","",""
"html-keyboard-response","140","774376","0.0-4.0-2.0-1.10","spark_pilot_norest","10127","3","8","Male","","","","","","","null","<div style=""font-size:60px;"">+</div>","null","fixation","","","","","","","","","21","","",""
"revaluation","141","780384","0.0-4.0-2.0-0.11","spark_pilot_norest","10127","3","8","Male","","false","","","","","[507.30000001192093,523]","./assets/img/ocean/memory/21.jpg","[""ArrowDown"",""ArrowRight""]","value training","ocean","30","{""ArrowUp,ArrowLeft"":23,""ArrowUp,ArrowRight"":10,""ArrowDown,ArrowLeft"":8,""ArrowDown,ArrowRight"":30}","true","ArrowDown,ArrowRight","false","original","1","22","","",""
"html-keyboard-response","142","780886","0.0-4.0-2.0-1.11","spark_pilot_norest","10127","3","8","Male","","","","","","","null","<div style=""font-size:60px;"">+</div>","null","fixation","","","","","","","","","23","","",""
"revaluation","143","786902","0.0-4.0-2.0-0.12","spark_pilot_norest","10127","3","8","Male","","false","","","","","[597.7999999821186,1043.9000000059605]","./assets/img/ocean/memory/36.jpg","[""ArrowDown"",""ArrowRight""]","value training","ocean","30","{""ArrowUp,ArrowLeft"":23,""ArrowUp,ArrowRight"":10,""ArrowDown,ArrowLeft"":8,""ArrowDown,ArrowRight"":30}","true","ArrowDown,ArrowRight","false","original","1","24","","",""
"html-keyboard-response","144","787404","0.0-4.0-2.0-1.12","spark_pilot_norest","10127","3","8","Male","","","","","","","null","<div style=""font-size:60px;"">+</div>","null","fixation","","","","","","","","","25","","",""
"revaluation","145","791415","0.0-4.0-2.0-0.13","spark_pilot_norest","10127","3","8","Male","","true","","","","","[]","./assets/img/ocean/memory/7.jpg","[]","value training","ocean","-5","{""ArrowUp,ArrowLeft"":23,""ArrowUp,ArrowRight"":10,""ArrowDown,ArrowLeft"":8,""ArrowDown,ArrowRight"":30}","false","","false","original","1","26","","",""
"html-keyboard-response","146","791917","0.0-4.0-2.0-1.13","spark_pilot_norest","10127","3","8","Male","","","","","","","null","<div style=""font-size:60px;"">+</div>","null","fixation","","","","","","","","","27","","",""
"revaluation","147","795924","0.0-4.0-2.0-0.14","spark_pilot_norest","10127","3","8","Male","","false","","","","","[1862.6000000238419]","./assets/img/ocean/catch/7.jpg","[""spaceBar""]","value training","ocean","0","{""ArrowUp,ArrowLeft"":23,""ArrowUp,ArrowRight"":10,""ArrowDown,ArrowLeft"":8,""ArrowDown,ArrowRight"":30}","true","spaceBar","true","original","1","28","","",""
"html-keyboard-response","148","796427","0.0-4.0-2.0-1.14","spark_pilot_norest","10127","3","8","Male","","","","","","","null","<div style=""font-size:60px;"">+</div>","null","fixation","","","","","","","","","29","","",""
"revaluation","149","800433","0.0-4.0-2.0-0.15","spark_pilot_norest","10127","3","8","Male","","false","","","","","[1369.699999988079]","./assets/img/ocean/catch/5.jpg","[""spaceBar""]","value training","ocean","0","{""ArrowUp,ArrowLeft"":23,""ArrowUp,ArrowRight"":10,""ArrowDown,ArrowLeft"":8,""ArrowDown,ArrowRight"":30}","true","spaceBar","true","original","1","30","","",""
"html-keyboard-response","150","800935","0.0-4.0-2.0-1.15","spark_pilot_norest","10127","3","8","Male","","","","","","","null","<div style=""font-size:60px;"">+</div>","null","fixation","","","","","","","","","31","","",""
"revaluation","151","806941","0.0-4.0-2.0-0.16","spark_pilot_norest","10127","3","8","Male","","false","","","","","[1675.9000000059605,604.1999999880791]","./assets/img/ocean/memory/3.jpg","[""ArrowDown"",""ArrowRight""]","value training","ocean","30","{""ArrowUp,ArrowLeft"":23,""ArrowUp,ArrowRight"":10,""ArrowDown,ArrowLeft"":8,""ArrowDown,ArrowRight"":30}","true","ArrowDown,ArrowRight","false","original","1","32","","",""
"html-keyboard-response","152","807443","0.0-4.0-2.0-1.16","spark_pilot_norest","10127","3","8","Male","","","","","","","null","<div style=""font-size:60px;"">+</div>","null","fixation","","","","","","","","","33","","",""
"revaluation","153","813456","0.0-4.0-2.0-0.17","spark_pilot_norest","10127","3","8","Male","","false","","","","","[556,698.5]","./assets/img/ocean/memory/30.jpg","[""ArrowDown"",""ArrowRight""]","value training","ocean","30","{""ArrowUp,ArrowLeft"":23,""ArrowUp,ArrowRight"":10,""ArrowDown,ArrowLeft"":8,""ArrowDown,ArrowRight"":30}","true","ArrowDown,ArrowRight","false","original","1","34","","",""
"html-keyboard-response","154","813959","0.0-4.0-2.0-1.17","spark_pilot_norest","10127","3","8","Male","","","","","","","null","<div style=""font-size:60px;"">+</div>","null","fixation","","","","","","","","","35","","",""
"revaluation","155","819970","0.0-4.0-2.0-0.18","spark_pilot_norest","10127","3","8","Male","","false","","","","","[1193.699999988079,489.5]","./assets/img/ocean/memory/23.jpg","[""ArrowDown"",""ArrowRight""]","value training","ocean","30","{""ArrowUp,ArrowLeft"":23,""ArrowUp,ArrowRight"":10,""ArrowDown,ArrowLeft"":8,""ArrowDown,ArrowRight"":30}","true","ArrowDown,ArrowRight","false","original","1","36","","",""
"html-keyboard-response","156","820471","0.0-4.0-2.0-1.18","spark_pilot_norest","10127","3","8","Male","","","","","","","null","<div style=""font-size:60px;"">+</div>","null","fixation","","","","","","","","","37","","",""
"revaluation","157","826483","0.0-4.0-2.0-0.19","spark_pilot_norest","10127","3","8","Male","","false","","","","","[1109.300000011921,582.2000000178814]","./assets/img/ocean/memory/1.jpg","[""ArrowDown"",""ArrowRight""]","value training","ocean","30","{""ArrowUp,ArrowLeft"":23,""ArrowUp,ArrowRight"":10,""ArrowDown,ArrowLeft"":8,""ArrowDown,ArrowRight"":30}","true","ArrowDown,ArrowRight","false","original","1","38","","",""
"html-keyboard-response","158","826985","0.0-4.0-2.0-1.19","spark_pilot_norest","10127","3","8","Male","","","","","","","null","<div style=""font-size:60px;"">+</div>","null","fixation","","","","","","","","","39","","",""
"revaluation","159","832996","0.0-4.0-2.0-0.20","spark_pilot_norest","10127","3","8","Male","","false","","","","","[1576.5999999940395,582.0999999940395]","./assets/img/ocean/memory/32.jpg","[""ArrowDown"",""ArrowRight""]","value training","ocean","30","{""ArrowUp,ArrowLeft"":23,""ArrowUp,ArrowRight"":10,""ArrowDown,ArrowLeft"":8,""ArrowDown,ArrowRight"":30}","true","ArrowDown,ArrowRight","false","original","1","40","","",""
"html-keyboard-response","160","833498","0.0-4.0-2.0-1.20","spark_pilot_norest","10127","3","8","Male","","","","","","","null","<div style=""font-size:60px;"">+</div>","null","fixation","","","","","","","","","41","","",""
"revaluation","161","839507","0.0-4.0-2.0-0.21","spark_pilot_norest","10127","3","8","Male","","false","","","","","[728,647.2999999821186]","./assets/img/ocean/memory/34.jpg","[""ArrowDown"",""ArrowRight""]","value training","ocean","30","{""ArrowUp,ArrowLeft"":23,""ArrowUp,ArrowRight"":10,""ArrowDown,ArrowLeft"":8,""ArrowDown,ArrowRight"":30}","true","ArrowDown,ArrowRight","false","original","1","42","","",""
"html-keyboard-response","162","840009","0.0-4.0-2.0-1.21","spark_pilot_norest","10127","3","8","Male","","","","","","","null","<div style=""font-size:60px;"">+</div>","null","fixation","","","","","","","","","43","","",""
"revaluation","163","846019","0.0-4.0-2.0-0.22","spark_pilot_norest","10127","3","8","Male","","false","","","","","[1114.2999999821186,633.6000000238419]","./assets/img/ocean/memory/24.jpg","[""ArrowDown"",""ArrowRight""]","value training","ocean","30","{""ArrowUp,ArrowLeft"":23,""ArrowUp,ArrowRight"":10,""ArrowDown,ArrowLeft"":8,""ArrowDown,ArrowRight"":30}","true","ArrowDown,ArrowRight","false","original","1","44","","",""
"html-keyboard-response","164","846523","0.0-4.0-2.0-1.22","spark_pilot_norest","10127","3","8","Male","","","","","","","null","<div style=""font-size:60px;"">+</div>","null","fixation","","","","","","","","","45","","",""
"revaluation","165","852534","0.0-4.0-2.0-0.23","spark_pilot_norest","10127","3","8","Male","","false","","","","","[1012,691.0999999940395]","./assets/img/ocean/memory/13.jpg","[""ArrowDown"",""ArrowRight""]","value training","ocean","30","{""ArrowUp,ArrowLeft"":23,""ArrowUp,ArrowRight"":10,""ArrowDown,ArrowLeft"":8,""ArrowDown,ArrowRight"":30}","true","ArrowDown,ArrowRight","false","original","1","46","","",""
"html-keyboard-response","166","853036","0.0-4.0-2.0-1.23","spark_pilot_norest","10127","3","8","Male","","","","","","","null","<div style=""font-size:60px;"">+</div>","null","fixation","","","","","","","","","47","","",""
"revaluation","167","857048","0.0-4.0-2.0-0.24","spark_pilot_norest","10127","3","8","Male","","true","","","","","[]","./assets/img/ocean/memory/31.jpg","[]","value training","ocean","-5","{""ArrowUp,ArrowLeft"":23,""ArrowUp,ArrowRight"":10,""ArrowDown,ArrowLeft"":8,""ArrowDown,ArrowRight"":30}","false","","false","original","1","48","","",""
"html-keyboard-response","168","857550","0.0-4.0-2.0-1.24","spark_pilot_norest","10127","3","8","Male","","","","","","","null","<div style=""font-size:60px;"">+</div>","null","fixation","","","","","","","","","49","","",""
"revaluation","169","861562","0.0-4.0-2.0-0.25","spark_pilot_norest","10127","3","8","Male","","false","","","","","[1424.199999988079]","./assets/img/ocean/catch/1.jpg","[""spaceBar""]","value training","ocean","0","{""ArrowUp,ArrowLeft"":23,""ArrowUp,ArrowRight"":10,""ArrowDown,ArrowLeft"":8,""ArrowDown,ArrowRight"":30}","true","spaceBar","true","original","1","50","","",""
"html-keyboard-response","170","862065","0.0-4.0-2.0-1.25","spark_pilot_norest","10127","3","8","Male","","","","","","","null","<div style=""font-size:60px;"">+</div>","null","fixation","","","","","","","","","51","","",""
"revaluation","171","868078","0.0-4.0-2.0-0.26","spark_pilot_norest","10127","3","8","Male","","false","","","","","[590.4000000059605,428.30000001192093]","./assets/img/ocean/memory/36.jpg","[""ArrowDown"",""ArrowRight""]","value training","ocean","30","{""ArrowUp,ArrowLeft"":23,""ArrowUp,ArrowRight"":10,""ArrowDown,ArrowLeft"":8,""ArrowDown,ArrowRight"":30}","true","ArrowDown,ArrowRight","false","original","1","52","","",""
"html-keyboard-response","172","868581","0.0-4.0-2.0-1.26","spark_pilot_norest","10127","3","8","Male","","","","","","","null","<div style=""font-size:60px;"">+</div>","null","fixation","","","","","","","","","53","","",""
"revaluation","173","874592","0.0-4.0-2.0-0.27","spark_pilot_norest","10127","3","8","Male","","false","","","","","[522.2999999821186,393]","./assets/img/ocean/memory/27.jpg","[""ArrowDown"",""ArrowRight""]","value training","ocean","30","{""ArrowUp,ArrowLeft"":23,""ArrowUp,ArrowRight"":10,""ArrowDown,ArrowLeft"":8,""ArrowDown,ArrowRight"":30}","true","ArrowDown,ArrowRight","false","original","1","54","","",""
"html-keyboard-response","174","875095","0.0-4.0-2.0-1.27","spark_pilot_norest","10127","3","8","Male","","","","","","","null","<div style=""font-size:60px;"">+</div>","null","fixation","","","","","","","","","55","","",""
"revaluation","175","881106","0.0-4.0-2.0-0.28","spark_pilot_norest","10127","3","8","Male","","false","","","","","[392.59999999403954,391.5]","./assets/img/ocean/memory/23.jpg","[""ArrowDown"",""ArrowRight""]","value training","ocean","30","{""ArrowUp,ArrowLeft"":23,""ArrowUp,ArrowRight"":10,""ArrowDown,ArrowLeft"":8,""ArrowDown,ArrowRight"":30}","true","ArrowDown,ArrowRight","false","original","1","56","","",""
"html-keyboard-response","176","881608","0.0-4.0-2.0-1.28","spark_pilot_norest","10127","3","8","Male","","","","","","","null","<div style=""font-size:60px;"">+</div>","null","fixation","","","","","","","","","57","","",""
"revaluation","177","885618","0.0-4.0-2.0-0.29","spark_pilot_norest","10127","3","8","Male","","true","","","","","[]","./assets/img/ocean/memory/25.jpg","[]","value training","ocean","-5","{""ArrowUp,ArrowLeft"":23,""ArrowUp,ArrowRight"":10,""ArrowDown,ArrowLeft"":8,""ArrowDown,ArrowRight"":30}","false","","false","original","1","58","","",""
"html-keyboard-response","178","886119","0.0-4.0-2.0-1.29","spark_pilot_norest","10127","3","8","Male","","","","","","","null","<div style=""font-size:60px;"">+</div>","null","fixation","","","","","","","","","59","","",""
"revaluation","179","892131","0.0-4.0-2.0-0.30","spark_pilot_norest","10127","3","8","Male","","false","","","","","[775.4000000059605,375.30000001192093]","./assets/img/ocean/memory/24.jpg","[""ArrowDown"",""ArrowRight""]","value training","ocean","30","{""ArrowUp,ArrowLeft"":23,""ArrowUp,ArrowRight"":10,""ArrowDown,ArrowLeft"":8,""ArrowDown,ArrowRight"":30}","true","ArrowDown,ArrowRight","false","original","1","60","","",""
"html-keyboard-response","180","892633","0.0-4.0-2.0-1.30","spark_pilot_norest","10127","3","8","Male","","","","","","","null","<div style=""font-size:60px;"">+</div>","null","fixation","","","","","","","","","61","","",""
"revaluation","181","898645","0.0-4.0-2.0-0.31","spark_pilot_norest","10127","3","8","Male","","false","","","","","[406.2000000178814,436.5]","./assets/img/ocean/memory/19.jpg","[""ArrowDown"",""ArrowRight""]","value training","ocean","30","{""ArrowUp,ArrowLeft"":23,""ArrowUp,ArrowRight"":10,""ArrowDown,ArrowLeft"":8,""ArrowDown,ArrowRight"":30}","true","ArrowDown,ArrowRight","false","original","1","62","","",""
"html-keyboard-response","182","899152","0.0-4.0-2.0-1.31","spark_pilot_norest","10127","3","8","Male","","","","","","","null","<div style=""font-size:60px;"">+</div>","null","fixation","","","","","","","","","63","","",""
"revaluation","183","905163","0.0-4.0-2.0-0.32","spark_pilot_norest","10127","3","8","Male","","false","","","","","[558.5,412.7999999821186]","./assets/img/ocean/memory/0.jpg","[""ArrowDown"",""ArrowLeft""]","value training","ocean","8","{""ArrowUp,ArrowLeft"":23,""ArrowUp,ArrowRight"":10,""ArrowDown,ArrowLeft"":8,""ArrowDown,ArrowRight"":30}","false","ArrowDown,ArrowLeft","false","original","1","64","","",""
"html-keyboard-response","184","905666","0.0-4.0-2.0-1.32","spark_pilot_norest","10127","3","8","Male","","","","","","","null","<div style=""font-size:60px;"">+</div>","null","fixation","","","","","","","","","65","","",""
"revaluation","185","911676","0.0-4.0-2.0-0.33","spark_pilot_norest","10127","3","8","Male","","false","","","","","[1262,557.1999999880791]","./assets/img/ocean/memory/31.jpg","[""ArrowDown"",""ArrowRight""]","value training","ocean","30","{""ArrowUp,ArrowLeft"":23,""ArrowUp,ArrowRight"":10,""ArrowDown,ArrowLeft"":8,""ArrowDown,ArrowRight"":30}","true","ArrowDown,ArrowRight","false","original","1","66","","",""
"html-keyboard-response","186","912178","0.0-4.0-2.0-1.33","spark_pilot_norest","10127","3","8","Male","","","","","","","null","<div style=""font-size:60px;"">+</div>","null","fixation","","","","","","","","","67","","",""
"revaluation","187","918192","0.0-4.0-2.0-0.34","spark_pilot_norest","10127","3","8","Male","","false","","","","","[586.8000000119209,409]","./assets/img/ocean/memory/11.jpg","[""ArrowDown"",""ArrowRight""]","value training","ocean","30","{""ArrowUp,ArrowLeft"":23,""ArrowUp,ArrowRight"":10,""ArrowDown,ArrowLeft"":8,""ArrowDown,ArrowRight"":30}","true","ArrowDown,ArrowRight","false","original","1","68","","",""
"html-keyboard-response","188","918695","0.0-4.0-2.0-1.34","spark_pilot_norest","10127","3","8","Male","","","","","","","null","<div style=""font-size:60px;"">+</div>","null","fixation","","","","","","","","","69","","",""
"revaluation","189","924705","0.0-4.0-2.0-0.35","spark_pilot_norest","10127","3","8","Male","","false","","","","","[457.2999999821186,376.2999999821186]","./assets/img/ocean/memory/32.jpg","[""ArrowDown"",""ArrowRight""]","value training","ocean","30","{""ArrowUp,ArrowLeft"":23,""ArrowUp,ArrowRight"":10,""ArrowDown,ArrowLeft"":8,""ArrowDown,ArrowRight"":30}","true","ArrowDown,ArrowRight","false","original","1","70","","",""
"html-keyboard-response","190","925207","0.0-4.0-2.0-1.35","spark_pilot_norest","10127","3","8","Male","","","","","","","null","<div style=""font-size:60px;"">+</div>","null","fixation","","","","","","","","","71","","",""
"revaluation","191","931222","0.0-4.0-2.0-0.36","spark_pilot_norest","10127","3","8","Male","","false","","","","","[515.5,723]","./assets/img/ocean/memory/13.jpg","[""ArrowDown"",""ArrowRight""]","value training","ocean","30","{""ArrowUp,ArrowLeft"":23,""ArrowUp,ArrowRight"":10,""ArrowDown,ArrowLeft"":8,""ArrowDown,ArrowRight"":30}","true","ArrowDown,ArrowRight","false","original","1","72","","",""
"html-keyboard-response","192","931724","0.0-4.0-2.0-1.36","spark_pilot_norest","10127","3","8","Male","","","","","","","null","<div style=""font-size:60px;"">+</div>","null","fixation","","","","","","","","","73","","",""
"revaluation","193","937734","0.0-4.0-2.0-0.37","spark_pilot_norest","10127","3","8","Male","","false","","","","","[1316.1000000238419,578.7000000178814]","./assets/img/ocean/memory/21.jpg","[""ArrowDown"",""ArrowRight""]","value training","ocean","30","{""ArrowUp,ArrowLeft"":23,""ArrowUp,ArrowRight"":10,""ArrowDown,ArrowLeft"":8,""ArrowDown,ArrowRight"":30}","true","ArrowDown,ArrowRight","false","original","1","74","","",""
"html-keyboard-response","194","938237","0.0-4.0-2.0-1.37","spark_pilot_norest","10127","3","8","Male","","","","","","","null","<div style=""font-size:60px;"">+</div>","null","fixation","","","","","","","","","75","","",""
"revaluation","195","944258","0.0-4.0-2.0-0.38","spark_pilot_norest","10127","3","8","Male","","false","","","","","[508.2000000178814,523.9000000059605]","./assets/img/ocean/memory/16.jpg","[""ArrowDown"",""ArrowRight""]","value training","ocean","30","{""ArrowUp,ArrowLeft"":23,""ArrowUp,ArrowRight"":10,""ArrowDown,ArrowLeft"":8,""ArrowDown,ArrowRight"":30}","true","ArrowDown,ArrowRight","false","original","1","76","","",""
"html-keyboard-response","196","944760","0.0-4.0-2.0-1.38","spark_pilot_norest","10127","3","8","Male","","","","","","","null","<div style=""font-size:60px;"">+</div>","null","fixation","","","","","","","","","77","","",""
"revaluation","197","950771","0.0-4.0-2.0-0.39","spark_pilot_norest","10127","3","8","Male","","false","","","","","[791.0999999940395,533.5999999940395]","./assets/img/ocean/memory/19.jpg","[""ArrowDown"",""ArrowRight""]","value training","ocean","30","{""ArrowUp,ArrowLeft"":23,""ArrowUp,ArrowRight"":10,""ArrowDown,ArrowLeft"":8,""ArrowDown,ArrowRight"":30}","true","ArrowDown,ArrowRight","false","original","1","78","","",""
"html-keyboard-response","198","951273","0.0-4.0-2.0-1.39","spark_pilot_norest","10127","3","8","Male","","","","","","","null","<div style=""font-size:60px;"">+</div>","null","fixation","","","","","","","","","79","","",""
"revaluation","199","957291","0.0-4.0-2.0-0.40","spark_pilot_norest","10127","3","8","Male","","false","","","","","[447,557.9000000059605]","./assets/img/ocean/memory/27.jpg","[""ArrowDown"",""ArrowRight""]","value training","ocean","30","{""ArrowUp,ArrowLeft"":23,""ArrowUp,ArrowRight"":10,""ArrowDown,ArrowLeft"":8,""ArrowDown,ArrowRight"":30}","true","ArrowDown,ArrowRight","false","original","1","80","","",""
"html-keyboard-response","200","957793","0.0-4.0-2.0-1.40","spark_pilot_norest","10127","3","8","Male","","","","","","","null","<div style=""font-size:60px;"">+</div>","null","fixation","","","","","","","","","81","","",""
"revaluation","201","963811","0.0-4.0-2.0-0.41","spark_pilot_norest","10127","3","8","Male","","false","","","","","[457.7999999821186,487.59999999403954]","./assets/img/ocean/memory/9.jpg","[""ArrowDown"",""ArrowRight""]","value training","ocean","30","{""ArrowUp,ArrowLeft"":23,""ArrowUp,ArrowRight"":10,""ArrowDown,ArrowLeft"":8,""ArrowDown,ArrowRight"":30}","true","ArrowDown,ArrowRight","false","original","1","82","","",""
"html-keyboard-response","202","964314","0.0-4.0-2.0-1.41","spark_pilot_norest","10127","3","8","Male","","","","","","","null","<div style=""font-size:60px;"">+</div>","null","fixation","","","","","","","","","83","","",""
"revaluation","203","970326","0.0-4.0-2.0-0.42","spark_pilot_norest","10127","3","8","Male","","true","","","","","[357.59999999403954]","./assets/img/ocean/memory/16.jpg","[""ArrowDown""]","value training","ocean","-5","{""ArrowUp,ArrowLeft"":23,""ArrowUp,ArrowRight"":10,""ArrowDown,ArrowLeft"":8,""ArrowDown,ArrowRight"":30}","false","ArrowDown","false","original","1","84","","",""
"html-keyboard-response","204","970828","0.0-4.0-2.0-1.42","spark_pilot_norest","10127","3","8","Male","","","","","","","null","<div style=""font-size:60px;"">+</div>","null","fixation","","","","","","","","","85","","",""
"revaluation","205","976840","0.0-4.0-2.0-0.43","spark_pilot_norest","10127","3","8","Male","","false","","","","","[1362,961.0999999940395]","./assets/img/ocean/memory/34.jpg","[""ArrowDown"",""ArrowRight""]","value training","ocean","30","{""ArrowUp,ArrowLeft"":23,""ArrowUp,ArrowRight"":10,""ArrowDown,ArrowLeft"":8,""ArrowDown,ArrowRight"":30}","true","ArrowDown,ArrowRight","false","original","1","86","","",""
"html-keyboard-response","206","977343","0.0-4.0-2.0-1.43","spark_pilot_norest","10127","3","8","Male","","","","","","","null","<div style=""font-size:60px;"">+</div>","null","fixation","","","","","","","","","87","","",""
"revaluation","207","981350","0.0-4.0-2.0-0.44","spark_pilot_norest","10127","3","8","Male","","true","","","","","[]","./assets/img/ocean/memory/10.jpg","[]","value training","ocean","-5","{""ArrowUp,ArrowLeft"":23,""ArrowUp,ArrowRight"":10,""ArrowDown,ArrowLeft"":8,""ArrowDown,ArrowRight"":30}","false","","false","original","1","88","","",""
"html-keyboard-response","208","981852","0.0-4.0-2.0-1.44","spark_pilot_norest","10127","3","8","Male","","","","","","","null","<div style=""font-size:60px;"">+</div>","null","fixation","","","","","","","","","89","","",""
"revaluation","209","987863","0.0-4.0-2.0-0.45","spark_pilot_norest","10127","3","8","Male","","false","","","","","[388.7000000178814,355.69999998807907]","./assets/img/ocean/memory/1.jpg","[""ArrowDown"",""ArrowRight""]","value training","ocean","30","{""ArrowUp,ArrowLeft"":23,""ArrowUp,ArrowRight"":10,""ArrowDown,ArrowLeft"":8,""ArrowDown,ArrowRight"":30}","true","ArrowDown,ArrowRight","false","original","1","90","","",""
"html-keyboard-response","210","988365","0.0-4.0-2.0-1.45","spark_pilot_norest","10127","3","8","Male","","","","","","","null","<div style=""font-size:60px;"">+</div>","null","fixation","","","","","","","","","91","","",""
"revaluation","211","994385","0.0-4.0-2.0-0.46","spark_pilot_norest","10127","3","8","Male","","false","","","","","[613.5,409.5]","./assets/img/ocean/memory/11.jpg","[""ArrowDown"",""ArrowRight""]","value training","ocean","30","{""ArrowUp,ArrowLeft"":23,""ArrowUp,ArrowRight"":10,""ArrowDown,ArrowLeft"":8,""ArrowDown,ArrowRight"":30}","true","ArrowDown,ArrowRight","false","original","1","92","","",""
"html-keyboard-response","212","994889","0.0-4.0-2.0-1.46","spark_pilot_norest","10127","3","8","Male","","","","","","","null","<div style=""font-size:60px;"">+</div>","null","fixation","","","","","","","","","93","","",""
"revaluation","213","1000905","0.0-4.0-2.0-0.47","spark_pilot_norest","10127","3","8","Male","","false","","","","","[306,527.3000000119209]","./assets/img/ocean/memory/3.jpg","[""ArrowDown"",""ArrowRight""]","value training","ocean","30","{""ArrowUp,ArrowLeft"":23,""ArrowUp,ArrowRight"":10,""ArrowDown,ArrowLeft"":8,""ArrowDown,ArrowRight"":30}","true","ArrowDown,ArrowRight","false","original","1","94","","",""
"html-keyboard-response","214","1001407","0.0-4.0-2.0-1.47","spark_pilot_norest","10127","3","8","Male","","","","","","","null","<div style=""font-size:60px;"">+</div>","null","fixation","","","","","","","","","95","","",""
"revaluation","215","1007414","0.0-4.0-2.0-0.48","spark_pilot_norest","10127","3","8","Male","","false","","","","","[1397,788.5999999940395]","./assets/img/ocean/memory/0.jpg","[""ArrowUp"",""ArrowRight""]","value training","ocean","10","{""ArrowUp,ArrowLeft"":23,""ArrowUp,ArrowRight"":10,""ArrowDown,ArrowLeft"":8,""ArrowDown,ArrowRight"":30}","false","ArrowUp,ArrowRight","false","original","1","96","","",""
"html-keyboard-response","216","1007915","0.0-4.0-2.0-1.48","spark_pilot_norest","10127","3","8","Male","","","","","","","null","<div style=""font-size:60px;"">+</div>","null","fixation","","","","","","","","","97","","",""
"revaluation","217","1013926","0.0-4.0-2.0-0.49","spark_pilot_norest","10127","3","8","Male","","false","","","","","[596.4000000059605,499.59999999403954]","./assets/img/ocean/memory/12.jpg","[""ArrowDown"",""ArrowRight""]","value training","ocean","30","{""ArrowUp,ArrowLeft"":23,""ArrowUp,ArrowRight"":10,""ArrowDown,ArrowLeft"":8,""ArrowDown,ArrowRight"":30}","true","ArrowDown,ArrowRight","false","original","1","98","","",""
"html-keyboard-response","218","1014428","0.0-4.0-2.0-1.49","spark_pilot_norest","10127","3","8","Male","","","","","","","null","<div style=""font-size:60px;"">+</div>","null","fixation","","","","","","","","","99","","",""
"learning-instructions","219","1034477","0.0-4.0-3.0-0.0","spark_pilot_norest","10127","3","8","Male","","","","","","","6450.9000000059605","<p> Now, you will travel with a friend who will choose whether you go up or down first. </p>
            <p> On these turns, you will just see the animal that they found. You will still get to choose which chest to search for treasure.</p>","","instructions","","","","","","","","","","","",""
"revaluation","220","1038503","0.0-4.0-4.0-0.0","spark_pilot_norest","10127","3","8","Male","","false","","","","","[1575.300000011921]","./assets/img/ocean/animals/seahorse.jpg","[""ArrowRight""]","revaluation","ocean","30","{""ArrowUp,ArrowLeft"":23,""ArrowUp,ArrowRight"":10,""ArrowDown,ArrowLeft"":8,""ArrowDown,ArrowRight"":30}","true","ArrowDown,ArrowRight","","original","1","0","","",""
"html-keyboard-response","221","1039032","0.0-4.0-4.0-1.0","spark_pilot_norest","10127","3","8","Male","","","","","","","null","<div style=""font-size:60px;"">+</div>","null","fixation","","","","","","","","","1","","",""
"revaluation","222","1043075","0.0-4.0-4.0-0.1","spark_pilot_norest","10127","3","8","Male","","false","","","","","[1056.800000011921]","./assets/img/ocean/animals/octopus.jpg","[""ArrowRight""]","revaluation","ocean","10","{""ArrowUp,ArrowLeft"":23,""ArrowUp,ArrowRight"":10,""ArrowDown,ArrowLeft"":8,""ArrowDown,ArrowRight"":30}","false","ArrowUp,ArrowRight","","original","1","2","","",""
"html-keyboard-response","223","1043593","0.0-4.0-4.0-1.1","spark_pilot_norest","10127","3","8","Male","","","","","","","null","<div style=""font-size:60px;"">+</div>","null","fixation","","","","","","","","","3","","",""
"revaluation","224","1047636","0.0-4.0-4.0-0.2","spark_pilot_norest","10127","3","8","Male","","false","","","","","[452.7000000178814]","./assets/img/ocean/animals/seahorse.jpg","[""ArrowRight""]","revaluation","ocean","30","{""ArrowUp,ArrowLeft"":23,""ArrowUp,ArrowRight"":10,""ArrowDown,ArrowLeft"":8,""ArrowDown,ArrowRight"":30}","true","ArrowDown,ArrowRight","","original","1","4","","",""
"html-keyboard-response","225","1048142","0.0-4.0-4.0-1.2","spark_pilot_norest","10127","3","8","Male","","","","","","","null","<div style=""font-size:60px;"">+</div>","null","fixation","","","","","","","","","5","","",""
"revaluation","226","1052185","0.0-4.0-4.0-0.3","spark_pilot_norest","10127","3","8","Male","","false","","","","","[1440.5999999940395]","./assets/img/ocean/animals/seahorse.jpg","[""ArrowRight""]","revaluation","ocean","30","{""ArrowUp,ArrowLeft"":23,""ArrowUp,ArrowRight"":10,""ArrowDown,ArrowLeft"":8,""ArrowDown,ArrowRight"":30}","true","ArrowDown,ArrowRight","","original","1","6","","",""
"html-keyboard-response","227","1052703","0.0-4.0-4.0-1.3","spark_pilot_norest","10127","3","8","Male","","","","","","","null","<div style=""font-size:60px;"">+</div>","null","fixation","","","","","","","","","7","","",""
"revaluation","228","1056733","0.0-4.0-4.0-0.4","spark_pilot_norest","10127","3","8","Male","","false","","","","","[1245.4000000059605]","./assets/img/ocean/animals/octopus.jpg","[""ArrowLeft""]","revaluation","ocean","23","{""ArrowUp,ArrowLeft"":23,""ArrowUp,ArrowRight"":10,""ArrowDown,ArrowLeft"":8,""ArrowDown,ArrowRight"":30}","true","ArrowUp,ArrowLeft","","original","1","8","","",""
"html-keyboard-response","229","1057244","0.0-4.0-4.0-1.4","spark_pilot_norest","10127","3","8","Male","","","","","","","null","<div style=""font-size:60px;"">+</div>","null","fixation","","","","","","","","","9","","",""
"revaluation","230","1061256","0.0-4.0-4.0-0.5","spark_pilot_norest","10127","3","8","Male","","false","","","","","[1488.9000000059605]","./assets/img/ocean/animals/seahorse.jpg","[""ArrowRight""]","revaluation","ocean","30","{""ArrowUp,ArrowLeft"":23,""ArrowUp,ArrowRight"":10,""ArrowDown,ArrowLeft"":8,""ArrowDown,ArrowRight"":30}","true","ArrowDown,ArrowRight","","original","1","10","","",""
"html-keyboard-response","231","1061758","0.0-4.0-4.0-1.5","spark_pilot_norest","10127","3","8","Male","","","","","","","null","<div style=""font-size:60px;"">+</div>","null","fixation","","","","","","","","","11","","",""
"revaluation","232","1065768","0.0-4.0-4.0-0.6","spark_pilot_norest","10127","3","8","Male","","false","","","","","[1361.2999999821186]","./assets/img/ocean/animals/octopus.jpg","[""ArrowLeft""]","revaluation","ocean","23","{""ArrowUp,ArrowLeft"":23,""ArrowUp,ArrowRight"":10,""ArrowDown,ArrowLeft"":8,""ArrowDown,ArrowRight"":30}","true","ArrowUp,ArrowLeft","","original","1","12","","",""
"html-keyboard-response","233","1066270","0.0-4.0-4.0-1.6","spark_pilot_norest","10127","3","8","Male","","","","","","","null","<div style=""font-size:60px;"">+</div>","null","fixation","","","","","","","","","13","","",""
"revaluation","234","1070284","0.0-4.0-4.0-0.7","spark_pilot_norest","10127","3","8","Male","","true","","","","","[]","./assets/img/ocean/animals/octopus.jpg","[]","revaluation","ocean","-5","{""ArrowUp,ArrowLeft"":23,""ArrowUp,ArrowRight"":10,""ArrowDown,ArrowLeft"":8,""ArrowDown,ArrowRight"":30}","false","ArrowUp","","original","1","14","","",""
"html-keyboard-response","235","1070787","0.0-4.0-4.0-1.7","spark_pilot_norest","10127","3","8","Male","","","","","","","null","<div style=""font-size:60px;"">+</div>","null","fixation","","","","","","","","","15","","",""
"revaluation","236","1074805","0.0-4.0-4.0-0.8","spark_pilot_norest","10127","3","8","Male","","false","","","","","[1290.5]","./assets/img/ocean/animals/seahorse.jpg","[""ArrowRight""]","revaluation","ocean","30","{""ArrowUp,ArrowLeft"":23,""ArrowUp,ArrowRight"":10,""ArrowDown,ArrowLeft"":8,""ArrowDown,ArrowRight"":30}","true","ArrowDown,ArrowRight","","original","1","16","","",""
"html-keyboard-response","237","1075309","0.0-4.0-4.0-1.8","spark_pilot_norest","10127","3","8","Male","","","","","","","null","<div style=""font-size:60px;"">+</div>","null","fixation","","","","","","","","","17","","",""
"revaluation","238","1079320","0.0-4.0-4.0-0.9","spark_pilot_norest","10127","3","8","Male","","false","","","","","[834.3000000119209]","./assets/img/ocean/animals/seahorse.jpg","[""ArrowRight""]","revaluation","ocean","30","{""ArrowUp,ArrowLeft"":23,""ArrowUp,ArrowRight"":10,""ArrowDown,ArrowLeft"":8,""ArrowDown,ArrowRight"":30}","true","ArrowDown,ArrowRight","","original","1","18","","",""
"html-keyboard-response","239","1079822","0.0-4.0-4.0-1.9","spark_pilot_norest","10127","3","8","Male","","","","","","","null","<div style=""font-size:60px;"">+</div>","null","fixation","","","","","","","","","19","","",""
"revaluation","240","1083834","0.0-4.0-4.0-0.10","spark_pilot_norest","10127","3","8","Male","","false","","","","","[512.1999999880791]","./assets/img/ocean/animals/seahorse.jpg","[""ArrowRight""]","revaluation","ocean","30","{""ArrowUp,ArrowLeft"":23,""ArrowUp,ArrowRight"":10,""ArrowDown,ArrowLeft"":8,""ArrowDown,ArrowRight"":30}","true","ArrowDown,ArrowRight","","original","1","20","","",""
"html-keyboard-response","241","1084337","0.0-4.0-4.0-1.10","spark_pilot_norest","10127","3","8","Male","","","","","","","null","<div style=""font-size:60px;"">+</div>","null","fixation","","","","","","","","","21","","",""
"revaluation","242","1088348","0.0-4.0-4.0-0.11","spark_pilot_norest","10127","3","8","Male","","false","","","","","[589.5999999940395]","./assets/img/ocean/animals/seahorse.jpg","[""ArrowRight""]","revaluation","ocean","30","{""ArrowUp,ArrowLeft"":23,""ArrowUp,ArrowRight"":10,""ArrowDown,ArrowLeft"":8,""ArrowDown,ArrowRight"":30}","true","ArrowDown,ArrowRight","","original","1","22","","",""
"html-keyboard-response","243","1088851","0.0-4.0-4.0-1.11","spark_pilot_norest","10127","3","8","Male","","","","","","","null","<div style=""font-size:60px;"">+</div>","null","fixation","","","","","","","","","23","","",""
"revaluation","244","1092862","0.0-4.0-4.0-0.12","spark_pilot_norest","10127","3","8","Male","","false","","","","","[1468.300000011921]","./assets/img/ocean/animals/octopus.jpg","[""ArrowLeft""]","revaluation","ocean","23","{""ArrowUp,ArrowLeft"":23,""ArrowUp,ArrowRight"":10,""ArrowDown,ArrowLeft"":8,""ArrowDown,ArrowRight"":30}","true","ArrowUp,ArrowLeft","","original","1","24","","",""
"html-keyboard-response","245","1093365","0.0-4.0-4.0-1.12","spark_pilot_norest","10127","3","8","Male","","","","","","","null","<div style=""font-size:60px;"">+</div>","null","fixation","","","","","","","","","25","","",""
"revaluation","246","1097373","0.0-4.0-4.0-0.13","spark_pilot_norest","10127","3","8","Male","","false","","","","","[845]","./assets/img/ocean/animals/octopus.jpg","[""ArrowLeft""]","revaluation","ocean","23","{""ArrowUp,ArrowLeft"":23,""ArrowUp,ArrowRight"":10,""ArrowDown,ArrowLeft"":8,""ArrowDown,ArrowRight"":30}","true","ArrowUp,ArrowLeft","","original","1","26","","",""
"html-keyboard-response","247","1097875","0.0-4.0-4.0-1.13","spark_pilot_norest","10127","3","8","Male","","","","","","","null","<div style=""font-size:60px;"">+</div>","null","fixation","","","","","","","","","27","","",""
"revaluation","248","1101886","0.0-4.0-4.0-0.14","spark_pilot_norest","10127","3","8","Male","","false","","","","","[761.5999999940395]","./assets/img/ocean/animals/seahorse.jpg","[""ArrowRight""]","revaluation","ocean","30","{""ArrowUp,ArrowLeft"":23,""ArrowUp,ArrowRight"":10,""ArrowDown,ArrowLeft"":8,""ArrowDown,ArrowRight"":30}","true","ArrowDown,ArrowRight","","original","1","28","","",""
"html-keyboard-response","249","1102387","0.0-4.0-4.0-1.14","spark_pilot_norest","10127","3","8","Male","","","","","","","null","<div style=""font-size:60px;"">+</div>","null","fixation","","","","","","","","","29","","",""
"revaluation","250","1106394","0.0-4.0-4.0-0.15","spark_pilot_norest","10127","3","8","Male","","false","","","","","[1216.4000000059605]","./assets/img/ocean/animals/octopus.jpg","[""ArrowLeft""]","revaluation","ocean","23","{""ArrowUp,ArrowLeft"":23,""ArrowUp,ArrowRight"":10,""ArrowDown,ArrowLeft"":8,""ArrowDown,ArrowRight"":30}","true","ArrowUp,ArrowLeft","","original","1","30","","",""
"html-keyboard-response","251","1106896","0.0-4.0-4.0-1.15","spark_pilot_norest","10127","3","8","Male","","","","","","","null","<div style=""font-size:60px;"">+</div>","null","fixation","","","","","","","","","31","","",""
"revaluation","252","1110911","0.0-4.0-4.0-0.16","spark_pilot_norest","10127","3","8","Male","","false","","","","","[1435.7000000178814]","./assets/img/ocean/animals/octopus.jpg","[""ArrowLeft""]","revaluation","ocean","23","{""ArrowUp,ArrowLeft"":23,""ArrowUp,ArrowRight"":10,""ArrowDown,ArrowLeft"":8,""ArrowDown,ArrowRight"":30}","true","ArrowUp,ArrowLeft","","original","1","32","","",""
"html-keyboard-response","253","1111414","0.0-4.0-4.0-1.16","spark_pilot_norest","10127","3","8","Male","","","","","","","null","<div style=""font-size:60px;"">+</div>","null","fixation","","","","","","","","","33","","",""
"revaluation","254","1115429","0.0-4.0-4.0-0.17","spark_pilot_norest","10127","3","8","Male","","false","","","","","[645.7999999821186]","./assets/img/ocean/animals/octopus.jpg","[""ArrowLeft""]","revaluation","ocean","23","{""ArrowUp,ArrowLeft"":23,""ArrowUp,ArrowRight"":10,""ArrowDown,ArrowLeft"":8,""ArrowDown,ArrowRight"":30}","true","ArrowUp,ArrowLeft","","original","1","34","","",""
"html-keyboard-response","255","1115930","0.0-4.0-4.0-1.17","spark_pilot_norest","10127","3","8","Male","","","","","","","null","<div style=""font-size:60px;"">+</div>","null","fixation","","","","","","","","","35","","",""
"learning-instructions","256","1124727","0.0-4.0-5.0-0.0","spark_pilot_norest","10127","3","8","Male","","","","","","","null","<p> You have almost finished this part of the game! </p>
            <p> We are going to ask you to make a few more choices. </p>","","instructions","","","","","","","","","","","",""
"learning-instructions","257","1140691","0.0-4.0-5.0-0.1","spark_pilot_norest","10127","3","8","Male","","","","","","","null","<p> First, you need to decide whether to go up or down. When you see each picture, use the arrow keys to make your choice. </p>
            <p><b>You will not see which animal you found, but try to get to the one that will give you the most treasure.</b></p>","","instructions","","","","","","","","","","","",""
"html-keyboard-response","258","1141707","0.0-4.0-6.0-0.0","spark_pilot_norest","10127","3","8","Male","","","","","","","null","<div style=""font-size:100px;color:red;"">Starting in...</div>","null","","","","","","","","","","","","",""
"html-keyboard-response","259","1142719","0.0-4.0-6.0-1.0","spark_pilot_norest","10127","3","8","Male","","","","","","","null","<div style=""font-size:200px;color:red;"">3</div>","null","","","","","","","","","","","","",""
"html-keyboard-response","260","1143727","0.0-4.0-6.0-2.0","spark_pilot_norest","10127","3","8","Male","","","","","","","null","<div style=""font-size:200px;color:red;"">2</div>","null","","","","","","","","","","","","",""
"html-keyboard-response","261","1144747","0.0-4.0-6.0-3.0","spark_pilot_norest","10127","3","8","Male","","","","","","","null","<div style=""font-size:200px;color:red;"">1</div>","null","","","","","","","","","","","","",""
"revaluation","262","1145305","0.0-4.0-7.0-0.0","spark_pilot_norest","10127","3","8","Male","","false","","","","","[547.7000000178814]","./assets/img/ocean/test/3.jpg","[""ArrowDown""]","first stage test","ocean","0","{""ArrowUp,ArrowLeft"":23,""ArrowUp,ArrowRight"":10,""ArrowDown,ArrowLeft"":8,""ArrowDown,ArrowRight"":30}","true","ArrowDown","false","original","1","","","",""
"html-keyboard-response","263","1145807","0.0-4.0-7.0-1.0","spark_pilot_norest","10127","3","8","Male","","","","","","","null","<div style=""font-size:60px;"">+</div>","null","fixation","","","","","","","","","","","",""
"revaluation","264","1147014","0.0-4.0-7.0-0.1","spark_pilot_norest","10127","3","8","Male","","false","","","","","[1197.699999988079]","./assets/img/ocean/test/0.jpg","[""ArrowDown""]","first stage test","ocean","0","{""ArrowUp,ArrowLeft"":23,""ArrowUp,ArrowRight"":10,""ArrowDown,ArrowLeft"":8,""ArrowDown,ArrowRight"":30}","true","ArrowDown","false","original","1","","","",""
"html-keyboard-response","265","1147529","0.0-4.0-7.0-1.1","spark_pilot_norest","10127","3","8","Male","","","","","","","null","<div style=""font-size:60px;"">+</div>","null","fixation","","","","","","","","","","","",""
"revaluation","266","1148310","0.0-4.0-7.0-0.2","spark_pilot_norest","10127","3","8","Male","","false","","","","","[773.4000000059605]","./assets/img/ocean/test/1.jpg","[""ArrowDown""]","first stage test","ocean","0","{""ArrowUp,ArrowLeft"":23,""ArrowUp,ArrowRight"":10,""ArrowDown,ArrowLeft"":8,""ArrowDown,ArrowRight"":30}","true","ArrowDown","false","original","1","","","",""
"html-keyboard-response","267","1148827","0.0-4.0-7.0-1.2","spark_pilot_norest","10127","3","8","Male","","","","","","","null","<div style=""font-size:60px;"">+</div>","null","fixation","","","","","","","","","","","",""
"revaluation","268","1149462","0.0-4.0-7.0-0.3","spark_pilot_norest","10127","3","8","Male","","false","","","","","[620]","./assets/img/ocean/test/2.jpg","[""ArrowDown""]","first stage test","ocean","0","{""ArrowUp,ArrowLeft"":23,""ArrowUp,ArrowRight"":10,""ArrowDown,ArrowLeft"":8,""ArrowDown,ArrowRight"":30}","true","ArrowDown","false","original","1","","","",""
"html-keyboard-response","269","1149977","0.0-4.0-7.0-1.3","spark_pilot_norest","10127","3","8","Male","","","","","","","null","<div style=""font-size:60px;"">+</div>","null","fixation","","","","","","","","","","","",""
"learning-instructions","270","1163327","0.0-4.0-8.0-0.0","spark_pilot_norest","10127","3","8","Male","","","","","","","null","<p> Now you will see the animals again and can search their chests for treasure. </p>
            <p> This time, you will not see how much treasure you earned, but you will earn more bonus money for making better choices. </p>","","instructions","","","","","","","","","","","",""
"html-keyboard-response","271","1164346","0.0-4.0-9.0-0.0","spark_pilot_norest","10127","3","8","Male","","","","","","","null","<div style=""font-size:100px;color:red;"">Starting in...</div>","null","","","","","","","","","","","","",""
"html-keyboard-response","272","1165355","0.0-4.0-9.0-1.0","spark_pilot_norest","10127","3","8","Male","","","","","","","null","<div style=""font-size:200px;color:red;"">3</div>","null","","","","","","","","","","","","",""
"html-keyboard-response","273","1166368","0.0-4.0-9.0-2.0","spark_pilot_norest","10127","3","8","Male","","","","","","","null","<div style=""font-size:200px;color:red;"">2</div>","null","","","","","","","","","","","","",""
"html-keyboard-response","274","1167386","0.0-4.0-9.0-3.0","spark_pilot_norest","10127","3","8","Male","","","","","","","null","<div style=""font-size:200px;color:red;"">1</div>","null","","","","","","","","","","","","",""
"revaluation","275","1168839","0.0-4.0-10.0-0.0","spark_pilot_norest","10127","3","8","Male","","false","","","","","[1448.9000000059605]","./assets/img/ocean/animals/octopus.jpg","[""ArrowLeft""]","second stage test","ocean","0","{""ArrowUp,ArrowLeft"":23,""ArrowUp,ArrowRight"":10,""ArrowDown,ArrowLeft"":8,""ArrowDown,ArrowRight"":30}","true","ArrowUp,ArrowLeft","","original","1","","","",""
"html-keyboard-response","276","1169351","0.0-4.0-10.0-1.0","spark_pilot_norest","10127","3","8","Male","","","","","","","null","<div style=""font-size:60px;"">+</div>","null","fixation","","","","","","","","","","","",""
"revaluation","277","1170262","0.0-4.0-10.0-0.1","spark_pilot_norest","10127","3","8","Male","","false","","","","","[905.4000000059605]","./assets/img/ocean/animals/octopus.jpg","[""ArrowLeft""]","second stage test","ocean","0","{""ArrowUp,ArrowLeft"":23,""ArrowUp,ArrowRight"":10,""ArrowDown,ArrowLeft"":8,""ArrowDown,ArrowRight"":30}","true","ArrowUp,ArrowLeft","","original","1","","","",""
"html-keyboard-response","278","1170766","0.0-4.0-10.0-1.1","spark_pilot_norest","10127","3","8","Male","","","","","","","null","<div style=""font-size:60px;"">+</div>","null","fixation","","","","","","","","","","","",""
"revaluation","279","1171382","0.0-4.0-10.0-0.2","spark_pilot_norest","10127","3","8","Male","","false","","","","","[607.8000000119209]","./assets/img/ocean/animals/octopus.jpg","[""ArrowLeft""]","second stage test","ocean","0","{""ArrowUp,ArrowLeft"":23,""ArrowUp,ArrowRight"":10,""ArrowDown,ArrowLeft"":8,""ArrowDown,ArrowRight"":30}","true","ArrowUp,ArrowLeft","","original","1","","","",""
"html-keyboard-response","280","1171896","0.0-4.0-10.0-1.2","spark_pilot_norest","10127","3","8","Male","","","","","","","null","<div style=""font-size:60px;"">+</div>","null","fixation","","","","","","","","","","","",""
"revaluation","281","1172503","0.0-4.0-10.0-0.3","spark_pilot_norest","10127","3","8","Male","","false","","","","","[596.8000000119209]","./assets/img/ocean/animals/octopus.jpg","[""ArrowLeft""]","second stage test","ocean","0","{""ArrowUp,ArrowLeft"":23,""ArrowUp,ArrowRight"":10,""ArrowDown,ArrowLeft"":8,""ArrowDown,ArrowRight"":30}","true","ArrowUp,ArrowLeft","","original","1","","","",""
"html-keyboard-response","282","1173015","0.0-4.0-10.0-1.3","spark_pilot_norest","10127","3","8","Male","","","","","","","null","<div style=""font-size:60px;"">+</div>","null","fixation","","","","","","","","","","","",""
"revaluation","283","1174230","0.0-4.0-10.0-0.4","spark_pilot_norest","10127","3","8","Male","","false","","","","","[1206.300000011921]","./assets/img/ocean/animals/seahorse.jpg","[""ArrowRight""]","second stage test","ocean","0","{""ArrowUp,ArrowLeft"":23,""ArrowUp,ArrowRight"":10,""ArrowDown,ArrowLeft"":8,""ArrowDown,ArrowRight"":30}","true","ArrowDown,ArrowRight","","original","1","","","",""
"html-keyboard-response","284","1174737","0.0-4.0-10.0-1.4","spark_pilot_norest","10127","3","8","Male","","","","","","","null","<div style=""font-size:60px;"">+</div>","null","fixation","","","","","","","","","","","",""
"revaluation","285","1175702","0.0-4.0-10.0-0.5","spark_pilot_norest","10127","3","8","Male","","false","","","","","[957.3000000119209]","./assets/img/ocean/animals/seahorse.jpg","[""ArrowRight""]","second stage test","ocean","0","{""ArrowUp,ArrowLeft"":23,""ArrowUp,ArrowRight"":10,""ArrowDown,ArrowLeft"":8,""ArrowDown,ArrowRight"":30}","true","ArrowDown,ArrowRight","","original","1","","","",""
"html-keyboard-response","286","1176216","0.0-4.0-10.0-1.5","spark_pilot_norest","10127","3","8","Male","","","","","","","null","<div style=""font-size:60px;"">+</div>","null","fixation","","","","","","","","","","","",""
"revaluation","287","1176822","0.0-4.0-10.0-0.6","spark_pilot_norest","10127","3","8","Male","","false","","","","","[601.1999999880791]","./assets/img/ocean/animals/seahorse.jpg","[""ArrowRight""]","second stage test","ocean","0","{""ArrowUp,ArrowLeft"":23,""ArrowUp,ArrowRight"":10,""ArrowDown,ArrowLeft"":8,""ArrowDown,ArrowRight"":30}","true","ArrowDown,ArrowRight","","original","1","","","",""
"html-keyboard-response","288","1177346","0.0-4.0-10.0-1.6","spark_pilot_norest","10127","3","8","Male","","","","","","","null","<div style=""font-size:60px;"">+</div>","null","fixation","","","","","","","","","","","",""
"revaluation","289","1178200","0.0-4.0-10.0-0.7","spark_pilot_norest","10127","3","8","Male","","false","","","","","[847.3000000119209]","./assets/img/ocean/animals/seahorse.jpg","[""ArrowRight""]","second stage test","ocean","0","{""ArrowUp,ArrowLeft"":23,""ArrowUp,ArrowRight"":10,""ArrowDown,ArrowLeft"":8,""ArrowDown,ArrowRight"":30}","true","ArrowDown,ArrowRight","","original","1","","","",""
"html-keyboard-response","290","1178706","0.0-4.0-10.0-1.7","spark_pilot_norest","10127","3","8","Male","","","","","","","null","<div style=""font-size:60px;"">+</div>","null","fixation","","","","","","","","","","","",""
"learning-instructions","291","1189021","0.0-4.0-0.1-0.2","spark_pilot_norest","10127","3","8","Male","","","","","","","7532.4000000059605","<p> This time you are searching for treasure in the <b>canyon</b>.</p>","","instructions","","","","","","","","","","","",""
"learning-instructions","292","1232894","0.0-4.0-0.1-0.3","spark_pilot_norest","10127","3","8","Male","","","","","","","26624.40000000596","<p><b>New</b> animals with <b>new</b> treasure chests live here. You need to explore to discover where the animal with the best treasure chest is.</p>
                    <p> Like before, once you figure out which animal has the chest with the most treasure, you should try to get to that animal and select that chest! </p>","","instructions","","","","","","","","","","","",""
"learning-instructions","293","1250726","0.0-4.0-1.1-0.1","spark_pilot_norest","10127","3","8","Male","","","","","","","3107.2000000178814","<p> Remember, when you see a picture of the place, use the up and down keys to <b>find an animal</b>.</p>
            <p> When you encounter an animal, you should use the left and right keys to <b>select a treasure chest</b>.</p>
            <p> Don't forget to look out for the robber! </p>","","instructions","","","","","","","","","","","",""
"revaluation","294","1256769","0.0-4.0-2.1-0.50","spark_pilot_norest","10127","3","8","Male","","false","","","","","[1215.0999999940395,629.0999999940395]","./assets/img/canyon/memory/1.jpg","[""ArrowDown"",""ArrowRight""]","value training","canyon","17","{""ArrowUp,ArrowLeft"":26,""ArrowUp,ArrowRight"":10,""ArrowDown,ArrowLeft"":5,""ArrowDown,ArrowRight"":17}","false","ArrowDown,ArrowRight","false","revaluation","2","0","","",""
"html-keyboard-response","295","1257287","0.0-4.0-2.1-1.50","spark_pilot_norest","10127","3","8","Male","","","","","","","null","<div style=""font-size:60px;"">+</div>","null","fixation","","","","","","","","","1","","",""
"revaluation","296","1261318","0.0-4.0-2.1-0.51","spark_pilot_norest","10127","3","8","Male","","false","","","","","[680]","./assets/img/canyon/catch/5.jpg","[""ArrowDown""]","value training","canyon","-10","{""ArrowUp,ArrowLeft"":26,""ArrowUp,ArrowRight"":10,""ArrowDown,ArrowLeft"":5,""ArrowDown,ArrowRight"":17}","false","ArrowDown","true","revaluation","2","2","","",""
"html-keyboard-response","297","1261827","0.0-4.0-2.1-1.51","spark_pilot_norest","10127","3","8","Male","","","","","","","null","<div style=""font-size:60px;"">+</div>","null","fixation","","","","","","","","","3","","",""
"revaluation","298","1267880","0.0-4.0-2.1-0.52","spark_pilot_norest","10127","3","8","Male","","true","","","","","[1004.5]","./assets/img/canyon/memory/11.jpg","[""ArrowDown""]","value training","canyon","-5","{""ArrowUp,ArrowLeft"":26,""ArrowUp,ArrowRight"":10,""ArrowDown,ArrowLeft"":5,""ArrowDown,ArrowRight"":17}","false","ArrowDown","false","revaluation","2","4","","",""
"html-keyboard-response","299","1268396","0.0-4.0-2.1-1.52","spark_pilot_norest","10127","3","8","Male","","","","","","","null","<div style=""font-size:60px;"">+</div>","null","fixation","","","","","","","","","5","","",""
"revaluation","300","1272426","0.0-4.0-2.1-0.53","spark_pilot_norest","10127","3","8","Male","","false","","","","","[358.19999998807907]","./assets/img/canyon/catch/3.jpg","[""ArrowUp""]","value training","canyon","-10","{""ArrowUp,ArrowLeft"":26,""ArrowUp,ArrowRight"":10,""ArrowDown,ArrowLeft"":5,""ArrowDown,ArrowRight"":17}","false","ArrowUp","true","revaluation","2","6","","",""
"html-keyboard-response","301","1272937","0.0-4.0-2.1-1.53","spark_pilot_norest","10127","3","8","Male","","","","","","","null","<div style=""font-size:60px;"">+</div>","null","fixation","","","","","","","","","7","","",""
"revaluation","302","1278979","0.0-4.0-2.1-0.54","spark_pilot_norest","10127","3","8","Male","","false","","","","","[1926.5,777.7999999821186]","./assets/img/canyon/memory/9.jpg","[""ArrowUp"",""ArrowRight""]","value training","canyon","10","{""ArrowUp,ArrowLeft"":26,""ArrowUp,ArrowRight"":10,""ArrowDown,ArrowLeft"":5,""ArrowDown,ArrowRight"":17}","false","ArrowUp,ArrowRight","false","revaluation","2","8","","",""
"html-keyboard-response","303","1279481","0.0-4.0-2.1-1.54","spark_pilot_norest","10127","3","8","Male","","","","","","","null","<div style=""font-size:60px;"">+</div>","null","fixation","","","","","","","","","9","","",""
"revaluation","304","1285490","0.0-4.0-2.1-0.55","spark_pilot_norest","10127","3","8","Male","","false","","","","","[409.60000002384186,682]","./assets/img/canyon/memory/25.jpg","[""ArrowDown"",""ArrowRight""]","value training","canyon","17","{""ArrowUp,ArrowLeft"":26,""ArrowUp,ArrowRight"":10,""ArrowDown,ArrowLeft"":5,""ArrowDown,ArrowRight"":17}","false","ArrowDown,ArrowRight","false","revaluation","2","10","","",""
"html-keyboard-response","305","1285993","0.0-4.0-2.1-1.55","spark_pilot_norest","10127","3","8","Male","","","","","","","null","<div style=""font-size:60px;"">+</div>","null","fixation","","","","","","","","","11","","",""
"revaluation","306","1292005","0.0-4.0-2.1-0.56","spark_pilot_norest","10127","3","8","Male","","false","","","","","[629.0999999940395,563.5]","./assets/img/canyon/memory/21.jpg","[""ArrowDown"",""ArrowLeft""]","value training","canyon","5","{""ArrowUp,ArrowLeft"":26,""ArrowUp,ArrowRight"":10,""ArrowDown,ArrowLeft"":5,""ArrowDown,ArrowRight"":17}","false","ArrowDown,ArrowLeft","false","revaluation","2","12","","",""
"html-keyboard-response","307","1292507","0.0-4.0-2.1-1.56","spark_pilot_norest","10127","3","8","Male","","","","","","","null","<div style=""font-size:60px;"">+</div>","null","fixation","","","","","","","","","13","","",""
"revaluation","308","1298512","0.0-4.0-2.1-0.57","spark_pilot_norest","10127","3","8","Male","","false","","","","","[378.60000002384186,633.4000000059605]","./assets/img/canyon/memory/16.jpg","[""ArrowUp"",""ArrowRight""]","value training","canyon","10","{""ArrowUp,ArrowLeft"":26,""ArrowUp,ArrowRight"":10,""ArrowDown,ArrowLeft"":5,""ArrowDown,ArrowRight"":17}","false","ArrowUp,ArrowRight","false","revaluation","2","14","","",""
"html-keyboard-response","309","1299015","0.0-4.0-2.1-1.57","spark_pilot_norest","10127","3","8","Male","","","","","","","null","<div style=""font-size:60px;"">+</div>","null","fixation","","","","","","","","","15","","",""
"revaluation","310","1305021","0.0-4.0-2.1-0.58","spark_pilot_norest","10127","3","8","Male","","false","","","","","[461.2000000178814,541.5]","./assets/img/canyon/memory/32.jpg","[""ArrowDown"",""ArrowRight""]","value training","canyon","17","{""ArrowUp,ArrowLeft"":26,""ArrowUp,ArrowRight"":10,""ArrowDown,ArrowLeft"":5,""ArrowDown,ArrowRight"":17}","false","ArrowDown,ArrowRight","false","revaluation","2","16","","",""
"html-keyboard-response","311","1305523","0.0-4.0-2.1-1.58","spark_pilot_norest","10127","3","8","Male","","","","","","","null","<div style=""font-size:60px;"">+</div>","null","fixation","","","","","","","","","17","","",""
"revaluation","312","1311536","0.0-4.0-2.1-0.59","spark_pilot_norest","10127","3","8","Male","","false","","","","","[1003.5,680.4000000059605]","./assets/img/canyon/memory/31.jpg","[""ArrowDown"",""ArrowRight""]","value training","canyon","17","{""ArrowUp,ArrowLeft"":26,""ArrowUp,ArrowRight"":10,""ArrowDown,ArrowLeft"":5,""ArrowDown,ArrowRight"":17}","false","ArrowDown,ArrowRight","false","revaluation","2","18","","",""
"html-keyboard-response","313","1312038","0.0-4.0-2.1-1.59","spark_pilot_norest","10127","3","8","Male","","","","","","","null","<div style=""font-size:60px;"">+</div>","null","fixation","","","","","","","","","19","","",""
"revaluation","314","1318049","0.0-4.0-2.1-0.60","spark_pilot_norest","10127","3","8","Male","","false","","","","","[410.10000002384186,713.1000000238419]","./assets/img/canyon/memory/10.jpg","[""ArrowDown"",""ArrowRight""]","value training","canyon","17","{""ArrowUp,ArrowLeft"":26,""ArrowUp,ArrowRight"":10,""ArrowDown,ArrowLeft"":5,""ArrowDown,ArrowRight"":17}","false","ArrowDown,ArrowRight","false","revaluation","2","20","","",""
