"trial_type","trial_index","time_elapsed","internal_node_id","task_version","subject_id","assigned_condition","age","gender","browser_interaction","success","timeout","failed_images","failed_audio","failed_video","value","rt","stimulus","response","task_part","environment","score","rewardMap","correct","fullState","isCatch","condition","order","trial_num","key_press","ground_truth","bonus"
"pavlovia","0","20087","0.0-0.0","spark_pilot_norest","8335","8","14","Male","[{""event"":""focus"",""trial"":0,""time"":10},{""event"":""blur"",""trial"":0,""time"":4414},{""event"":""focus"",""trial"":1,""time"":26543},{""event"":""blur"",""trial"":1,""time"":29994},{""event"":""focus"",""trial"":1,""time"":48388},{""event"":""blur"",""trial"":1,""time"":55409},{""event"":""focus"",""trial"":1,""time"":59474},{""event"":""fullscreenenter"",""trial"":2,""time"":73024}]","","","","","","","","","","","","","","","","","","","","","",""
"preload","1","71121","0.0-1.0","spark_pilot_norest","8335","8","14","Male","[{""event"":""focus"",""trial"":0,""time"":10},{""event"":""blur"",""trial"":0,""time"":4414},{""event"":""focus"",""trial"":1,""time"":26543},{""event"":""blur"",""trial"":1,""time"":29994},{""event"":""focus"",""trial"":1,""time"":48388},{""event"":""blur"",""trial"":1,""time"":55409},{""event"":""focus"",""trial"":1,""time"":59474},{""event"":""fullscreenenter"",""trial"":2,""time"":73024}]","true","false","[]","[]","[]","","","","","","","","","","","","","","","","",""
"fullscreen","2","73957","0.0-2.0","spark_pilot_norest","8335","8","14","Male","","true","","","","","","","","","","","","","","","","","","","","",""
"call-function","3","75018","0.0-3.0","spark_pilot_norest","8335","8","14","Male","","","","","","","","","","","","","","","","","","","","","","",""
"audio-button-response","4","76371","0.0-4.0-0.0-0.0","spark_pilot_norest","8335","8","14","Male","","","","","","","","1338","./assets/audio/audiotest/turtle.mp3","2","audio_test","","","","","","","","","","","",""
"learning-instructions","5","84450","0.0-4.0-1.0-0.0","spark_pilot_norest","8335","8","14","Male","","","","","","","","1116","<p> Welcome! Please remember to stay in fullscreen mode and don't click away from the experiment. </p>","","instructions","","","","","","","","","","","",""
"learning-instructions","6","93589","0.0-4.0-1.0-0.1","spark_pilot_norest","8335","8","14","Male","","","","","","","","745","<p> Today you will be playing a game to earn treasure. </p>
            <p> At the end of the experiment, you will earn a bonus based on how much treasure you find. </p>
            <img src='./assets/img/instructions/treasure.jpg' class='instructions-image'>","","instructions","","","","","","","","","","","",""
"learning-instructions","7","102314","0.0-4.0-1.0-0.2","spark_pilot_norest","8335","8","14","Male","","","","","","","","484","<p> Animals have hidden treasure in treasure chests. </p>
            <p> You need to first find an animal and then choose which of their treasure chests to search. </p>
            <img src='./assets/img/space/animals/cat.jpg' class='instructions-image'>","","instructions","","","","","","","","","","","",""
"learning-instructions","8","115970","0.0-4.0-1.0-0.3","spark_pilot_norest","8335","8","14","Male","","","","","","","","520.9999999999854","<p> In each round, you will search for treasure in a different place. In the real game, there will be two rounds. </p>
            <p> You will begin with a separate, practice round where you will search for treasure in outer space. </p>
            <img src='./assets/img/space/0.jpg' class='instructions-image'>","","instructions","","","","","","","","","","","",""
"learning-instructions","9","130476","0.0-4.0-1.0-0.4","spark_pilot_norest","8335","8","14","Male","","","","","","","","1637","<p> On every turn, you will see a picture of the place that you are in, but the specific image may be different each time. </p>
            <p> For example, both of these images mean you are in outer space. </p>
            <img src='./assets/img/instructions/outerspace.jpg' class='instructions-image'>","","instructions","","","","","","","","","","","",""
"learning-instructions","10","139472","0.0-4.0-1.0-0.5","spark_pilot_norest","8335","8","14","Male","","","","","","","","1183","<p> You need to decide which direction to travel in. </p>
            <p> You can choose between going <b>up or down</b> by using the arrow keys. </p>
            <img src='./assets/img/instructions/updown.jpg' class='instructions-image'>","","instructions","","","","","","","","","","","",""
"learning-instructions","11","148954","0.0-4.0-1.0-0.6","spark_pilot_norest","8335","8","14","Male","","","","","","","","685","<p> You will have <b>2 seconds</b> to make your choice. </p>
            <p> If you do not make a choice within 2 seconds, you will not find an animal or earn treasure. </p>
            <img src='./assets/img/instructions/2seconds.jpg' class='instructions-image'>","","instructions","","","","","","","","","","","",""
"learning-instructions","12","156844","0.0-4.0-1.0-0.7","spark_pilot_norest","8335","8","14","Male","","","","","","","","865","<p> Let’s try practicing that now! </p>
            <p> When you see a picture of the place you are in, press the <b>up</b> key to travel up. </p>
            <img src='./assets/img/instructions/pressUp.jpg' class='instructions-image'>","","instructions","","","","","","","","","","","",""
"revaluation","13","160859","0.0-4.0-2.0-0.0","spark_pilot_norest","8335","8","14","Male","","","false","","","","","[417.9999999999709]","./assets/img/space/0.jpg","[""ArrowUp""]","first stage practice","space","0","null","null","ArrowUp","false","","","","","",""
"html-keyboard-response","14","161361","0.0-4.0-2.0-1.0","spark_pilot_norest","8335","8","14","Male","","","","","","","","null","<div style=""font-size:60px;"">+</div>","null","fixation","","","","","","","","","","","",""
"revaluation","15","165364","0.0-4.0-2.0-0.1","spark_pilot_norest","8335","8","14","Male","","","false","","","","","[1498]","./assets/img/space/1.jpg","[""ArrowUp""]","first stage practice","space","0","null","null","ArrowUp","false","","","","","",""
"html-keyboard-response","16","165866","0.0-4.0-2.0-1.1","spark_pilot_norest","8335","8","14","Male","","","","","","","","null","<div style=""font-size:60px;"">+</div>","null","fixation","","","","","","","","","","","",""
"revaluation","17","169871","0.0-4.0-2.0-0.2","spark_pilot_norest","8335","8","14","Male","","","false","","","","","[811.9999999999709]","./assets/img/space/2.jpg","[""ArrowUp""]","first stage practice","space","0","null","null","ArrowUp","false","","","","","",""
"html-keyboard-response","18","170373","0.0-4.0-2.0-1.2","spark_pilot_norest","8335","8","14","Male","","","","","","","","null","<div style=""font-size:60px;"">+</div>","null","fixation","","","","","","","","","","","",""
"learning-instructions","19","176816","0.0-4.0-3.0-0.0","spark_pilot_norest","8335","8","14","Male","","","","","","","","1755","<p> Great job! Now try pressing the <b>down</b> key to travel down. </p>
            <img src='./assets/img/instructions/pressDown.jpg' class='instructions-image'>","","instructions","","","","","","","","","","","",""
"revaluation","20","180819","0.0-4.0-4.0-0.0","spark_pilot_norest","8335","8","14","Male","","","false","","","","","[565]","./assets/img/space/3.jpg","[""ArrowDown""]","first stage practice","space","0","null","null","ArrowDown","false","","","","","",""
"html-keyboard-response","21","181322","0.0-4.0-4.0-1.0","spark_pilot_norest","8335","8","14","Male","","","","","","","","null","<div style=""font-size:60px;"">+</div>","null","fixation","","","","","","","","","","","",""
"revaluation","22","185325","0.0-4.0-4.0-0.1","spark_pilot_norest","8335","8","14","Male","","","false","","","","","[618]","./assets/img/space/4.jpg","[""ArrowDown""]","first stage practice","space","0","null","null","ArrowDown","false","","","","","",""
"html-keyboard-response","23","185827","0.0-4.0-4.0-1.1","spark_pilot_norest","8335","8","14","Male","","","","","","","","null","<div style=""font-size:60px;"">+</div>","null","fixation","","","","","","","","","","","",""
"revaluation","24","189831","0.0-4.0-4.0-0.2","spark_pilot_norest","8335","8","14","Male","","","false","","","","","[800]","./assets/img/space/5.jpg","[""ArrowDown""]","first stage practice","space","0","null","null","ArrowDown","false","","","","","",""
"html-keyboard-response","25","190332","0.0-4.0-4.0-1.2","spark_pilot_norest","8335","8","14","Male","","","","","","","","null","<div style=""font-size:60px;"">+</div>","null","fixation","","","","","","","","","","","",""
"learning-instructions","26","201789","0.0-4.0-5.0-0.0","spark_pilot_norest","8335","8","14","Male","","","","","","","","1620","<p> The animals don’t move, so the animal in the upper part of a place will stay in the upper part of a place, and the animal in the lower part of a place will stay in the lower part of a place. </p>","","instructions","","","","","","","","","","","",""
"learning-instructions","27","211452","0.0-4.0-5.0-0.1","spark_pilot_norest","8335","8","14","Male","","","","","","","","545.9999999999709","<p> Each animal has two treasure chests for you to choose from. </p>
            <p> The amount of treasure in each chest can range from <b> 0 to 40 pieces.</b></p>","","instructions","","","","","","","","","","","",""
"learning-instructions","28","223155","0.0-4.0-5.0-0.2","spark_pilot_norest","8335","8","14","Male","","","","","","","","527","<p> You should decide which chest to search for treasure by using the <b>left</b> and <b>right</b> arrow keys. </p>
            <p><b> Pay attention to which animal is on the screen, as the animals have different treasure chests. </b></p>
            <img src='./assets/img/instructions/leftright.jpg' class='instructions-image'>","","instructions","","","","","","","","","","","",""
"learning-instructions","29","230244","0.0-4.0-5.0-0.3","spark_pilot_norest","8335","8","14","Male","","","","","","","","738","<p> Let’s try practicing that now. </p>
            <p> When you see an animal, choose which chest to search for treasure. </p>
            <img src='./assets/img/instructions/chooseChest.jpg' class='instructions-image'>","","instructions","","","","","","","","","","","",""
"revaluation","30","234251","0.0-4.0-6.0-0.0","spark_pilot_norest","8335","8","14","Male","","","false","","","","","[562]","./assets/img/space/animals/rabbit.jpg","[""ArrowRight""]","second stage practice","space","23","{""ArrowUp,ArrowLeft"":3,""ArrowUp,ArrowRight"":36,""ArrowDown,ArrowLeft"":15,""ArrowDown,ArrowRight"":23}","true","ArrowDown,ArrowRight","","","","","","",""
"html-keyboard-response","31","234753","0.0-4.0-6.0-1.0","spark_pilot_norest","8335","8","14","Male","","","","","","","","null","<div style=""font-size:60px;"">+</div>","null","fixation","","","","","","","","","","","",""
"revaluation","32","238757","0.0-4.0-6.0-0.1","spark_pilot_norest","8335","8","14","Male","","","false","","","","","[836.0000000000291]","./assets/img/space/animals/cat.jpg","[""ArrowLeft""]","second stage practice","space","3","{""ArrowUp,ArrowLeft"":3,""ArrowUp,ArrowRight"":36,""ArrowDown,ArrowLeft"":15,""ArrowDown,ArrowRight"":23}","false","ArrowUp,ArrowLeft","","","","","","",""
"html-keyboard-response","33","239259","0.0-4.0-6.0-1.1","spark_pilot_norest","8335","8","14","Male","","","","","","","","null","<div style=""font-size:60px;"">+</div>","null","fixation","","","","","","","","","","","",""
"revaluation","34","243263","0.0-4.0-6.0-0.2","spark_pilot_norest","8335","8","14","Male","","","false","","","","","[822]","./assets/img/space/animals/cat.jpg","[""ArrowRight""]","second stage practice","space","36","{""ArrowUp,ArrowLeft"":3,""ArrowUp,ArrowRight"":36,""ArrowDown,ArrowLeft"":15,""ArrowDown,ArrowRight"":23}","true","ArrowUp,ArrowRight","","","","","","",""
"html-keyboard-response","35","243765","0.0-4.0-6.0-1.2","spark_pilot_norest","8335","8","14","Male","","","","","","","","null","<div style=""font-size:60px;"">+</div>","null","fixation","","","","","","","","","","","",""
"revaluation","36","247770","0.0-4.0-6.0-0.3","spark_pilot_norest","8335","8","14","Male","","","false","","","","","[1283]","./assets/img/space/animals/rabbit.jpg","[""ArrowRight""]","second stage practice","space","23","{""ArrowUp,ArrowLeft"":3,""ArrowUp,ArrowRight"":36,""ArrowDown,ArrowLeft"":15,""ArrowDown,ArrowRight"":23}","true","ArrowDown,ArrowRight","","","","","","",""
"html-keyboard-response","37","248271","0.0-4.0-6.0-1.3","spark_pilot_norest","8335","8","14","Male","","","","","","","","null","<div style=""font-size:60px;"">+</div>","null","fixation","","","","","","","","","","","",""
"learning-instructions","38","266777","0.0-4.0-7.0-0.0","spark_pilot_norest","8335","8","14","Male","","","","","","","","1707","<p> Great job. Now let’s try putting it together. </p>
            <p> On each turn, you will first see a picture to remind you of the place you are in, and you need to choose whether to go up or down. </p>
            <p> Then you will see an animal and choose which of its chests to search for treasure. </p>","","instructions","","","","","","","","","","","",""
"learning-instructions","39","276448","0.0-4.0-7.0-0.1","spark_pilot_norest","8335","8","14","Male","","","","","","","","1427","<p> When you choose whether to go up or down, try to go to the animal with the chest with the most treasure. </p>
            <p> Try practicing that now! </p>","","instructions","","","","","","","","","","","",""
"revaluation","40","282455","0.0-4.0-8.0-0.0","spark_pilot_norest","8335","8","14","Male","","","false","","","","","[463,641.9999999999418]","./assets/img/space/6.jpg","[""ArrowUp"",""ArrowRight""]","full practice","space","36","{""ArrowUp,ArrowLeft"":3,""ArrowUp,ArrowRight"":36,""ArrowDown,ArrowLeft"":15,""ArrowDown,ArrowRight"":23}","true","ArrowUp,ArrowRight","false","","","","","",""
"html-keyboard-response","41","282957","0.0-4.0-8.0-1.0","spark_pilot_norest","8335","8","14","Male","","","","","","","","null","<div style=""font-size:60px;"">+</div>","null","fixation","","","","","","","","","","","",""
"revaluation","42","288962","0.0-4.0-8.0-0.1","spark_pilot_norest","8335","8","14","Male","","","false","","","","","[613,940]","./assets/img/space/7.jpg","[""ArrowDown"",""ArrowRight""]","full practice","space","23","{""ArrowUp,ArrowLeft"":3,""ArrowUp,ArrowRight"":36,""ArrowDown,ArrowLeft"":15,""ArrowDown,ArrowRight"":23}","false","ArrowDown,ArrowRight","false","","","","","",""
"html-keyboard-response","43","289464","0.0-4.0-8.0-1.1","spark_pilot_norest","8335","8","14","Male","","","","","","","","null","<div style=""font-size:60px;"">+</div>","null","fixation","","","","","","","","","","","",""
"revaluation","44","295470","0.0-4.0-8.0-0.2","spark_pilot_norest","8335","8","14","Male","","","false","","","","","[833,497.0000000000582]","./assets/img/space/8.jpg","[""ArrowDown"",""ArrowLeft""]","full practice","space","15","{""ArrowUp,ArrowLeft"":3,""ArrowUp,ArrowRight"":36,""ArrowDown,ArrowLeft"":15,""ArrowDown,ArrowRight"":23}","false","ArrowDown,ArrowLeft","false","","","","","",""
"html-keyboard-response","45","295972","0.0-4.0-8.0-1.2","spark_pilot_norest","8335","8","14","Male","","","","","","","","null","<div style=""font-size:60px;"">+</div>","null","fixation","","","","","","","","","","","",""
"revaluation","46","301978","0.0-4.0-8.0-0.3","spark_pilot_norest","8335","8","14","Male","","","false","","","","","[1021,474]","./assets/img/space/9.jpg","[""ArrowUp"",""ArrowRight""]","full practice","space","36","{""ArrowUp,ArrowLeft"":3,""ArrowUp,ArrowRight"":36,""ArrowDown,ArrowLeft"":15,""ArrowDown,ArrowRight"":23}","true","ArrowUp,ArrowRight","false","","","","","",""
"html-keyboard-response","47","302480","0.0-4.0-8.0-1.3","spark_pilot_norest","8335","8","14","Male","","","","","","","","null","<div style=""font-size:60px;"">+</div>","null","fixation","","","","","","","","","","","",""
"revaluation","48","308484","0.0-4.0-8.0-0.4","spark_pilot_norest","8335","8","14","Male","","","false","","","","","[892,466]","./assets/img/space/10.jpg","[""ArrowUp"",""ArrowRight""]","full practice","space","36","{""ArrowUp,ArrowLeft"":3,""ArrowUp,ArrowRight"":36,""ArrowDown,ArrowLeft"":15,""ArrowDown,ArrowRight"":23}","true","ArrowUp,ArrowRight","false","","","","","",""
"html-keyboard-response","49","308986","0.0-4.0-8.0-1.4","spark_pilot_norest","8335","8","14","Male","","","","","","","","null","<div style=""font-size:60px;"">+</div>","null","fixation","","","","","","","","","","","",""
"learning-instructions","50","320722","0.0-4.0-9.0-0.0","spark_pilot_norest","8335","8","14","Male","","","","","","","","1439","<p> One last thing: sometimes, you will see a robber. The robber can be anywhere in the picture. </p>
            <p> If you do not stop them, you will lose treasure. </p>
            <img src='./assets/img/instructions/robber.jpg' class='instructions-image'>","","instructions","","","","","","","","","","","",""
"learning-instructions","51","328930","0.0-4.0-9.0-0.1","spark_pilot_norest","8335","8","14","Male","","","","","","","","1051","<p> If you see the robber, you should <b>press the space bar</b> rather than using the arrow keys. </p>
            <p> Try practicing that now! </p>","","instructions","","","","","","","","","","","",""
"revaluation","52","332935","0.0-4.0-10.0-0.0","spark_pilot_norest","8335","8","14","Male","","","false","","","","","[686.0000000000582]","./assets/img/space/catch/0.jpg","[""spaceBar""]","catch practice","space","0","{""ArrowUp,ArrowLeft"":3,""ArrowUp,ArrowRight"":36,""ArrowDown,ArrowLeft"":15,""ArrowDown,ArrowRight"":23}","true","spaceBar","true","","","","","",""
"html-keyboard-response","53","333437","0.0-4.0-10.0-1.0","spark_pilot_norest","8335","8","14","Male","","","","","","","","null","<div style=""font-size:60px;"">+</div>","null","fixation","","","","","","","","","","","",""
"revaluation","54","337442","0.0-4.0-10.0-0.1","spark_pilot_norest","8335","8","14","Male","","","false","","","","","[748]","./assets/img/space/catch/1.jpg","[""spaceBar""]","catch practice","space","0","{""ArrowUp,ArrowLeft"":3,""ArrowUp,ArrowRight"":36,""ArrowDown,ArrowLeft"":15,""ArrowDown,ArrowRight"":23}","true","spaceBar","true","","","","","",""
"html-keyboard-response","55","337944","0.0-4.0-10.0-1.1","spark_pilot_norest","8335","8","14","Male","","","","","","","","null","<div style=""font-size:60px;"">+</div>","null","fixation","","","","","","","","","","","",""
"revaluation","56","341948","0.0-4.0-10.0-0.2","spark_pilot_norest","8335","8","14","Male","","","false","","","","","[551]","./assets/img/space/catch/2.jpg","[""spaceBar""]","catch practice","space","0","{""ArrowUp,ArrowLeft"":3,""ArrowUp,ArrowRight"":36,""ArrowDown,ArrowLeft"":15,""ArrowDown,ArrowRight"":23}","true","spaceBar","true","","","","","",""
"html-keyboard-response","57","342449","0.0-4.0-10.0-1.2","spark_pilot_norest","8335","8","14","Male","","","","","","","","null","<div style=""font-size:60px;"">+</div>","null","fixation","","","","","","","","","","","",""
"learning-instructions","58","348384","0.0-4.0-11.0-0.0-0.0","spark_pilot_norest","8335","8","14","Male","","","","","","","","709","<p> Now, you will practice a shortened version of the game to get a sense of how it all fits together. </p>","","instructions","","","","","","","","","","","",""
"learning-instructions","59","352103","0.0-4.0-11.0-0.0-0.1","spark_pilot_norest","8335","8","14","Male","","","","","","","","542.0000000000582","<p>This time you are searching for treasure in outer space.</p>","","instructions","","","","","","","","","","","",""
"learning-instructions","60","367526","0.0-4.0-11.0-1.0-0.0","spark_pilot_norest","8335","8","14","Male","","","","","","","","668","<p> Remember, when you see a picture of the place, use the up and down keys to <b>find an animal</b>.</p>
            <p> When you encounter an animal, you should use the left and right keys to <b>select a treasure chest</b>.</p>
            <p> Don't forget to look out for the robber! </p>","","instructions","","","","","","","","","","","",""
"revaluation","61","373530","0.0-4.0-11.0-2.0-0.0","spark_pilot_norest","8335","8","14","Male","","","false","","","","","[658,538]","./assets/img/space/11.jpg","[""ArrowUp"",""ArrowRight""]","practice block","space","36","{""ArrowUp,ArrowLeft"":3,""ArrowUp,ArrowRight"":36,""ArrowDown,ArrowLeft"":15,""ArrowDown,ArrowRight"":23}","true","ArrowUp,ArrowRight","false","","","","","",""
"html-keyboard-response","62","374032","0.0-4.0-11.0-2.0-1.0","spark_pilot_norest","8335","8","14","Male","","","","","","","","null","<div style=""font-size:60px;"">+</div>","null","fixation","","","","","","","","","","","",""
"revaluation","63","380037","0.0-4.0-11.0-2.0-0.1","spark_pilot_norest","8335","8","14","Male","","","false","","","","","[658.0000000000582,1]","./assets/img/space/12.jpg","[""ArrowUp"",""ArrowRight""]","practice block","space","36","{""ArrowUp,ArrowLeft"":3,""ArrowUp,ArrowRight"":36,""ArrowDown,ArrowLeft"":15,""ArrowDown,ArrowRight"":23}","true","ArrowUp,ArrowRight","false","","","","","",""
"html-keyboard-response","64","380539","0.0-4.0-11.0-2.0-1.1","spark_pilot_norest","8335","8","14","Male","","","","","","","","null","<div style=""font-size:60px;"">+</div>","null","fixation","","","","","","","","","","","",""
"revaluation","65","386543","0.0-4.0-11.0-2.0-0.2","spark_pilot_norest","8335","8","14","Male","","","false","","","","","[786,323]","./assets/img/space/13.jpg","[""ArrowUp"",""ArrowRight""]","practice block","space","36","{""ArrowUp,ArrowLeft"":3,""ArrowUp,ArrowRight"":36,""ArrowDown,ArrowLeft"":15,""ArrowDown,ArrowRight"":23}","true","ArrowUp,ArrowRight","false","","","","","",""
"html-keyboard-response","66","387044","0.0-4.0-11.0-2.0-1.2","spark_pilot_norest","8335","8","14","Male","","","","","","","","null","<div style=""font-size:60px;"">+</div>","null","fixation","","","","","","","","","","","",""
"revaluation","67","393049","0.0-4.0-11.0-2.0-0.3","spark_pilot_norest","8335","8","14","Male","","","false","","","","","[765,94]","./assets/img/space/14.jpg","[""ArrowUp"",""ArrowRight""]","practice block","space","36","{""ArrowUp,ArrowLeft"":3,""ArrowUp,ArrowRight"":36,""ArrowDown,ArrowLeft"":15,""ArrowDown,ArrowRight"":23}","true","ArrowUp,ArrowRight","false","","","","","",""
"html-keyboard-response","68","393551","0.0-4.0-11.0-2.0-1.3","spark_pilot_norest","8335","8","14","Male","","","","","","","","null","<div style=""font-size:60px;"">+</div>","null","fixation","","","","","","","","","","","",""
"revaluation","69","399555","0.0-4.0-11.0-2.0-0.4","spark_pilot_norest","8335","8","14","Male","","","false","","","","","[760,337.0000000000582]","./assets/img/space/11.jpg","[""ArrowUp"",""ArrowRight""]","practice block","space","36","{""ArrowUp,ArrowLeft"":3,""ArrowUp,ArrowRight"":36,""ArrowDown,ArrowLeft"":15,""ArrowDown,ArrowRight"":23}","true","ArrowUp,ArrowRight","false","","","","","",""
"html-keyboard-response","70","400057","0.0-4.0-11.0-2.0-1.4","spark_pilot_norest","8335","8","14","Male","","","","","","","","null","<div style=""font-size:60px;"">+</div>","null","fixation","","","","","","","","","","","",""
"revaluation","71","406061","0.0-4.0-11.0-2.0-0.5","spark_pilot_norest","8335","8","14","Male","","","false","","","","","[692,316]","./assets/img/space/12.jpg","[""ArrowUp"",""ArrowRight""]","practice block","space","36","{""ArrowUp,ArrowLeft"":3,""ArrowUp,ArrowRight"":36,""ArrowDown,ArrowLeft"":15,""ArrowDown,ArrowRight"":23}","true","ArrowUp,ArrowRight","false","","","","","",""
"html-keyboard-response","72","406563","0.0-4.0-11.0-2.0-1.5","spark_pilot_norest","8335","8","14","Male","","","","","","","","null","<div style=""font-size:60px;"">+</div>","null","fixation","","","","","","","","","","","",""
"revaluation","73","412569","0.0-4.0-11.0-2.0-0.6","spark_pilot_norest","8335","8","14","Male","","","false","","","","","[658,349.0000000000582]","./assets/img/space/13.jpg","[""ArrowUp"",""ArrowRight""]","practice block","space","36","{""ArrowUp,ArrowLeft"":3,""ArrowUp,ArrowRight"":36,""ArrowDown,ArrowLeft"":15,""ArrowDown,ArrowRight"":23}","true","ArrowUp,ArrowRight","false","","","","","",""
"html-keyboard-response","74","413070","0.0-4.0-11.0-2.0-1.6","spark_pilot_norest","8335","8","14","Male","","","","","","","","null","<div style=""font-size:60px;"">+</div>","null","fixation","","","","","","","","","","","",""
"revaluation","75","419076","0.0-4.0-11.0-2.0-0.7","spark_pilot_norest","8335","8","14","Male","","","false","","","","","[574,336]","./assets/img/space/14.jpg","[""ArrowUp"",""ArrowRight""]","practice block","space","36","{""ArrowUp,ArrowLeft"":3,""ArrowUp,ArrowRight"":36,""ArrowDown,ArrowLeft"":15,""ArrowDown,ArrowRight"":23}","true","ArrowUp,ArrowRight","false","","","","","",""
"html-keyboard-response","76","419578","0.0-4.0-11.0-2.0-1.7","spark_pilot_norest","8335","8","14","Male","","","","","","","","null","<div style=""font-size:60px;"">+</div>","null","fixation","","","","","","","","","","","",""
"revaluation","77","423582","0.0-4.0-11.0-2.0-0.8","spark_pilot_norest","8335","8","14","Male","","","false","","","","","[959]","./assets/img/space/catch/3.jpg","[""spaceBar""]","practice block","space","0","{""ArrowUp,ArrowLeft"":3,""ArrowUp,ArrowRight"":36,""ArrowDown,ArrowLeft"":15,""ArrowDown,ArrowRight"":23}","true","spaceBar","true","","","","","",""
"html-keyboard-response","78","424083","0.0-4.0-11.0-2.0-1.8","spark_pilot_norest","8335","8","14","Male","","","","","","","","null","<div style=""font-size:60px;"">+</div>","null","fixation","","","","","","","","","","","",""
"learning-instructions","79","437755","0.0-4.0-11.0-3.0-0.0","spark_pilot_norest","8335","8","14","Male","","","","","","","","768","<p> Now, you will travel with a friend who will choose whether you go up or down first. </p>
            <p> On these turns, you will just see the animal that they found. You will still get to choose which chest to search for treasure.</p>","","instructions","","","","","","","","","","","",""
"revaluation","80","441760","0.0-4.0-11.0-4.0-0.0","spark_pilot_norest","8335","8","14","Male","","","false","","","","","[1119]","./assets/img/space/animals/rabbit.jpg","[""ArrowRight""]","practice block","space","23","{""ArrowUp,ArrowLeft"":3,""ArrowUp,ArrowRight"":36,""ArrowDown,ArrowLeft"":15,""ArrowDown,ArrowRight"":23}","true","ArrowDown,ArrowRight","","","","","","",""
"html-keyboard-response","81","442262","0.0-4.0-11.0-4.0-1.0","spark_pilot_norest","8335","8","14","Male","","","","","","","","null","<div style=""font-size:60px;"">+</div>","null","fixation","","","","","","","","","","","",""
"revaluation","82","446266","0.0-4.0-11.0-4.0-0.1","spark_pilot_norest","8335","8","14","Male","","","false","","","","","[830.0000000000582]","./assets/img/space/animals/cat.jpg","[""ArrowRight""]","practice block","space","36","{""ArrowUp,ArrowLeft"":3,""ArrowUp,ArrowRight"":36,""ArrowDown,ArrowLeft"":15,""ArrowDown,ArrowRight"":23}","true","ArrowUp,ArrowRight","","","","","","",""
"html-keyboard-response","83","446768","0.0-4.0-11.0-4.0-1.1","spark_pilot_norest","8335","8","14","Male","","","","","","","","null","<div style=""font-size:60px;"">+</div>","null","fixation","","","","","","","","","","","",""
"revaluation","84","450770","0.0-4.0-11.0-4.0-0.2","spark_pilot_norest","8335","8","14","Male","","","false","","","","","[671]","./assets/img/space/animals/cat.jpg","[""ArrowRight""]","practice block","space","36","{""ArrowUp,ArrowLeft"":3,""ArrowUp,ArrowRight"":36,""ArrowDown,ArrowLeft"":15,""ArrowDown,ArrowRight"":23}","true","ArrowUp,ArrowRight","","","","","","",""
"html-keyboard-response","85","451272","0.0-4.0-11.0-4.0-1.2","spark_pilot_norest","8335","8","14","Male","","","","","","","","null","<div style=""font-size:60px;"">+</div>","null","fixation","","","","","","","","","","","",""
"revaluation","86","455275","0.0-4.0-11.0-4.0-0.3","spark_pilot_norest","8335","8","14","Male","","","false","","","","","[531]","./assets/img/space/animals/rabbit.jpg","[""ArrowLeft""]","practice block","space","15","{""ArrowUp,ArrowLeft"":3,""ArrowUp,ArrowRight"":36,""ArrowDown,ArrowLeft"":15,""ArrowDown,ArrowRight"":23}","false","ArrowDown,ArrowLeft","","","","","","",""
"html-keyboard-response","87","455776","0.0-4.0-11.0-4.0-1.3","spark_pilot_norest","8335","8","14","Male","","","","","","","","null","<div style=""font-size:60px;"">+</div>","null","fixation","","","","","","","","","","","",""
"learning-instructions","88","469438","0.0-4.0-11.0-5.0-0.0","spark_pilot_norest","8335","8","14","Male","","","","","","","","null","<p> You have almost finished this part of the game! </p>
            <p> We are going to ask you to make a few more choices. </p>","","instructions","","","","","","","","","","","",""
"learning-instructions","89","492574","0.0-4.0-11.0-5.0-0.1","spark_pilot_norest","8335","8","14","Male","","","","","","","","null","<p> First, you need to decide whether to go up or down. When you see each picture, use the arrow keys to make your choice. </p>
            <p><b>You will not see which animal you found, but try to get to the one that will give you the most treasure.</b></p>","","instructions","","","","","","","","","","","",""
"html-keyboard-response","90","493577","0.0-4.0-11.0-6.0-0.0","spark_pilot_norest","8335","8","14","Male","","","","","","","","null","<div style=""font-size:100px;color:red;"">Starting in...</div>","null","","","","","","","","","","","","",""
"html-keyboard-response","91","494578","0.0-4.0-11.0-6.0-1.0","spark_pilot_norest","8335","8","14","Male","","","","","","","","null","<div style=""font-size:200px;color:red;"">3</div>","null","","","","","","","","","","","","",""
"html-keyboard-response","92","495580","0.0-4.0-11.0-6.0-2.0","spark_pilot_norest","8335","8","14","Male","","","","","","","","null","<div style=""font-size:200px;color:red;"">2</div>","null","","","","","","","","","","","","",""
"html-keyboard-response","93","496582","0.0-4.0-11.0-6.0-3.0","spark_pilot_norest","8335","8","14","Male","","","","","","","","null","<div style=""font-size:200px;color:red;"">1</div>","null","","","","","","","","","","","","",""
"revaluation","94","497129","0.0-4.0-11.0-7.0","spark_pilot_norest","8335","8","14","Male","","","false","","","","","[546]","./assets/img/space/15.jpg","[""ArrowDown""]","practice block","space","0","{""ArrowUp,ArrowLeft"":3,""ArrowUp,ArrowRight"":36,""ArrowDown,ArrowLeft"":15,""ArrowDown,ArrowRight"":23}","false","ArrowDown","false","","","","","",""
"html-keyboard-response","95","497631","0.0-4.0-11.0-8.0","spark_pilot_norest","8335","8","14","Male","","","","","","","","null","<div style=""font-size:60px;"">+</div>","null","fixation","","","","","","","","","","","",""
"learning-instructions","96","515319","0.0-4.0-11.0-9.0-0.0","spark_pilot_norest","8335","8","14","Male","","","","","","","","null","<p> Now you will see the animals again and can search their chests for treasure. </p>
            <p> This time, you will not see how much treasure you earned, but you will earn more bonus money for making better choices. </p>","","instructions","","","","","","","","","","","",""
"html-keyboard-response","97","516320","0.0-4.0-11.0-10.0-0.0","spark_pilot_norest","8335","8","14","Male","","","","","","","","null","<div style=""font-size:100px;color:red;"">Starting in...</div>","null","","","","","","","","","","","","",""
"html-keyboard-response","98","517321","0.0-4.0-11.0-10.0-1.0","spark_pilot_norest","8335","8","14","Male","","","","","","","","null","<div style=""font-size:200px;color:red;"">3</div>","null","","","","","","","","","","","","",""
"html-keyboard-response","99","518322","0.0-4.0-11.0-10.0-2.0","spark_pilot_norest","8335","8","14","Male","","","","","","","","null","<div style=""font-size:200px;color:red;"">2</div>","null","","","","","","","","","","","","",""
"html-keyboard-response","100","519323","0.0-4.0-11.0-10.0-3.0","spark_pilot_norest","8335","8","14","Male","","","","","","","","null","<div style=""font-size:200px;color:red;"">1</div>","null","","","","","","","","","","","","",""
"revaluation","101","520334","0.0-4.0-11.0-11.0-0.0","spark_pilot_norest","8335","8","14","Male","","","false","","","","","[1009]","./assets/img/space/animals/cat.jpg","[""ArrowRight""]","practice block","space","0","{""ArrowUp,ArrowLeft"":3,""ArrowUp,ArrowRight"":36,""ArrowDown,ArrowLeft"":15,""ArrowDown,ArrowRight"":23}","true","ArrowUp,ArrowRight","","","","","","",""
"html-keyboard-response","102","520835","0.0-4.0-11.0-11.0-1.0","spark_pilot_norest","8335","8","14","Male","","","","","","","","null","<div style=""font-size:60px;"">+</div>","null","fixation","","","","","","","","","","","",""
"revaluation","103","521880","0.0-4.0-11.0-11.0-0.1","spark_pilot_norest","8335","8","14","Male","","","false","","","","","[1042.0000000000582]","./assets/img/space/animals/rabbit.jpg","[""ArrowRight""]","practice block","space","0","{""ArrowUp,ArrowLeft"":3,""ArrowUp,ArrowRight"":36,""ArrowDown,ArrowLeft"":15,""ArrowDown,ArrowRight"":23}","true","ArrowDown,ArrowRight","","","","","","",""
"html-keyboard-response","104","522382","0.0-4.0-11.0-11.0-1.1","spark_pilot_norest","8335","8","14","Male","","","","","","","","null","<div style=""font-size:60px;"">+</div>","null","fixation","","","","","","","","","","","",""
"learning-instructions","105","528623","0.0-4.0-12.0-0.0","spark_pilot_norest","8335","8","14","Male","","","","","","","","1675","<p> Before you start, we're going to ask you a few questions about how the game works. </p>","","instructions","","","","","","","","","","","",""
"comp-q","106","535322","0.0-4.0-13.0-0.0-0.0","spark_pilot_norest","8335","8","14","Male","","","","","","","","1128","<p> <b> True or False? </b> </p>
            <p> There can be 50 pieces of treasure in a given animal's chest. </p>","1","comp_question","","","","true","","","","","","","",""
"comp-q","107","543161","0.0-4.0-13.0-0.0-1.0","spark_pilot_norest","8335","8","14","Male","","","","","","","","1191","<p> <b> That's right! </b> The amount of treasure in each chest can range from 0 to 40 pieces. </p>","0","comp_answer","","","","","","","","","","","",""
"comp-q","108","551113","0.0-4.0-13.0-0.1-0.1","spark_pilot_norest","8335","8","14","Male","","","","","","","","849","<p> <b> True or False? </b> </p><p> In this game, all animals have the same amount of treasure in their left and right chests. </p>","1","comp_question","","","","true","","","","","","","",""
"comp-q","109","557199","0.0-4.0-13.0-0.1-1.1","spark_pilot_norest","8335","8","14","Male","","","","","","","","1242","<p> <b> That's right! </b> Animals have different amounts of treasure in their treasure chests. </p>","0","comp_answer","","","","","","","","","","","",""
"comp-q","110","565686","0.0-4.0-13.0-0.2-0.2","spark_pilot_norest","8335","8","14","Male","","","","","","","","1114","<p> <b> True or False? </b> </p><p> The same animal will always be there if you go up in the same place. </p>","0","comp_question","","","","true","","","","","","","",""
"comp-q","111","573803","0.0-4.0-13.0-0.2-1.2","spark_pilot_norest","8335","8","14","Male","","","","","","","","1685","<p> <b> That's right! </b> One animal lives in the upper part and one lives in the lower part of every place. </p>","0","comp_answer","","","","","","","","","","","",""
"comp-q","112","580903","0.0-4.0-13.0-0.3-0.3","spark_pilot_norest","8335","8","14","Male","","","","","","","","1586.0000000001164","<p> <b> True or False? </b> </p><p> If you see a different picture, it means you are in a new place. </p>","1","comp_question","","","","true","","","","","","","",""
"comp-q","113","593056","0.0-4.0-13.0-0.3-1.3","spark_pilot_norest","8335","8","14","Male","","","","","","","","939","<p> <b> That's right! </b> Lots of different images may show the same place. For example,  you may see three different images that all remind you that you are in outer space. </p>","0","comp_answer","","","","","","","","","","","",""
"learning-instructions","114","606795","0.0-4.0-14.0-0.0","spark_pilot_norest","8335","8","14","Male","","","","","","","","3899","<p> Good job. Remember to do your best because the amount of treasure you earn will be converted into bonus money. </p>
            <p> It’s time to start the real game! </p>","","instructions","","","","","","","","","","","",""
"learning-instructions","115","610113","0.0-5.0-0.0-0.0","spark_pilot_norest","8335","8","14","Male","","","","","","","","559.9999999998836","<p> This time you are searching for treasure in the <b>canyon</b>.</p>","","instructions","","","","","","","","","","","",""
"learning-instructions","116","628288","0.0-5.0-0.0-0.1","spark_pilot_norest","8335","8","14","Male","","","","","","","","891","<p><b>New</b> animals with <b>new</b> treasure chests live here. You need to explore to discover where the animal with the best treasure chest is.</p>
                    <p> Like before, once you figure out which animal has the chest with the most treasure, you should try to get to that animal and select that chest! </p>","","instructions","","","","","","","","","","","",""
"learning-instructions","117","645985","0.0-5.0-1.0-0.0","spark_pilot_norest","8335","8","14","Male","","","","","","","","2965.9999999998836","<p> Remember, when you see a picture of the place, use the up and down keys to <b>find an animal</b>.</p>
            <p> When you encounter an animal, you should use the left and right keys to <b>select a treasure chest</b>.</p>
            <p> Don't forget to look out for the robber! </p>","","instructions","","","","","","","","","","","",""
"revaluation","118","649989","0.0-5.0-2.0-0.0","spark_pilot_norest","8335","8","14","Male","","","false","","","","","[587]","./assets/img/canyon/catch/1.jpg","[""ArrowUp""]","value training","canyon","-10","{""ArrowUp,ArrowLeft"":26,""ArrowUp,ArrowRight"":10,""ArrowDown,ArrowLeft"":5,""ArrowDown,ArrowRight"":17}","false","ArrowUp","true","revaluation","1","0","","",""
"html-keyboard-response","119","650492","0.0-5.0-2.0-1.0","spark_pilot_norest","8335","8","14","Male","","","","","","","","null","<div style=""font-size:60px;"">+</div>","null","fixation","","","","","","","","","1","","",""
"revaluation","120","656497","0.0-5.0-2.0-0.1","spark_pilot_norest","8335","8","14","Male","","","false","","","","","[698,523]","./assets/img/canyon/memory/29.jpg","[""ArrowUp"",""ArrowRight""]","value training","canyon","10","{""ArrowUp,ArrowLeft"":26,""ArrowUp,ArrowRight"":10,""ArrowDown,ArrowLeft"":5,""ArrowDown,ArrowRight"":17}","false","ArrowUp,ArrowRight","false","revaluation","1","2","","",""
"html-keyboard-response","121","656998","0.0-5.0-2.0-1.1","spark_pilot_norest","8335","8","14","Male","","","","","","","","null","<div style=""font-size:60px;"">+</div>","null","fixation","","","","","","","","","3","","",""
"revaluation","122","663004","0.0-5.0-2.0-0.2","spark_pilot_norest","8335","8","14","Male","","","false","","","","","[674.9999999998836,412]","./assets/img/canyon/memory/32.jpg","[""ArrowUp"",""ArrowLeft""]","value training","canyon","26","{""ArrowUp,ArrowLeft"":26,""ArrowUp,ArrowRight"":10,""ArrowDown,ArrowLeft"":5,""ArrowDown,ArrowRight"":17}","true","ArrowUp,ArrowLeft","false","revaluation","1","4","","",""
"html-keyboard-response","123","663506","0.0-5.0-2.0-1.2","spark_pilot_norest","8335","8","14","Male","","","","","","","","null","<div style=""font-size:60px;"">+</div>","null","fixation","","","","","","","","","5","","",""
"revaluation","124","669512","0.0-5.0-2.0-0.3","spark_pilot_norest","8335","8","14","Male","","","false","","","","","[510,486.0000000001164]","./assets/img/canyon/memory/35.jpg","[""ArrowDown"",""ArrowLeft""]","value training","canyon","5","{""ArrowUp,ArrowLeft"":26,""ArrowUp,ArrowRight"":10,""ArrowDown,ArrowLeft"":5,""ArrowDown,ArrowRight"":17}","false","ArrowDown,ArrowLeft","false","revaluation","1","6","","",""
"html-keyboard-response","125","670014","0.0-5.0-2.0-1.3","spark_pilot_norest","8335","8","14","Male","","","","","","","","null","<div style=""font-size:60px;"">+</div>","null","fixation","","","","","","","","","7","","",""
"revaluation","126","676019","0.0-5.0-2.0-0.4","spark_pilot_norest","8335","8","14","Male","","","false","","","","","[428,449]","./assets/img/canyon/memory/34.jpg","[""ArrowDown"",""ArrowRight""]","value training","canyon","17","{""ArrowUp,ArrowLeft"":26,""ArrowUp,ArrowRight"":10,""ArrowDown,ArrowLeft"":5,""ArrowDown,ArrowRight"":17}","false","ArrowDown,ArrowRight","false","revaluation","1","8","","",""
"html-keyboard-response","127","676521","0.0-5.0-2.0-1.4","spark_pilot_norest","8335","8","14","Male","","","","","","","","null","<div style=""font-size:60px;"">+</div>","null","fixation","","","","","","","","","9","","",""
"revaluation","128","682525","0.0-5.0-2.0-0.5","spark_pilot_norest","8335","8","14","Male","","","false","","","","","[397.0000000001164,430.0000000001164]","./assets/img/canyon/memory/21.jpg","[""ArrowUp"",""ArrowRight""]","value training","canyon","10","{""ArrowUp,ArrowLeft"":26,""ArrowUp,ArrowRight"":10,""ArrowDown,ArrowLeft"":5,""ArrowDown,ArrowRight"":17}","false","ArrowUp,ArrowRight","false","revaluation","1","10","","",""
"html-keyboard-response","129","683027","0.0-5.0-2.0-1.5","spark_pilot_norest","8335","8","14","Male","","","","","","","","null","<div style=""font-size:60px;"">+</div>","null","fixation","","","","","","","","","11","","",""
"revaluation","130","689032","0.0-5.0-2.0-0.6","spark_pilot_norest","8335","8","14","Male","","","false","","","","","[496.0000000001164,306.9999999998836]","./assets/img/canyon/memory/9.jpg","[""ArrowUp"",""ArrowLeft""]","value training","canyon","26","{""ArrowUp,ArrowLeft"":26,""ArrowUp,ArrowRight"":10,""ArrowDown,ArrowLeft"":5,""ArrowDown,ArrowRight"":17}","true","ArrowUp,ArrowLeft","false","revaluation","1","12","","",""
"html-keyboard-response","131","689533","0.0-5.0-2.0-1.6","spark_pilot_norest","8335","8","14","Male","","","","","","","","null","<div style=""font-size:60px;"">+</div>","null","fixation","","","","","","","","","13","","",""
"revaluation","132","695539","0.0-5.0-2.0-0.7","spark_pilot_norest","8335","8","14","Male","","","false","","","","","[534,117]","./assets/img/canyon/memory/41.jpg","[""ArrowUp"",""ArrowLeft""]","value training","canyon","26","{""ArrowUp,ArrowLeft"":26,""ArrowUp,ArrowRight"":10,""ArrowDown,ArrowLeft"":5,""ArrowDown,ArrowRight"":17}","true","ArrowUp,ArrowLeft","false","revaluation","1","14","","",""
"html-keyboard-response","133","696041","0.0-5.0-2.0-1.7","spark_pilot_norest","8335","8","14","Male","","","","","","","","null","<div style=""font-size:60px;"">+</div>","null","fixation","","","","","","","","","15","","",""
"revaluation","134","702046","0.0-5.0-2.0-0.8","spark_pilot_norest","8335","8","14","Male","","","false","","","","","[522,370.9999999998836]","./assets/img/canyon/memory/37.jpg","[""ArrowUp"",""ArrowLeft""]","value training","canyon","26","{""ArrowUp,ArrowLeft"":26,""ArrowUp,ArrowRight"":10,""ArrowDown,ArrowLeft"":5,""ArrowDown,ArrowRight"":17}","true","ArrowUp,ArrowLeft","false","revaluation","1","16","","",""
"html-keyboard-response","135","702548","0.0-5.0-2.0-1.8","spark_pilot_norest","8335","8","14","Male","","","","","","","","null","<div style=""font-size:60px;"">+</div>","null","fixation","","","","","","","","","17","","",""
"revaluation","136","708554","0.0-5.0-2.0-0.9","spark_pilot_norest","8335","8","14","Male","","","false","","","","","[704,88]","./assets/img/canyon/memory/39.jpg","[""ArrowUp"",""ArrowLeft""]","value training","canyon","26","{""ArrowUp,ArrowLeft"":26,""ArrowUp,ArrowRight"":10,""ArrowDown,ArrowLeft"":5,""ArrowDown,ArrowRight"":17}","true","ArrowUp,ArrowLeft","false","revaluation","1","18","","",""
"html-keyboard-response","137","709056","0.0-5.0-2.0-1.9","spark_pilot_norest","8335","8","14","Male","","","","","","","","null","<div style=""font-size:60px;"">+</div>","null","fixation","","","","","","","","","19","","",""
"revaluation","138","715060","0.0-5.0-2.0-0.10","spark_pilot_norest","8335","8","14","Male","","","false","","","","","[681,154]","./assets/img/canyon/memory/11.jpg","[""ArrowUp"",""ArrowLeft""]","value training","canyon","26","{""ArrowUp,ArrowLeft"":26,""ArrowUp,ArrowRight"":10,""ArrowDown,ArrowLeft"":5,""ArrowDown,ArrowRight"":17}","true","ArrowUp,ArrowLeft","false","revaluation","1","20","","",""
"html-keyboard-response","139","715562","0.0-5.0-2.0-1.10","spark_pilot_norest","8335","8","14","Male","","","","","","","","null","<div style=""font-size:60px;"">+</div>","null","fixation","","","","","","","","","21","","",""
"revaluation","140","721566","0.0-5.0-2.0-0.11","spark_pilot_norest","8335","8","14","Male","","","false","","","","","[571,340]","./assets/img/canyon/memory/31.jpg","[""ArrowUp"",""ArrowLeft""]","value training","canyon","26","{""ArrowUp,ArrowLeft"":26,""ArrowUp,ArrowRight"":10,""ArrowDown,ArrowLeft"":5,""ArrowDown,ArrowRight"":17}","true","ArrowUp,ArrowLeft","false","revaluation","1","22","","",""
"html-keyboard-response","141","722068","0.0-5.0-2.0-1.11","spark_pilot_norest","8335","8","14","Male","","","","","","","","null","<div style=""font-size:60px;"">+</div>","null","fixation","","","","","","","","","23","","",""
"revaluation","142","728073","0.0-5.0-2.0-0.12","spark_pilot_norest","8335","8","14","Male","","","false","","","","","[669,484.0000000001164]","./assets/img/canyon/memory/15.jpg","[""ArrowUp"",""ArrowLeft""]","value training","canyon","26","{""ArrowUp,ArrowLeft"":26,""ArrowUp,ArrowRight"":10,""ArrowDown,ArrowLeft"":5,""ArrowDown,ArrowRight"":17}","true","ArrowUp,ArrowLeft","false","revaluation","1","24","","",""
"html-keyboard-response","143","728575","0.0-5.0-2.0-1.12","spark_pilot_norest","8335","8","14","Male","","","","","","","","null","<div style=""font-size:60px;"">+</div>","null","fixation","","","","","","","","","25","","",""
"revaluation","144","734579","0.0-5.0-2.0-0.13","spark_pilot_norest","8335","8","14","Male","","","false","","","","","[533,415.0000000001164]","./assets/img/canyon/memory/28.jpg","[""ArrowUp"",""ArrowLeft""]","value training","canyon","26","{""ArrowUp,ArrowLeft"":26,""ArrowUp,ArrowRight"":10,""ArrowDown,ArrowLeft"":5,""ArrowDown,ArrowRight"":17}","true","ArrowUp,ArrowLeft","false","revaluation","1","26","","",""
"html-keyboard-response","145","735081","0.0-5.0-2.0-1.13","spark_pilot_norest","8335","8","14","Male","","","","","","","","null","<div style=""font-size:60px;"">+</div>","null","fixation","","","","","","","","","27","","",""
"revaluation","146","741086","0.0-5.0-2.0-0.14","spark_pilot_norest","8335","8","14","Male","","","false","","","","","[570,562.0000000001164]","./assets/img/canyon/memory/30.jpg","[""ArrowUp"",""ArrowLeft""]","value training","canyon","26","{""ArrowUp,ArrowLeft"":26,""ArrowUp,ArrowRight"":10,""ArrowDown,ArrowLeft"":5,""ArrowDown,ArrowRight"":17}","true","ArrowUp,ArrowLeft","false","revaluation","1","28","","",""
"html-keyboard-response","147","741587","0.0-5.0-2.0-1.14","spark_pilot_norest","8335","8","14","Male","","","","","","","","null","<div style=""font-size:60px;"">+</div>","null","fixation","","","","","","","","","29","","",""
"revaluation","148","747592","0.0-5.0-2.0-0.15","spark_pilot_norest","8335","8","14","Male","","","false","","","","","[632,358]","./assets/img/canyon/memory/21.jpg","[""ArrowUp"",""ArrowLeft""]","value training","canyon","26","{""ArrowUp,ArrowLeft"":26,""ArrowUp,ArrowRight"":10,""ArrowDown,ArrowLeft"":5,""ArrowDown,ArrowRight"":17}","true","ArrowUp,ArrowLeft","false","revaluation","1","30","","",""
"html-keyboard-response","149","748092","0.0-5.0-2.0-1.15","spark_pilot_norest","8335","8","14","Male","","","","","","","","null","<div style=""font-size:60px;"">+</div>","null","fixation","","","","","","","","","31","","",""
"revaluation","150","754098","0.0-5.0-2.0-0.16","spark_pilot_norest","8335","8","14","Male","","","false","","","","","[1303,829.0000000001164]","./assets/img/canyon/memory/15.jpg","[""ArrowUp"",""ArrowLeft""]","value training","canyon","26","{""ArrowUp,ArrowLeft"":26,""ArrowUp,ArrowRight"":10,""ArrowDown,ArrowLeft"":5,""ArrowDown,ArrowRight"":17}","true","ArrowUp,ArrowLeft","false","revaluation","1","32","","",""
"html-keyboard-response","151","754600","0.0-5.0-2.0-1.16","spark_pilot_norest","8335","8","14","Male","","","","","","","","null","<div style=""font-size:60px;"">+</div>","null","fixation","","","","","","","","","33","","",""
"revaluation","152","760604","0.0-5.0-2.0-0.17","spark_pilot_norest","8335","8","14","Male","","","true","","","","","[1142]","./assets/img/canyon/memory/39.jpg","[""ArrowUp""]","value training","canyon","-5","{""ArrowUp,ArrowLeft"":26,""ArrowUp,ArrowRight"":10,""ArrowDown,ArrowLeft"":5,""ArrowDown,ArrowRight"":17}","false","ArrowUp","false","revaluation","1","34","","",""
"html-keyboard-response","153","761106","0.0-5.0-2.0-1.17","spark_pilot_norest","8335","8","14","Male","","","","","","","","null","<div style=""font-size:60px;"">+</div>","null","fixation","","","","","","","","","35","","",""
"revaluation","154","767111","0.0-5.0-2.0-0.18","spark_pilot_norest","8335","8","14","Male","","","false","","","","","[548,396]","./assets/img/canyon/memory/35.jpg","[""ArrowUp"",""ArrowLeft""]","value training","canyon","26","{""ArrowUp,ArrowLeft"":26,""ArrowUp,ArrowRight"":10,""ArrowDown,ArrowLeft"":5,""ArrowDown,ArrowRight"":17}","true","ArrowUp,ArrowLeft","false","revaluation","1","36","","",""
"html-keyboard-response","155","767612","0.0-5.0-2.0-1.18","spark_pilot_norest","8335","8","14","Male","","","","","","","","null","<div style=""font-size:60px;"">+</div>","null","fixation","","","","","","","","","37","","",""
"revaluation","156","771616","0.0-5.0-2.0-0.19","spark_pilot_norest","8335","8","14","Male","","","false","","","","","[895]","./assets/img/canyon/catch/2.jpg","[""ArrowUp""]","value training","canyon","-10","{""ArrowUp,ArrowLeft"":26,""ArrowUp,ArrowRight"":10,""ArrowDown,ArrowLeft"":5,""ArrowDown,ArrowRight"":17}","false","ArrowUp","true","revaluation","1","38","","",""
"html-keyboard-response","157","772118","0.0-5.0-2.0-1.19","spark_pilot_norest","8335","8","14","Male","","","","","","","","null","<div style=""font-size:60px;"">+</div>","null","fixation","","","","","","","","","39","","",""
"revaluation","158","778123","0.0-5.0-2.0-0.20","spark_pilot_norest","8335","8","14","Male","","","false","","","","","[1386,1181]","./assets/img/canyon/memory/29.jpg","[""ArrowUp"",""ArrowLeft""]","value training","canyon","26","{""ArrowUp,ArrowLeft"":26,""ArrowUp,ArrowRight"":10,""ArrowDown,ArrowLeft"":5,""ArrowDown,ArrowRight"":17}","true","ArrowUp,ArrowLeft","false","revaluation","1","40","","",""
"html-keyboard-response","159","778625","0.0-5.0-2.0-1.20","spark_pilot_norest","8335","8","14","Male","","","","","","","","null","<div style=""font-size:60px;"">+</div>","null","fixation","","","","","","","","","41","","",""
"revaluation","160","782630","0.0-5.0-2.0-0.21","spark_pilot_norest","8335","8","14","Male","","","true","","","","","[]","./assets/img/canyon/memory/40.jpg","[]","value training","canyon","-5","{""ArrowUp,ArrowLeft"":26,""ArrowUp,ArrowRight"":10,""ArrowDown,ArrowLeft"":5,""ArrowDown,ArrowRight"":17}","false","","false","revaluation","1","42","","",""
"html-keyboard-response","161","783130","0.0-5.0-2.0-1.21","spark_pilot_norest","8335","8","14","Male","","","","","","","","null","<div style=""font-size:60px;"">+</div>","null","fixation","","","","","","","","","43","","",""
"revaluation","162","789136","0.0-5.0-2.0-0.22","spark_pilot_norest","8335","8","14","Male","","","false","","","","","[627,403]","./assets/img/canyon/memory/33.jpg","[""ArrowUp"",""ArrowLeft""]","value training","canyon","26","{""ArrowUp,ArrowLeft"":26,""ArrowUp,ArrowRight"":10,""ArrowDown,ArrowLeft"":5,""ArrowDown,ArrowRight"":17}","true","ArrowUp,ArrowLeft","false","revaluation","1","44","","",""
"html-keyboard-response","163","789638","0.0-5.0-2.0-1.22","spark_pilot_norest","8335","8","14","Male","","","","","","","","null","<div style=""font-size:60px;"">+</div>","null","fixation","","","","","","","","","45","","",""
"revaluation","164","795642","0.0-5.0-2.0-0.23","spark_pilot_norest","8335","8","14","Male","","","false","","","","","[800,427]","./assets/img/canyon/memory/38.jpg","[""ArrowUp"",""ArrowLeft""]","value training","canyon","26","{""ArrowUp,ArrowLeft"":26,""ArrowUp,ArrowRight"":10,""ArrowDown,ArrowLeft"":5,""ArrowDown,ArrowRight"":17}","true","ArrowUp,ArrowLeft","false","revaluation","1","46","","",""
"html-keyboard-response","165","796144","0.0-5.0-2.0-1.23","spark_pilot_norest","8335","8","14","Male","","","","","","","","null","<div style=""font-size:60px;"">+</div>","null","fixation","","","","","","","","","47","","",""
"revaluation","166","802149","0.0-5.0-2.0-0.24","spark_pilot_norest","8335","8","14","Male","","","false","","","","","[802,677]","./assets/img/canyon/memory/34.jpg","[""ArrowUp"",""ArrowLeft""]","value training","canyon","26","{""ArrowUp,ArrowLeft"":26,""ArrowUp,ArrowRight"":10,""ArrowDown,ArrowLeft"":5,""ArrowDown,ArrowRight"":17}","true","ArrowUp,ArrowLeft","false","revaluation","1","48","","",""
"html-keyboard-response","167","802650","0.0-5.0-2.0-1.24","spark_pilot_norest","8335","8","14","Male","","","","","","","","null","<div style=""font-size:60px;"">+</div>","null","fixation","","","","","","","","","49","","",""
"revaluation","168","808655","0.0-5.0-2.0-0.25","spark_pilot_norest","8335","8","14","Male","","","false","","","","","[760,363.9999999998836]","./assets/img/canyon/memory/19.jpg","[""ArrowUp"",""ArrowLeft""]","value training","canyon","26","{""ArrowUp,ArrowLeft"":26,""ArrowUp,ArrowRight"":10,""ArrowDown,ArrowLeft"":5,""ArrowDown,ArrowRight"":17}","true","ArrowUp,ArrowLeft","false","revaluation","1","50","","",""
"html-keyboard-response","169","809156","0.0-5.0-2.0-1.25","spark_pilot_norest","8335","8","14","Male","","","","","","","","null","<div style=""font-size:60px;"">+</div>","null","fixation","","","","","","","","","51","","",""
"revaluation","170","815161","0.0-5.0-2.0-0.26","spark_pilot_norest","8335","8","14","Male","","","false","","","","","[665,508]","./assets/img/canyon/memory/41.jpg","[""ArrowUp"",""ArrowLeft""]","value training","canyon","26","{""ArrowUp,ArrowLeft"":26,""ArrowUp,ArrowRight"":10,""ArrowDown,ArrowLeft"":5,""ArrowDown,ArrowRight"":17}","true","ArrowUp,ArrowLeft","false","revaluation","1","52","","",""
"html-keyboard-response","171","815663","0.0-5.0-2.0-1.26","spark_pilot_norest","8335","8","14","Male","","","","","","","","null","<div style=""font-size:60px;"">+</div>","null","fixation","","","","","","","","","53","","",""
"revaluation","172","821669","0.0-5.0-2.0-0.27","spark_pilot_norest","8335","8","14","Male","","","false","","","","","[795,762.9999999998836]","./assets/img/canyon/memory/32.jpg","[""ArrowUp"",""ArrowLeft""]","value training","canyon","26","{""ArrowUp,ArrowLeft"":26,""ArrowUp,ArrowRight"":10,""ArrowDown,ArrowLeft"":5,""ArrowDown,ArrowRight"":17}","true","ArrowUp,ArrowLeft","false","revaluation","1","54","","",""
"html-keyboard-response","173","822169","0.0-5.0-2.0-1.27","spark_pilot_norest","8335","8","14","Male","","","","","","","","null","<div style=""font-size:60px;"">+</div>","null","fixation","","","","","","","","","55","","",""
"revaluation","174","826172","0.0-5.0-2.0-0.28","spark_pilot_norest","8335","8","14","Male","","","false","","","","","[626.9999999998836]","./assets/img/canyon/catch/5.jpg","[""ArrowUp""]","value training","canyon","-10","{""ArrowUp,ArrowLeft"":26,""ArrowUp,ArrowRight"":10,""ArrowDown,ArrowLeft"":5,""ArrowDown,ArrowRight"":17}","false","ArrowUp","true","revaluation","1","56","","",""
"html-keyboard-response","175","826674","0.0-5.0-2.0-1.28","spark_pilot_norest","8335","8","14","Male","","","","","","","","null","<div style=""font-size:60px;"">+</div>","null","fixation","","","","","","","","","57","","",""
"revaluation","176","832678","0.0-5.0-2.0-0.29","spark_pilot_norest","8335","8","14","Male","","","false","","","","","[900.0000000001164,805.9999999998836]","./assets/img/canyon/memory/36.jpg","[""ArrowUp"",""ArrowLeft""]","value training","canyon","26","{""ArrowUp,ArrowLeft"":26,""ArrowUp,ArrowRight"":10,""ArrowDown,ArrowLeft"":5,""ArrowDown,ArrowRight"":17}","true","ArrowUp,ArrowLeft","false","revaluation","1","58","","",""
"html-keyboard-response","177","833180","0.0-5.0-2.0-1.29","spark_pilot_norest","8335","8","14","Male","","","","","","","","null","<div style=""font-size:60px;"">+</div>","null","fixation","","","","","","","","","59","","",""
"revaluation","178","837183","0.0-5.0-2.0-0.30","spark_pilot_norest","8335","8","14","Male","","","false","","","","","[860]","./assets/img/canyon/catch/4.jpg","[""spaceBar""]","value training","canyon","0","{""ArrowUp,ArrowLeft"":26,""ArrowUp,ArrowRight"":10,""ArrowDown,ArrowLeft"":5,""ArrowDown,ArrowRight"":17}","true","spaceBar","true","revaluation","1","60","","",""
"html-keyboard-response","179","837685","0.0-5.0-2.0-1.30","spark_pilot_norest","8335","8","14","Male","","","","","","","","null","<div style=""font-size:60px;"">+</div>","null","fixation","","","","","","","","","61","","",""
"revaluation","180","843689","0.0-5.0-2.0-0.31","spark_pilot_norest","8335","8","14","Male","","","false","","","","","[555,869]","./assets/img/canyon/memory/28.jpg","[""ArrowUp"",""ArrowLeft""]","value training","canyon","26","{""ArrowUp,ArrowLeft"":26,""ArrowUp,ArrowRight"":10,""ArrowDown,ArrowLeft"":5,""ArrowDown,ArrowRight"":17}","true","ArrowUp,ArrowLeft","false","revaluation","1","62","","",""
"html-keyboard-response","181","844191","0.0-5.0-2.0-1.31","spark_pilot_norest","8335","8","14","Male","","","","","","","","null","<div style=""font-size:60px;"">+</div>","null","fixation","","","","","","","","","63","","",""
"revaluation","182","850196","0.0-5.0-2.0-0.32","spark_pilot_norest","8335","8","14","Male","","","false","","","","","[800,87]","./assets/img/canyon/memory/33.jpg","[""ArrowUp"",""ArrowLeft""]","value training","canyon","26","{""ArrowUp,ArrowLeft"":26,""ArrowUp,ArrowRight"":10,""ArrowDown,ArrowLeft"":5,""ArrowDown,ArrowRight"":17}","true","ArrowUp,ArrowLeft","false","revaluation","1","64","","",""
"html-keyboard-response","183","850698","0.0-5.0-2.0-1.32","spark_pilot_norest","8335","8","14","Male","","","","","","","","null","<div style=""font-size:60px;"">+</div>","null","fixation","","","","","","","","","65","","",""
"revaluation","184","854701","0.0-5.0-2.0-0.33","spark_pilot_norest","8335","8","14","Male","","","false","","","","","[1225]","./assets/img/canyon/catch/7.jpg","[""spaceBar""]","value training","canyon","0","{""ArrowUp,ArrowLeft"":26,""ArrowUp,ArrowRight"":10,""ArrowDown,ArrowLeft"":5,""ArrowDown,ArrowRight"":17}","true","spaceBar","true","revaluation","1","66","","",""
"html-keyboard-response","185","855203","0.0-5.0-2.0-1.33","spark_pilot_norest","8335","8","14","Male","","","","","","","","null","<div style=""font-size:60px;"">+</div>","null","fixation","","","","","","","","","67","","",""
"revaluation","186","861209","0.0-5.0-2.0-0.34","spark_pilot_norest","8335","8","14","Male","","","false","","","","","[547,293.9999999998836]","./assets/img/canyon/memory/40.jpg","[""ArrowUp"",""ArrowLeft""]","value training","canyon","26","{""ArrowUp,ArrowLeft"":26,""ArrowUp,ArrowRight"":10,""ArrowDown,ArrowLeft"":5,""ArrowDown,ArrowRight"":17}","true","ArrowUp,ArrowLeft","false","revaluation","1","68","","",""
"html-keyboard-response","187","861710","0.0-5.0-2.0-1.34","spark_pilot_norest","8335","8","14","Male","","","","","","","","null","<div style=""font-size:60px;"">+</div>","null","fixation","","","","","","","","","69","","",""
"revaluation","188","867714","0.0-5.0-2.0-0.35","spark_pilot_norest","8335","8","14","Male","","","false","","","","","[593,359.0000000001164]","./assets/img/canyon/memory/37.jpg","[""ArrowUp"",""ArrowLeft""]","value training","canyon","26","{""ArrowUp,ArrowLeft"":26,""ArrowUp,ArrowRight"":10,""ArrowDown,ArrowLeft"":5,""ArrowDown,ArrowRight"":17}","true","ArrowUp,ArrowLeft","false","revaluation","1","70","","",""
"html-keyboard-response","189","868215","0.0-5.0-2.0-1.35","spark_pilot_norest","8335","8","14","Male","","","","","","","","null","<div style=""font-size:60px;"">+</div>","null","fixation","","","","","","","","","71","","",""
"revaluation","190","874221","0.0-5.0-2.0-0.36","spark_pilot_norest","8335","8","14","Male","","","false","","","","","[565,416]","./assets/img/canyon/memory/9.jpg","[""ArrowUp"",""ArrowLeft""]","value training","canyon","26","{""ArrowUp,ArrowLeft"":26,""ArrowUp,ArrowRight"":10,""ArrowDown,ArrowLeft"":5,""ArrowDown,ArrowRight"":17}","true","ArrowUp,ArrowLeft","false","revaluation","1","72","","",""
"html-keyboard-response","191","874723","0.0-5.0-2.0-1.36","spark_pilot_norest","8335","8","14","Male","","","","","","","","null","<div style=""font-size:60px;"">+</div>","null","fixation","","","","","","","","","73","","",""
"revaluation","192","878726","0.0-5.0-2.0-0.37","spark_pilot_norest","8335","8","14","Male","","","false","","","","","[755]","./assets/img/canyon/catch/3.jpg","[""spaceBar""]","value training","canyon","0","{""ArrowUp,ArrowLeft"":26,""ArrowUp,ArrowRight"":10,""ArrowDown,ArrowLeft"":5,""ArrowDown,ArrowRight"":17}","true","spaceBar","true","revaluation","1","74","","",""
"html-keyboard-response","193","879228","0.0-5.0-2.0-1.37","spark_pilot_norest","8335","8","14","Male","","","","","","","","null","<div style=""font-size:60px;"">+</div>","null","fixation","","","","","","","","","75","","",""
"revaluation","194","885233","0.0-5.0-2.0-0.38","spark_pilot_norest","8335","8","14","Male","","","false","","","","","[517,152.99999999988358]","./assets/img/canyon/memory/10.jpg","[""ArrowUp"",""ArrowLeft""]","value training","canyon","26","{""ArrowUp,ArrowLeft"":26,""ArrowUp,ArrowRight"":10,""ArrowDown,ArrowLeft"":5,""ArrowDown,ArrowRight"":17}","true","ArrowUp,ArrowLeft","false","revaluation","1","76","","",""
"html-keyboard-response","195","885735","0.0-5.0-2.0-1.38","spark_pilot_norest","8335","8","14","Male","","","","","","","","null","<div style=""font-size:60px;"">+</div>","null","fixation","","","","","","","","","77","","",""
"revaluation","196","891739","0.0-5.0-2.0-0.39","spark_pilot_norest","8335","8","14","Male","","","false","","","","","[803,5]","./assets/img/canyon/memory/16.jpg","[""ArrowUp"",""ArrowLeft""]","value training","canyon","26","{""ArrowUp,ArrowLeft"":26,""ArrowUp,ArrowRight"":10,""ArrowDown,ArrowLeft"":5,""ArrowDown,ArrowRight"":17}","true","ArrowUp,ArrowLeft","false","revaluation","1","78","","",""
"html-keyboard-response","197","892241","0.0-5.0-2.0-1.39","spark_pilot_norest","8335","8","14","Male","","","","","","","","null","<div style=""font-size:60px;"">+</div>","null","fixation","","","","","","","","","79","","",""
"revaluation","198","898245","0.0-5.0-2.0-0.40","spark_pilot_norest","8335","8","14","Male","","","false","","","","","[560.0000000001164,148]","./assets/img/canyon/memory/11.jpg","[""ArrowUp"",""ArrowLeft""]","value training","canyon","26","{""ArrowUp,ArrowLeft"":26,""ArrowUp,ArrowRight"":10,""ArrowDown,ArrowLeft"":5,""ArrowDown,ArrowRight"":17}","true","ArrowUp,ArrowLeft","false","revaluation","1","80","","",""
"html-keyboard-response","199","898746","0.0-5.0-2.0-1.40","spark_pilot_norest","8335","8","14","Male","","","","","","","","null","<div style=""font-size:60px;"">+</div>","null","fixation","","","","","","","","","81","","",""
"revaluation","200","904751","0.0-5.0-2.0-0.41","spark_pilot_norest","8335","8","14","Male","","","false","","","","","[480,289]","./assets/img/canyon/memory/19.jpg","[""ArrowUp"",""ArrowLeft""]","value training","canyon","26","{""ArrowUp,ArrowLeft"":26,""ArrowUp,ArrowRight"":10,""ArrowDown,ArrowLeft"":5,""ArrowDown,ArrowRight"":17}","true","ArrowUp,ArrowLeft","false","revaluation","1","82","","",""
"html-keyboard-response","201","905252","0.0-5.0-2.0-1.41","spark_pilot_norest","8335","8","14","Male","","","","","","","","null","<div style=""font-size:60px;"">+</div>","null","fixation","","","","","","","","","83","","",""
"revaluation","202","911257","0.0-5.0-2.0-0.42","spark_pilot_norest","8335","8","14","Male","","","false","","","","","[657,522.9999999998836]","./assets/img/canyon/memory/30.jpg","[""ArrowUp"",""ArrowLeft""]","value training","canyon","26","{""ArrowUp,ArrowLeft"":26,""ArrowUp,ArrowRight"":10,""ArrowDown,ArrowLeft"":5,""ArrowDown,ArrowRight"":17}","true","ArrowUp,ArrowLeft","false","revaluation","1","84","","",""
"html-keyboard-response","203","911758","0.0-5.0-2.0-1.42","spark_pilot_norest","8335","8","14","Male","","","","","","","","null","<div style=""font-size:60px;"">+</div>","null","fixation","","","","","","","","","85","","",""
"revaluation","204","917762","0.0-5.0-2.0-0.43","spark_pilot_norest","8335","8","14","Male","","","false","","","","","[616,567.0000000001164]","./assets/img/canyon/memory/38.jpg","[""ArrowUp"",""ArrowLeft""]","value training","canyon","26","{""ArrowUp,ArrowLeft"":26,""ArrowUp,ArrowRight"":10,""ArrowDown,ArrowLeft"":5,""ArrowDown,ArrowRight"":17}","true","ArrowUp,ArrowLeft","false","revaluation","1","86","","",""
"html-keyboard-response","205","918263","0.0-5.0-2.0-1.43","spark_pilot_norest","8335","8","14","Male","","","","","","","","null","<div style=""font-size:60px;"">+</div>","null","fixation","","","","","","","","","87","","",""
"revaluation","206","924269","0.0-5.0-2.0-0.44","spark_pilot_norest","8335","8","14","Male","","","false","","","","","[1179,963]","./assets/img/canyon/memory/36.jpg","[""ArrowUp"",""ArrowLeft""]","value training","canyon","26","{""ArrowUp,ArrowLeft"":26,""ArrowUp,ArrowRight"":10,""ArrowDown,ArrowLeft"":5,""ArrowDown,ArrowRight"":17}","true","ArrowUp,ArrowLeft","false","revaluation","1","88","","",""
"html-keyboard-response","207","924771","0.0-5.0-2.0-1.44","spark_pilot_norest","8335","8","14","Male","","","","","","","","null","<div style=""font-size:60px;"">+</div>","null","fixation","","","","","","","","","89","","",""
"revaluation","208","930774","0.0-5.0-2.0-0.45","spark_pilot_norest","8335","8","14","Male","","","false","","","","","[620,224]","./assets/img/canyon/memory/16.jpg","[""ArrowUp"",""ArrowLeft""]","value training","canyon","26","{""ArrowUp,ArrowLeft"":26,""ArrowUp,ArrowRight"":10,""ArrowDown,ArrowLeft"":5,""ArrowDown,ArrowRight"":17}","true","ArrowUp,ArrowLeft","false","revaluation","1","90","","",""
"html-keyboard-response","209","931276","0.0-5.0-2.0-1.45","spark_pilot_norest","8335","8","14","Male","","","","","","","","null","<div style=""font-size:60px;"">+</div>","null","fixation","","","","","","","","","91","","",""
"revaluation","210","935280","0.0-5.0-2.0-0.46","spark_pilot_norest","8335","8","14","Male","","","false","","","","","[649]","./assets/img/canyon/catch/6.jpg","[""spaceBar""]","value training","canyon","0","{""ArrowUp,ArrowLeft"":26,""ArrowUp,ArrowRight"":10,""ArrowDown,ArrowLeft"":5,""ArrowDown,ArrowRight"":17}","true","spaceBar","true","revaluation","1","92","","",""
"html-keyboard-response","211","935782","0.0-5.0-2.0-1.46","spark_pilot_norest","8335","8","14","Male","","","","","","","","null","<div style=""font-size:60px;"">+</div>","null","fixation","","","","","","","","","93","","",""
"revaluation","212","939784","0.0-5.0-2.0-0.47","spark_pilot_norest","8335","8","14","Male","","","false","","","","","[1042]","./assets/img/canyon/catch/0.jpg","[""spaceBar""]","value training","canyon","0","{""ArrowUp,ArrowLeft"":26,""ArrowUp,ArrowRight"":10,""ArrowDown,ArrowLeft"":5,""ArrowDown,ArrowRight"":17}","true","spaceBar","true","revaluation","1","94","","",""
"html-keyboard-response","213","940285","0.0-5.0-2.0-1.47","spark_pilot_norest","8335","8","14","Male","","","","","","","","null","<div style=""font-size:60px;"">+</div>","null","fixation","","","","","","","","","95","","",""
"revaluation","214","946290","0.0-5.0-2.0-0.48","spark_pilot_norest","8335","8","14","Male","","","false","","","","","[801,594]","./assets/img/canyon/memory/10.jpg","[""ArrowUp"",""ArrowLeft""]","value training","canyon","26","{""ArrowUp,ArrowLeft"":26,""ArrowUp,ArrowRight"":10,""ArrowDown,ArrowLeft"":5,""ArrowDown,ArrowRight"":17}","true","ArrowUp,ArrowLeft","false","revaluation","1","96","","",""
"html-keyboard-response","215","946792","0.0-5.0-2.0-1.48","spark_pilot_norest","8335","8","14","Male","","","","","","","","null","<div style=""font-size:60px;"">+</div>","null","fixation","","","","","","","","","97","","",""
"revaluation","216","952797","0.0-5.0-2.0-0.49","spark_pilot_norest","8335","8","14","Male","","","false","","","","","[1539.9999999998836,813]","./assets/img/canyon/memory/31.jpg","[""ArrowUp"",""ArrowLeft""]","value training","canyon","26","{""ArrowUp,ArrowLeft"":26,""ArrowUp,ArrowRight"":10,""ArrowDown,ArrowLeft"":5,""ArrowDown,ArrowRight"":17}","true","ArrowUp,ArrowLeft","false","revaluation","1","98","","",""
"html-keyboard-response","217","953298","0.0-5.0-2.0-1.49","spark_pilot_norest","8335","8","14","Male","","","","","","","","null","<div style=""font-size:60px;"">+</div>","null","fixation","","","","","","","","","99","","",""
"learning-instructions","218","967285","0.0-5.0-3.0-0.0","spark_pilot_norest","8335","8","14","Male","","","","","","","","1106","<p> Now, you will travel with a friend who will choose whether you go up or down first. </p>
            <p> On these turns, you will just see the animal that they found. You will still get to choose which chest to search for treasure.</p>","","instructions","","","","","","","","","","","",""
"revaluation","219","971290","0.0-5.0-4.0-0.0","spark_pilot_norest","8335","8","14","Male","","","false","","","","","[956]","./assets/img/canyon/animals/giraffe.jpg","[""ArrowLeft""]","revaluation","canyon","8","{""ArrowUp,ArrowLeft"":2,""ArrowUp,ArrowRight"":11,""ArrowDown,ArrowLeft"":8,""ArrowDown,ArrowRight"":27}","false","ArrowDown,ArrowLeft","","revaluation","1","0","","",""
"html-keyboard-response","220","971792","0.0-5.0-4.0-1.0","spark_pilot_norest","8335","8","14","Male","","","","","","","","null","<div style=""font-size:60px;"">+</div>","null","fixation","","","","","","","","","1","","",""
"revaluation","221","975795","0.0-5.0-4.0-0.1","spark_pilot_norest","8335","8","14","Male","","","false","","","","","[827]","./assets/img/canyon/animals/giraffe.jpg","[""ArrowRight""]","revaluation","canyon","27","{""ArrowUp,ArrowLeft"":2,""ArrowUp,ArrowRight"":11,""ArrowDown,ArrowLeft"":8,""ArrowDown,ArrowRight"":27}","true","ArrowDown,ArrowRight","","revaluation","1","2","","",""
"html-keyboard-response","222","976296","0.0-5.0-4.0-1.1","spark_pilot_norest","8335","8","14","Male","","","","","","","","null","<div style=""font-size:60px;"">+</div>","null","fixation","","","","","","","","","3","","",""
"revaluation","223","980300","0.0-5.0-4.0-0.2","spark_pilot_norest","8335","8","14","Male","","","false","","","","","[837]","./assets/img/canyon/animals/lion.jpg","[""ArrowLeft""]","revaluation","canyon","2","{""ArrowUp,ArrowLeft"":2,""ArrowUp,ArrowRight"":11,""ArrowDown,ArrowLeft"":8,""ArrowDown,ArrowRight"":27}","false","ArrowUp,ArrowLeft","","revaluation","1","4","","",""
"html-keyboard-response","224","980801","0.0-5.0-4.0-1.2","spark_pilot_norest","8335","8","14","Male","","","","","","","","null","<div style=""font-size:60px;"">+</div>","null","fixation","","","","","","","","","5","","",""
"revaluation","225","984805","0.0-5.0-4.0-0.3","spark_pilot_norest","8335","8","14","Male","","","false","","","","","[558]","./assets/img/canyon/animals/giraffe.jpg","[""ArrowRight""]","revaluation","canyon","27","{""ArrowUp,ArrowLeft"":2,""ArrowUp,ArrowRight"":11,""ArrowDown,ArrowLeft"":8,""ArrowDown,ArrowRight"":27}","true","ArrowDown,ArrowRight","","revaluation","1","6","","",""
"html-keyboard-response","226","985306","0.0-5.0-4.0-1.3","spark_pilot_norest","8335","8","14","Male","","","","","","","","null","<div style=""font-size:60px;"">+</div>","null","fixation","","","","","","","","","7","","",""
"revaluation","227","989309","0.0-5.0-4.0-0.4","spark_pilot_norest","8335","8","14","Male","","","false","","","","","[581]","./assets/img/canyon/animals/lion.jpg","[""ArrowRight""]","revaluation","canyon","11","{""ArrowUp,ArrowLeft"":2,""ArrowUp,ArrowRight"":11,""ArrowDown,ArrowLeft"":8,""ArrowDown,ArrowRight"":27}","true","ArrowUp,ArrowRight","","revaluation","1","8","","",""
"html-keyboard-response","228","989811","0.0-5.0-4.0-1.4","spark_pilot_norest","8335","8","14","Male","","","","","","","","null","<div style=""font-size:60px;"">+</div>","null","fixation","","","","","","","","","9","","",""
"revaluation","229","993814","0.0-5.0-4.0-0.5","spark_pilot_norest","8335","8","14","Male","","","false","","","","","[286]","./assets/img/canyon/animals/lion.jpg","[""ArrowRight""]","revaluation","canyon","11","{""ArrowUp,ArrowLeft"":2,""ArrowUp,ArrowRight"":11,""ArrowDown,ArrowLeft"":8,""ArrowDown,ArrowRight"":27}","true","ArrowUp,ArrowRight","","revaluation","1","10","","",""
"html-keyboard-response","230","994315","0.0-5.0-4.0-1.5","spark_pilot_norest","8335","8","14","Male","","","","","","","","null","<div style=""font-size:60px;"">+</div>","null","fixation","","","","","","","","","11","","",""
"revaluation","231","998319","0.0-5.0-4.0-0.6","spark_pilot_norest","8335","8","14","Male","","","false","","","","","[211]","./assets/img/canyon/animals/lion.jpg","[""ArrowRight""]","revaluation","canyon","11","{""ArrowUp,ArrowLeft"":2,""ArrowUp,ArrowRight"":11,""ArrowDown,ArrowLeft"":8,""ArrowDown,ArrowRight"":27}","true","ArrowUp,ArrowRight","","revaluation","1","12","","",""
"html-keyboard-response","232","998820","0.0-5.0-4.0-1.6","spark_pilot_norest","8335","8","14","Male","","","","","","","","null","<div style=""font-size:60px;"">+</div>","null","fixation","","","","","","","","","13","","",""
"revaluation","233","1002824","0.0-5.0-4.0-0.7","spark_pilot_norest","8335","8","14","Male","","","false","","","","","[104]","./assets/img/canyon/animals/giraffe.jpg","[""ArrowRight""]","revaluation","canyon","27","{""ArrowUp,ArrowLeft"":2,""ArrowUp,ArrowRight"":11,""ArrowDown,ArrowLeft"":8,""ArrowDown,ArrowRight"":27}","true","ArrowDown,ArrowRight","","revaluation","1","14","","",""
"html-keyboard-response","234","1003326","0.0-5.0-4.0-1.7","spark_pilot_norest","8335","8","14","Male","","","","","","","","null","<div style=""font-size:60px;"">+</div>","null","fixation","","","","","","","","","15","","",""
"revaluation","235","1007328","0.0-5.0-4.0-0.8","spark_pilot_norest","8335","8","14","Male","","","false","","","","","[88]","./assets/img/canyon/animals/lion.jpg","[""ArrowRight""]","revaluation","canyon","11","{""ArrowUp,ArrowLeft"":2,""ArrowUp,ArrowRight"":11,""ArrowDown,ArrowLeft"":8,""ArrowDown,ArrowRight"":27}","true","ArrowUp,ArrowRight","","revaluation","1","16","","",""
"html-keyboard-response","236","1007830","0.0-5.0-4.0-1.8","spark_pilot_norest","8335","8","14","Male","","","","","","","","null","<div style=""font-size:60px;"">+</div>","null","fixation","","","","","","","","","17","","",""
"revaluation","237","1011833","0.0-5.0-4.0-0.9","spark_pilot_norest","8335","8","14","Male","","","false","","","","","[85]","./assets/img/canyon/animals/lion.jpg","[""ArrowRight""]","revaluation","canyon","11","{""ArrowUp,ArrowLeft"":2,""ArrowUp,ArrowRight"":11,""ArrowDown,ArrowLeft"":8,""ArrowDown,ArrowRight"":27}","true","ArrowUp,ArrowRight","","revaluation","1","18","","",""
"html-keyboard-response","238","1012335","0.0-5.0-4.0-1.9","spark_pilot_norest","8335","8","14","Male","","","","","","","","null","<div style=""font-size:60px;"">+</div>","null","fixation","","","","","","","","","19","","",""
"revaluation","239","1016339","0.0-5.0-4.0-0.10","spark_pilot_norest","8335","8","14","Male","","","false","","","","","[217]","./assets/img/canyon/animals/giraffe.jpg","[""ArrowRight""]","revaluation","canyon","27","{""ArrowUp,ArrowLeft"":2,""ArrowUp,ArrowRight"":11,""ArrowDown,ArrowLeft"":8,""ArrowDown,ArrowRight"":27}","true","ArrowDown,ArrowRight","","revaluation","1","20","","",""
"html-keyboard-response","240","1016840","0.0-5.0-4.0-1.10","spark_pilot_norest","8335","8","14","Male","","","","","","","","null","<div style=""font-size:60px;"">+</div>","null","fixation","","","","","","","","","21","","",""
"revaluation","241","1020843","0.0-5.0-4.0-0.11","spark_pilot_norest","8335","8","14","Male","","","false","","","","","[193]","./assets/img/canyon/animals/giraffe.jpg","[""ArrowRight""]","revaluation","canyon","27","{""ArrowUp,ArrowLeft"":2,""ArrowUp,ArrowRight"":11,""ArrowDown,ArrowLeft"":8,""ArrowDown,ArrowRight"":27}","true","ArrowDown,ArrowRight","","revaluation","1","22","","",""
"html-keyboard-response","242","1021345","0.0-5.0-4.0-1.11","spark_pilot_norest","8335","8","14","Male","","","","","","","","null","<div style=""font-size:60px;"">+</div>","null","fixation","","","","","","","","","23","","",""
"revaluation","243","1025348","0.0-5.0-4.0-0.12","spark_pilot_norest","8335","8","14","Male","","","false","","","","","[74]","./assets/img/canyon/animals/lion.jpg","[""ArrowRight""]","revaluation","canyon","11","{""ArrowUp,ArrowLeft"":2,""ArrowUp,ArrowRight"":11,""ArrowDown,ArrowLeft"":8,""ArrowDown,ArrowRight"":27}","true","ArrowUp,ArrowRight","","revaluation","1","24","","",""
"html-keyboard-response","244","1025850","0.0-5.0-4.0-1.12","spark_pilot_norest","8335","8","14","Male","","","","","","","","null","<div style=""font-size:60px;"">+</div>","null","fixation","","","","","","","","","25","","",""
"revaluation","245","1029853","0.0-5.0-4.0-0.13","spark_pilot_norest","8335","8","14","Male","","","false","","","","","[183]","./assets/img/canyon/animals/lion.jpg","[""ArrowRight""]","revaluation","canyon","11","{""ArrowUp,ArrowLeft"":2,""ArrowUp,ArrowRight"":11,""ArrowDown,ArrowLeft"":8,""ArrowDown,ArrowRight"":27}","true","ArrowUp,ArrowRight","","revaluation","1","26","","",""
"html-keyboard-response","246","1030354","0.0-5.0-4.0-1.13","spark_pilot_norest","8335","8","14","Male","","","","","","","","null","<div style=""font-size:60px;"">+</div>","null","fixation","","","","","","","","","27","","",""
"revaluation","247","1034357","0.0-5.0-4.0-0.14","spark_pilot_norest","8335","8","14","Male","","","false","","","","","[761.9999999998836]","./assets/img/canyon/animals/giraffe.jpg","[""ArrowRight""]","revaluation","canyon","27","{""ArrowUp,ArrowLeft"":2,""ArrowUp,ArrowRight"":11,""ArrowDown,ArrowLeft"":8,""ArrowDown,ArrowRight"":27}","true","ArrowDown,ArrowRight","","revaluation","1","28","","",""
"html-keyboard-response","248","1034859","0.0-5.0-4.0-1.14","spark_pilot_norest","8335","8","14","Male","","","","","","","","null","<div style=""font-size:60px;"">+</div>","null","fixation","","","","","","","","","29","","",""
"revaluation","249","1038862","0.0-5.0-4.0-0.15","spark_pilot_norest","8335","8","14","Male","","","false","","","","","[1426]","./assets/img/canyon/animals/giraffe.jpg","[""ArrowRight""]","revaluation","canyon","27","{""ArrowUp,ArrowLeft"":2,""ArrowUp,ArrowRight"":11,""ArrowDown,ArrowLeft"":8,""ArrowDown,ArrowRight"":27}","true","ArrowDown,ArrowRight","","revaluation","1","30","","",""
"html-keyboard-response","250","1039363","0.0-5.0-4.0-1.15","spark_pilot_norest","8335","8","14","Male","","","","","","","","null","<div style=""font-size:60px;"">+</div>","null","fixation","","","","","","","","","31","","",""
"revaluation","251","1043368","0.0-5.0-4.0-0.16","spark_pilot_norest","8335","8","14","Male","","","false","","","","","[222]","./assets/img/canyon/animals/giraffe.jpg","[""ArrowRight""]","revaluation","canyon","27","{""ArrowUp,ArrowLeft"":2,""ArrowUp,ArrowRight"":11,""ArrowDown,ArrowLeft"":8,""ArrowDown,ArrowRight"":27}","true","ArrowDown,ArrowRight","","revaluation","1","32","","",""
"html-keyboard-response","252","1043870","0.0-5.0-4.0-1.16","spark_pilot_norest","8335","8","14","Male","","","","","","","","null","<div style=""font-size:60px;"">+</div>","null","fixation","","","","","","","","","33","","",""
"revaluation","253","1047874","0.0-5.0-4.0-0.17","spark_pilot_norest","8335","8","14","Male","","","false","","","","","[250]","./assets/img/canyon/animals/lion.jpg","[""ArrowRight""]","revaluation","canyon","11","{""ArrowUp,ArrowLeft"":2,""ArrowUp,ArrowRight"":11,""ArrowDown,ArrowLeft"":8,""ArrowDown,ArrowRight"":27}","true","ArrowUp,ArrowRight","","revaluation","1","34","","",""
"html-keyboard-response","254","1048376","0.0-5.0-4.0-1.17","spark_pilot_norest","8335","8","14","Male","","","","","","","","null","<div style=""font-size:60px;"">+</div>","null","fixation","","","","","","","","","35","","",""
"learning-instructions","255","1056478","0.0-5.0-5.0-0.0","spark_pilot_norest","8335","8","14","Male","","","","","","","","null","<p> You have almost finished this part of the game! </p>
            <p> We are going to ask you to make a few more choices. </p>","","instructions","","","","","","","","","","","",""
"learning-instructions","256","1072450","0.0-5.0-5.0-0.1","spark_pilot_norest","8335","8","14","Male","","","","","","","","null","<p> First, you need to decide whether to go up or down. When you see each picture, use the arrow keys to make your choice. </p>
            <p><b>You will not see which animal you found, but try to get to the one that will give you the most treasure.</b></p>","","instructions","","","","","","","","","","","",""
"html-keyboard-response","257","1073453","0.0-5.0-6.0-0.0","spark_pilot_norest","8335","8","14","Male","","","","","","","","null","<div style=""font-size:100px;color:red;"">Starting in...</div>","null","","","","","","","","","","","","",""
"html-keyboard-response","258","1074454","0.0-5.0-6.0-1.0","spark_pilot_norest","8335","8","14","Male","","","","","","","","null","<div style=""font-size:200px;color:red;"">3</div>","null","","","","","","","","","","","","",""
"html-keyboard-response","259","1075456","0.0-5.0-6.0-2.0","spark_pilot_norest","8335","8","14","Male","","","","","","","","null","<div style=""font-size:200px;color:red;"">2</div>","null","","","","","","","","","","","","",""
"html-keyboard-response","260","1076457","0.0-5.0-6.0-3.0","spark_pilot_norest","8335","8","14","Male","","","","","","","","null","<div style=""font-size:200px;color:red;"">1</div>","null","","","","","","","","","","","","",""
"revaluation","261","1076922","0.0-5.0-7.0-0.0","spark_pilot_norest","8335","8","14","Male","","","false","","","","","[464]","./assets/img/canyon/test/3.jpg","[""ArrowUp""]","first stage test","canyon","0","{""ArrowUp,ArrowLeft"":2,""ArrowUp,ArrowRight"":11,""ArrowDown,ArrowLeft"":8,""ArrowDown,ArrowRight"":27}","false","ArrowUp","false","revaluation","1","","","",""
"html-keyboard-response","262","1077424","0.0-5.0-7.0-1.0","spark_pilot_norest","8335","8","14","Male","","","","","","","","null","<div style=""font-size:60px;"">+</div>","null","fixation","","","","","","","","","","","",""
"revaluation","263","1078878","0.0-5.0-7.0-0.1","spark_pilot_norest","8335","8","14","Male","","","false","","","","","[1452]","./assets/img/canyon/test/2.jpg","[""ArrowUp""]","first stage test","canyon","0","{""ArrowUp,ArrowLeft"":2,""ArrowUp,ArrowRight"":11,""ArrowDown,ArrowLeft"":8,""ArrowDown,ArrowRight"":27}","false","ArrowUp","false","revaluation","1","","","",""
"html-keyboard-response","264","1079380","0.0-5.0-7.0-1.1","spark_pilot_norest","8335","8","14","Male","","","","","","","","null","<div style=""font-size:60px;"">+</div>","null","fixation","","","","","","","","","","","",""
"revaluation","265","1080837","0.0-5.0-7.0-0.2","spark_pilot_norest","8335","8","14","Male","","","false","","","","","[1455]","./assets/img/canyon/test/1.jpg","[""ArrowUp""]","first stage test","canyon","0","{""ArrowUp,ArrowLeft"":2,""ArrowUp,ArrowRight"":11,""ArrowDown,ArrowLeft"":8,""ArrowDown,ArrowRight"":27}","false","ArrowUp","false","revaluation","1","","","",""
"html-keyboard-response","266","1081337","0.0-5.0-7.0-1.2","spark_pilot_norest","8335","8","14","Male","","","","","","","","null","<div style=""font-size:60px;"">+</div>","null","fixation","","","","","","","","","","","",""
"revaluation","267","1081958","0.0-5.0-7.0-0.3","spark_pilot_norest","8335","8","14","Male","","","false","","","","","[619]","./assets/img/canyon/test/0.jpg","[""ArrowUp""]","first stage test","canyon","0","{""ArrowUp,ArrowLeft"":2,""ArrowUp,ArrowRight"":11,""ArrowDown,ArrowLeft"":8,""ArrowDown,ArrowRight"":27}","false","ArrowUp","false","revaluation","1","","","",""
"html-keyboard-response","268","1082460","0.0-5.0-7.0-1.3","spark_pilot_norest","8335","8","14","Male","","","","","","","","null","<div style=""font-size:60px;"">+</div>","null","fixation","","","","","","","","","","","",""
"learning-instructions","269","1095802","0.0-5.0-8.0-0.0","spark_pilot_norest","8335","8","14","Male","","","","","","","","null","<p> Now you will see the animals again and can search their chests for treasure. </p>
            <p> This time, you will not see how much treasure you earned, but you will earn more bonus money for making better choices. </p>","","instructions","","","","","","","","","","","",""
"html-keyboard-response","270","1096804","0.0-5.0-9.0-0.0","spark_pilot_norest","8335","8","14","Male","","","","","","","","null","<div style=""font-size:100px;color:red;"">Starting in...</div>","null","","","","","","","","","","","","",""
"html-keyboard-response","271","1097806","0.0-5.0-9.0-1.0","spark_pilot_norest","8335","8","14","Male","","","","","","","","null","<div style=""font-size:200px;color:red;"">3</div>","null","","","","","","","","","","","","",""
"html-keyboard-response","272","1098808","0.0-5.0-9.0-2.0","spark_pilot_norest","8335","8","14","Male","","","","","","","","null","<div style=""font-size:200px;color:red;"">2</div>","null","","","","","","","","","","","","",""
"html-keyboard-response","273","1099809","0.0-5.0-9.0-3.0","spark_pilot_norest","8335","8","14","Male","","","","","","","","null","<div style=""font-size:200px;color:red;"">1</div>","null","","","","","","","","","","","","",""
"revaluation","274","1100380","0.0-5.0-10.0-0.0","spark_pilot_norest","8335","8","14","Male","","","false","","","","","[570]","./assets/img/canyon/animals/lion.jpg","[""ArrowRight""]","second stage test","canyon","0","{""ArrowUp,ArrowLeft"":2,""ArrowUp,ArrowRight"":11,""ArrowDown,ArrowLeft"":8,""ArrowDown,ArrowRight"":27}","true","ArrowUp,ArrowRight","","revaluation","1","","","",""
"html-keyboard-response","275","1100882","0.0-5.0-10.0-1.0","spark_pilot_norest","8335","8","14","Male","","","","","","","","null","<div style=""font-size:60px;"">+</div>","null","fixation","","","","","","","","","","","",""
"revaluation","276","1101369","0.0-5.0-10.0-0.1","spark_pilot_norest","8335","8","14","Male","","","false","","","","","[482.99999999976717]","./assets/img/canyon/animals/lion.jpg","[""ArrowRight""]","second stage test","canyon","0","{""ArrowUp,ArrowLeft"":2,""ArrowUp,ArrowRight"":11,""ArrowDown,ArrowLeft"":8,""ArrowDown,ArrowRight"":27}","true","ArrowUp,ArrowRight","","revaluation","1","","","",""
"html-keyboard-response","277","1101870","0.0-5.0-10.0-1.1","spark_pilot_norest","8335","8","14","Male","","","","","","","","null","<div style=""font-size:60px;"">+</div>","null","fixation","","","","","","","","","","","",""
"revaluation","278","1102364","0.0-5.0-10.0-0.2","spark_pilot_norest","8335","8","14","Male","","","false","","","","","[492]","./assets/img/canyon/animals/lion.jpg","[""ArrowRight""]","second stage test","canyon","0","{""ArrowUp,ArrowLeft"":2,""ArrowUp,ArrowRight"":11,""ArrowDown,ArrowLeft"":8,""ArrowDown,ArrowRight"":27}","true","ArrowUp,ArrowRight","","revaluation","1","","","",""
"html-keyboard-response","279","1102866","0.0-5.0-10.0-1.2","spark_pilot_norest","8335","8","14","Male","","","","","","","","null","<div style=""font-size:60px;"">+</div>","null","fixation","","","","","","","","","","","",""
"revaluation","280","1103205","0.0-5.0-10.0-0.3","spark_pilot_norest","8335","8","14","Male","","","false","","","","","[337]","./assets/img/canyon/animals/lion.jpg","[""ArrowRight""]","second stage test","canyon","0","{""ArrowUp,ArrowLeft"":2,""ArrowUp,ArrowRight"":11,""ArrowDown,ArrowLeft"":8,""ArrowDown,ArrowRight"":27}","true","ArrowUp,ArrowRight","","revaluation","1","","","",""
"html-keyboard-response","281","1103707","0.0-5.0-10.0-1.3","spark_pilot_norest","8335","8","14","Male","","","","","","","","null","<div style=""font-size:60px;"">+</div>","null","fixation","","","","","","","","","","","",""
"revaluation","282","1104113","0.0-5.0-10.0-0.4","spark_pilot_norest","8335","8","14","Male","","","false","","","","","[405]","./assets/img/canyon/animals/giraffe.jpg","[""ArrowRight""]","second stage test","canyon","0","{""ArrowUp,ArrowLeft"":2,""ArrowUp,ArrowRight"":11,""ArrowDown,ArrowLeft"":8,""ArrowDown,ArrowRight"":27}","true","ArrowDown,ArrowRight","","revaluation","1","","","",""
"html-keyboard-response","283","1104615","0.0-5.0-10.0-1.4","spark_pilot_norest","8335","8","14","Male","","","","","","","","null","<div style=""font-size:60px;"">+</div>","null","fixation","","","","","","","","","","","",""
"revaluation","284","1104974","0.0-5.0-10.0-0.5","spark_pilot_norest","8335","8","14","Male","","","false","","","","","[356.99999999976717]","./assets/img/canyon/animals/giraffe.jpg","[""ArrowRight""]","second stage test","canyon","0","{""ArrowUp,ArrowLeft"":2,""ArrowUp,ArrowRight"":11,""ArrowDown,ArrowLeft"":8,""ArrowDown,ArrowRight"":27}","true","ArrowDown,ArrowRight","","revaluation","1","","","",""
"html-keyboard-response","285","1105475","0.0-5.0-10.0-1.5","spark_pilot_norest","8335","8","14","Male","","","","","","","","null","<div style=""font-size:60px;"">+</div>","null","fixation","","","","","","","","","","","",""
"revaluation","286","1105569","0.0-5.0-10.0-0.6","spark_pilot_norest","8335","8","14","Male","","","false","","","","","[92.00000000023283]","./assets/img/canyon/animals/giraffe.jpg","[""ArrowRight""]","second stage test","canyon","0","{""ArrowUp,ArrowLeft"":2,""ArrowUp,ArrowRight"":11,""ArrowDown,ArrowLeft"":8,""ArrowDown,ArrowRight"":27}","true","ArrowDown,ArrowRight","","revaluation","1","","","",""
"html-keyboard-response","287","1106070","0.0-5.0-10.0-1.6","spark_pilot_norest","8335","8","14","Male","","","","","","","","null","<div style=""font-size:60px;"">+</div>","null","fixation","","","","","","","","","","","",""
"revaluation","288","1106207","0.0-5.0-10.0-0.7","spark_pilot_norest","8335","8","14","Male","","","false","","","","","[135]","./assets/img/canyon/animals/giraffe.jpg","[""ArrowRight""]","second stage test","canyon","0","{""ArrowUp,ArrowLeft"":2,""ArrowUp,ArrowRight"":11,""ArrowDown,ArrowLeft"":8,""ArrowDown,ArrowRight"":27}","true","ArrowDown,ArrowRight","","revaluation","1","","","",""
"html-keyboard-response","289","1106708","0.0-5.0-10.0-1.7","spark_pilot_norest","8335","8","14","Male","","","","","","","","null","<div style=""font-size:60px;"">+</div>","null","fixation","","","","","","","","","","","",""
"learning-instructions","290","1110187","0.0-5.0-0.1-0.2","spark_pilot_norest","8335","8","14","Male","","","","","","","","784","<p> This time you are searching for treasure in the <b>ocean</b>.</p>","","instructions","","","","","","","","","","","",""
"learning-instructions","291","1128593","0.0-5.0-0.1-0.3","spark_pilot_norest","8335","8","14","Male","","","","","","","","1151","<p><b>New</b> animals with <b>new</b> treasure chests live here. You need to explore to discover where the animal with the best treasure chest is.</p>
                    <p> Like before, once you figure out which animal has the chest with the most treasure, you should try to get to that animal and select that chest! </p>","","instructions","","","","","","","","","","","",""
"learning-instructions","292","1146065","0.0-5.0-1.1-0.1","spark_pilot_norest","8335","8","14","Male","","","","","","","","2740","<p> Remember, when you see a picture of the place, use the up and down keys to <b>find an animal</b>.</p>
            <p> When you encounter an animal, you should use the left and right keys to <b>select a treasure chest</b>.</p>
            <p> Don't forget to look out for the robber! </p>","","instructions","","","","","","","","","","","",""
"revaluation","293","1150069","0.0-5.0-2.1-0.50","spark_pilot_norest","8335","8","14","Male","","","true","","","","","[]","./assets/img/ocean/memory/32.jpg","[]","value training","ocean","-5","{""ArrowUp,ArrowLeft"":23,""ArrowUp,ArrowRight"":10,""ArrowDown,ArrowLeft"":8,""ArrowDown,ArrowRight"":30}","false","","false","original","2","0","","",""
"html-keyboard-response","294","1150571","0.0-5.0-2.1-1.50","spark_pilot_norest","8335","8","14","Male","","","","","","","","null","<div style=""font-size:60px;"">+</div>","null","fixation","","","","","","","","","1","","",""
"revaluation","295","1156576","0.0-5.0-2.1-0.51","spark_pilot_norest","8335","8","14","Male","","","false","","","","","[1036,537]","./assets/img/ocean/memory/30.jpg","[""ArrowDown"",""ArrowRight""]","value training","ocean","30","{""ArrowUp,ArrowLeft"":23,""ArrowUp,ArrowRight"":10,""ArrowDown,ArrowLeft"":8,""ArrowDown,ArrowRight"":30}","true","ArrowDown,ArrowRight","false","original","2","2","","",""
"html-keyboard-response","296","1157078","0.0-5.0-2.1-1.51","spark_pilot_norest","8335","8","14","Male","","","","","","","","null","<div style=""font-size:60px;"">+</div>","null","fixation","","","","","","","","","3","","",""
"revaluation","297","1163082","0.0-5.0-2.1-0.52","spark_pilot_norest","8335","8","14","Male","","","false","","","","","[347,172]","./assets/img/ocean/memory/10.jpg","[""ArrowDown"",""ArrowLeft""]","value training","ocean","8","{""ArrowUp,ArrowLeft"":23,""ArrowUp,ArrowRight"":10,""ArrowDown,ArrowLeft"":8,""ArrowDown,ArrowRight"":30}","false","ArrowDown,ArrowLeft","false","original","2","4","","",""
"html-keyboard-response","298","1163584","0.0-5.0-2.1-1.52","spark_pilot_norest","8335","8","14","Male","","","","","","","","null","<div style=""font-size:60px;"">+</div>","null","fixation","","","","","","","","","5","","",""
"revaluation","299","1169588","0.0-5.0-2.1-0.53","spark_pilot_norest","8335","8","14","Male","","","false","","","","","[440,579]","./assets/img/ocean/memory/36.jpg","[""ArrowUp"",""ArrowRight""]","value training","ocean","10","{""ArrowUp,ArrowLeft"":23,""ArrowUp,ArrowRight"":10,""ArrowDown,ArrowLeft"":8,""ArrowDown,ArrowRight"":30}","false","ArrowUp,ArrowRight","false","original","2","6","","",""
"html-keyboard-response","300","1170090","0.0-5.0-2.1-1.53","spark_pilot_norest","8335","8","14","Male","","","","","","","","null","<div style=""font-size:60px;"">+</div>","null","fixation","","","","","","","","","7","","",""
"revaluation","301","1176095","0.0-5.0-2.1-0.54","spark_pilot_norest","8335","8","14","Male","","","false","","","","","[655,608]","./assets/img/ocean/memory/30.jpg","[""ArrowUp"",""ArrowLeft""]","value training","ocean","23","{""ArrowUp,ArrowLeft"":23,""ArrowUp,ArrowRight"":10,""ArrowDown,ArrowLeft"":8,""ArrowDown,ArrowRight"":30}","false","ArrowUp,ArrowLeft","false","original","2","8","","",""
"html-keyboard-response","302","1176596","0.0-5.0-2.1-1.54","spark_pilot_norest","8335","8","14","Male","","","","","","","","null","<div style=""font-size:60px;"">+</div>","null","fixation","","","","","","","","","9","","",""
"revaluation","303","1182600","0.0-5.0-2.1-0.55","spark_pilot_norest","8335","8","14","Male","","","false","","","","","[230,236]","./assets/img/ocean/memory/38.jpg","[""ArrowDown"",""ArrowRight""]","value training","ocean","30","{""ArrowUp,ArrowLeft"":23,""ArrowUp,ArrowRight"":10,""ArrowDown,ArrowLeft"":8,""ArrowDown,ArrowRight"":30}","true","ArrowDown,ArrowRight","false","original","2","10","","",""
"html-keyboard-response","304","1183102","0.0-5.0-2.1-1.55","spark_pilot_norest","8335","8","14","Male","","","","","","","","null","<div style=""font-size:60px;"">+</div>","null","fixation","","","","","","","","","11","","",""
"revaluation","305","1187107","0.0-5.0-2.1-0.56","spark_pilot_norest","8335","8","14","Male","","","false","","","","","[796]","./assets/img/ocean/catch/2.jpg","[""spaceBar""]","value training","ocean","0","{""ArrowUp,ArrowLeft"":23,""ArrowUp,ArrowRight"":10,""ArrowDown,ArrowLeft"":8,""ArrowDown,ArrowRight"":30}","true","spaceBar","true","original","2","12","","",""
"html-keyboard-response","306","1187608","0.0-5.0-2.1-1.56","spark_pilot_norest","8335","8","14","Male","","","","","","","","null","<div style=""font-size:60px;"">+</div>","null","fixation","","","","","","","","","13","","",""
"revaluation","307","1193613","0.0-5.0-2.1-0.57","spark_pilot_norest","8335","8","14","Male","","","false","","","","","[1058,94.00000000023283]","./assets/img/ocean/memory/41.jpg","[""ArrowDown"",""ArrowRight""]","value training","ocean","30","{""ArrowUp,ArrowLeft"":23,""ArrowUp,ArrowRight"":10,""ArrowDown,ArrowLeft"":8,""ArrowDown,ArrowRight"":30}","true","ArrowDown,ArrowRight","false","original","2","14","","",""
"html-keyboard-response","308","1194115","0.0-5.0-2.1-1.57","spark_pilot_norest","8335","8","14","Male","","","","","","","","null","<div style=""font-size:60px;"">+</div>","null","fixation","","","","","","","","","15","","",""
"revaluation","309","1200120","0.0-5.0-2.1-0.58","spark_pilot_norest","8335","8","14","Male","","","false","","","","","[739,357.00000000023283]","./assets/img/ocean/memory/21.jpg","[""ArrowDown"",""ArrowRight""]","value training","ocean","30","{""ArrowUp,ArrowLeft"":23,""ArrowUp,ArrowRight"":10,""ArrowDown,ArrowLeft"":8,""ArrowDown,ArrowRight"":30}","true","ArrowDown,ArrowRight","false","original","2","16","","",""
"html-keyboard-response","310","1200622","0.0-5.0-2.1-1.58","spark_pilot_norest","8335","8","14","Male","","","","","","","","null","<div style=""font-size:60px;"">+</div>","null","fixation","","","","","","","","","17","","",""
"revaluation","311","1206626","0.0-5.0-2.1-0.59","spark_pilot_norest","8335","8","14","Male","","","false","","","","","[770,22]","./assets/img/ocean/memory/10.jpg","[""ArrowDown"",""ArrowRight""]","value training","ocean","30","{""ArrowUp,ArrowLeft"":23,""ArrowUp,ArrowRight"":10,""ArrowDown,ArrowLeft"":8,""ArrowDown,ArrowRight"":30}","true","ArrowDown,ArrowRight","false","original","2","18","","",""
"html-keyboard-response","312","1207127","0.0-5.0-2.1-1.59","spark_pilot_norest","8335","8","14","Male","","","","","","","","null","<div style=""font-size:60px;"">+</div>","null","fixation","","","","","","","","","19","","",""
"revaluation","313","1213131","0.0-5.0-2.1-0.60","spark_pilot_norest","8335","8","14","Male","","","false","","","","","[725,188]","./assets/img/ocean/memory/37.jpg","[""ArrowDown"",""ArrowRight""]","value training","ocean","30","{""ArrowUp,ArrowLeft"":23,""ArrowUp,ArrowRight"":10,""ArrowDown,ArrowLeft"":8,""ArrowDown,ArrowRight"":30}","true","ArrowDown,ArrowRight","false","original","2","20","","",""
"html-keyboard-response","314","1213632","0.0-5.0-2.1-1.60","spark_pilot_norest","8335","8","14","Male","","","","","","","","null","<div style=""font-size:60px;"">+</div>","null","fixation","","","","","","","","","21","","",""
