"trial_type","trial_index","time_elapsed","internal_node_id","task_version","subject_id","assigned_condition","age","gender","browser_interaction","success","timeout","failed_images","failed_audio","failed_video","rt","stimulus","response","task_part","environment","score","rewardMap","correct","fullState","isCatch","condition","order","trial_num","key_press","ground_truth","bonus"
"pavlovia","0","1727","0.0-0.0","spark_pilot_norest","8678","2","18","Female","[{""event"":""blur"",""trial"":1,""time"":141056},{""event"":""focus"",""trial"":1,""time"":176660},{""event"":""blur"",""trial"":1,""time"":177794},{""event"":""focus"",""trial"":1,""time"":184116},{""event"":""blur"",""trial"":1,""time"":185894},{""event"":""focus"",""trial"":1,""time"":202175},{""event"":""blur"",""trial"":1,""time"":203905},{""event"":""focus"",""trial"":1,""time"":210527},{""event"":""blur"",""trial"":1,""time"":211689},{""event"":""focus"",""trial"":1,""time"":216887},{""event"":""fullscreenenter"",""trial"":2,""time"":249015},{""event"":""blur"",""trial"":472,""time"":1828591},{""event"":""focus"",""trial"":472,""time"":1829388}]","","","","","","","","","","","","","","","","","","","","",""
"preload","1","246326","0.0-1.0","spark_pilot_norest","8678","2","18","Female","[{""event"":""blur"",""trial"":1,""time"":141056},{""event"":""focus"",""trial"":1,""time"":176660},{""event"":""blur"",""trial"":1,""time"":177794},{""event"":""focus"",""trial"":1,""time"":184116},{""event"":""blur"",""trial"":1,""time"":185894},{""event"":""focus"",""trial"":1,""time"":202175},{""event"":""blur"",""trial"":1,""time"":203905},{""event"":""focus"",""trial"":1,""time"":210527},{""event"":""blur"",""trial"":1,""time"":211689},{""event"":""focus"",""trial"":1,""time"":216887},{""event"":""fullscreenenter"",""trial"":2,""time"":249015},{""event"":""blur"",""trial"":472,""time"":1828591},{""event"":""focus"",""trial"":472,""time"":1829388}]","true","false","[]","[]","[]","","","","","","","","","","","","","","","",""
"fullscreen","2","249990","0.0-2.0","spark_pilot_norest","8678","2","18","Female","","true","","","","","","","","","","","","","","","","","","","",""
"audio-button-response","3","254140","0.0-3.0-0.0-0.0","spark_pilot_norest","8678","2","18","Female","","","","","","","4069","./assets/audio/audiotest/turtle.mp3","4","audio_test","","","","","","","","","","","",""
"audio-button-response","4","256377","0.0-3.0-0.1-0.1","spark_pilot_norest","8678","2","18","Female","","","","","","","1227","./assets/audio/audiotest/turtle.mp3","2","audio_test","","","","","","","","","","","",""
"learning-instructions","5","265095","0.0-3.0-1.0-0.0","spark_pilot_norest","8678","2","18","Female","","","","","","","1734.300000011921","<p> Welcome! Please remember to stay in fullscreen mode and don't click away from the experiment. </p>","","instructions","","","","","","","","","","","",""
"learning-instructions","6","274542","0.0-3.0-1.0-0.1","spark_pilot_norest","8678","2","18","Female","","","","","","","1035.0999999642372","<p> Today you will be playing a game to earn treasure. </p>
            <p> At the end of the experiment, you will earn a bonus based on how much treasure you find. </p>
            <img src='./assets/img/instructions/treasure.jpg' class='instructions-image'>","","instructions","","","","","","","","","","","",""
"learning-instructions","7","291825","0.0-3.0-1.0-0.2","spark_pilot_norest","8678","2","18","Female","","","","","","","9027.600000023842","<p> Animals have hidden treasure in treasure chests. </p>
            <p> You need to first find an animal and then choose which of their treasure chests to search. </p>
            <img src='./assets/img/space/animals/cat.jpg' class='instructions-image'>","","instructions","","","","","","","","","","","",""
"learning-instructions","8","305867","0.0-3.0-1.0-0.3","spark_pilot_norest","8678","2","18","Female","","","","","","","892.5","<p> In each round, you will search for treasure in a different place. In the real game, there will be two rounds. </p>
            <p> You will begin with a separate, practice round where you will search for treasure in outer space. </p>
            <img src='./assets/img/space/0.jpg' class='instructions-image'>","","instructions","","","","","","","","","","","",""
"learning-instructions","9","317866","0.0-3.0-1.0-0.4","spark_pilot_norest","8678","2","18","Female","","","","","","","588","<p> On every turn, you will see a picture of the place that you are in, but the specific image may be different each time. </p>
            <p> For example, both of these images mean you are in outer space. </p>
            <img src='./assets/img/instructions/outerspace.jpg' class='instructions-image'>","","instructions","","","","","","","","","","","",""
"learning-instructions","10","326467","0.0-3.0-1.0-0.5","spark_pilot_norest","8678","2","18","Female","","","","","","","777.8999999761581","<p> You need to decide which direction to travel in. </p>
            <p> You can choose between going <b>up or down</b> by using the arrow keys. </p>
            <img src='./assets/img/instructions/updown.jpg' class='instructions-image'>","","instructions","","","","","","","","","","","",""
"learning-instructions","11","336217","0.0-3.0-1.0-0.6","spark_pilot_norest","8678","2","18","Female","","","","","","","942.8000000119209","<p> You will have <b>2 seconds</b> to make your choice. </p>
            <p> If you do not make a choice within 2 seconds, you will not find an animal or earn treasure. </p>
            <img src='./assets/img/instructions/2seconds.jpg' class='instructions-image'>","","instructions","","","","","","","","","","","",""
"learning-instructions","12","344460","0.0-3.0-1.0-0.7","spark_pilot_norest","8678","2","18","Female","","","","","","","1207.800000011921","<p> Let’s try practicing that now! </p>
            <p> When you see a picture of the place you are in, press the <b>up</b> key to travel up. </p>
            <img src='./assets/img/instructions/pressUp.jpg' class='instructions-image'>","","instructions","","","","","","","","","","","",""
"revaluation","13","348489","0.0-3.0-2.0-0.0","spark_pilot_norest","8678","2","18","Female","","","false","","","","[567.6999999880791]","./assets/img/space/0.jpg","[""ArrowUp""]","first stage practice","space","0","null","null","ArrowUp","false","","","","","",""
"html-keyboard-response","14","349004","0.0-3.0-2.0-1.0","spark_pilot_norest","8678","2","18","Female","","","","","","","null","<div style=""font-size:60px;"">+</div>","null","fixation","","","","","","","","","","","",""
"revaluation","15","353024","0.0-3.0-2.0-0.1","spark_pilot_norest","8678","2","18","Female","","","false","","","","[611.1000000238419]","./assets/img/space/1.jpg","[""ArrowUp""]","first stage practice","space","0","null","null","ArrowUp","false","","","","","",""
"html-keyboard-response","16","353532","0.0-3.0-2.0-1.1","spark_pilot_norest","8678","2","18","Female","","","","","","","null","<div style=""font-size:60px;"">+</div>","null","fixation","","","","","","","","","","","",""
"revaluation","17","357553","0.0-3.0-2.0-0.2","spark_pilot_norest","8678","2","18","Female","","","false","","","","[349.69999998807907]","./assets/img/space/2.jpg","[""ArrowUp""]","first stage practice","space","0","null","null","ArrowUp","false","","","","","",""
"html-keyboard-response","18","358059","0.0-3.0-2.0-1.2","spark_pilot_norest","8678","2","18","Female","","","","","","","null","<div style=""font-size:60px;"">+</div>","null","fixation","","","","","","","","","","","",""
"learning-instructions","19","363367","0.0-3.0-3.0-0.0","spark_pilot_norest","8678","2","18","Female","","","","","","","605.3000000119209","<p> Great job! Now try pressing the <b>down</b> key to travel down. </p>
            <img src='./assets/img/instructions/pressDown.jpg' class='instructions-image'>","","instructions","","","","","","","","","","","",""
"revaluation","20","367384","0.0-3.0-4.0-0.0","spark_pilot_norest","8678","2","18","Female","","","false","","","","[486.0999999642372]","./assets/img/space/3.jpg","[""ArrowDown""]","first stage practice","space","0","null","null","ArrowDown","false","","","","","",""
"html-keyboard-response","21","367888","0.0-3.0-4.0-1.0","spark_pilot_norest","8678","2","18","Female","","","","","","","null","<div style=""font-size:60px;"">+</div>","null","fixation","","","","","","","","","","","",""
"revaluation","22","371908","0.0-3.0-4.0-0.1","spark_pilot_norest","8678","2","18","Female","","","false","","","","[591.6000000238419]","./assets/img/space/4.jpg","[""ArrowDown""]","first stage practice","space","0","null","null","ArrowDown","false","","","","","",""
"html-keyboard-response","23","372417","0.0-3.0-4.0-1.1","spark_pilot_norest","8678","2","18","Female","","","","","","","null","<div style=""font-size:60px;"">+</div>","null","fixation","","","","","","","","","","","",""
"revaluation","24","376436","0.0-3.0-4.0-0.2","spark_pilot_norest","8678","2","18","Female","","","false","","","","[308.60000002384186]","./assets/img/space/5.jpg","[""ArrowDown""]","first stage practice","space","0","null","null","ArrowDown","false","","","","","",""
"html-keyboard-response","25","376947","0.0-3.0-4.0-1.2","spark_pilot_norest","8678","2","18","Female","","","","","","","null","<div style=""font-size:60px;"">+</div>","null","fixation","","","","","","","","","","","",""
"learning-instructions","26","387332","0.0-3.0-5.0-0.0","spark_pilot_norest","8678","2","18","Female","","","","","","","527.5","<p> The animals don’t move, so the animal in the upper part of a place will stay in the upper part of a place, and the animal in the lower part of a place will stay in the lower part of a place. </p>","","instructions","","","","","","","","","","","",""
"learning-instructions","27","396963","0.0-3.0-5.0-0.1","spark_pilot_norest","8678","2","18","Female","","","","","","","504.19999998807907","<p> Each animal has two treasure chests for you to choose from. </p>
            <p> The amount of treasure in each chest can range from <b> 0 to 40 pieces.</b></p>","","instructions","","","","","","","","","","","",""
"learning-instructions","28","408748","0.0-3.0-5.0-0.2","spark_pilot_norest","8678","2","18","Female","","","","","","","603.3000000119209","<p> You should decide which chest to search for treasure by using the <b>left</b> and <b>right</b> arrow keys. </p>
            <p><b> Pay attention to which animal is on the screen, as the animals have different treasure chests. </b></p>
            <img src='./assets/img/instructions/leftright.jpg' class='instructions-image'>","","instructions","","","","","","","","","","","",""
"learning-instructions","29","416129","0.0-3.0-5.0-0.3","spark_pilot_norest","8678","2","18","Female","","","","","","","1019","<p> Let’s try practicing that now. </p>
            <p> When you see an animal, choose which chest to search for treasure. </p>
            <img src='./assets/img/instructions/chooseChest.jpg' class='instructions-image'>","","instructions","","","","","","","","","","","",""
"revaluation","30","420145","0.0-3.0-6.0-0.0","spark_pilot_norest","8678","2","18","Female","","","false","","","","[631.8000000119209]","./assets/img/space/animals/rabbit.jpg","[""ArrowLeft""]","second stage practice","space","15","{""ArrowUp,ArrowLeft"":3,""ArrowUp,ArrowRight"":36,""ArrowDown,ArrowLeft"":15,""ArrowDown,ArrowRight"":23}","false","ArrowDown,ArrowLeft","","","","","","",""
"html-keyboard-response","31","420658","0.0-3.0-6.0-1.0","spark_pilot_norest","8678","2","18","Female","","","","","","","null","<div style=""font-size:60px;"">+</div>","null","fixation","","","","","","","","","","","",""
"revaluation","32","424671","0.0-3.0-6.0-0.1","spark_pilot_norest","8678","2","18","Female","","","false","","","","[372.80000001192093]","./assets/img/space/animals/cat.jpg","[""ArrowRight""]","second stage practice","space","36","{""ArrowUp,ArrowLeft"":3,""ArrowUp,ArrowRight"":36,""ArrowDown,ArrowLeft"":15,""ArrowDown,ArrowRight"":23}","true","ArrowUp,ArrowRight","","","","","","",""
"html-keyboard-response","33","425176","0.0-3.0-6.0-1.1","spark_pilot_norest","8678","2","18","Female","","","","","","","null","<div style=""font-size:60px;"">+</div>","null","fixation","","","","","","","","","","","",""
"revaluation","34","429192","0.0-3.0-6.0-0.2","spark_pilot_norest","8678","2","18","Female","","","false","","","","[368.5999999642372]","./assets/img/space/animals/rabbit.jpg","[""ArrowRight""]","second stage practice","space","23","{""ArrowUp,ArrowLeft"":3,""ArrowUp,ArrowRight"":36,""ArrowDown,ArrowLeft"":15,""ArrowDown,ArrowRight"":23}","true","ArrowDown,ArrowRight","","","","","","",""
"html-keyboard-response","35","429699","0.0-3.0-6.0-1.2","spark_pilot_norest","8678","2","18","Female","","","","","","","null","<div style=""font-size:60px;"">+</div>","null","fixation","","","","","","","","","","","",""
"revaluation","36","433720","0.0-3.0-6.0-0.3","spark_pilot_norest","8678","2","18","Female","","","false","","","","[390.19999998807907]","./assets/img/space/animals/cat.jpg","[""ArrowRight""]","second stage practice","space","36","{""ArrowUp,ArrowLeft"":3,""ArrowUp,ArrowRight"":36,""ArrowDown,ArrowLeft"":15,""ArrowDown,ArrowRight"":23}","true","ArrowUp,ArrowRight","","","","","","",""
"html-keyboard-response","37","434231","0.0-3.0-6.0-1.3","spark_pilot_norest","8678","2","18","Female","","","","","","","null","<div style=""font-size:60px;"">+</div>","null","fixation","","","","","","","","","","","",""
"learning-instructions","38","452272","0.0-3.0-7.0-0.0","spark_pilot_norest","8678","2","18","Female","","","","","","","1225.699999988079","<p> Great job. Now let’s try putting it together. </p>
            <p> On each turn, you will first see a picture to remind you of the place you are in, and you need to choose whether to go up or down. </p>
            <p> Then you will see an animal and choose which of its chests to search for treasure. </p>","","instructions","","","","","","","","","","","",""
"learning-instructions","39","461328","0.0-3.0-7.0-0.1","spark_pilot_norest","8678","2","18","Female","","","","","","","799","<p> When you choose whether to go up or down, try to go to the animal with the chest with the most treasure. </p>
            <p> Try practicing that now! </p>","","instructions","","","","","","","","","","","",""
"revaluation","40","467355","0.0-3.0-8.0-0.0","spark_pilot_norest","8678","2","18","Female","","","false","","","","[387.30000001192093,575.4000000357628]","./assets/img/space/6.jpg","[""ArrowUp"",""ArrowLeft""]","full practice","space","3","{""ArrowUp,ArrowLeft"":3,""ArrowUp,ArrowRight"":36,""ArrowDown,ArrowLeft"":15,""ArrowDown,ArrowRight"":23}","false","ArrowUp,ArrowLeft","false","","","","","",""
"html-keyboard-response","41","467866","0.0-3.0-8.0-1.0","spark_pilot_norest","8678","2","18","Female","","","","","","","null","<div style=""font-size:60px;"">+</div>","null","fixation","","","","","","","","","","","",""
"revaluation","42","473896","0.0-3.0-8.0-0.1","spark_pilot_norest","8678","2","18","Female","","","false","","","","[340.39999997615814,493]","./assets/img/space/7.jpg","[""ArrowUp"",""ArrowRight""]","full practice","space","36","{""ArrowUp,ArrowLeft"":3,""ArrowUp,ArrowRight"":36,""ArrowDown,ArrowLeft"":15,""ArrowDown,ArrowRight"":23}","true","ArrowUp,ArrowRight","false","","","","","",""
"html-keyboard-response","43","474407","0.0-3.0-8.0-1.1","spark_pilot_norest","8678","2","18","Female","","","","","","","null","<div style=""font-size:60px;"">+</div>","null","fixation","","","","","","","","","","","",""
"revaluation","44","480431","0.0-3.0-8.0-0.2","spark_pilot_norest","8678","2","18","Female","","","false","","","","[323.89999997615814,475.30000001192093]","./assets/img/space/8.jpg","[""ArrowUp"",""ArrowRight""]","full practice","space","36","{""ArrowUp,ArrowLeft"":3,""ArrowUp,ArrowRight"":36,""ArrowDown,ArrowLeft"":15,""ArrowDown,ArrowRight"":23}","true","ArrowUp,ArrowRight","false","","","","","",""
"html-keyboard-response","45","480934","0.0-3.0-8.0-1.2","spark_pilot_norest","8678","2","18","Female","","","","","","","null","<div style=""font-size:60px;"">+</div>","null","fixation","","","","","","","","","","","",""
"revaluation","46","486961","0.0-3.0-8.0-0.3","spark_pilot_norest","8678","2","18","Female","","","false","","","","[335.80000001192093,344.19999998807907]","./assets/img/space/9.jpg","[""ArrowDown"",""ArrowRight""]","full practice","space","23","{""ArrowUp,ArrowLeft"":3,""ArrowUp,ArrowRight"":36,""ArrowDown,ArrowLeft"":15,""ArrowDown,ArrowRight"":23}","false","ArrowDown,ArrowRight","false","","","","","",""
"html-keyboard-response","47","487465","0.0-3.0-8.0-1.3","spark_pilot_norest","8678","2","18","Female","","","","","","","null","<div style=""font-size:60px;"">+</div>","null","fixation","","","","","","","","","","","",""
"revaluation","48","493496","0.0-3.0-8.0-0.4","spark_pilot_norest","8678","2","18","Female","","","false","","","","[417.80000001192093,441.5]","./assets/img/space/10.jpg","[""ArrowDown"",""ArrowLeft""]","full practice","space","15","{""ArrowUp,ArrowLeft"":3,""ArrowUp,ArrowRight"":36,""ArrowDown,ArrowLeft"":15,""ArrowDown,ArrowRight"":23}","false","ArrowDown,ArrowLeft","false","","","","","",""
"html-keyboard-response","49","494007","0.0-3.0-8.0-1.4","spark_pilot_norest","8678","2","18","Female","","","","","","","null","<div style=""font-size:60px;"">+</div>","null","fixation","","","","","","","","","","","",""
"learning-instructions","50","506049","0.0-3.0-9.0-0.0","spark_pilot_norest","8678","2","18","Female","","","","","","","1692.199999988079","<p> One last thing: sometimes, you will see a robber. The robber can be anywhere in the picture. </p>
            <p> If you do not stop them, you will lose treasure. </p>
            <img src='./assets/img/instructions/robber.jpg' class='instructions-image'>","","instructions","","","","","","","","","","","",""
"learning-instructions","51","514482","0.0-3.0-9.0-0.1","spark_pilot_norest","8678","2","18","Female","","","","","","","1270","<p> If you see the robber, you should <b>press the space bar</b> rather than using the arrow keys. </p>
            <p> Try practicing that now! </p>","","instructions","","","","","","","","","","","",""
"revaluation","52","518494","0.0-3.0-10.0-0.0","spark_pilot_norest","8678","2","18","Female","","","false","","","","[531.1000000238419]","./assets/img/space/catch/0.jpg","[""ArrowUp""]","catch practice","space","-10","{""ArrowUp,ArrowLeft"":3,""ArrowUp,ArrowRight"":36,""ArrowDown,ArrowLeft"":15,""ArrowDown,ArrowRight"":23}","false","ArrowUp","true","","","","","",""
"html-keyboard-response","53","519001","0.0-3.0-10.0-1.0","spark_pilot_norest","8678","2","18","Female","","","","","","","null","<div style=""font-size:60px;"">+</div>","null","fixation","","","","","","","","","","","",""
"revaluation","54","523021","0.0-3.0-10.0-0.1","spark_pilot_norest","8678","2","18","Female","","","false","","","","[446.5]","./assets/img/space/catch/1.jpg","[""spaceBar""]","catch practice","space","0","{""ArrowUp,ArrowLeft"":3,""ArrowUp,ArrowRight"":36,""ArrowDown,ArrowLeft"":15,""ArrowDown,ArrowRight"":23}","true","spaceBar","true","","","","","",""
"html-keyboard-response","55","523525","0.0-3.0-10.0-1.1","spark_pilot_norest","8678","2","18","Female","","","","","","","null","<div style=""font-size:60px;"">+</div>","null","fixation","","","","","","","","","","","",""
"revaluation","56","527545","0.0-3.0-10.0-0.2","spark_pilot_norest","8678","2","18","Female","","","false","","","","[553.1000000238419]","./assets/img/space/catch/2.jpg","[""spaceBar""]","catch practice","space","0","{""ArrowUp,ArrowLeft"":3,""ArrowUp,ArrowRight"":36,""ArrowDown,ArrowLeft"":15,""ArrowDown,ArrowRight"":23}","true","spaceBar","true","","","","","",""
"html-keyboard-response","57","528056","0.0-3.0-10.0-1.2","spark_pilot_norest","8678","2","18","Female","","","","","","","null","<div style=""font-size:60px;"">+</div>","null","fixation","","","","","","","","","","","",""
"learning-instructions","58","534537","0.0-3.0-11.0-0.0-0.0","spark_pilot_norest","8678","2","18","Female","","","","","","","1217.5999999642372","<p> Now, you will practice a shortened version of the game to get a sense of how it all fits together. </p>","","instructions","","","","","","","","","","","",""
"learning-instructions","59","538544","0.0-3.0-11.0-0.0-0.1","spark_pilot_norest","8678","2","18","Female","","","","","","","819.1999999880791","<p>This time you are searching for treasure in outer space.</p>","","instructions","","","","","","","","","","","",""
"learning-instructions","60","553977","0.0-3.0-11.0-1.0-0.0","spark_pilot_norest","8678","2","18","Female","","","","","","","666.8000000119209","<p> Remember, when you see a picture of the place, use the up and down keys to <b>find an animal</b>.</p>
            <p> When you encounter an animal, you should use the left and right keys to <b>select a treasure chest</b>.</p>
            <p> Don't forget to look out for the robber! </p>","","instructions","","","","","","","","","","","",""
"revaluation","61","560006","0.0-3.0-11.0-2.0-0.0","spark_pilot_norest","8678","2","18","Female","","","false","","","","[1436.800000011921,597.8000000119209]","./assets/img/space/11.jpg","[""ArrowUp"",""ArrowRight""]","practice block","space","36","{""ArrowUp,ArrowLeft"":3,""ArrowUp,ArrowRight"":36,""ArrowDown,ArrowLeft"":15,""ArrowDown,ArrowRight"":23}","true","ArrowUp,ArrowRight","false","","","","","",""
"html-keyboard-response","62","560518","0.0-3.0-11.0-2.0-1.0","spark_pilot_norest","8678","2","18","Female","","","","","","","null","<div style=""font-size:60px;"">+</div>","null","fixation","","","","","","","","","","","",""
"revaluation","63","566545","0.0-3.0-11.0-2.0-0.1","spark_pilot_norest","8678","2","18","Female","","","false","","","","[760.6999999880791,321.60000002384186]","./assets/img/space/12.jpg","[""ArrowUp"",""ArrowRight""]","practice block","space","36","{""ArrowUp,ArrowLeft"":3,""ArrowUp,ArrowRight"":36,""ArrowDown,ArrowLeft"":15,""ArrowDown,ArrowRight"":23}","true","ArrowUp,ArrowRight","false","","","","","",""
"html-keyboard-response","64","567056","0.0-3.0-11.0-2.0-1.1","spark_pilot_norest","8678","2","18","Female","","","","","","","null","<div style=""font-size:60px;"">+</div>","null","fixation","","","","","","","","","","","",""
"revaluation","65","573089","0.0-3.0-11.0-2.0-0.2","spark_pilot_norest","8678","2","18","Female","","","false","","","","[684.6999999880791,375.5]","./assets/img/space/13.jpg","[""ArrowUp"",""ArrowRight""]","practice block","space","36","{""ArrowUp,ArrowLeft"":3,""ArrowUp,ArrowRight"":36,""ArrowDown,ArrowLeft"":15,""ArrowDown,ArrowRight"":23}","true","ArrowUp,ArrowRight","false","","","","","",""
"html-keyboard-response","66","573596","0.0-3.0-11.0-2.0-1.2","spark_pilot_norest","8678","2","18","Female","","","","","","","null","<div style=""font-size:60px;"">+</div>","null","fixation","","","","","","","","","","","",""
"revaluation","67","579620","0.0-3.0-11.0-2.0-0.3","spark_pilot_norest","8678","2","18","Female","","","false","","","","[719.2000000476837,427.5]","./assets/img/space/14.jpg","[""ArrowUp"",""ArrowRight""]","practice block","space","36","{""ArrowUp,ArrowLeft"":3,""ArrowUp,ArrowRight"":36,""ArrowDown,ArrowLeft"":15,""ArrowDown,ArrowRight"":23}","true","ArrowUp,ArrowRight","false","","","","","",""
"html-keyboard-response","68","580128","0.0-3.0-11.0-2.0-1.3","spark_pilot_norest","8678","2","18","Female","","","","","","","null","<div style=""font-size:60px;"">+</div>","null","fixation","","","","","","","","","","","",""
"revaluation","69","586159","0.0-3.0-11.0-2.0-0.4","spark_pilot_norest","8678","2","18","Female","","","false","","","","[755,334.60000002384186]","./assets/img/space/11.jpg","[""ArrowUp"",""ArrowRight""]","practice block","space","36","{""ArrowUp,ArrowLeft"":3,""ArrowUp,ArrowRight"":36,""ArrowDown,ArrowLeft"":15,""ArrowDown,ArrowRight"":23}","true","ArrowUp,ArrowRight","false","","","","","",""
"html-keyboard-response","70","586671","0.0-3.0-11.0-2.0-1.4","spark_pilot_norest","8678","2","18","Female","","","","","","","null","<div style=""font-size:60px;"">+</div>","null","fixation","","","","","","","","","","","",""
"revaluation","71","592693","0.0-3.0-11.0-2.0-0.5","spark_pilot_norest","8678","2","18","Female","","","false","","","","[614.3000000119209,351.5]","./assets/img/space/12.jpg","[""ArrowUp"",""ArrowRight""]","practice block","space","36","{""ArrowUp,ArrowLeft"":3,""ArrowUp,ArrowRight"":36,""ArrowDown,ArrowLeft"":15,""ArrowDown,ArrowRight"":23}","true","ArrowUp,ArrowRight","false","","","","","",""
"html-keyboard-response","72","593199","0.0-3.0-11.0-2.0-1.5","spark_pilot_norest","8678","2","18","Female","","","","","","","null","<div style=""font-size:60px;"">+</div>","null","fixation","","","","","","","","","","","",""
"revaluation","73","599220","0.0-3.0-11.0-2.0-0.6","spark_pilot_norest","8678","2","18","Female","","","false","","","","[665.6999999880791,310.69999998807907]","./assets/img/space/13.jpg","[""ArrowUp"",""ArrowRight""]","practice block","space","36","{""ArrowUp,ArrowLeft"":3,""ArrowUp,ArrowRight"":36,""ArrowDown,ArrowLeft"":15,""ArrowDown,ArrowRight"":23}","true","ArrowUp,ArrowRight","false","","","","","",""
"html-keyboard-response","74","599727","0.0-3.0-11.0-2.0-1.6","spark_pilot_norest","8678","2","18","Female","","","","","","","null","<div style=""font-size:60px;"">+</div>","null","fixation","","","","","","","","","","","",""
"revaluation","75","605752","0.0-3.0-11.0-2.0-0.7","spark_pilot_norest","8678","2","18","Female","","","false","","","","[570.6999999880791,297.69999998807907]","./assets/img/space/14.jpg","[""ArrowUp"",""ArrowRight""]","practice block","space","36","{""ArrowUp,ArrowLeft"":3,""ArrowUp,ArrowRight"":36,""ArrowDown,ArrowLeft"":15,""ArrowDown,ArrowRight"":23}","true","ArrowUp,ArrowRight","false","","","","","",""
"html-keyboard-response","76","606263","0.0-3.0-11.0-2.0-1.7","spark_pilot_norest","8678","2","18","Female","","","","","","","null","<div style=""font-size:60px;"">+</div>","null","fixation","","","","","","","","","","","",""
"revaluation","77","610287","0.0-3.0-11.0-2.0-0.8","spark_pilot_norest","8678","2","18","Female","","","false","","","","[506.30000001192093]","./assets/img/space/catch/3.jpg","[""spaceBar""]","practice block","space","0","{""ArrowUp,ArrowLeft"":3,""ArrowUp,ArrowRight"":36,""ArrowDown,ArrowLeft"":15,""ArrowDown,ArrowRight"":23}","true","spaceBar","true","","","","","",""
"html-keyboard-response","78","610798","0.0-3.0-11.0-2.0-1.8","spark_pilot_norest","8678","2","18","Female","","","","","","","null","<div style=""font-size:60px;"">+</div>","null","fixation","","","","","","","","","","","",""
"learning-instructions","79","624254","0.0-3.0-11.0-3.0-0.0","spark_pilot_norest","8678","2","18","Female","","","","","","","491.2999999523163","<p> Now, you will travel with a friend who will choose whether you go up or down first. </p>
            <p> On these turns, you will just see the animal that they found. You will still get to choose which chest to search for treasure.</p>","","instructions","","","","","","","","","","","",""
"revaluation","80","628267","0.0-3.0-11.0-4.0-0.0","spark_pilot_norest","8678","2","18","Female","","","false","","","","[850.0999999642372]","./assets/img/space/animals/cat.jpg","[""ArrowRight""]","practice block","space","36","{""ArrowUp,ArrowLeft"":3,""ArrowUp,ArrowRight"":36,""ArrowDown,ArrowLeft"":15,""ArrowDown,ArrowRight"":23}","true","ArrowUp,ArrowRight","","","","","","",""
"html-keyboard-response","81","628772","0.0-3.0-11.0-4.0-1.0","spark_pilot_norest","8678","2","18","Female","","","","","","","null","<div style=""font-size:60px;"">+</div>","null","fixation","","","","","","","","","","","",""
"revaluation","82","632791","0.0-3.0-11.0-4.0-0.1","spark_pilot_norest","8678","2","18","Female","","","false","","","","[841.6000000238419]","./assets/img/space/animals/rabbit.jpg","[""ArrowRight""]","practice block","space","23","{""ArrowUp,ArrowLeft"":3,""ArrowUp,ArrowRight"":36,""ArrowDown,ArrowLeft"":15,""ArrowDown,ArrowRight"":23}","true","ArrowDown,ArrowRight","","","","","","",""
"html-keyboard-response","83","633302","0.0-3.0-11.0-4.0-1.1","spark_pilot_norest","8678","2","18","Female","","","","","","","null","<div style=""font-size:60px;"">+</div>","null","fixation","","","","","","","","","","","",""
"revaluation","84","637318","0.0-3.0-11.0-4.0-0.2","spark_pilot_norest","8678","2","18","Female","","","false","","","","[468.7000000476837]","./assets/img/space/animals/cat.jpg","[""ArrowRight""]","practice block","space","36","{""ArrowUp,ArrowLeft"":3,""ArrowUp,ArrowRight"":36,""ArrowDown,ArrowLeft"":15,""ArrowDown,ArrowRight"":23}","true","ArrowUp,ArrowRight","","","","","","",""
"html-keyboard-response","85","637827","0.0-3.0-11.0-4.0-1.2","spark_pilot_norest","8678","2","18","Female","","","","","","","null","<div style=""font-size:60px;"">+</div>","null","fixation","","","","","","","","","","","",""
"revaluation","86","641844","0.0-3.0-11.0-4.0-0.3","spark_pilot_norest","8678","2","18","Female","","","false","","","","[415.9000000357628]","./assets/img/space/animals/rabbit.jpg","[""ArrowRight""]","practice block","space","23","{""ArrowUp,ArrowLeft"":3,""ArrowUp,ArrowRight"":36,""ArrowDown,ArrowLeft"":15,""ArrowDown,ArrowRight"":23}","true","ArrowDown,ArrowRight","","","","","","",""
"html-keyboard-response","87","642347","0.0-3.0-11.0-4.0-1.3","spark_pilot_norest","8678","2","18","Female","","","","","","","null","<div style=""font-size:60px;"">+</div>","null","fixation","","","","","","","","","","","",""
"learning-instructions","88","650479","0.0-3.0-11.0-5.0-0.0","spark_pilot_norest","8678","2","18","Female","","","","","","","null","<p> You have almost finished this part of the game! </p>
            <p> We are going to ask you to make a few more choices. </p>","","instructions","","","","","","","","","","","",""
"learning-instructions","89","666495","0.0-3.0-11.0-5.0-0.1","spark_pilot_norest","8678","2","18","Female","","","","","","","null","<p> First, you need to decide whether to go up or down. When you see each picture, use the arrow keys to make your choice. </p>
            <p><b>You will not see which animal you found, but try to get to the one that will give you the most treasure.</b></p>","","instructions","","","","","","","","","","","",""
"html-keyboard-response","90","667503","0.0-3.0-11.0-6.0-0.0","spark_pilot_norest","8678","2","18","Female","","","","","","","null","<div style=""font-size:100px;color:red;"">Starting in...</div>","null","","","","","","","","","","","","",""
"html-keyboard-response","91","668508","0.0-3.0-11.0-6.0-1.0","spark_pilot_norest","8678","2","18","Female","","","","","","","null","<div style=""font-size:200px;color:red;"">3</div>","null","","","","","","","","","","","","",""
"html-keyboard-response","92","669517","0.0-3.0-11.0-6.0-2.0","spark_pilot_norest","8678","2","18","Female","","","","","","","null","<div style=""font-size:200px;color:red;"">2</div>","null","","","","","","","","","","","","",""
"html-keyboard-response","93","670527","0.0-3.0-11.0-6.0-3.0","spark_pilot_norest","8678","2","18","Female","","","","","","","null","<div style=""font-size:200px;color:red;"">1</div>","null","","","","","","","","","","","","",""
"revaluation","94","670877","0.0-3.0-11.0-7.0","spark_pilot_norest","8678","2","18","Female","","","false","","","","[345.5]","./assets/img/space/15.jpg","[""ArrowUp""]","practice block","space","0","{""ArrowUp,ArrowLeft"":3,""ArrowUp,ArrowRight"":36,""ArrowDown,ArrowLeft"":15,""ArrowDown,ArrowRight"":23}","true","ArrowUp","false","","","","","",""
"html-keyboard-response","95","671383","0.0-3.0-11.0-8.0","spark_pilot_norest","8678","2","18","Female","","","","","","","null","<div style=""font-size:60px;"">+</div>","null","fixation","","","","","","","","","","","",""
"learning-instructions","96","684763","0.0-3.0-11.0-9.0-0.0","spark_pilot_norest","8678","2","18","Female","","","","","","","null","<p> Now you will see the animals again and can search their chests for treasure. </p>
            <p> This time, you will not see how much treasure you earned, but you will earn more bonus money for making better choices. </p>","","instructions","","","","","","","","","","","",""
"html-keyboard-response","97","685770","0.0-3.0-11.0-10.0-0.0","spark_pilot_norest","8678","2","18","Female","","","","","","","null","<div style=""font-size:100px;color:red;"">Starting in...</div>","null","","","","","","","","","","","","",""
"html-keyboard-response","98","686783","0.0-3.0-11.0-10.0-1.0","spark_pilot_norest","8678","2","18","Female","","","","","","","null","<div style=""font-size:200px;color:red;"">3</div>","null","","","","","","","","","","","","",""
"html-keyboard-response","99","687787","0.0-3.0-11.0-10.0-2.0","spark_pilot_norest","8678","2","18","Female","","","","","","","null","<div style=""font-size:200px;color:red;"">2</div>","null","","","","","","","","","","","","",""
"html-keyboard-response","100","688796","0.0-3.0-11.0-10.0-3.0","spark_pilot_norest","8678","2","18","Female","","","","","","","null","<div style=""font-size:200px;color:red;"">1</div>","null","","","","","","","","","","","","",""
"revaluation","101","689191","0.0-3.0-11.0-11.0-0.0","spark_pilot_norest","8678","2","18","Female","","","false","","","","[390.80000001192093]","./assets/img/space/animals/cat.jpg","[""ArrowRight""]","practice block","space","0","{""ArrowUp,ArrowLeft"":3,""ArrowUp,ArrowRight"":36,""ArrowDown,ArrowLeft"":15,""ArrowDown,ArrowRight"":23}","true","ArrowUp,ArrowRight","","","","","","",""
"html-keyboard-response","102","689701","0.0-3.0-11.0-11.0-1.0","spark_pilot_norest","8678","2","18","Female","","","","","","","null","<div style=""font-size:60px;"">+</div>","null","fixation","","","","","","","","","","","",""
"revaluation","103","690265","0.0-3.0-11.0-11.0-0.1","spark_pilot_norest","8678","2","18","Female","","","false","","","","[560.1999999880791]","./assets/img/space/animals/rabbit.jpg","[""ArrowRight""]","practice block","space","0","{""ArrowUp,ArrowLeft"":3,""ArrowUp,ArrowRight"":36,""ArrowDown,ArrowLeft"":15,""ArrowDown,ArrowRight"":23}","true","ArrowDown,ArrowRight","","","","","","",""
"html-keyboard-response","104","690771","0.0-3.0-11.0-11.0-1.1","spark_pilot_norest","8678","2","18","Female","","","","","","","null","<div style=""font-size:60px;"">+</div>","null","fixation","","","","","","","","","","","",""
"learning-instructions","105","696354","0.0-3.0-12.0-0.0","spark_pilot_norest","8678","2","18","Female","","","","","","","999.9000000357628","<p> Before you start, we're going to ask you a few questions about how the game works. </p>","","instructions","","","","","","","","","","","",""
"comp-q","106","703582","0.0-3.0-13.0-0.0-0.0","spark_pilot_norest","8678","2","18","Female","","","","","","","1642.2000000476837","<p> <b> True or False? </b> </p>
            <p> There can be 50 pieces of treasure in a given animal's chest. </p>","1","comp_question","","","","true","","","","","","","",""
"comp-q","107","711928","0.0-3.0-13.0-0.0-1.0","spark_pilot_norest","8678","2","18","Female","","","","","","","1694.2999999523163","<p> <b> That's right! </b> The amount of treasure in each chest can range from 0 to 40 pieces. </p>","0","comp_answer","","","","","","","","","","","",""
"comp-q","108","719546","0.0-3.0-13.0-0.1-0.1","spark_pilot_norest","8678","2","18","Female","","","","","","","501.19999998807907","<p> <b> True or False? </b> </p><p> In this game, all animals have the same amount of treasure in their left and right chests. </p>","1","comp_question","","","","true","","","","","","","",""
"comp-q","109","725469","0.0-3.0-13.0-0.1-1.1","spark_pilot_norest","8678","2","18","Female","","","","","","","690.5","<p> <b> That's right! </b> Animals have different amounts of treasure in their treasure chests. </p>","0","comp_answer","","","","","","","","","","","",""
"comp-q","110","732622","0.0-3.0-13.0-0.2-0.2","spark_pilot_norest","8678","2","18","Female","","","","","","","1309.800000011921","<p> <b> True or False? </b> </p><p> The same animal will always be there if you go up in the same place. </p>","0","comp_question","","","","true","","","","","","","",""
"comp-q","111","740634","0.0-3.0-13.0-0.2-1.2","spark_pilot_norest","8678","2","18","Female","","","","","","","1572.1000000238419","<p> <b> That's right! </b> One animal lives in the upper part and one lives in the lower part of every place. </p>","0","comp_answer","","","","","","","","","","","",""
"comp-q","112","746982","0.0-3.0-13.0-0.3-0.3","spark_pilot_norest","8678","2","18","Female","","","","","","","826.6999999880791","<p> <b> True or False? </b> </p><p> If you see a different picture, it means you are in a new place. </p>","1","comp_question","","","","true","","","","","","","",""
"comp-q","113","759390","0.0-3.0-13.0-0.3-1.3","spark_pilot_norest","8678","2","18","Female","","","","","","","1186.0999999642372","<p> <b> That's right! </b> Lots of different images may show the same place. For example,  you may see three different images that all remind you that you are in outer space. </p>","0","comp_answer","","","","","","","","","","","",""
"learning-instructions","114","770368","0.0-3.0-14.0-0.0","spark_pilot_norest","8678","2","18","Female","","","","","","","1130.0999999642372","<p> Good job. Remember to do your best because the amount of treasure you earn will be converted into bonus money. </p>
            <p> It’s time to start the real game! </p>","","instructions","","","","","","","","","","","",""
"learning-instructions","115","774407","0.0-4.0-0.0-0.0","spark_pilot_norest","8678","2","18","Female","","","","","","","1334.1000000238419","<p> This time you are searching for treasure in the <b>ocean</b>.</p>","","instructions","","","","","","","","","","","",""
"learning-instructions","116","792121","0.0-4.0-0.0-0.1","spark_pilot_norest","8678","2","18","Female","","","","","","","417.80000001192093","<p><b>New</b> animals with <b>new</b> treasure chests live here. You need to explore to discover where the animal with the best treasure chest is.</p>
                    <p> Like before, once you figure out which animal has the chest with the most treasure, you should try to get to that animal and select that chest! </p>","","instructions","","","","","","","","","","","",""
"learning-instructions","117","807308","0.0-4.0-1.0-0.0","spark_pilot_norest","8678","2","18","Female","","","","","","","458.30000001192093","<p> Remember, when you see a picture of the place, use the up and down keys to <b>find an animal</b>.</p>
            <p> When you encounter an animal, you should use the left and right keys to <b>select a treasure chest</b>.</p>
            <p> Don't forget to look out for the robber! </p>","","instructions","","","","","","","","","","","",""
"revaluation","118","811330","0.0-4.0-2.0-0.0","spark_pilot_norest","8678","2","18","Female","","","false","","","","[830.3999999761581]","./assets/img/ocean/catch/3.jpg","[""spaceBar""]","value training","ocean","0","{""ArrowUp,ArrowLeft"":23,""ArrowUp,ArrowRight"":10,""ArrowDown,ArrowLeft"":8,""ArrowDown,ArrowRight"":30}","true","spaceBar","true","revaluation","1","0","","",""
"html-keyboard-response","119","811840","0.0-4.0-2.0-1.0","spark_pilot_norest","8678","2","18","Female","","","","","","","null","<div style=""font-size:60px;"">+</div>","null","fixation","","","","","","","","","1","","",""
"revaluation","120","817865","0.0-4.0-2.0-0.1","spark_pilot_norest","8678","2","18","Female","","","false","","","","[777.4000000357628,503.30000001192093]","./assets/img/ocean/memory/10.jpg","[""ArrowUp"",""ArrowRight""]","value training","ocean","10","{""ArrowUp,ArrowLeft"":23,""ArrowUp,ArrowRight"":10,""ArrowDown,ArrowLeft"":8,""ArrowDown,ArrowRight"":30}","false","ArrowUp,ArrowRight","false","revaluation","1","2","","",""
"html-keyboard-response","121","818369","0.0-4.0-2.0-1.1","spark_pilot_norest","8678","2","18","Female","","","","","","","null","<div style=""font-size:60px;"">+</div>","null","fixation","","","","","","","","","3","","",""
"revaluation","122","824397","0.0-4.0-2.0-0.2","spark_pilot_norest","8678","2","18","Female","","","false","","","","[627.0999999642372,310.80000001192093]","./assets/img/ocean/memory/16.jpg","[""ArrowUp"",""ArrowLeft""]","value training","ocean","23","{""ArrowUp,ArrowLeft"":23,""ArrowUp,ArrowRight"":10,""ArrowDown,ArrowLeft"":8,""ArrowDown,ArrowRight"":30}","false","ArrowUp,ArrowLeft","false","revaluation","1","4","","",""
"html-keyboard-response","123","824909","0.0-4.0-2.0-1.2","spark_pilot_norest","8678","2","18","Female","","","","","","","null","<div style=""font-size:60px;"">+</div>","null","fixation","","","","","","","","","5","","",""
"revaluation","124","830941","0.0-4.0-2.0-0.3","spark_pilot_norest","8678","2","18","Female","","","false","","","","[575.6999999880791,374.30000001192093]","./assets/img/ocean/memory/21.jpg","[""ArrowDown"",""ArrowRight""]","value training","ocean","30","{""ArrowUp,ArrowLeft"":23,""ArrowUp,ArrowRight"":10,""ArrowDown,ArrowLeft"":8,""ArrowDown,ArrowRight"":30}","true","ArrowDown,ArrowRight","false","revaluation","1","6","","",""
"html-keyboard-response","125","831452","0.0-4.0-2.0-1.3","spark_pilot_norest","8678","2","18","Female","","","","","","","null","<div style=""font-size:60px;"">+</div>","null","fixation","","","","","","","","","7","","",""
"revaluation","126","835464","0.0-4.0-2.0-0.4","spark_pilot_norest","8678","2","18","Female","","","false","","","","[606.6000000238419]","./assets/img/ocean/catch/2.jpg","[""spaceBar""]","value training","ocean","0","{""ArrowUp,ArrowLeft"":23,""ArrowUp,ArrowRight"":10,""ArrowDown,ArrowLeft"":8,""ArrowDown,ArrowRight"":30}","true","spaceBar","true","revaluation","1","8","","",""
"html-keyboard-response","127","835972","0.0-4.0-2.0-1.4","spark_pilot_norest","8678","2","18","Female","","","","","","","null","<div style=""font-size:60px;"">+</div>","null","fixation","","","","","","","","","9","","",""
"revaluation","128","842003","0.0-4.0-2.0-0.5","spark_pilot_norest","8678","2","18","Female","","","false","","","","[523.3999999761581,341.60000002384186]","./assets/img/ocean/memory/18.jpg","[""ArrowDown"",""ArrowLeft""]","value training","ocean","8","{""ArrowUp,ArrowLeft"":23,""ArrowUp,ArrowRight"":10,""ArrowDown,ArrowLeft"":8,""ArrowDown,ArrowRight"":30}","false","ArrowDown,ArrowLeft","false","revaluation","1","10","","",""
"html-keyboard-response","129","842516","0.0-4.0-2.0-1.5","spark_pilot_norest","8678","2","18","Female","","","","","","","null","<div style=""font-size:60px;"">+</div>","null","fixation","","","","","","","","","11","","",""
"revaluation","130","848547","0.0-4.0-2.0-0.6","spark_pilot_norest","8678","2","18","Female","","","false","","","","[819.3000000119209,337.89999997615814]","./assets/img/ocean/memory/11.jpg","[""ArrowDown"",""ArrowRight""]","value training","ocean","30","{""ArrowUp,ArrowLeft"":23,""ArrowUp,ArrowRight"":10,""ArrowDown,ArrowLeft"":8,""ArrowDown,ArrowRight"":30}","true","ArrowDown,ArrowRight","false","revaluation","1","12","","",""
"html-keyboard-response","131","849059","0.0-4.0-2.0-1.6","spark_pilot_norest","8678","2","18","Female","","","","","","","null","<div style=""font-size:60px;"">+</div>","null","fixation","","","","","","","","","13","","",""
"revaluation","132","855080","0.0-4.0-2.0-0.7","spark_pilot_norest","8678","2","18","Female","","","false","","","","[614.6999999880791,397]","./assets/img/ocean/memory/17.jpg","[""ArrowDown"",""ArrowRight""]","value training","ocean","30","{""ArrowUp,ArrowLeft"":23,""ArrowUp,ArrowRight"":10,""ArrowDown,ArrowLeft"":8,""ArrowDown,ArrowRight"":30}","true","ArrowDown,ArrowRight","false","revaluation","1","14","","",""
"html-keyboard-response","133","855586","0.0-4.0-2.0-1.7","spark_pilot_norest","8678","2","18","Female","","","","","","","null","<div style=""font-size:60px;"">+</div>","null","fixation","","","","","","","","","15","","",""
"revaluation","134","859603","0.0-4.0-2.0-0.8","spark_pilot_norest","8678","2","18","Female","","","false","","","","[555.5]","./assets/img/ocean/catch/4.jpg","[""spaceBar""]","value training","ocean","0","{""ArrowUp,ArrowLeft"":23,""ArrowUp,ArrowRight"":10,""ArrowDown,ArrowLeft"":8,""ArrowDown,ArrowRight"":30}","true","spaceBar","true","revaluation","1","16","","",""
"html-keyboard-response","135","860113","0.0-4.0-2.0-1.8","spark_pilot_norest","8678","2","18","Female","","","","","","","null","<div style=""font-size:60px;"">+</div>","null","fixation","","","","","","","","","17","","",""
"revaluation","136","864131","0.0-4.0-2.0-0.9","spark_pilot_norest","8678","2","18","Female","","","false","","","","[595.7999999523163]","./assets/img/ocean/catch/0.jpg","[""spaceBar""]","value training","ocean","0","{""ArrowUp,ArrowLeft"":23,""ArrowUp,ArrowRight"":10,""ArrowDown,ArrowLeft"":8,""ArrowDown,ArrowRight"":30}","true","spaceBar","true","revaluation","1","18","","",""
"html-keyboard-response","137","864641","0.0-4.0-2.0-1.9","spark_pilot_norest","8678","2","18","Female","","","","","","","null","<div style=""font-size:60px;"">+</div>","null","fixation","","","","","","","","","19","","",""
"revaluation","138","870664","0.0-4.0-2.0-0.10","spark_pilot_norest","8678","2","18","Female","","","false","","","","[550.4000000357628,308.69999998807907]","./assets/img/ocean/memory/41.jpg","[""ArrowDown"",""ArrowRight""]","value training","ocean","30","{""ArrowUp,ArrowLeft"":23,""ArrowUp,ArrowRight"":10,""ArrowDown,ArrowLeft"":8,""ArrowDown,ArrowRight"":30}","true","ArrowDown,ArrowRight","false","revaluation","1","20","","",""
"html-keyboard-response","139","871170","0.0-4.0-2.0-1.10","spark_pilot_norest","8678","2","18","Female","","","","","","","null","<div style=""font-size:60px;"">+</div>","null","fixation","","","","","","","","","21","","",""
"revaluation","140","877196","0.0-4.0-2.0-0.11","spark_pilot_norest","8678","2","18","Female","","","false","","","","[547.9000000357628,294.0999999642372]","./assets/img/ocean/memory/28.jpg","[""ArrowDown"",""ArrowRight""]","value training","ocean","30","{""ArrowUp,ArrowLeft"":23,""ArrowUp,ArrowRight"":10,""ArrowDown,ArrowLeft"":8,""ArrowDown,ArrowRight"":30}","true","ArrowDown,ArrowRight","false","revaluation","1","22","","",""
"html-keyboard-response","141","877703","0.0-4.0-2.0-1.11","spark_pilot_norest","8678","2","18","Female","","","","","","","null","<div style=""font-size:60px;"">+</div>","null","fixation","","","","","","","","","23","","",""
"revaluation","142","883731","0.0-4.0-2.0-0.12","spark_pilot_norest","8678","2","18","Female","","","false","","","","[640.5,330]","./assets/img/ocean/memory/33.jpg","[""ArrowDown"",""ArrowRight""]","value training","ocean","30","{""ArrowUp,ArrowLeft"":23,""ArrowUp,ArrowRight"":10,""ArrowDown,ArrowLeft"":8,""ArrowDown,ArrowRight"":30}","true","ArrowDown,ArrowRight","false","revaluation","1","24","","",""
"html-keyboard-response","143","884242","0.0-4.0-2.0-1.12","spark_pilot_norest","8678","2","18","Female","","","","","","","null","<div style=""font-size:60px;"">+</div>","null","fixation","","","","","","","","","25","","",""
"revaluation","144","890264","0.0-4.0-2.0-0.13","spark_pilot_norest","8678","2","18","Female","","","false","","","","[642.2000000476837,290.19999998807907]","./assets/img/ocean/memory/32.jpg","[""ArrowDown"",""ArrowRight""]","value training","ocean","30","{""ArrowUp,ArrowLeft"":23,""ArrowUp,ArrowRight"":10,""ArrowDown,ArrowLeft"":8,""ArrowDown,ArrowRight"":30}","true","ArrowDown,ArrowRight","false","revaluation","1","26","","",""
"html-keyboard-response","145","890770","0.0-4.0-2.0-1.13","spark_pilot_norest","8678","2","18","Female","","","","","","","null","<div style=""font-size:60px;"">+</div>","null","fixation","","","","","","","","","27","","",""
"revaluation","146","896794","0.0-4.0-2.0-0.14","spark_pilot_norest","8678","2","18","Female","","","false","","","","[927.2999999523163,340.30000001192093]","./assets/img/ocean/memory/14.jpg","[""ArrowDown"",""ArrowRight""]","value training","ocean","30","{""ArrowUp,ArrowLeft"":23,""ArrowUp,ArrowRight"":10,""ArrowDown,ArrowLeft"":8,""ArrowDown,ArrowRight"":30}","true","ArrowDown,ArrowRight","false","revaluation","1","28","","",""
"html-keyboard-response","147","897303","0.0-4.0-2.0-1.14","spark_pilot_norest","8678","2","18","Female","","","","","","","null","<div style=""font-size:60px;"">+</div>","null","fixation","","","","","","","","","29","","",""
"revaluation","148","903330","0.0-4.0-2.0-0.15","spark_pilot_norest","8678","2","18","Female","","","false","","","","[554.0999999642372,350]","./assets/img/ocean/memory/32.jpg","[""ArrowDown"",""ArrowRight""]","value training","ocean","30","{""ArrowUp,ArrowLeft"":23,""ArrowUp,ArrowRight"":10,""ArrowDown,ArrowLeft"":8,""ArrowDown,ArrowRight"":30}","true","ArrowDown,ArrowRight","false","revaluation","1","30","","",""
"html-keyboard-response","149","903841","0.0-4.0-2.0-1.15","spark_pilot_norest","8678","2","18","Female","","","","","","","null","<div style=""font-size:60px;"">+</div>","null","fixation","","","","","","","","","31","","",""
"revaluation","150","909863","0.0-4.0-2.0-0.16","spark_pilot_norest","8678","2","18","Female","","","false","","","","[520.8999999761581,283.5999999642372]","./assets/img/ocean/memory/28.jpg","[""ArrowDown"",""ArrowRight""]","value training","ocean","30","{""ArrowUp,ArrowLeft"":23,""ArrowUp,ArrowRight"":10,""ArrowDown,ArrowLeft"":8,""ArrowDown,ArrowRight"":30}","true","ArrowDown,ArrowRight","false","revaluation","1","32","","",""
"html-keyboard-response","151","910369","0.0-4.0-2.0-1.16","spark_pilot_norest","8678","2","18","Female","","","","","","","null","<div style=""font-size:60px;"">+</div>","null","fixation","","","","","","","","","33","","",""
"revaluation","152","916391","0.0-4.0-2.0-0.17","spark_pilot_norest","8678","2","18","Female","","","false","","","","[516.1000000238419,321.4000000357628]","./assets/img/ocean/memory/2.jpg","[""ArrowDown"",""ArrowRight""]","value training","ocean","30","{""ArrowUp,ArrowLeft"":23,""ArrowUp,ArrowRight"":10,""ArrowDown,ArrowLeft"":8,""ArrowDown,ArrowRight"":30}","true","ArrowDown,ArrowRight","false","revaluation","1","34","","",""
"html-keyboard-response","153","916897","0.0-4.0-2.0-1.17","spark_pilot_norest","8678","2","18","Female","","","","","","","null","<div style=""font-size:60px;"">+</div>","null","fixation","","","","","","","","","35","","",""
"revaluation","154","922919","0.0-4.0-2.0-0.18","spark_pilot_norest","8678","2","18","Female","","","false","","","","[650.1000000238419,265.4000000357628]","./assets/img/ocean/memory/24.jpg","[""ArrowDown"",""ArrowRight""]","value training","ocean","30","{""ArrowUp,ArrowLeft"":23,""ArrowUp,ArrowRight"":10,""ArrowDown,ArrowLeft"":8,""ArrowDown,ArrowRight"":30}","true","ArrowDown,ArrowRight","false","revaluation","1","36","","",""
"html-keyboard-response","155","923425","0.0-4.0-2.0-1.18","spark_pilot_norest","8678","2","18","Female","","","","","","","null","<div style=""font-size:60px;"">+</div>","null","fixation","","","","","","","","","37","","",""
"revaluation","156","929451","0.0-4.0-2.0-0.19","spark_pilot_norest","8678","2","18","Female","","","false","","","","[730.0999999642372,253.39999997615814]","./assets/img/ocean/memory/14.jpg","[""ArrowDown"",""ArrowRight""]","value training","ocean","30","{""ArrowUp,ArrowLeft"":23,""ArrowUp,ArrowRight"":10,""ArrowDown,ArrowLeft"":8,""ArrowDown,ArrowRight"":30}","true","ArrowDown,ArrowRight","false","revaluation","1","38","","",""
"html-keyboard-response","157","929959","0.0-4.0-2.0-1.19","spark_pilot_norest","8678","2","18","Female","","","","","","","null","<div style=""font-size:60px;"">+</div>","null","fixation","","","","","","","","","39","","",""
"revaluation","158","935986","0.0-4.0-2.0-0.20","spark_pilot_norest","8678","2","18","Female","","","false","","","","[648.6999999880791,290.5]","./assets/img/ocean/memory/40.jpg","[""ArrowDown"",""ArrowRight""]","value training","ocean","30","{""ArrowUp,ArrowLeft"":23,""ArrowUp,ArrowRight"":10,""ArrowDown,ArrowLeft"":8,""ArrowDown,ArrowRight"":30}","true","ArrowDown,ArrowRight","false","revaluation","1","40","","",""
"html-keyboard-response","159","936497","0.0-4.0-2.0-1.20","spark_pilot_norest","8678","2","18","Female","","","","","","","null","<div style=""font-size:60px;"">+</div>","null","fixation","","","","","","","","","41","","",""
"revaluation","160","942519","0.0-4.0-2.0-0.21","spark_pilot_norest","8678","2","18","Female","","","false","","","","[639.5999999642372,318.9000000357628]","./assets/img/ocean/memory/21.jpg","[""ArrowUp"",""ArrowLeft""]","value training","ocean","23","{""ArrowUp,ArrowLeft"":23,""ArrowUp,ArrowRight"":10,""ArrowDown,ArrowLeft"":8,""ArrowDown,ArrowRight"":30}","false","ArrowUp,ArrowLeft","false","revaluation","1","42","","",""
"html-keyboard-response","161","943025","0.0-4.0-2.0-1.21","spark_pilot_norest","8678","2","18","Female","","","","","","","null","<div style=""font-size:60px;"">+</div>","null","fixation","","","","","","","","","43","","",""
"revaluation","162","949059","0.0-4.0-2.0-0.22","spark_pilot_norest","8678","2","18","Female","","","false","","","","[571,254.19999998807907]","./assets/img/ocean/memory/25.jpg","[""ArrowDown"",""ArrowRight""]","value training","ocean","30","{""ArrowUp,ArrowLeft"":23,""ArrowUp,ArrowRight"":10,""ArrowDown,ArrowLeft"":8,""ArrowDown,ArrowRight"":30}","true","ArrowDown,ArrowRight","false","revaluation","1","44","","",""
"html-keyboard-response","163","949569","0.0-4.0-2.0-1.22","spark_pilot_norest","8678","2","18","Female","","","","","","","null","<div style=""font-size:60px;"">+</div>","null","fixation","","","","","","","","","45","","",""
"revaluation","164","955591","0.0-4.0-2.0-0.23","spark_pilot_norest","8678","2","18","Female","","","false","","","","[481.9000000357628,255.39999997615814]","./assets/img/ocean/memory/25.jpg","[""ArrowDown"",""ArrowRight""]","value training","ocean","30","{""ArrowUp,ArrowLeft"":23,""ArrowUp,ArrowRight"":10,""ArrowDown,ArrowLeft"":8,""ArrowDown,ArrowRight"":30}","true","ArrowDown,ArrowRight","false","revaluation","1","46","","",""
"html-keyboard-response","165","956097","0.0-4.0-2.0-1.23","spark_pilot_norest","8678","2","18","Female","","","","","","","null","<div style=""font-size:60px;"">+</div>","null","fixation","","","","","","","","","47","","",""
"revaluation","166","962119","0.0-4.0-2.0-0.24","spark_pilot_norest","8678","2","18","Female","","","false","","","","[507.19999998807907,291.80000001192093]","./assets/img/ocean/memory/22.jpg","[""ArrowDown"",""ArrowRight""]","value training","ocean","30","{""ArrowUp,ArrowLeft"":23,""ArrowUp,ArrowRight"":10,""ArrowDown,ArrowLeft"":8,""ArrowDown,ArrowRight"":30}","true","ArrowDown,ArrowRight","false","revaluation","1","48","","",""
"html-keyboard-response","167","962624","0.0-4.0-2.0-1.24","spark_pilot_norest","8678","2","18","Female","","","","","","","null","<div style=""font-size:60px;"">+</div>","null","fixation","","","","","","","","","49","","",""
"revaluation","168","968650","0.0-4.0-2.0-0.25","spark_pilot_norest","8678","2","18","Female","","","false","","","","[402.80000001192093,219.69999998807907]","./assets/img/ocean/memory/9.jpg","[""ArrowDown"",""ArrowRight""]","value training","ocean","30","{""ArrowUp,ArrowLeft"":23,""ArrowUp,ArrowRight"":10,""ArrowDown,ArrowLeft"":8,""ArrowDown,ArrowRight"":30}","true","ArrowDown,ArrowRight","false","revaluation","1","50","","",""
"html-keyboard-response","169","969158","0.0-4.0-2.0-1.25","spark_pilot_norest","8678","2","18","Female","","","","","","","null","<div style=""font-size:60px;"">+</div>","null","fixation","","","","","","","","","51","","",""
"revaluation","170","975185","0.0-4.0-2.0-0.26","spark_pilot_norest","8678","2","18","Female","","","false","","","","[423.89999997615814,259.69999998807907]","./assets/img/ocean/memory/2.jpg","[""ArrowDown"",""ArrowRight""]","value training","ocean","30","{""ArrowUp,ArrowLeft"":23,""ArrowUp,ArrowRight"":10,""ArrowDown,ArrowLeft"":8,""ArrowDown,ArrowRight"":30}","true","ArrowDown,ArrowRight","false","revaluation","1","52","","",""
"html-keyboard-response","171","975698","0.0-4.0-2.0-1.26","spark_pilot_norest","8678","2","18","Female","","","","","","","null","<div style=""font-size:60px;"">+</div>","null","fixation","","","","","","","","","53","","",""
"revaluation","172","981729","0.0-4.0-2.0-0.27","spark_pilot_norest","8678","2","18","Female","","","false","","","","[561.2999999523163,268.69999998807907]","./assets/img/ocean/memory/10.jpg","[""ArrowDown"",""ArrowRight""]","value training","ocean","30","{""ArrowUp,ArrowLeft"":23,""ArrowUp,ArrowRight"":10,""ArrowDown,ArrowLeft"":8,""ArrowDown,ArrowRight"":30}","true","ArrowDown,ArrowRight","false","revaluation","1","54","","",""
"html-keyboard-response","173","982240","0.0-4.0-2.0-1.27","spark_pilot_norest","8678","2","18","Female","","","","","","","null","<div style=""font-size:60px;"">+</div>","null","fixation","","","","","","","","","55","","",""
"revaluation","174","988262","0.0-4.0-2.0-0.28","spark_pilot_norest","8678","2","18","Female","","","false","","","","[528,257.80000001192093]","./assets/img/ocean/memory/16.jpg","[""ArrowDown"",""ArrowRight""]","value training","ocean","30","{""ArrowUp,ArrowLeft"":23,""ArrowUp,ArrowRight"":10,""ArrowDown,ArrowLeft"":8,""ArrowDown,ArrowRight"":30}","true","ArrowDown,ArrowRight","false","revaluation","1","56","","",""
"html-keyboard-response","175","988768","0.0-4.0-2.0-1.28","spark_pilot_norest","8678","2","18","Female","","","","","","","null","<div style=""font-size:60px;"">+</div>","null","fixation","","","","","","","","","57","","",""
"revaluation","176","994794","0.0-4.0-2.0-0.29","spark_pilot_norest","8678","2","18","Female","","","false","","","","[547.2000000476837,304.5999999642372]","./assets/img/ocean/memory/33.jpg","[""ArrowDown"",""ArrowRight""]","value training","ocean","30","{""ArrowUp,ArrowLeft"":23,""ArrowUp,ArrowRight"":10,""ArrowDown,ArrowLeft"":8,""ArrowDown,ArrowRight"":30}","true","ArrowDown,ArrowRight","false","revaluation","1","58","","",""
"html-keyboard-response","177","995302","0.0-4.0-2.0-1.29","spark_pilot_norest","8678","2","18","Female","","","","","","","null","<div style=""font-size:60px;"">+</div>","null","fixation","","","","","","","","","59","","",""
"revaluation","178","1001329","0.0-4.0-2.0-0.30","spark_pilot_norest","8678","2","18","Female","","","false","","","","[678,369.80000001192093]","./assets/img/ocean/memory/40.jpg","[""ArrowDown"",""ArrowRight""]","value training","ocean","30","{""ArrowUp,ArrowLeft"":23,""ArrowUp,ArrowRight"":10,""ArrowDown,ArrowLeft"":8,""ArrowDown,ArrowRight"":30}","true","ArrowDown,ArrowRight","false","revaluation","1","60","","",""
"html-keyboard-response","179","1001839","0.0-4.0-2.0-1.30","spark_pilot_norest","8678","2","18","Female","","","","","","","null","<div style=""font-size:60px;"">+</div>","null","fixation","","","","","","","","","61","","",""
"revaluation","180","1005858","0.0-4.0-2.0-0.31","spark_pilot_norest","8678","2","18","Female","","","false","","","","[510.89999997615814]","./assets/img/ocean/catch/1.jpg","[""spaceBar""]","value training","ocean","0","{""ArrowUp,ArrowLeft"":23,""ArrowUp,ArrowRight"":10,""ArrowDown,ArrowLeft"":8,""ArrowDown,ArrowRight"":30}","true","spaceBar","true","revaluation","1","62","","",""
"html-keyboard-response","181","1006367","0.0-4.0-2.0-1.31","spark_pilot_norest","8678","2","18","Female","","","","","","","null","<div style=""font-size:60px;"">+</div>","null","fixation","","","","","","","","","63","","",""
"revaluation","182","1012390","0.0-4.0-2.0-0.32","spark_pilot_norest","8678","2","18","Female","","","false","","","","[617.3999999761581,265.0999999642372]","./assets/img/ocean/memory/41.jpg","[""ArrowDown"",""ArrowRight""]","value training","ocean","30","{""ArrowUp,ArrowLeft"":23,""ArrowUp,ArrowRight"":10,""ArrowDown,ArrowLeft"":8,""ArrowDown,ArrowRight"":30}","true","ArrowDown,ArrowRight","false","revaluation","1","64","","",""
"html-keyboard-response","183","1012896","0.0-4.0-2.0-1.32","spark_pilot_norest","8678","2","18","Female","","","","","","","null","<div style=""font-size:60px;"">+</div>","null","fixation","","","","","","","","","65","","",""
"revaluation","184","1018918","0.0-4.0-2.0-0.33","spark_pilot_norest","8678","2","18","Female","","","false","","","","[613.3000000119209,274.30000001192093]","./assets/img/ocean/memory/9.jpg","[""ArrowDown"",""ArrowRight""]","value training","ocean","30","{""ArrowUp,ArrowLeft"":23,""ArrowUp,ArrowRight"":10,""ArrowDown,ArrowLeft"":8,""ArrowDown,ArrowRight"":30}","true","ArrowDown,ArrowRight","false","revaluation","1","66","","",""
"html-keyboard-response","185","1019423","0.0-4.0-2.0-1.33","spark_pilot_norest","8678","2","18","Female","","","","","","","null","<div style=""font-size:60px;"">+</div>","null","fixation","","","","","","","","","67","","",""
"revaluation","186","1025449","0.0-4.0-2.0-0.34","spark_pilot_norest","8678","2","18","Female","","","false","","","","[517.5999999642372,308]","./assets/img/ocean/memory/17.jpg","[""ArrowDown"",""ArrowRight""]","value training","ocean","30","{""ArrowUp,ArrowLeft"":23,""ArrowUp,ArrowRight"":10,""ArrowDown,ArrowLeft"":8,""ArrowDown,ArrowRight"":30}","true","ArrowDown,ArrowRight","false","revaluation","1","68","","",""
"html-keyboard-response","187","1025957","0.0-4.0-2.0-1.34","spark_pilot_norest","8678","2","18","Female","","","","","","","null","<div style=""font-size:60px;"">+</div>","null","fixation","","","","","","","","","69","","",""
"revaluation","188","1031984","0.0-4.0-2.0-0.35","spark_pilot_norest","8678","2","18","Female","","","false","","","","[570.6000000238419,294.39999997615814]","./assets/img/ocean/memory/26.jpg","[""ArrowDown"",""ArrowRight""]","value training","ocean","30","{""ArrowUp,ArrowLeft"":23,""ArrowUp,ArrowRight"":10,""ArrowDown,ArrowLeft"":8,""ArrowDown,ArrowRight"":30}","true","ArrowDown,ArrowRight","false","revaluation","1","70","","",""
"html-keyboard-response","189","1032496","0.0-4.0-2.0-1.35","spark_pilot_norest","8678","2","18","Female","","","","","","","null","<div style=""font-size:60px;"">+</div>","null","fixation","","","","","","","","","71","","",""
"revaluation","190","1038517","0.0-4.0-2.0-0.36","spark_pilot_norest","8678","2","18","Female","","","false","","","","[514,288.5]","./assets/img/ocean/memory/7.jpg","[""ArrowDown"",""ArrowRight""]","value training","ocean","30","{""ArrowUp,ArrowLeft"":23,""ArrowUp,ArrowRight"":10,""ArrowDown,ArrowLeft"":8,""ArrowDown,ArrowRight"":30}","true","ArrowDown,ArrowRight","false","revaluation","1","72","","",""
"html-keyboard-response","191","1039023","0.0-4.0-2.0-1.36","spark_pilot_norest","8678","2","18","Female","","","","","","","null","<div style=""font-size:60px;"">+</div>","null","fixation","","","","","","","","","73","","",""
"revaluation","192","1045049","0.0-4.0-2.0-0.37","spark_pilot_norest","8678","2","18","Female","","","false","","","","[643.5,272.5]","./assets/img/ocean/memory/22.jpg","[""ArrowDown"",""ArrowRight""]","value training","ocean","30","{""ArrowUp,ArrowLeft"":23,""ArrowUp,ArrowRight"":10,""ArrowDown,ArrowLeft"":8,""ArrowDown,ArrowRight"":30}","true","ArrowDown,ArrowRight","false","revaluation","1","74","","",""
"html-keyboard-response","193","1045557","0.0-4.0-2.0-1.37","spark_pilot_norest","8678","2","18","Female","","","","","","","null","<div style=""font-size:60px;"">+</div>","null","fixation","","","","","","","","","75","","",""
"revaluation","194","1049572","0.0-4.0-2.0-0.38","spark_pilot_norest","8678","2","18","Female","","","false","","","","[520.8999999761581]","./assets/img/ocean/catch/7.jpg","[""spaceBar""]","value training","ocean","0","{""ArrowUp,ArrowLeft"":23,""ArrowUp,ArrowRight"":10,""ArrowDown,ArrowLeft"":8,""ArrowDown,ArrowRight"":30}","true","spaceBar","true","revaluation","1","76","","",""
"html-keyboard-response","195","1050079","0.0-4.0-2.0-1.38","spark_pilot_norest","8678","2","18","Female","","","","","","","null","<div style=""font-size:60px;"">+</div>","null","fixation","","","","","","","","","77","","",""
"revaluation","196","1056101","0.0-4.0-2.0-0.39","spark_pilot_norest","8678","2","18","Female","","","false","","","","[576.8000000119209,450.0999999642372]","./assets/img/ocean/memory/1.jpg","[""ArrowDown"",""ArrowRight""]","value training","ocean","30","{""ArrowUp,ArrowLeft"":23,""ArrowUp,ArrowRight"":10,""ArrowDown,ArrowLeft"":8,""ArrowDown,ArrowRight"":30}","true","ArrowDown,ArrowRight","false","revaluation","1","78","","",""
"html-keyboard-response","197","1056607","0.0-4.0-2.0-1.39","spark_pilot_norest","8678","2","18","Female","","","","","","","null","<div style=""font-size:60px;"">+</div>","null","fixation","","","","","","","","","79","","",""
"revaluation","198","1060624","0.0-4.0-2.0-0.40","spark_pilot_norest","8678","2","18","Female","","","false","","","","[550.5999999642372]","./assets/img/ocean/catch/5.jpg","[""spaceBar""]","value training","ocean","0","{""ArrowUp,ArrowLeft"":23,""ArrowUp,ArrowRight"":10,""ArrowDown,ArrowLeft"":8,""ArrowDown,ArrowRight"":30}","true","spaceBar","true","revaluation","1","80","","",""
"html-keyboard-response","199","1061135","0.0-4.0-2.0-1.40","spark_pilot_norest","8678","2","18","Female","","","","","","","null","<div style=""font-size:60px;"">+</div>","null","fixation","","","","","","","","","81","","",""
"revaluation","200","1067157","0.0-4.0-2.0-0.41","spark_pilot_norest","8678","2","18","Female","","","false","","","","[659.8999999761581,296.80000001192093]","./assets/img/ocean/memory/26.jpg","[""ArrowDown"",""ArrowRight""]","value training","ocean","30","{""ArrowUp,ArrowLeft"":23,""ArrowUp,ArrowRight"":10,""ArrowDown,ArrowLeft"":8,""ArrowDown,ArrowRight"":30}","true","ArrowDown,ArrowRight","false","revaluation","1","82","","",""
"html-keyboard-response","201","1067662","0.0-4.0-2.0-1.41","spark_pilot_norest","8678","2","18","Female","","","","","","","null","<div style=""font-size:60px;"">+</div>","null","fixation","","","","","","","","","83","","",""
"revaluation","202","1073685","0.0-4.0-2.0-0.42","spark_pilot_norest","8678","2","18","Female","","","false","","","","[572,141.39999997615814]","./assets/img/ocean/memory/8.jpg","[""ArrowDown"",""ArrowRight""]","value training","ocean","30","{""ArrowUp,ArrowLeft"":23,""ArrowUp,ArrowRight"":10,""ArrowDown,ArrowLeft"":8,""ArrowDown,ArrowRight"":30}","true","ArrowDown,ArrowRight","false","revaluation","1","84","","",""
"html-keyboard-response","203","1074191","0.0-4.0-2.0-1.42","spark_pilot_norest","8678","2","18","Female","","","","","","","null","<div style=""font-size:60px;"">+</div>","null","fixation","","","","","","","","","85","","",""
"revaluation","204","1080213","0.0-4.0-2.0-0.43","spark_pilot_norest","8678","2","18","Female","","","false","","","","[619.3000000119209,283]","./assets/img/ocean/memory/24.jpg","[""ArrowDown"",""ArrowRight""]","value training","ocean","30","{""ArrowUp,ArrowLeft"":23,""ArrowUp,ArrowRight"":10,""ArrowDown,ArrowLeft"":8,""ArrowDown,ArrowRight"":30}","true","ArrowDown,ArrowRight","false","revaluation","1","86","","",""
"html-keyboard-response","205","1080719","0.0-4.0-2.0-1.43","spark_pilot_norest","8678","2","18","Female","","","","","","","null","<div style=""font-size:60px;"">+</div>","null","fixation","","","","","","","","","87","","",""
"revaluation","206","1086741","0.0-4.0-2.0-0.44","spark_pilot_norest","8678","2","18","Female","","","false","","","","[632.8000000119209,235.80000001192093]","./assets/img/ocean/memory/8.jpg","[""ArrowDown"",""ArrowRight""]","value training","ocean","30","{""ArrowUp,ArrowLeft"":23,""ArrowUp,ArrowRight"":10,""ArrowDown,ArrowLeft"":8,""ArrowDown,ArrowRight"":30}","true","ArrowDown,ArrowRight","false","revaluation","1","88","","",""
"html-keyboard-response","207","1087247","0.0-4.0-2.0-1.44","spark_pilot_norest","8678","2","18","Female","","","","","","","null","<div style=""font-size:60px;"">+</div>","null","fixation","","","","","","","","","89","","",""
"revaluation","208","1093269","0.0-4.0-2.0-0.45","spark_pilot_norest","8678","2","18","Female","","","false","","","","[547.4000000357628,282.5999999642372]","./assets/img/ocean/memory/7.jpg","[""ArrowDown"",""ArrowRight""]","value training","ocean","30","{""ArrowUp,ArrowLeft"":23,""ArrowUp,ArrowRight"":10,""ArrowDown,ArrowLeft"":8,""ArrowDown,ArrowRight"":30}","true","ArrowDown,ArrowRight","false","revaluation","1","90","","",""
"html-keyboard-response","209","1093775","0.0-4.0-2.0-1.45","spark_pilot_norest","8678","2","18","Female","","","","","","","null","<div style=""font-size:60px;"">+</div>","null","fixation","","","","","","","","","91","","",""
"revaluation","210","1099798","0.0-4.0-2.0-0.46","spark_pilot_norest","8678","2","18","Female","","","false","","","","[428.7000000476837,260.30000001192093]","./assets/img/ocean/memory/18.jpg","[""ArrowDown"",""ArrowRight""]","value training","ocean","30","{""ArrowUp,ArrowLeft"":23,""ArrowUp,ArrowRight"":10,""ArrowDown,ArrowLeft"":8,""ArrowDown,ArrowRight"":30}","true","ArrowDown,ArrowRight","false","revaluation","1","92","","",""
"html-keyboard-response","211","1100309","0.0-4.0-2.0-1.46","spark_pilot_norest","8678","2","18","Female","","","","","","","null","<div style=""font-size:60px;"">+</div>","null","fixation","","","","","","","","","93","","",""
"revaluation","212","1106335","0.0-4.0-2.0-0.47","spark_pilot_norest","8678","2","18","Female","","","false","","","","[504.89999997615814,277.2999999523163]","./assets/img/ocean/memory/1.jpg","[""ArrowDown"",""ArrowRight""]","value training","ocean","30","{""ArrowUp,ArrowLeft"":23,""ArrowUp,ArrowRight"":10,""ArrowDown,ArrowLeft"":8,""ArrowDown,ArrowRight"":30}","true","ArrowDown,ArrowRight","false","revaluation","1","94","","",""
"html-keyboard-response","213","1106846","0.0-4.0-2.0-1.47","spark_pilot_norest","8678","2","18","Female","","","","","","","null","<div style=""font-size:60px;"">+</div>","null","fixation","","","","","","","","","95","","",""
"revaluation","214","1110862","0.0-4.0-2.0-0.48","spark_pilot_norest","8678","2","18","Female","","","false","","","","[469.80000001192093]","./assets/img/ocean/catch/6.jpg","[""spaceBar""]","value training","ocean","0","{""ArrowUp,ArrowLeft"":23,""ArrowUp,ArrowRight"":10,""ArrowDown,ArrowLeft"":8,""ArrowDown,ArrowRight"":30}","true","spaceBar","true","revaluation","1","96","","",""
"html-keyboard-response","215","1111374","0.0-4.0-2.0-1.48","spark_pilot_norest","8678","2","18","Female","","","","","","","null","<div style=""font-size:60px;"">+</div>","null","fixation","","","","","","","","","97","","",""
"revaluation","216","1117398","0.0-4.0-2.0-0.49","spark_pilot_norest","8678","2","18","Female","","","false","","","","[572.2999999523163,301.5]","./assets/img/ocean/memory/11.jpg","[""ArrowDown"",""ArrowRight""]","value training","ocean","30","{""ArrowUp,ArrowLeft"":23,""ArrowUp,ArrowRight"":10,""ArrowDown,ArrowLeft"":8,""ArrowDown,ArrowRight"":30}","true","ArrowDown,ArrowRight","false","revaluation","1","98","","",""
"html-keyboard-response","217","1117909","0.0-4.0-2.0-1.49","spark_pilot_norest","8678","2","18","Female","","","","","","","null","<div style=""font-size:60px;"">+</div>","null","fixation","","","","","","","","","99","","",""
"learning-instructions","218","1132227","0.0-4.0-3.0-0.0","spark_pilot_norest","8678","2","18","Female","","","","","","","1394.5","<p> Now, you will travel with a friend who will choose whether you go up or down first. </p>
            <p> On these turns, you will just see the animal that they found. You will still get to choose which chest to search for treasure.</p>","","instructions","","","","","","","","","","","",""
"revaluation","219","1136247","0.0-4.0-4.0-0.0","spark_pilot_norest","8678","2","18","Female","","","false","","","","[652.1999999880791]","./assets/img/ocean/animals/seahorse.jpg","[""ArrowRight""]","revaluation","ocean","7","{""ArrowUp,ArrowLeft"":27,""ArrowUp,ArrowRight"":15,""ArrowDown,ArrowLeft"":21,""ArrowDown,ArrowRight"":7}","false","ArrowDown,ArrowRight","","revaluation","1","0","","",""
"html-keyboard-response","220","1136755","0.0-4.0-4.0-1.0","spark_pilot_norest","8678","2","18","Female","","","","","","","null","<div style=""font-size:60px;"">+</div>","null","fixation","","","","","","","","","1","","",""
"revaluation","221","1140772","0.0-4.0-4.0-0.1","spark_pilot_norest","8678","2","18","Female","","","false","","","","[991.3000000119209]","./assets/img/ocean/animals/seahorse.jpg","[""ArrowLeft""]","revaluation","ocean","21","{""ArrowUp,ArrowLeft"":27,""ArrowUp,ArrowRight"":15,""ArrowDown,ArrowLeft"":21,""ArrowDown,ArrowRight"":7}","true","ArrowDown,ArrowLeft","","revaluation","1","2","","",""
"html-keyboard-response","222","1141276","0.0-4.0-4.0-1.1","spark_pilot_norest","8678","2","18","Female","","","","","","","null","<div style=""font-size:60px;"">+</div>","null","fixation","","","","","","","","","3","","",""
"revaluation","223","1145294","0.0-4.0-4.0-0.2","spark_pilot_norest","8678","2","18","Female","","","false","","","","[642.8000000119209]","./assets/img/ocean/animals/seahorse.jpg","[""ArrowLeft""]","revaluation","ocean","21","{""ArrowUp,ArrowLeft"":27,""ArrowUp,ArrowRight"":15,""ArrowDown,ArrowLeft"":21,""ArrowDown,ArrowRight"":7}","true","ArrowDown,ArrowLeft","","revaluation","1","4","","",""
"html-keyboard-response","224","1145805","0.0-4.0-4.0-1.2","spark_pilot_norest","8678","2","18","Female","","","","","","","null","<div style=""font-size:60px;"">+</div>","null","fixation","","","","","","","","","5","","",""
"revaluation","225","1149819","0.0-4.0-4.0-0.3","spark_pilot_norest","8678","2","18","Female","","","false","","","","[647.8999999761581]","./assets/img/ocean/animals/octopus.jpg","[""ArrowLeft""]","revaluation","ocean","27","{""ArrowUp,ArrowLeft"":27,""ArrowUp,ArrowRight"":15,""ArrowDown,ArrowLeft"":21,""ArrowDown,ArrowRight"":7}","true","ArrowUp,ArrowLeft","","revaluation","1","6","","",""
"html-keyboard-response","226","1150327","0.0-4.0-4.0-1.3","spark_pilot_norest","8678","2","18","Female","","","","","","","null","<div style=""font-size:60px;"">+</div>","null","fixation","","","","","","","","","7","","",""
"revaluation","227","1154347","0.0-4.0-4.0-0.4","spark_pilot_norest","8678","2","18","Female","","","false","","","","[563.1999999880791]","./assets/img/ocean/animals/octopus.jpg","[""ArrowRight""]","revaluation","ocean","15","{""ArrowUp,ArrowLeft"":27,""ArrowUp,ArrowRight"":15,""ArrowDown,ArrowLeft"":21,""ArrowDown,ArrowRight"":7}","false","ArrowUp,ArrowRight","","revaluation","1","8","","",""
"html-keyboard-response","228","1154855","0.0-4.0-4.0-1.4","spark_pilot_norest","8678","2","18","Female","","","","","","","null","<div style=""font-size:60px;"">+</div>","null","fixation","","","","","","","","","9","","",""
"revaluation","229","1158880","0.0-4.0-4.0-0.5","spark_pilot_norest","8678","2","18","Female","","","false","","","","[563.8000000119209]","./assets/img/ocean/animals/octopus.jpg","[""ArrowLeft""]","revaluation","ocean","27","{""ArrowUp,ArrowLeft"":27,""ArrowUp,ArrowRight"":15,""ArrowDown,ArrowLeft"":21,""ArrowDown,ArrowRight"":7}","true","ArrowUp,ArrowLeft","","revaluation","1","10","","",""
"html-keyboard-response","230","1159388","0.0-4.0-4.0-1.5","spark_pilot_norest","8678","2","18","Female","","","","","","","null","<div style=""font-size:60px;"">+</div>","null","fixation","","","","","","","","","11","","",""
"revaluation","231","1163405","0.0-4.0-4.0-0.6","spark_pilot_norest","8678","2","18","Female","","","false","","","","[487.10000002384186]","./assets/img/ocean/animals/seahorse.jpg","[""ArrowLeft""]","revaluation","ocean","21","{""ArrowUp,ArrowLeft"":27,""ArrowUp,ArrowRight"":15,""ArrowDown,ArrowLeft"":21,""ArrowDown,ArrowRight"":7}","true","ArrowDown,ArrowLeft","","revaluation","1","12","","",""
"html-keyboard-response","232","1163917","0.0-4.0-4.0-1.6","spark_pilot_norest","8678","2","18","Female","","","","","","","null","<div style=""font-size:60px;"">+</div>","null","fixation","","","","","","","","","13","","",""
"revaluation","233","1167932","0.0-4.0-4.0-0.7","spark_pilot_norest","8678","2","18","Female","","","false","","","","[380.89999997615814]","./assets/img/ocean/animals/octopus.jpg","[""ArrowLeft""]","revaluation","ocean","27","{""ArrowUp,ArrowLeft"":27,""ArrowUp,ArrowRight"":15,""ArrowDown,ArrowLeft"":21,""ArrowDown,ArrowRight"":7}","true","ArrowUp,ArrowLeft","","revaluation","1","14","","",""
"html-keyboard-response","234","1168439","0.0-4.0-4.0-1.7","spark_pilot_norest","8678","2","18","Female","","","","","","","null","<div style=""font-size:60px;"">+</div>","null","fixation","","","","","","","","","15","","",""
"revaluation","235","1172461","0.0-4.0-4.0-0.8","spark_pilot_norest","8678","2","18","Female","","","false","","","","[376.10000002384186]","./assets/img/ocean/animals/seahorse.jpg","[""ArrowLeft""]","revaluation","ocean","21","{""ArrowUp,ArrowLeft"":27,""ArrowUp,ArrowRight"":15,""ArrowDown,ArrowLeft"":21,""ArrowDown,ArrowRight"":7}","true","ArrowDown,ArrowLeft","","revaluation","1","16","","",""
"html-keyboard-response","236","1172973","0.0-4.0-4.0-1.8","spark_pilot_norest","8678","2","18","Female","","","","","","","null","<div style=""font-size:60px;"">+</div>","null","fixation","","","","","","","","","17","","",""
"revaluation","237","1176989","0.0-4.0-4.0-0.9","spark_pilot_norest","8678","2","18","Female","","","false","","","","[470.7999999523163]","./assets/img/ocean/animals/octopus.jpg","[""ArrowLeft""]","revaluation","ocean","27","{""ArrowUp,ArrowLeft"":27,""ArrowUp,ArrowRight"":15,""ArrowDown,ArrowLeft"":21,""ArrowDown,ArrowRight"":7}","true","ArrowUp,ArrowLeft","","revaluation","1","18","","",""
"html-keyboard-response","238","1177500","0.0-4.0-4.0-1.9","spark_pilot_norest","8678","2","18","Female","","","","","","","null","<div style=""font-size:60px;"">+</div>","null","fixation","","","","","","","","","19","","",""
"revaluation","239","1181517","0.0-4.0-4.0-0.10","spark_pilot_norest","8678","2","18","Female","","","false","","","","[647.8999999761581]","./assets/img/ocean/animals/octopus.jpg","[""ArrowLeft""]","revaluation","ocean","27","{""ArrowUp,ArrowLeft"":27,""ArrowUp,ArrowRight"":15,""ArrowDown,ArrowLeft"":21,""ArrowDown,ArrowRight"":7}","true","ArrowUp,ArrowLeft","","revaluation","1","20","","",""
"html-keyboard-response","240","1182028","0.0-4.0-4.0-1.10","spark_pilot_norest","8678","2","18","Female","","","","","","","null","<div style=""font-size:60px;"">+</div>","null","fixation","","","","","","","","","21","","",""
"revaluation","241","1186046","0.0-4.0-4.0-0.11","spark_pilot_norest","8678","2","18","Female","","","false","","","","[550.6999999880791]","./assets/img/ocean/animals/seahorse.jpg","[""ArrowLeft""]","revaluation","ocean","21","{""ArrowUp,ArrowLeft"":27,""ArrowUp,ArrowRight"":15,""ArrowDown,ArrowLeft"":21,""ArrowDown,ArrowRight"":7}","true","ArrowDown,ArrowLeft","","revaluation","1","22","","",""
"html-keyboard-response","242","1186558","0.0-4.0-4.0-1.11","spark_pilot_norest","8678","2","18","Female","","","","","","","null","<div style=""font-size:60px;"">+</div>","null","fixation","","","","","","","","","23","","",""
"revaluation","243","1190583","0.0-4.0-4.0-0.12","spark_pilot_norest","8678","2","18","Female","","","false","","","","[512.1000000238419]","./assets/img/ocean/animals/octopus.jpg","[""ArrowLeft""]","revaluation","ocean","27","{""ArrowUp,ArrowLeft"":27,""ArrowUp,ArrowRight"":15,""ArrowDown,ArrowLeft"":21,""ArrowDown,ArrowRight"":7}","true","ArrowUp,ArrowLeft","","revaluation","1","24","","",""
"html-keyboard-response","244","1191094","0.0-4.0-4.0-1.12","spark_pilot_norest","8678","2","18","Female","","","","","","","null","<div style=""font-size:60px;"">+</div>","null","fixation","","","","","","","","","25","","",""
"revaluation","245","1195118","0.0-4.0-4.0-0.13","spark_pilot_norest","8678","2","18","Female","","","false","","","","[509.69999998807907]","./assets/img/ocean/animals/seahorse.jpg","[""ArrowLeft""]","revaluation","ocean","21","{""ArrowUp,ArrowLeft"":27,""ArrowUp,ArrowRight"":15,""ArrowDown,ArrowLeft"":21,""ArrowDown,ArrowRight"":7}","true","ArrowDown,ArrowLeft","","revaluation","1","26","","",""
"html-keyboard-response","246","1195628","0.0-4.0-4.0-1.13","spark_pilot_norest","8678","2","18","Female","","","","","","","null","<div style=""font-size:60px;"">+</div>","null","fixation","","","","","","","","","27","","",""
"revaluation","247","1199646","0.0-4.0-4.0-0.14","spark_pilot_norest","8678","2","18","Female","","","false","","","","[681.4000000357628]","./assets/img/ocean/animals/seahorse.jpg","[""ArrowLeft""]","revaluation","ocean","21","{""ArrowUp,ArrowLeft"":27,""ArrowUp,ArrowRight"":15,""ArrowDown,ArrowLeft"":21,""ArrowDown,ArrowRight"":7}","true","ArrowDown,ArrowLeft","","revaluation","1","28","","",""
"html-keyboard-response","248","1200158","0.0-4.0-4.0-1.14","spark_pilot_norest","8678","2","18","Female","","","","","","","null","<div style=""font-size:60px;"">+</div>","null","fixation","","","","","","","","","29","","",""
"revaluation","249","1204182","0.0-4.0-4.0-0.15","spark_pilot_norest","8678","2","18","Female","","","false","","","","[413.69999998807907]","./assets/img/ocean/animals/octopus.jpg","[""ArrowLeft""]","revaluation","ocean","27","{""ArrowUp,ArrowLeft"":27,""ArrowUp,ArrowRight"":15,""ArrowDown,ArrowLeft"":21,""ArrowDown,ArrowRight"":7}","true","ArrowUp,ArrowLeft","","revaluation","1","30","","",""
"html-keyboard-response","250","1204694","0.0-4.0-4.0-1.15","spark_pilot_norest","8678","2","18","Female","","","","","","","null","<div style=""font-size:60px;"">+</div>","null","fixation","","","","","","","","","31","","",""
"revaluation","251","1208717","0.0-4.0-4.0-0.16","spark_pilot_norest","8678","2","18","Female","","","false","","","","[460]","./assets/img/ocean/animals/seahorse.jpg","[""ArrowLeft""]","revaluation","ocean","21","{""ArrowUp,ArrowLeft"":27,""ArrowUp,ArrowRight"":15,""ArrowDown,ArrowLeft"":21,""ArrowDown,ArrowRight"":7}","true","ArrowDown,ArrowLeft","","revaluation","1","32","","",""
"html-keyboard-response","252","1209228","0.0-4.0-4.0-1.16","spark_pilot_norest","8678","2","18","Female","","","","","","","null","<div style=""font-size:60px;"">+</div>","null","fixation","","","","","","","","","33","","",""
"revaluation","253","1213246","0.0-4.0-4.0-0.17","spark_pilot_norest","8678","2","18","Female","","","false","","","","[453.10000002384186]","./assets/img/ocean/animals/octopus.jpg","[""ArrowLeft""]","revaluation","ocean","27","{""ArrowUp,ArrowLeft"":27,""ArrowUp,ArrowRight"":15,""ArrowDown,ArrowLeft"":21,""ArrowDown,ArrowRight"":7}","true","ArrowUp,ArrowLeft","","revaluation","1","34","","",""
"html-keyboard-response","254","1213758","0.0-4.0-4.0-1.17","spark_pilot_norest","8678","2","18","Female","","","","","","","null","<div style=""font-size:60px;"">+</div>","null","fixation","","","","","","","","","35","","",""
"learning-instructions","255","1221898","0.0-4.0-5.0-0.0","spark_pilot_norest","8678","2","18","Female","","","","","","","null","<p> You have almost finished this part of the game! </p>
            <p> We are going to ask you to make a few more choices. </p>","","instructions","","","","","","","","","","","",""
"learning-instructions","256","1237875","0.0-4.0-5.0-0.1","spark_pilot_norest","8678","2","18","Female","","","","","","","null","<p> First, you need to decide whether to go up or down. When you see each picture, use the arrow keys to make your choice. </p>
            <p><b>You will not see which animal you found, but try to get to the one that will give you the most treasure.</b></p>","","instructions","","","","","","","","","","","",""
"html-keyboard-response","257","1238886","0.0-4.0-6.0-0.0","spark_pilot_norest","8678","2","18","Female","","","","","","","null","<div style=""font-size:100px;color:red;"">Starting in...</div>","null","","","","","","","","","","","","",""
"html-keyboard-response","258","1239891","0.0-4.0-6.0-1.0","spark_pilot_norest","8678","2","18","Female","","","","","","","null","<div style=""font-size:200px;color:red;"">3</div>","null","","","","","","","","","","","","",""
"html-keyboard-response","259","1240898","0.0-4.0-6.0-2.0","spark_pilot_norest","8678","2","18","Female","","","","","","","null","<div style=""font-size:200px;color:red;"">2</div>","null","","","","","","","","","","","","",""
"html-keyboard-response","260","1241907","0.0-4.0-6.0-3.0","spark_pilot_norest","8678","2","18","Female","","","","","","","null","<div style=""font-size:200px;color:red;"">1</div>","null","","","","","","","","","","","","",""
"revaluation","261","1242206","0.0-4.0-7.0-0.0","spark_pilot_norest","8678","2","18","Female","","","false","","","","[293.10000002384186]","./assets/img/ocean/test/3.jpg","[""ArrowDown""]","first stage test","ocean","0","{""ArrowUp,ArrowLeft"":27,""ArrowUp,ArrowRight"":15,""ArrowDown,ArrowLeft"":21,""ArrowDown,ArrowRight"":7}","false","ArrowDown","false","revaluation","1","","","",""
"html-keyboard-response","262","1242714","0.0-4.0-7.0-1.0","spark_pilot_norest","8678","2","18","Female","","","","","","","null","<div style=""font-size:60px;"">+</div>","null","fixation","","","","","","","","","","","",""
"revaluation","263","1243040","0.0-4.0-7.0-0.1","spark_pilot_norest","8678","2","18","Female","","","false","","","","[321.39999997615814]","./assets/img/ocean/test/0.jpg","[""ArrowDown""]","first stage test","ocean","0","{""ArrowUp,ArrowLeft"":27,""ArrowUp,ArrowRight"":15,""ArrowDown,ArrowLeft"":21,""ArrowDown,ArrowRight"":7}","false","ArrowDown","false","revaluation","1","","","",""
"html-keyboard-response","264","1243545","0.0-4.0-7.0-1.1","spark_pilot_norest","8678","2","18","Female","","","","","","","null","<div style=""font-size:60px;"">+</div>","null","fixation","","","","","","","","","","","",""
"revaluation","265","1243849","0.0-4.0-7.0-0.2","spark_pilot_norest","8678","2","18","Female","","","false","","","","[300.10000002384186]","./assets/img/ocean/test/1.jpg","[""ArrowDown""]","first stage test","ocean","0","{""ArrowUp,ArrowLeft"":27,""ArrowUp,ArrowRight"":15,""ArrowDown,ArrowLeft"":21,""ArrowDown,ArrowRight"":7}","false","ArrowDown","false","revaluation","1","","","",""
"html-keyboard-response","266","1244357","0.0-4.0-7.0-1.2","spark_pilot_norest","8678","2","18","Female","","","","","","","null","<div style=""font-size:60px;"">+</div>","null","fixation","","","","","","","","","","","",""
"revaluation","267","1244643","0.0-4.0-7.0-0.3","spark_pilot_norest","8678","2","18","Female","","","false","","","","[281.4000000357628]","./assets/img/ocean/test/2.jpg","[""ArrowDown""]","first stage test","ocean","0","{""ArrowUp,ArrowLeft"":27,""ArrowUp,ArrowRight"":15,""ArrowDown,ArrowLeft"":21,""ArrowDown,ArrowRight"":7}","false","ArrowDown","false","revaluation","1","","","",""
"html-keyboard-response","268","1245145","0.0-4.0-7.0-1.3","spark_pilot_norest","8678","2","18","Female","","","","","","","null","<div style=""font-size:60px;"">+</div>","null","fixation","","","","","","","","","","","",""
"learning-instructions","269","1258490","0.0-4.0-8.0-0.0","spark_pilot_norest","8678","2","18","Female","","","","","","","null","<p> Now you will see the animals again and can search their chests for treasure. </p>
            <p> This time, you will not see how much treasure you earned, but you will earn more bonus money for making better choices. </p>","","instructions","","","","","","","","","","","",""
"html-keyboard-response","270","1259502","0.0-4.0-9.0-0.0","spark_pilot_norest","8678","2","18","Female","","","","","","","null","<div style=""font-size:100px;color:red;"">Starting in...</div>","null","","","","","","","","","","","","",""
"html-keyboard-response","271","1260507","0.0-4.0-9.0-1.0","spark_pilot_norest","8678","2","18","Female","","","","","","","null","<div style=""font-size:200px;color:red;"">3</div>","null","","","","","","","","","","","","",""
"html-keyboard-response","272","1261515","0.0-4.0-9.0-2.0","spark_pilot_norest","8678","2","18","Female","","","","","","","null","<div style=""font-size:200px;color:red;"">2</div>","null","","","","","","","","","","","","",""
"html-keyboard-response","273","1262526","0.0-4.0-9.0-3.0","spark_pilot_norest","8678","2","18","Female","","","","","","","null","<div style=""font-size:200px;color:red;"">1</div>","null","","","","","","","","","","","","",""
"revaluation","274","1262926","0.0-4.0-10.0-0.0","spark_pilot_norest","8678","2","18","Female","","","false","","","","[396.39999997615814]","./assets/img/ocean/animals/octopus.jpg","[""ArrowLeft""]","second stage test","ocean","0","{""ArrowUp,ArrowLeft"":27,""ArrowUp,ArrowRight"":15,""ArrowDown,ArrowLeft"":21,""ArrowDown,ArrowRight"":7}","true","ArrowUp,ArrowLeft","","revaluation","1","","","",""
"html-keyboard-response","275","1263437","0.0-4.0-10.0-1.0","spark_pilot_norest","8678","2","18","Female","","","","","","","null","<div style=""font-size:60px;"">+</div>","null","fixation","","","","","","","","","","","",""
"revaluation","276","1263745","0.0-4.0-10.0-0.1","spark_pilot_norest","8678","2","18","Female","","","false","","","","[304.10000002384186]","./assets/img/ocean/animals/octopus.jpg","[""ArrowLeft""]","second stage test","ocean","0","{""ArrowUp,ArrowLeft"":27,""ArrowUp,ArrowRight"":15,""ArrowDown,ArrowLeft"":21,""ArrowDown,ArrowRight"":7}","true","ArrowUp,ArrowLeft","","revaluation","1","","","",""
"html-keyboard-response","277","1264253","0.0-4.0-10.0-1.1","spark_pilot_norest","8678","2","18","Female","","","","","","","null","<div style=""font-size:60px;"">+</div>","null","fixation","","","","","","","","","","","",""
"revaluation","278","1264554","0.0-4.0-10.0-0.2","spark_pilot_norest","8678","2","18","Female","","","false","","","","[298.19999998807907]","./assets/img/ocean/animals/octopus.jpg","[""ArrowLeft""]","second stage test","ocean","0","{""ArrowUp,ArrowLeft"":27,""ArrowUp,ArrowRight"":15,""ArrowDown,ArrowLeft"":21,""ArrowDown,ArrowRight"":7}","true","ArrowUp,ArrowLeft","","revaluation","1","","","",""
"html-keyboard-response","279","1265057","0.0-4.0-10.0-1.2","spark_pilot_norest","8678","2","18","Female","","","","","","","null","<div style=""font-size:60px;"">+</div>","null","fixation","","","","","","","","","","","",""
"revaluation","280","1265400","0.0-4.0-10.0-0.3","spark_pilot_norest","8678","2","18","Female","","","false","","","","[339.10000002384186]","./assets/img/ocean/animals/octopus.jpg","[""ArrowLeft""]","second stage test","ocean","0","{""ArrowUp,ArrowLeft"":27,""ArrowUp,ArrowRight"":15,""ArrowDown,ArrowLeft"":21,""ArrowDown,ArrowRight"":7}","true","ArrowUp,ArrowLeft","","revaluation","1","","","",""
"html-keyboard-response","281","1265907","0.0-4.0-10.0-1.3","spark_pilot_norest","8678","2","18","Female","","","","","","","null","<div style=""font-size:60px;"">+</div>","null","fixation","","","","","","","","","","","",""
"revaluation","282","1266220","0.0-4.0-10.0-0.4","spark_pilot_norest","8678","2","18","Female","","","false","","","","[308.60000002384186]","./assets/img/ocean/animals/seahorse.jpg","[""ArrowLeft""]","second stage test","ocean","0","{""ArrowUp,ArrowLeft"":27,""ArrowUp,ArrowRight"":15,""ArrowDown,ArrowLeft"":21,""ArrowDown,ArrowRight"":7}","true","ArrowDown,ArrowLeft","","revaluation","1","","","",""
"html-keyboard-response","283","1266721","0.0-4.0-10.0-1.4","spark_pilot_norest","8678","2","18","Female","","","","","","","null","<div style=""font-size:60px;"">+</div>","null","fixation","","","","","","","","","","","",""
"revaluation","284","1267063","0.0-4.0-10.0-0.5","spark_pilot_norest","8678","2","18","Female","","","false","","","","[338.0999999642372]","./assets/img/ocean/animals/seahorse.jpg","[""ArrowLeft""]","second stage test","ocean","0","{""ArrowUp,ArrowLeft"":27,""ArrowUp,ArrowRight"":15,""ArrowDown,ArrowLeft"":21,""ArrowDown,ArrowRight"":7}","true","ArrowDown,ArrowLeft","","revaluation","1","","","",""
"html-keyboard-response","285","1267569","0.0-4.0-10.0-1.5","spark_pilot_norest","8678","2","18","Female","","","","","","","null","<div style=""font-size:60px;"">+</div>","null","fixation","","","","","","","","","","","",""
"revaluation","286","1267869","0.0-4.0-10.0-0.6","spark_pilot_norest","8678","2","18","Female","","","false","","","","[296.19999998807907]","./assets/img/ocean/animals/seahorse.jpg","[""ArrowLeft""]","second stage test","ocean","0","{""ArrowUp,ArrowLeft"":27,""ArrowUp,ArrowRight"":15,""ArrowDown,ArrowLeft"":21,""ArrowDown,ArrowRight"":7}","true","ArrowDown,ArrowLeft","","revaluation","1","","","",""
"html-keyboard-response","287","1268378","0.0-4.0-10.0-1.6","spark_pilot_norest","8678","2","18","Female","","","","","","","null","<div style=""font-size:60px;"">+</div>","null","fixation","","","","","","","","","","","",""
"revaluation","288","1268690","0.0-4.0-10.0-0.7","spark_pilot_norest","8678","2","18","Female","","","false","","","","[308.5]","./assets/img/ocean/animals/seahorse.jpg","[""ArrowLeft""]","second stage test","ocean","0","{""ArrowUp,ArrowLeft"":27,""ArrowUp,ArrowRight"":15,""ArrowDown,ArrowLeft"":21,""ArrowDown,ArrowRight"":7}","true","ArrowDown,ArrowLeft","","revaluation","1","","","",""
"html-keyboard-response","289","1269195","0.0-4.0-10.0-1.7","spark_pilot_norest","8678","2","18","Female","","","","","","","null","<div style=""font-size:60px;"">+</div>","null","fixation","","","","","","","","","","","",""
"learning-instructions","290","1273663","0.0-4.0-0.1-0.2","spark_pilot_norest","8678","2","18","Female","","","","","","","1702.300000011921","<p> This time you are searching for treasure in the <b>canyon</b>.</p>","","instructions","","","","","","","","","","","",""
"learning-instructions","291","1291471","0.0-4.0-0.1-0.3","spark_pilot_norest","8678","2","18","Female","","","","","","","554.9000000357628","<p><b>New</b> animals with <b>new</b> treasure chests live here. You need to explore to discover where the animal with the best treasure chest is.</p>
                    <p> Like before, once you figure out which animal has the chest with the most treasure, you should try to get to that animal and select that chest! </p>","","instructions","","","","","","","","","","","",""
"learning-instructions","292","1309868","0.0-4.0-1.1-0.1","spark_pilot_norest","8678","2","18","Female","","","","","","","3665.7000000476837","<p> Remember, when you see a picture of the place, use the up and down keys to <b>find an animal</b>.</p>
            <p> When you encounter an animal, you should use the left and right keys to <b>select a treasure chest</b>.</p>
            <p> Don't forget to look out for the robber! </p>","","instructions","","","","","","","","","","","",""
"revaluation","293","1313881","0.0-4.0-2.1-0.50","spark_pilot_norest","8678","2","18","Female","","","false","","","","[634.3000000119209]","./assets/img/canyon/catch/3.jpg","[""spaceBar""]","value training","canyon","0","{""ArrowUp,ArrowLeft"":26,""ArrowUp,ArrowRight"":10,""ArrowDown,ArrowLeft"":5,""ArrowDown,ArrowRight"":17}","true","spaceBar","true","original","2","0","","",""
"html-keyboard-response","294","1314385","0.0-4.0-2.1-1.50","spark_pilot_norest","8678","2","18","Female","","","","","","","null","<div style=""font-size:60px;"">+</div>","null","fixation","","","","","","","","","1","","",""
"revaluation","295","1320409","0.0-4.0-2.1-0.51","spark_pilot_norest","8678","2","18","Female","","","false","","","","[501.30000001192093,404.69999998807907]","./assets/img/canyon/memory/8.jpg","[""ArrowUp"",""ArrowLeft""]","value training","canyon","26","{""ArrowUp,ArrowLeft"":26,""ArrowUp,ArrowRight"":10,""ArrowDown,ArrowLeft"":5,""ArrowDown,ArrowRight"":17}","true","ArrowUp,ArrowLeft","false","original","2","2","","",""
"html-keyboard-response","296","1320916","0.0-4.0-2.1-1.51","spark_pilot_norest","8678","2","18","Female","","","","","","","null","<div style=""font-size:60px;"">+</div>","null","fixation","","","","","","","","","3","","",""
"revaluation","297","1326944","0.0-4.0-2.1-0.52","spark_pilot_norest","8678","2","18","Female","","","false","","","","[525,294.7999999523163]","./assets/img/canyon/memory/33.jpg","[""ArrowUp"",""ArrowRight""]","value training","canyon","10","{""ArrowUp,ArrowLeft"":26,""ArrowUp,ArrowRight"":10,""ArrowDown,ArrowLeft"":5,""ArrowDown,ArrowRight"":17}","false","ArrowUp,ArrowRight","false","original","2","4","","",""
"html-keyboard-response","298","1327452","0.0-4.0-2.1-1.52","spark_pilot_norest","8678","2","18","Female","","","","","","","null","<div style=""font-size:60px;"">+</div>","null","fixation","","","","","","","","","5","","",""
"revaluation","299","1331474","0.0-4.0-2.1-0.53","spark_pilot_norest","8678","2","18","Female","","","false","","","","[722.6999999880791]","./assets/img/canyon/catch/2.jpg","[""spaceBar""]","value training","canyon","0","{""ArrowUp,ArrowLeft"":26,""ArrowUp,ArrowRight"":10,""ArrowDown,ArrowLeft"":5,""ArrowDown,ArrowRight"":17}","true","spaceBar","true","original","2","6","","",""
"html-keyboard-response","300","1331985","0.0-4.0-2.1-1.53","spark_pilot_norest","8678","2","18","Female","","","","","","","null","<div style=""font-size:60px;"">+</div>","null","fixation","","","","","","","","","7","","",""
"revaluation","301","1338011","0.0-4.0-2.1-0.54","spark_pilot_norest","8678","2","18","Female","","","false","","","","[424.5999999642372,392.9000000357628]","./assets/img/canyon/memory/40.jpg","[""ArrowDown"",""ArrowLeft""]","value training","canyon","5","{""ArrowUp,ArrowLeft"":26,""ArrowUp,ArrowRight"":10,""ArrowDown,ArrowLeft"":5,""ArrowDown,ArrowRight"":17}","false","ArrowDown,ArrowLeft","false","original","2","8","","",""
"html-keyboard-response","302","1338523","0.0-4.0-2.1-1.54","spark_pilot_norest","8678","2","18","Female","","","","","","","null","<div style=""font-size:60px;"">+</div>","null","fixation","","","","","","","","","9","","",""
"revaluation","303","1342540","0.0-4.0-2.1-0.55","spark_pilot_norest","8678","2","18","Female","","","false","","","","[531.9000000357628]","./assets/img/canyon/catch/6.jpg","[""spaceBar""]","value training","canyon","0","{""ArrowUp,ArrowLeft"":26,""ArrowUp,ArrowRight"":10,""ArrowDown,ArrowLeft"":5,""ArrowDown,ArrowRight"":17}","true","spaceBar","true","original","2","10","","",""
"html-keyboard-response","304","1343051","0.0-4.0-2.1-1.55","spark_pilot_norest","8678","2","18","Female","","","","","","","null","<div style=""font-size:60px;"">+</div>","null","fixation","","","","","","","","","11","","",""
"revaluation","305","1349083","0.0-4.0-2.1-0.56","spark_pilot_norest","8678","2","18","Female","","","false","","","","[622.8999999761581,362]","./assets/img/canyon/memory/25.jpg","[""ArrowDown"",""ArrowRight""]","value training","canyon","17","{""ArrowUp,ArrowLeft"":26,""ArrowUp,ArrowRight"":10,""ArrowDown,ArrowLeft"":5,""ArrowDown,ArrowRight"":17}","false","ArrowDown,ArrowRight","false","original","2","12","","",""
"html-keyboard-response","306","1349595","0.0-4.0-2.1-1.56","spark_pilot_norest","8678","2","18","Female","","","","","","","null","<div style=""font-size:60px;"">+</div>","null","fixation","","","","","","","","","13","","",""
