"trial_type","trial_index","time_elapsed","internal_node_id","task_version","subject_id","assigned_condition","age","gender","success","timeout","failed_images","failed_audio","failed_video","browser_interaction","rt","stimulus","response","task_part","environment","score","rewardMap","correct","fullState","isCatch","condition","order","trial_num","key_press","ground_truth","bonus"
"pavlovia","0","1043","0.0-0.0","spark_pilot_norest","10009","3","18","Male","","","","","","","","","","","","","","","","","","","","","",""
"preload","1","15958","0.0-1.0","spark_pilot_norest","10009","3","18","Male","true","false","[]","[]","[]","[{""event"":""fullscreenenter"",""trial"":2,""time"":18935}]","","","","","","","","","","","","","","","",""
"fullscreen","2","19901","0.0-2.0","spark_pilot_norest","10009","3","18","Male","true","","","","","","","","","","","","","","","","","","","","",""
"audio-button-response","3","21811","0.0-3.0-0.0-0.0","spark_pilot_norest","10009","3","18","Male","","","","","","","1600","./assets/audio/audiotest/turtle.mp3","2","audio_test","","","","","","","","","","","",""
"learning-instructions","4","32034","0.0-3.0-1.0-0.0","spark_pilot_norest","10009","3","18","Male","","","","","","","3220.7000000476837","<p> Welcome! Please remember to stay in fullscreen mode and don't click away from the experiment. </p>","","instructions","","","","","","","","","","","",""
"learning-instructions","5","41722","0.0-3.0-1.0-0.1","spark_pilot_norest","10009","3","18","Male","","","","","","","1270","<p> Today you will be playing a game to earn treasure. </p>
            <p> At the end of the experiment, you will earn a bonus based on how much treasure you find. </p>
            <img src='./assets/img/instructions/treasure.jpg' class='instructions-image'>","","instructions","","","","","","","","","","","",""
"learning-instructions","6","51456","0.0-3.0-1.0-0.2","spark_pilot_norest","10009","3","18","Male","","","","","","","1474.5999999046326","<p> Animals have hidden treasure in treasure chests. </p>
            <p> You need to first find an animal and then choose which of their treasure chests to search. </p>
            <img src='./assets/img/space/animals/cat.jpg' class='instructions-image'>","","instructions","","","","","","","","","","","",""
"learning-instructions","7","65813","0.0-3.0-1.0-0.3","spark_pilot_norest","10009","3","18","Male","","","","","","","1199.7000000476837","<p> In each round, you will search for treasure in a different place. In the real game, there will be two rounds. </p>
            <p> You will begin with a separate, practice round where you will search for treasure in outer space. </p>
            <img src='./assets/img/space/0.jpg' class='instructions-image'>","","instructions","","","","","","","","","","","",""
"learning-instructions","8","78209","0.0-3.0-1.0-0.4","spark_pilot_norest","10009","3","18","Male","","","","","","","986.6999999284744","<p> On every turn, you will see a picture of the place that you are in, but the specific image may be different each time. </p>
            <p> For example, both of these images mean you are in outer space. </p>
            <img src='./assets/img/instructions/outerspace.jpg' class='instructions-image'>","","instructions","","","","","","","","","","","",""
"learning-instructions","9","87027","0.0-3.0-1.0-0.5","spark_pilot_norest","10009","3","18","Male","","","","","","","984.3999999761581","<p> You need to decide which direction to travel in. </p>
            <p> You can choose between going <b>up or down</b> by using the arrow keys. </p>
            <img src='./assets/img/instructions/updown.jpg' class='instructions-image'>","","instructions","","","","","","","","","","","",""
"learning-instructions","10","97333","0.0-3.0-1.0-0.6","spark_pilot_norest","10009","3","18","Male","","","","","","","1478.7999999523163","<p> You will have <b>2 seconds</b> to make your choice. </p>
            <p> If you do not make a choice within 2 seconds, you will not find an animal or earn treasure. </p>
            <img src='./assets/img/instructions/2seconds.jpg' class='instructions-image'>","","instructions","","","","","","","","","","","",""
"learning-instructions","11","105686","0.0-3.0-1.0-0.7","spark_pilot_norest","10009","3","18","Male","","","","","","","1313.8999999761581","<p> Let’s try practicing that now! </p>
            <p> When you see a picture of the place you are in, press the <b>up</b> key to travel up. </p>
            <img src='./assets/img/instructions/pressUp.jpg' class='instructions-image'>","","instructions","","","","","","","","","","","",""
"revaluation","12","109722","0.0-3.0-2.0-0.0","spark_pilot_norest","10009","3","18","Male","","false","","","","","[456.5]","./assets/img/space/0.jpg","[""ArrowUp""]","first stage practice","space","0","null","null","ArrowUp","false","","","","","",""
"html-keyboard-response","13","110227","0.0-3.0-2.0-1.0","spark_pilot_norest","10009","3","18","Male","","","","","","","null","<div style=""font-size:60px;"">+</div>","null","fixation","","","","","","","","","","","",""
"revaluation","14","114252","0.0-3.0-2.0-0.1","spark_pilot_norest","10009","3","18","Male","","false","","","","","[1033.8999999761581]","./assets/img/space/1.jpg","[""ArrowUp""]","first stage practice","space","0","null","null","ArrowUp","false","","","","","",""
"html-keyboard-response","15","114761","0.0-3.0-2.0-1.1","spark_pilot_norest","10009","3","18","Male","","","","","","","null","<div style=""font-size:60px;"">+</div>","null","fixation","","","","","","","","","","","",""
"revaluation","16","118781","0.0-3.0-2.0-0.2","spark_pilot_norest","10009","3","18","Male","","false","","","","","[489.60000002384186]","./assets/img/space/2.jpg","[""ArrowUp""]","first stage practice","space","0","null","null","ArrowUp","false","","","","","",""
"html-keyboard-response","17","119289","0.0-3.0-2.0-1.2","spark_pilot_norest","10009","3","18","Male","","","","","","","null","<div style=""font-size:60px;"">+</div>","null","fixation","","","","","","","","","","","",""
"learning-instructions","18","125842","0.0-3.0-3.0-0.0","spark_pilot_norest","10009","3","18","Male","","","","","","","1849.7999999523163","<p> Great job! Now try pressing the <b>down</b> key to travel down. </p>
            <img src='./assets/img/instructions/pressDown.jpg' class='instructions-image'>","","instructions","","","","","","","","","","","",""
"revaluation","19","129872","0.0-3.0-4.0-0.0","spark_pilot_norest","10009","3","18","Male","","false","","","","","[432.89999997615814]","./assets/img/space/3.jpg","[""ArrowDown""]","first stage practice","space","0","null","null","ArrowDown","false","","","","","",""
"html-keyboard-response","20","130384","0.0-3.0-4.0-1.0","spark_pilot_norest","10009","3","18","Male","","","","","","","null","<div style=""font-size:60px;"">+</div>","null","fixation","","","","","","","","","","","",""
"revaluation","21","134401","0.0-3.0-4.0-0.1","spark_pilot_norest","10009","3","18","Male","","false","","","","","[446.39999997615814]","./assets/img/space/4.jpg","[""ArrowDown""]","first stage practice","space","0","null","null","ArrowDown","false","","","","","",""
"html-keyboard-response","22","134913","0.0-3.0-4.0-1.1","spark_pilot_norest","10009","3","18","Male","","","","","","","null","<div style=""font-size:60px;"">+</div>","null","fixation","","","","","","","","","","","",""
"revaluation","23","138929","0.0-3.0-4.0-0.2","spark_pilot_norest","10009","3","18","Male","","false","","","","","[431.7000000476837]","./assets/img/space/5.jpg","[""ArrowDown""]","first stage practice","space","0","null","null","ArrowDown","false","","","","","",""
"html-keyboard-response","24","139434","0.0-3.0-4.0-1.2","spark_pilot_norest","10009","3","18","Male","","","","","","","null","<div style=""font-size:60px;"">+</div>","null","fixation","","","","","","","","","","","",""
"learning-instructions","25","150357","0.0-3.0-5.0-0.0","spark_pilot_norest","10009","3","18","Male","","","","","","","1065.8000000715256","<p> The animals don’t move, so the animal in the upper part of a place will stay in the upper part of a place, and the animal in the lower part of a place will stay in the lower part of a place. </p>","","instructions","","","","","","","","","","","",""
"learning-instructions","26","160573","0.0-3.0-5.0-0.1","spark_pilot_norest","10009","3","18","Male","","","","","","","1081.7999999523163","<p> Each animal has two treasure chests for you to choose from. </p>
            <p> The amount of treasure in each chest can range from <b> 0 to 40 pieces.</b></p>","","instructions","","","","","","","","","","","",""
"learning-instructions","27","173089","0.0-3.0-5.0-0.2","spark_pilot_norest","10009","3","18","Male","","","","","","","1315.8999999761581","<p> You should decide which chest to search for treasure by using the <b>left</b> and <b>right</b> arrow keys. </p>
            <p><b> Pay attention to which animal is on the screen, as the animals have different treasure chests. </b></p>
            <img src='./assets/img/instructions/leftright.jpg' class='instructions-image'>","","instructions","","","","","","","","","","","",""
"learning-instructions","28","180692","0.0-3.0-5.0-0.3","spark_pilot_norest","10009","3","18","Male","","","","","","","1239.3999999761581","<p> Let’s try practicing that now. </p>
            <p> When you see an animal, choose which chest to search for treasure. </p>
            <img src='./assets/img/instructions/chooseChest.jpg' class='instructions-image'>","","instructions","","","","","","","","","","","",""
"revaluation","29","184711","0.0-3.0-6.0-0.0","spark_pilot_norest","10009","3","18","Male","","false","","","","","[1267.3999999761581]","./assets/img/space/animals/rabbit.jpg","[""ArrowLeft""]","second stage practice","space","15","{""ArrowUp,ArrowLeft"":3,""ArrowUp,ArrowRight"":36,""ArrowDown,ArrowLeft"":15,""ArrowDown,ArrowRight"":23}","false","ArrowDown,ArrowLeft","","","","","","",""
"html-keyboard-response","30","185224","0.0-3.0-6.0-1.0","spark_pilot_norest","10009","3","18","Male","","","","","","","null","<div style=""font-size:60px;"">+</div>","null","fixation","","","","","","","","","","","",""
"revaluation","31","189241","0.0-3.0-6.0-0.1","spark_pilot_norest","10009","3","18","Male","","false","","","","","[449.1999999284744]","./assets/img/space/animals/cat.jpg","[""ArrowRight""]","second stage practice","space","36","{""ArrowUp,ArrowLeft"":3,""ArrowUp,ArrowRight"":36,""ArrowDown,ArrowLeft"":15,""ArrowDown,ArrowRight"":23}","true","ArrowUp,ArrowRight","","","","","","",""
"html-keyboard-response","32","189754","0.0-3.0-6.0-1.1","spark_pilot_norest","10009","3","18","Male","","","","","","","null","<div style=""font-size:60px;"">+</div>","null","fixation","","","","","","","","","","","",""
"revaluation","33","193833","0.0-3.0-6.0-0.2","spark_pilot_norest","10009","3","18","Male","","false","","","","","[327.60000002384186]","./assets/img/space/animals/cat.jpg","[""ArrowRight""]","second stage practice","space","36","{""ArrowUp,ArrowLeft"":3,""ArrowUp,ArrowRight"":36,""ArrowDown,ArrowLeft"":15,""ArrowDown,ArrowRight"":23}","true","ArrowUp,ArrowRight","","","","","","",""
"html-keyboard-response","34","194345","0.0-3.0-6.0-1.2","spark_pilot_norest","10009","3","18","Male","","","","","","","null","<div style=""font-size:60px;"">+</div>","null","fixation","","","","","","","","","","","",""
"revaluation","35","198365","0.0-3.0-6.0-0.3","spark_pilot_norest","10009","3","18","Male","","false","","","","","[347.10000002384186]","./assets/img/space/animals/rabbit.jpg","[""ArrowRight""]","second stage practice","space","23","{""ArrowUp,ArrowLeft"":3,""ArrowUp,ArrowRight"":36,""ArrowDown,ArrowLeft"":15,""ArrowDown,ArrowRight"":23}","true","ArrowDown,ArrowRight","","","","","","",""
"html-keyboard-response","36","198873","0.0-3.0-6.0-1.3","spark_pilot_norest","10009","3","18","Male","","","","","","","null","<div style=""font-size:60px;"">+</div>","null","fixation","","","","","","","","","","","",""
"learning-instructions","37","217086","0.0-3.0-7.0-0.0","spark_pilot_norest","10009","3","18","Male","","","","","","","1394.3000000715256","<p> Great job. Now let’s try putting it together. </p>
            <p> On each turn, you will first see a picture to remind you of the place you are in, and you need to choose whether to go up or down. </p>
            <p> Then you will see an animal and choose which of its chests to search for treasure. </p>","","instructions","","","","","","","","","","","",""
"learning-instructions","38","227579","0.0-3.0-7.0-0.1","spark_pilot_norest","10009","3","18","Male","","","","","","","2235.5999999046326","<p> When you choose whether to go up or down, try to go to the animal with the chest with the most treasure. </p>
            <p> Try practicing that now! </p>","","instructions","","","","","","","","","","","",""
"revaluation","39","233621","0.0-3.0-8.0-0.0","spark_pilot_norest","10009","3","18","Male","","false","","","","","[1788.8999999761581,500.7999999523163]","./assets/img/space/6.jpg","[""ArrowUp"",""ArrowRight""]","full practice","space","36","{""ArrowUp,ArrowLeft"":3,""ArrowUp,ArrowRight"":36,""ArrowDown,ArrowLeft"":15,""ArrowDown,ArrowRight"":23}","true","ArrowUp,ArrowRight","false","","","","","",""
"html-keyboard-response","40","234137","0.0-3.0-8.0-1.0","spark_pilot_norest","10009","3","18","Male","","","","","","","null","<div style=""font-size:60px;"">+</div>","null","fixation","","","","","","","","","","","",""
"revaluation","41","240183","0.0-3.0-8.0-0.1","spark_pilot_norest","10009","3","18","Male","","false","","","","","[617.7000000476837,346.7999999523163]","./assets/img/space/7.jpg","[""ArrowDown"",""ArrowRight""]","full practice","space","23","{""ArrowUp,ArrowLeft"":3,""ArrowUp,ArrowRight"":36,""ArrowDown,ArrowLeft"":15,""ArrowDown,ArrowRight"":23}","false","ArrowDown,ArrowRight","false","","","","","",""
"html-keyboard-response","42","240688","0.0-3.0-8.0-1.1","spark_pilot_norest","10009","3","18","Male","","","","","","","null","<div style=""font-size:60px;"">+</div>","null","fixation","","","","","","","","","","","",""
"revaluation","43","246714","0.0-3.0-8.0-0.2","spark_pilot_norest","10009","3","18","Male","","false","","","","","[1121.5999999046326,523]","./assets/img/space/8.jpg","[""ArrowUp"",""ArrowRight""]","full practice","space","36","{""ArrowUp,ArrowLeft"":3,""ArrowUp,ArrowRight"":36,""ArrowDown,ArrowLeft"":15,""ArrowDown,ArrowRight"":23}","true","ArrowUp,ArrowRight","false","","","","","",""
"html-keyboard-response","44","247229","0.0-3.0-8.0-1.2","spark_pilot_norest","10009","3","18","Male","","","","","","","null","<div style=""font-size:60px;"">+</div>","null","fixation","","","","","","","","","","","",""
"revaluation","45","253249","0.0-3.0-8.0-0.3","spark_pilot_norest","10009","3","18","Male","","false","","","","","[627.7999999523163,313.60000002384186]","./assets/img/space/9.jpg","[""ArrowUp"",""ArrowRight""]","full practice","space","36","{""ArrowUp,ArrowLeft"":3,""ArrowUp,ArrowRight"":36,""ArrowDown,ArrowLeft"":15,""ArrowDown,ArrowRight"":23}","true","ArrowUp,ArrowRight","false","","","","","",""
"html-keyboard-response","46","253764","0.0-3.0-8.0-1.3","spark_pilot_norest","10009","3","18","Male","","","","","","","null","<div style=""font-size:60px;"">+</div>","null","fixation","","","","","","","","","","","",""
"revaluation","47","259776","0.0-3.0-8.0-0.4","spark_pilot_norest","10009","3","18","Male","","false","","","","","[660,259]","./assets/img/space/10.jpg","[""ArrowUp"",""ArrowRight""]","full practice","space","36","{""ArrowUp,ArrowLeft"":3,""ArrowUp,ArrowRight"":36,""ArrowDown,ArrowLeft"":15,""ArrowDown,ArrowRight"":23}","true","ArrowUp,ArrowRight","false","","","","","",""
"html-keyboard-response","48","260277","0.0-3.0-8.0-1.4","spark_pilot_norest","10009","3","18","Male","","","","","","","null","<div style=""font-size:60px;"">+</div>","null","fixation","","","","","","","","","","","",""
"learning-instructions","49","271749","0.0-3.0-9.0-0.0","spark_pilot_norest","10009","3","18","Male","","","","","","","919.3999999761581","<p> One last thing: sometimes, you will see a robber. The robber can be anywhere in the picture. </p>
            <p> If you do not stop them, you will lose treasure. </p>
            <img src='./assets/img/instructions/robber.jpg' class='instructions-image'>","","instructions","","","","","","","","","","","",""
"learning-instructions","50","280355","0.0-3.0-9.0-0.1","spark_pilot_norest","10009","3","18","Male","","","","","","","1427.7999999523163","<p> If you see the robber, you should <b>press the space bar</b> rather than using the arrow keys. </p>
            <p> Try practicing that now! </p>","","instructions","","","","","","","","","","","",""
"revaluation","51","284388","0.0-3.0-10.0-0.0","spark_pilot_norest","10009","3","18","Male","","false","","","","","[553.5]","./assets/img/space/catch/0.jpg","[""spaceBar""]","catch practice","space","0","{""ArrowUp,ArrowLeft"":3,""ArrowUp,ArrowRight"":36,""ArrowDown,ArrowLeft"":15,""ArrowDown,ArrowRight"":23}","true","spaceBar","true","","","","","",""
"html-keyboard-response","52","284904","0.0-3.0-10.0-1.0","spark_pilot_norest","10009","3","18","Male","","","","","","","null","<div style=""font-size:60px;"">+</div>","null","fixation","","","","","","","","","","","",""
"revaluation","53","288930","0.0-3.0-10.0-0.1","spark_pilot_norest","10009","3","18","Male","","false","","","","","[394]","./assets/img/space/catch/1.jpg","[""spaceBar""]","catch practice","space","0","{""ArrowUp,ArrowLeft"":3,""ArrowUp,ArrowRight"":36,""ArrowDown,ArrowLeft"":15,""ArrowDown,ArrowRight"":23}","true","spaceBar","true","","","","","",""
"html-keyboard-response","54","289445","0.0-3.0-10.0-1.1","spark_pilot_norest","10009","3","18","Male","","","","","","","null","<div style=""font-size:60px;"">+</div>","null","fixation","","","","","","","","","","","",""
"revaluation","55","293471","0.0-3.0-10.0-0.2","spark_pilot_norest","10009","3","18","Male","","false","","","","","[326.6999999284744]","./assets/img/space/catch/2.jpg","[""spaceBar""]","catch practice","space","0","{""ArrowUp,ArrowLeft"":3,""ArrowUp,ArrowRight"":36,""ArrowDown,ArrowLeft"":15,""ArrowDown,ArrowRight"":23}","true","spaceBar","true","","","","","",""
"html-keyboard-response","56","293985","0.0-3.0-10.0-1.2","spark_pilot_norest","10009","3","18","Male","","","","","","","null","<div style=""font-size:60px;"">+</div>","null","fixation","","","","","","","","","","","",""
"learning-instructions","57","300767","0.0-3.0-11.0-0.0-0.0","spark_pilot_norest","10009","3","18","Male","","","","","","","1518.6000000238419","<p> Now, you will practice a shortened version of the game to get a sense of how it all fits together. </p>","","instructions","","","","","","","","","","","",""
"learning-instructions","58","305399","0.0-3.0-11.0-0.0-0.1","spark_pilot_norest","10009","3","18","Male","","","","","","","1430.0999999046326","<p>This time you are searching for treasure in outer space.</p>","","instructions","","","","","","","","","","","",""
"learning-instructions","59","322340","0.0-3.0-11.0-1.0-0.0","spark_pilot_norest","10009","3","18","Male","","","","","","","2171.399999976158","<p> Remember, when you see a picture of the place, use the up and down keys to <b>find an animal</b>.</p>
            <p> When you encounter an animal, you should use the left and right keys to <b>select a treasure chest</b>.</p>
            <p> Don't forget to look out for the robber! </p>","","instructions","","","","","","","","","","","",""
"revaluation","60","328353","0.0-3.0-11.0-2.0-0.0","spark_pilot_norest","10009","3","18","Male","","false","","","","","[790.4000000953674,349]","./assets/img/space/11.jpg","[""ArrowUp"",""ArrowRight""]","practice block","space","36","{""ArrowUp,ArrowLeft"":3,""ArrowUp,ArrowRight"":36,""ArrowDown,ArrowLeft"":15,""ArrowDown,ArrowRight"":23}","true","ArrowUp,ArrowRight","false","","","","","",""
"html-keyboard-response","61","328855","0.0-3.0-11.0-2.0-1.0","spark_pilot_norest","10009","3","18","Male","","","","","","","null","<div style=""font-size:60px;"">+</div>","null","fixation","","","","","","","","","","","",""
"revaluation","62","334899","0.0-3.0-11.0-2.0-0.1","spark_pilot_norest","10009","3","18","Male","","false","","","","","[673.7000000476837,319.10000002384186]","./assets/img/space/12.jpg","[""ArrowUp"",""ArrowRight""]","practice block","space","36","{""ArrowUp,ArrowLeft"":3,""ArrowUp,ArrowRight"":36,""ArrowDown,ArrowLeft"":15,""ArrowDown,ArrowRight"":23}","true","ArrowUp,ArrowRight","false","","","","","",""
"html-keyboard-response","63","335425","0.0-3.0-11.0-2.0-1.1","spark_pilot_norest","10009","3","18","Male","","","","","","","null","<div style=""font-size:60px;"">+</div>","null","fixation","","","","","","","","","","","",""
"revaluation","64","341448","0.0-3.0-11.0-2.0-0.2","spark_pilot_norest","10009","3","18","Male","","false","","","","","[670.4000000953674,312.5]","./assets/img/space/13.jpg","[""ArrowUp"",""ArrowRight""]","practice block","space","36","{""ArrowUp,ArrowLeft"":3,""ArrowUp,ArrowRight"":36,""ArrowDown,ArrowLeft"":15,""ArrowDown,ArrowRight"":23}","true","ArrowUp,ArrowRight","false","","","","","",""
"html-keyboard-response","65","341956","0.0-3.0-11.0-2.0-1.2","spark_pilot_norest","10009","3","18","Male","","","","","","","null","<div style=""font-size:60px;"">+</div>","null","fixation","","","","","","","","","","","",""
"revaluation","66","347974","0.0-3.0-11.0-2.0-0.3","spark_pilot_norest","10009","3","18","Male","","false","","","","","[516.3999999761581,332.7000000476837]","./assets/img/space/14.jpg","[""ArrowUp"",""ArrowRight""]","practice block","space","36","{""ArrowUp,ArrowLeft"":3,""ArrowUp,ArrowRight"":36,""ArrowDown,ArrowLeft"":15,""ArrowDown,ArrowRight"":23}","true","ArrowUp,ArrowRight","false","","","","","",""
"html-keyboard-response","67","348490","0.0-3.0-11.0-2.0-1.3","spark_pilot_norest","10009","3","18","Male","","","","","","","null","<div style=""font-size:60px;"">+</div>","null","fixation","","","","","","","","","","","",""
"revaluation","68","354498","0.0-3.0-11.0-2.0-0.4","spark_pilot_norest","10009","3","18","Male","","false","","","","","[1020.6000000238419,307.10000002384186]","./assets/img/space/11.jpg","[""ArrowUp"",""ArrowRight""]","practice block","space","36","{""ArrowUp,ArrowLeft"":3,""ArrowUp,ArrowRight"":36,""ArrowDown,ArrowLeft"":15,""ArrowDown,ArrowRight"":23}","true","ArrowUp,ArrowRight","false","","","","","",""
"html-keyboard-response","69","354999","0.0-3.0-11.0-2.0-1.4","spark_pilot_norest","10009","3","18","Male","","","","","","","null","<div style=""font-size:60px;"">+</div>","null","fixation","","","","","","","","","","","",""
"revaluation","70","361015","0.0-3.0-11.0-2.0-0.5","spark_pilot_norest","10009","3","18","Male","","false","","","","","[771.7999999523163,329.89999997615814]","./assets/img/space/12.jpg","[""ArrowDown"",""ArrowRight""]","practice block","space","23","{""ArrowUp,ArrowLeft"":3,""ArrowUp,ArrowRight"":36,""ArrowDown,ArrowLeft"":15,""ArrowDown,ArrowRight"":23}","false","ArrowDown,ArrowRight","false","","","","","",""
"html-keyboard-response","71","361517","0.0-3.0-11.0-2.0-1.5","spark_pilot_norest","10009","3","18","Male","","","","","","","null","<div style=""font-size:60px;"">+</div>","null","fixation","","","","","","","","","","","",""
"revaluation","72","367532","0.0-3.0-11.0-2.0-0.6","spark_pilot_norest","10009","3","18","Male","","false","","","","","[463.5,336]","./assets/img/space/13.jpg","[""ArrowUp"",""ArrowRight""]","practice block","space","36","{""ArrowUp,ArrowLeft"":3,""ArrowUp,ArrowRight"":36,""ArrowDown,ArrowLeft"":15,""ArrowDown,ArrowRight"":23}","true","ArrowUp,ArrowRight","false","","","","","",""
"html-keyboard-response","73","368035","0.0-3.0-11.0-2.0-1.6","spark_pilot_norest","10009","3","18","Male","","","","","","","null","<div style=""font-size:60px;"">+</div>","null","fixation","","","","","","","","","","","",""
"revaluation","74","374044","0.0-3.0-11.0-2.0-0.7","spark_pilot_norest","10009","3","18","Male","","false","","","","","[558.1000000238419,328.6999999284744]","./assets/img/space/14.jpg","[""ArrowUp"",""ArrowRight""]","practice block","space","36","{""ArrowUp,ArrowLeft"":3,""ArrowUp,ArrowRight"":36,""ArrowDown,ArrowLeft"":15,""ArrowDown,ArrowRight"":23}","true","ArrowUp,ArrowRight","false","","","","","",""
"html-keyboard-response","75","374547","0.0-3.0-11.0-2.0-1.7","spark_pilot_norest","10009","3","18","Male","","","","","","","null","<div style=""font-size:60px;"">+</div>","null","fixation","","","","","","","","","","","",""
"revaluation","76","378590","0.0-3.0-11.0-2.0-0.8","spark_pilot_norest","10009","3","18","Male","","false","","","","","[486.39999997615814]","./assets/img/space/catch/3.jpg","[""spaceBar""]","practice block","space","0","{""ArrowUp,ArrowLeft"":3,""ArrowUp,ArrowRight"":36,""ArrowDown,ArrowLeft"":15,""ArrowDown,ArrowRight"":23}","true","spaceBar","true","","","","","",""
"html-keyboard-response","77","379092","0.0-3.0-11.0-2.0-1.8","spark_pilot_norest","10009","3","18","Male","","","","","","","null","<div style=""font-size:60px;"">+</div>","null","fixation","","","","","","","","","","","",""
"learning-instructions","78","393749","0.0-3.0-11.0-3.0-0.0","spark_pilot_norest","10009","3","18","Male","","","","","","","1424","<p> Now, you will travel with a friend who will choose whether you go up or down first. </p>
            <p> On these turns, you will just see the animal that they found. You will still get to choose which chest to search for treasure.</p>","","instructions","","","","","","","","","","","",""
"revaluation","79","397763","0.0-3.0-11.0-4.0-0.0","spark_pilot_norest","10009","3","18","Male","","false","","","","","[1254.3000000715256]","./assets/img/space/animals/rabbit.jpg","[""ArrowRight""]","practice block","space","23","{""ArrowUp,ArrowLeft"":3,""ArrowUp,ArrowRight"":36,""ArrowDown,ArrowLeft"":15,""ArrowDown,ArrowRight"":23}","true","ArrowDown,ArrowRight","","","","","","",""
"html-keyboard-response","80","398269","0.0-3.0-11.0-4.0-1.0","spark_pilot_norest","10009","3","18","Male","","","","","","","null","<div style=""font-size:60px;"">+</div>","null","fixation","","","","","","","","","","","",""
"revaluation","81","402292","0.0-3.0-11.0-4.0-0.1","spark_pilot_norest","10009","3","18","Male","","false","","","","","[384.5]","./assets/img/space/animals/cat.jpg","[""ArrowRight""]","practice block","space","36","{""ArrowUp,ArrowLeft"":3,""ArrowUp,ArrowRight"":36,""ArrowDown,ArrowLeft"":15,""ArrowDown,ArrowRight"":23}","true","ArrowUp,ArrowRight","","","","","","",""
"html-keyboard-response","82","402808","0.0-3.0-11.0-4.0-1.1","spark_pilot_norest","10009","3","18","Male","","","","","","","null","<div style=""font-size:60px;"">+</div>","null","fixation","","","","","","","","","","","",""
"revaluation","83","406836","0.0-3.0-11.0-4.0-0.2","spark_pilot_norest","10009","3","18","Male","","false","","","","","[324.7999999523163]","./assets/img/space/animals/rabbit.jpg","[""ArrowRight""]","practice block","space","23","{""ArrowUp,ArrowLeft"":3,""ArrowUp,ArrowRight"":36,""ArrowDown,ArrowLeft"":15,""ArrowDown,ArrowRight"":23}","true","ArrowDown,ArrowRight","","","","","","",""
"html-keyboard-response","84","407345","0.0-3.0-11.0-4.0-1.2","spark_pilot_norest","10009","3","18","Male","","","","","","","null","<div style=""font-size:60px;"">+</div>","null","fixation","","","","","","","","","","","",""
"revaluation","85","411381","0.0-3.0-11.0-4.0-0.3","spark_pilot_norest","10009","3","18","Male","","false","","","","","[319.10000002384186]","./assets/img/space/animals/cat.jpg","[""ArrowRight""]","practice block","space","36","{""ArrowUp,ArrowLeft"":3,""ArrowUp,ArrowRight"":36,""ArrowDown,ArrowLeft"":15,""ArrowDown,ArrowRight"":23}","true","ArrowUp,ArrowRight","","","","","","",""
"html-keyboard-response","86","411895","0.0-3.0-11.0-4.0-1.3","spark_pilot_norest","10009","3","18","Male","","","","","","","null","<div style=""font-size:60px;"">+</div>","null","fixation","","","","","","","","","","","",""
"learning-instructions","87","420036","0.0-3.0-11.0-5.0-0.0","spark_pilot_norest","10009","3","18","Male","","","","","","","null","<p> You have almost finished this part of the game! </p>
            <p> We are going to ask you to make a few more choices. </p>","","instructions","","","","","","","","","","","",""
"learning-instructions","88","436051","0.0-3.0-11.0-5.0-0.1","spark_pilot_norest","10009","3","18","Male","","","","","","","null","<p> First, you need to decide whether to go up or down. When you see each picture, use the arrow keys to make your choice. </p>
            <p><b>You will not see which animal you found, but try to get to the one that will give you the most treasure.</b></p>","","instructions","","","","","","","","","","","",""
"html-keyboard-response","89","437060","0.0-3.0-11.0-6.0-0.0","spark_pilot_norest","10009","3","18","Male","","","","","","","null","<div style=""font-size:100px;color:red;"">Starting in...</div>","null","","","","","","","","","","","","",""
"html-keyboard-response","90","438093","0.0-3.0-11.0-6.0-1.0","spark_pilot_norest","10009","3","18","Male","","","","","","","null","<div style=""font-size:200px;color:red;"">3</div>","null","","","","","","","","","","","","",""
"html-keyboard-response","91","439098","0.0-3.0-11.0-6.0-2.0","spark_pilot_norest","10009","3","18","Male","","","","","","","null","<div style=""font-size:200px;color:red;"">2</div>","null","","","","","","","","","","","","",""
"html-keyboard-response","92","440111","0.0-3.0-11.0-6.0-3.0","spark_pilot_norest","10009","3","18","Male","","","","","","","null","<div style=""font-size:200px;color:red;"">1</div>","null","","","","","","","","","","","","",""
"revaluation","93","440847","0.0-3.0-11.0-7.0","spark_pilot_norest","10009","3","18","Male","","false","","","","","[730]","./assets/img/space/15.jpg","[""ArrowUp""]","practice block","space","0","{""ArrowUp,ArrowLeft"":3,""ArrowUp,ArrowRight"":36,""ArrowDown,ArrowLeft"":15,""ArrowDown,ArrowRight"":23}","true","ArrowUp","false","","","","","",""
"html-keyboard-response","94","441350","0.0-3.0-11.0-8.0","spark_pilot_norest","10009","3","18","Male","","","","","","","null","<div style=""font-size:60px;"">+</div>","null","fixation","","","","","","","","","","","",""
"learning-instructions","95","454759","0.0-3.0-11.0-9.0-0.0","spark_pilot_norest","10009","3","18","Male","","","","","","","null","<p> Now you will see the animals again and can search their chests for treasure. </p>
            <p> This time, you will not see how much treasure you earned, but you will earn more bonus money for making better choices. </p>","","instructions","","","","","","","","","","","",""
"html-keyboard-response","96","455769","0.0-3.0-11.0-10.0-0.0","spark_pilot_norest","10009","3","18","Male","","","","","","","null","<div style=""font-size:100px;color:red;"">Starting in...</div>","null","","","","","","","","","","","","",""
"html-keyboard-response","97","456772","0.0-3.0-11.0-10.0-1.0","spark_pilot_norest","10009","3","18","Male","","","","","","","null","<div style=""font-size:200px;color:red;"">3</div>","null","","","","","","","","","","","","",""
"html-keyboard-response","98","457777","0.0-3.0-11.0-10.0-2.0","spark_pilot_norest","10009","3","18","Male","","","","","","","null","<div style=""font-size:200px;color:red;"">2</div>","null","","","","","","","","","","","","",""
"html-keyboard-response","99","458781","0.0-3.0-11.0-10.0-3.0","spark_pilot_norest","10009","3","18","Male","","","","","","","null","<div style=""font-size:200px;color:red;"">1</div>","null","","","","","","","","","","","","",""
"revaluation","100","459432","0.0-3.0-11.0-11.0-0.0","spark_pilot_norest","10009","3","18","Male","","false","","","","","[647.2000000476837]","./assets/img/space/animals/cat.jpg","[""ArrowRight""]","practice block","space","0","{""ArrowUp,ArrowLeft"":3,""ArrowUp,ArrowRight"":36,""ArrowDown,ArrowLeft"":15,""ArrowDown,ArrowRight"":23}","true","ArrowUp,ArrowRight","","","","","","",""
"html-keyboard-response","101","459935","0.0-3.0-11.0-11.0-1.0","spark_pilot_norest","10009","3","18","Male","","","","","","","null","<div style=""font-size:60px;"">+</div>","null","fixation","","","","","","","","","","","",""
"revaluation","102","460692","0.0-3.0-11.0-11.0-0.1","spark_pilot_norest","10009","3","18","Male","","false","","","","","[751.2999999523163]","./assets/img/space/animals/rabbit.jpg","[""ArrowRight""]","practice block","space","0","{""ArrowUp,ArrowLeft"":3,""ArrowUp,ArrowRight"":36,""ArrowDown,ArrowLeft"":15,""ArrowDown,ArrowRight"":23}","true","ArrowDown,ArrowRight","","","","","","",""
"html-keyboard-response","103","461203","0.0-3.0-11.0-11.0-1.1","spark_pilot_norest","10009","3","18","Male","","","","","","","null","<div style=""font-size:60px;"">+</div>","null","fixation","","","","","","","","","","","",""
"learning-instructions","104","466682","0.0-3.0-12.0-0.0","spark_pilot_norest","10009","3","18","Male","","","","","","","894.6000000238419","<p> Before you start, we're going to ask you a few questions about how the game works. </p>","","instructions","","","","","","","","","","","",""
"comp-q","105","473438","0.0-3.0-13.0-0.0-0.0","spark_pilot_norest","10009","3","18","Male","","","","","","","1158.7000000476837","<p> <b> True or False? </b> </p>
            <p> There can be 50 pieces of treasure in a given animal's chest. </p>","1","comp_question","","","","true","","","","","","","",""
"comp-q","106","481545","0.0-3.0-13.0-0.0-1.0","spark_pilot_norest","10009","3","18","Male","","","","","","","1446.5","<p> <b> That's right! </b> The amount of treasure in each chest can range from 0 to 40 pieces. </p>","0","comp_answer","","","","","","","","","","","",""
"comp-q","107","489473","0.0-3.0-13.0-0.1-0.1","spark_pilot_norest","10009","3","18","Male","","","","","","","805.1000000238419","<p> <b> True or False? </b> </p><p> In this game, all animals have the same amount of treasure in their left and right chests. </p>","1","comp_question","","","","true","","","","","","","",""
"comp-q","108","495430","0.0-3.0-13.0-0.1-1.1","spark_pilot_norest","10009","3","18","Male","","","","","","","722.2000000476837","<p> <b> That's right! </b> Animals have different amounts of treasure in their treasure chests. </p>","0","comp_answer","","","","","","","","","","","",""
"comp-q","109","502414","0.0-3.0-13.0-0.2-0.2","spark_pilot_norest","10009","3","18","Male","","","","","","","1147.4000000953674","<p> <b> True or False? </b> </p><p> The same animal will always be there if you go up in the same place. </p>","0","comp_question","","","","true","","","","","","","",""
"comp-q","110","510754","0.0-3.0-13.0-0.2-1.2","spark_pilot_norest","10009","3","18","Male","","","","","","","1896.1999999284744","<p> <b> That's right! </b> One animal lives in the upper part and one lives in the lower part of every place. </p>","0","comp_answer","","","","","","","","","","","",""
"comp-q","111","518348","0.0-3.0-13.0-0.3-0.3","spark_pilot_norest","10009","3","18","Male","","","","","","","2050.899999976158","<p> <b> True or False? </b> </p><p> If you see a different picture, it means you are in a new place. </p>","1","comp_question","","","","true","","","","","","","",""
"comp-q","112","531291","0.0-3.0-13.0-0.3-1.3","spark_pilot_norest","10009","3","18","Male","","","","","","","1711.2000000476837","<p> <b> That's right! </b> Lots of different images may show the same place. For example,  you may see three different images that all remind you that you are in outer space. </p>","0","comp_answer","","","","","","","","","","","",""
"learning-instructions","113","542705","0.0-3.0-14.0-0.0","spark_pilot_norest","10009","3","18","Male","","","","","","","1558.6999999284744","<p> Good job. Remember to do your best because the amount of treasure you earn will be converted into bonus money. </p>
            <p> It’s time to start the real game! </p>","","instructions","","","","","","","","","","","",""
"learning-instructions","114","546526","0.0-4.0-0.0-0.0","spark_pilot_norest","10009","3","18","Male","","","","","","","1109.1000000238419","<p> This time you are searching for treasure in the <b>ocean</b>.</p>","","instructions","","","","","","","","","","","",""
"learning-instructions","115","564729","0.0-4.0-0.0-0.1","spark_pilot_norest","10009","3","18","Male","","","","","","","899.0999999046326","<p><b>New</b> animals with <b>new</b> treasure chests live here. You need to explore to discover where the animal with the best treasure chest is.</p>
                    <p> Like before, once you figure out which animal has the chest with the most treasure, you should try to get to that animal and select that chest! </p>","","instructions","","","","","","","","","","","",""
"learning-instructions","116","580474","0.0-4.0-1.0-0.0","spark_pilot_norest","10009","3","18","Male","","","","","","","1016.2999999523163","<p> Remember, when you see a picture of the place, use the up and down keys to <b>find an animal</b>.</p>
            <p> When you encounter an animal, you should use the left and right keys to <b>select a treasure chest</b>.</p>
            <p> Don't forget to look out for the robber! </p>","","instructions","","","","","","","","","","","",""
"revaluation","117","584483","0.0-4.0-2.0-0.0","spark_pilot_norest","10009","3","18","Male","","true","","","","","[]","./assets/img/ocean/memory/20.jpg","[]","value training","ocean","-5","{""ArrowUp,ArrowLeft"":23,""ArrowUp,ArrowRight"":10,""ArrowDown,ArrowLeft"":8,""ArrowDown,ArrowRight"":30}","false","","false","original","1","0","","",""
"html-keyboard-response","118","584993","0.0-4.0-2.0-1.0","spark_pilot_norest","10009","3","18","Male","","","","","","","null","<div style=""font-size:60px;"">+</div>","null","fixation","","","","","","","","","1","","",""
"revaluation","119","589103","0.0-4.0-2.0-0.1","spark_pilot_norest","10009","3","18","Male","","false","","","","","[347.60000002384186]","./assets/img/ocean/catch/3.jpg","[""ArrowUp""]","value training","ocean","-10","{""ArrowUp,ArrowLeft"":23,""ArrowUp,ArrowRight"":10,""ArrowDown,ArrowLeft"":8,""ArrowDown,ArrowRight"":30}","false","ArrowUp","true","original","1","2","","",""
"html-keyboard-response","120","589618","0.0-4.0-2.0-1.1","spark_pilot_norest","10009","3","18","Male","","","","","","","null","<div style=""font-size:60px;"">+</div>","null","fixation","","","","","","","","","3","","",""
"revaluation","121","595643","0.0-4.0-2.0-0.2","spark_pilot_norest","10009","3","18","Male","","false","","","","","[420.5,344]","./assets/img/ocean/memory/29.jpg","[""ArrowUp"",""ArrowRight""]","value training","ocean","10","{""ArrowUp,ArrowLeft"":23,""ArrowUp,ArrowRight"":10,""ArrowDown,ArrowLeft"":8,""ArrowDown,ArrowRight"":30}","false","ArrowUp,ArrowRight","false","original","1","4","","",""
"html-keyboard-response","122","596148","0.0-4.0-2.0-1.2","spark_pilot_norest","10009","3","18","Male","","","","","","","null","<div style=""font-size:60px;"">+</div>","null","fixation","","","","","","","","","5","","",""
"revaluation","123","602178","0.0-4.0-2.0-0.3","spark_pilot_norest","10009","3","18","Male","","false","","","","","[307,249]","./assets/img/ocean/memory/29.jpg","[""ArrowDown"",""ArrowRight""]","value training","ocean","30","{""ArrowUp,ArrowLeft"":23,""ArrowUp,ArrowRight"":10,""ArrowDown,ArrowLeft"":8,""ArrowDown,ArrowRight"":30}","true","ArrowDown,ArrowRight","false","original","1","6","","",""
"html-keyboard-response","124","602690","0.0-4.0-2.0-1.3","spark_pilot_norest","10009","3","18","Male","","","","","","","null","<div style=""font-size:60px;"">+</div>","null","fixation","","","","","","","","","7","","",""
"revaluation","125","606710","0.0-4.0-2.0-0.4","spark_pilot_norest","10009","3","18","Male","","false","","","","","[400.6999999284744]","./assets/img/ocean/catch/4.jpg","[""ArrowUp""]","value training","ocean","-10","{""ArrowUp,ArrowLeft"":23,""ArrowUp,ArrowRight"":10,""ArrowDown,ArrowLeft"":8,""ArrowDown,ArrowRight"":30}","false","ArrowUp","true","original","1","8","","",""
"html-keyboard-response","126","607227","0.0-4.0-2.0-1.4","spark_pilot_norest","10009","3","18","Male","","","","","","","null","<div style=""font-size:60px;"">+</div>","null","fixation","","","","","","","","","9","","",""
"revaluation","127","613250","0.0-4.0-2.0-0.5","spark_pilot_norest","10009","3","18","Male","","false","","","","","[568.6999999284744,295.7999999523163]","./assets/img/ocean/memory/35.jpg","[""ArrowUp"",""ArrowLeft""]","value training","ocean","23","{""ArrowUp,ArrowLeft"":23,""ArrowUp,ArrowRight"":10,""ArrowDown,ArrowLeft"":8,""ArrowDown,ArrowRight"":30}","false","ArrowUp,ArrowLeft","false","original","1","10","","",""
"html-keyboard-response","128","613752","0.0-4.0-2.0-1.5","spark_pilot_norest","10009","3","18","Male","","","","","","","null","<div style=""font-size:60px;"">+</div>","null","fixation","","","","","","","","","11","","",""
"revaluation","129","619764","0.0-4.0-2.0-0.6","spark_pilot_norest","10009","3","18","Male","","false","","","","","[402.10000002384186,299.2999999523163]","./assets/img/ocean/memory/27.jpg","[""ArrowDown"",""ArrowLeft""]","value training","ocean","8","{""ArrowUp,ArrowLeft"":23,""ArrowUp,ArrowRight"":10,""ArrowDown,ArrowLeft"":8,""ArrowDown,ArrowRight"":30}","false","ArrowDown,ArrowLeft","false","original","1","12","","",""
"html-keyboard-response","130","620268","0.0-4.0-2.0-1.6","spark_pilot_norest","10009","3","18","Male","","","","","","","null","<div style=""font-size:60px;"">+</div>","null","fixation","","","","","","","","","13","","",""
"revaluation","131","626280","0.0-4.0-2.0-0.7","spark_pilot_norest","10009","3","18","Male","","false","","","","","[647.1000000238419,264]","./assets/img/ocean/memory/39.jpg","[""ArrowDown"",""ArrowRight""]","value training","ocean","30","{""ArrowUp,ArrowLeft"":23,""ArrowUp,ArrowRight"":10,""ArrowDown,ArrowLeft"":8,""ArrowDown,ArrowRight"":30}","true","ArrowDown,ArrowRight","false","original","1","14","","",""
"html-keyboard-response","132","626784","0.0-4.0-2.0-1.7","spark_pilot_norest","10009","3","18","Male","","","","","","","null","<div style=""font-size:60px;"">+</div>","null","fixation","","","","","","","","","15","","",""
"revaluation","133","632798","0.0-4.0-2.0-0.8","spark_pilot_norest","10009","3","18","Male","","false","","","","","[435.2000000476837,282.60000002384186]","./assets/img/ocean/memory/17.jpg","[""ArrowDown"",""ArrowRight""]","value training","ocean","30","{""ArrowUp,ArrowLeft"":23,""ArrowUp,ArrowRight"":10,""ArrowDown,ArrowLeft"":8,""ArrowDown,ArrowRight"":30}","true","ArrowDown,ArrowRight","false","original","1","16","","",""
"html-keyboard-response","134","633302","0.0-4.0-2.0-1.8","spark_pilot_norest","10009","3","18","Male","","","","","","","null","<div style=""font-size:60px;"">+</div>","null","fixation","","","","","","","","","17","","",""
"revaluation","135","639320","0.0-4.0-2.0-0.9","spark_pilot_norest","10009","3","18","Male","","false","","","","","[344.5,246.30000007152557]","./assets/img/ocean/memory/16.jpg","[""ArrowDown"",""ArrowRight""]","value training","ocean","30","{""ArrowUp,ArrowLeft"":23,""ArrowUp,ArrowRight"":10,""ArrowDown,ArrowLeft"":8,""ArrowDown,ArrowRight"":30}","true","ArrowDown,ArrowRight","false","original","1","18","","",""
"html-keyboard-response","136","639824","0.0-4.0-2.0-1.9","spark_pilot_norest","10009","3","18","Male","","","","","","","null","<div style=""font-size:60px;"">+</div>","null","fixation","","","","","","","","","19","","",""
"revaluation","137","645837","0.0-4.0-2.0-0.10","spark_pilot_norest","10009","3","18","Male","","false","","","","","[375.60000002384186,264.5]","./assets/img/ocean/memory/6.jpg","[""ArrowDown"",""ArrowRight""]","value training","ocean","30","{""ArrowUp,ArrowLeft"":23,""ArrowUp,ArrowRight"":10,""ArrowDown,ArrowLeft"":8,""ArrowDown,ArrowRight"":30}","true","ArrowDown,ArrowRight","false","original","1","20","","",""
"html-keyboard-response","138","646341","0.0-4.0-2.0-1.10","spark_pilot_norest","10009","3","18","Male","","","","","","","null","<div style=""font-size:60px;"">+</div>","null","fixation","","","","","","","","","21","","",""
"revaluation","139","652359","0.0-4.0-2.0-0.11","spark_pilot_norest","10009","3","18","Male","","false","","","","","[418.7000000476837,301.7999999523163]","./assets/img/ocean/memory/24.jpg","[""ArrowDown"",""ArrowRight""]","value training","ocean","30","{""ArrowUp,ArrowLeft"":23,""ArrowUp,ArrowRight"":10,""ArrowDown,ArrowLeft"":8,""ArrowDown,ArrowRight"":30}","true","ArrowDown,ArrowRight","false","original","1","22","","",""
"html-keyboard-response","140","652863","0.0-4.0-2.0-1.11","spark_pilot_norest","10009","3","18","Male","","","","","","","null","<div style=""font-size:60px;"">+</div>","null","fixation","","","","","","","","","23","","",""
"revaluation","141","658875","0.0-4.0-2.0-0.12","spark_pilot_norest","10009","3","18","Male","","false","","","","","[376.10000002384186,269.2000000476837]","./assets/img/ocean/memory/5.jpg","[""ArrowDown"",""ArrowRight""]","value training","ocean","30","{""ArrowUp,ArrowLeft"":23,""ArrowUp,ArrowRight"":10,""ArrowDown,ArrowLeft"":8,""ArrowDown,ArrowRight"":30}","true","ArrowDown,ArrowRight","false","original","1","24","","",""
"html-keyboard-response","142","659378","0.0-4.0-2.0-1.12","spark_pilot_norest","10009","3","18","Male","","","","","","","null","<div style=""font-size:60px;"">+</div>","null","fixation","","","","","","","","","25","","",""
"revaluation","143","665388","0.0-4.0-2.0-0.13","spark_pilot_norest","10009","3","18","Male","","false","","","","","[357.1999999284744,273.40000009536743]","./assets/img/ocean/memory/7.jpg","[""ArrowDown"",""ArrowRight""]","value training","ocean","30","{""ArrowUp,ArrowLeft"":23,""ArrowUp,ArrowRight"":10,""ArrowDown,ArrowLeft"":8,""ArrowDown,ArrowRight"":30}","true","ArrowDown,ArrowRight","false","original","1","26","","",""
"html-keyboard-response","144","665892","0.0-4.0-2.0-1.13","spark_pilot_norest","10009","3","18","Male","","","","","","","null","<div style=""font-size:60px;"">+</div>","null","fixation","","","","","","","","","27","","",""
"revaluation","145","671908","0.0-4.0-2.0-0.14","spark_pilot_norest","10009","3","18","Male","","false","","","","","[395.39999997615814,286.10000002384186]","./assets/img/ocean/memory/35.jpg","[""ArrowDown"",""ArrowRight""]","value training","ocean","30","{""ArrowUp,ArrowLeft"":23,""ArrowUp,ArrowRight"":10,""ArrowDown,ArrowLeft"":8,""ArrowDown,ArrowRight"":30}","true","ArrowDown,ArrowRight","false","original","1","28","","",""
"html-keyboard-response","146","672410","0.0-4.0-2.0-1.14","spark_pilot_norest","10009","3","18","Male","","","","","","","null","<div style=""font-size:60px;"">+</div>","null","fixation","","","","","","","","","29","","",""
"revaluation","147","678422","0.0-4.0-2.0-0.15","spark_pilot_norest","10009","3","18","Male","","false","","","","","[392.10000002384186,284]","./assets/img/ocean/memory/16.jpg","[""ArrowDown"",""ArrowRight""]","value training","ocean","30","{""ArrowUp,ArrowLeft"":23,""ArrowUp,ArrowRight"":10,""ArrowDown,ArrowLeft"":8,""ArrowDown,ArrowRight"":30}","true","ArrowDown,ArrowRight","false","original","1","30","","",""
"html-keyboard-response","148","678925","0.0-4.0-2.0-1.15","spark_pilot_norest","10009","3","18","Male","","","","","","","null","<div style=""font-size:60px;"">+</div>","null","fixation","","","","","","","","","31","","",""
"revaluation","149","684961","0.0-4.0-2.0-0.16","spark_pilot_norest","10009","3","18","Male","","false","","","","","[362.10000002384186,266.39999997615814]","./assets/img/ocean/memory/8.jpg","[""ArrowDown"",""ArrowRight""]","value training","ocean","30","{""ArrowUp,ArrowLeft"":23,""ArrowUp,ArrowRight"":10,""ArrowDown,ArrowLeft"":8,""ArrowDown,ArrowRight"":30}","true","ArrowDown,ArrowRight","false","original","1","32","","",""
"html-keyboard-response","150","685463","0.0-4.0-2.0-1.16","spark_pilot_norest","10009","3","18","Male","","","","","","","null","<div style=""font-size:60px;"">+</div>","null","fixation","","","","","","","","","33","","",""
"revaluation","151","691479","0.0-4.0-2.0-0.17","spark_pilot_norest","10009","3","18","Male","","false","","","","","[409.2000000476837,395.39999997615814]","./assets/img/ocean/memory/17.jpg","[""ArrowDown"",""ArrowRight""]","value training","ocean","30","{""ArrowUp,ArrowLeft"":23,""ArrowUp,ArrowRight"":10,""ArrowDown,ArrowLeft"":8,""ArrowDown,ArrowRight"":30}","true","ArrowDown,ArrowRight","false","original","1","34","","",""
"html-keyboard-response","152","691983","0.0-4.0-2.0-1.17","spark_pilot_norest","10009","3","18","Male","","","","","","","null","<div style=""font-size:60px;"">+</div>","null","fixation","","","","","","","","","35","","",""
"revaluation","153","698007","0.0-4.0-2.0-0.18","spark_pilot_norest","10009","3","18","Male","","false","","","","","[416.10000002384186,297.7000000476837]","./assets/img/ocean/memory/25.jpg","[""ArrowDown"",""ArrowRight""]","value training","ocean","30","{""ArrowUp,ArrowLeft"":23,""ArrowUp,ArrowRight"":10,""ArrowDown,ArrowLeft"":8,""ArrowDown,ArrowRight"":30}","true","ArrowDown,ArrowRight","false","original","1","36","","",""
"html-keyboard-response","154","698531","0.0-4.0-2.0-1.18","spark_pilot_norest","10009","3","18","Male","","","","","","","null","<div style=""font-size:60px;"">+</div>","null","fixation","","","","","","","","","37","","",""
"revaluation","155","704541","0.0-4.0-2.0-0.19","spark_pilot_norest","10009","3","18","Male","","false","","","","","[410.39999997615814,320.10000002384186]","./assets/img/ocean/memory/7.jpg","[""ArrowDown"",""ArrowRight""]","value training","ocean","30","{""ArrowUp,ArrowLeft"":23,""ArrowUp,ArrowRight"":10,""ArrowDown,ArrowLeft"":8,""ArrowDown,ArrowRight"":30}","true","ArrowDown,ArrowRight","false","original","1","38","","",""
"html-keyboard-response","156","705045","0.0-4.0-2.0-1.19","spark_pilot_norest","10009","3","18","Male","","","","","","","null","<div style=""font-size:60px;"">+</div>","null","fixation","","","","","","","","","39","","",""
"revaluation","157","709054","0.0-4.0-2.0-0.20","spark_pilot_norest","10009","3","18","Male","","false","","","","","[396.39999997615814]","./assets/img/ocean/catch/6.jpg","[""spaceBar""]","value training","ocean","0","{""ArrowUp,ArrowLeft"":23,""ArrowUp,ArrowRight"":10,""ArrowDown,ArrowLeft"":8,""ArrowDown,ArrowRight"":30}","true","spaceBar","true","original","1","40","","",""
"html-keyboard-response","158","709557","0.0-4.0-2.0-1.20","spark_pilot_norest","10009","3","18","Male","","","","","","","null","<div style=""font-size:60px;"">+</div>","null","fixation","","","","","","","","","41","","",""
"revaluation","159","715571","0.0-4.0-2.0-0.21","spark_pilot_norest","10009","3","18","Male","","false","","","","","[420.6999999284744,259.90000009536743]","./assets/img/ocean/memory/25.jpg","[""ArrowDown"",""ArrowRight""]","value training","ocean","30","{""ArrowUp,ArrowLeft"":23,""ArrowUp,ArrowRight"":10,""ArrowDown,ArrowLeft"":8,""ArrowDown,ArrowRight"":30}","true","ArrowDown,ArrowRight","false","original","1","42","","",""
"html-keyboard-response","160","716073","0.0-4.0-2.0-1.21","spark_pilot_norest","10009","3","18","Male","","","","","","","null","<div style=""font-size:60px;"">+</div>","null","fixation","","","","","","","","","43","","",""
"revaluation","161","722085","0.0-4.0-2.0-0.22","spark_pilot_norest","10009","3","18","Male","","false","","","","","[418.10000002384186,257.10000002384186]","./assets/img/ocean/memory/0.jpg","[""ArrowDown"",""ArrowRight""]","value training","ocean","30","{""ArrowUp,ArrowLeft"":23,""ArrowUp,ArrowRight"":10,""ArrowDown,ArrowLeft"":8,""ArrowDown,ArrowRight"":30}","true","ArrowDown,ArrowRight","false","original","1","44","","",""
"html-keyboard-response","162","722587","0.0-4.0-2.0-1.22","spark_pilot_norest","10009","3","18","Male","","","","","","","null","<div style=""font-size:60px;"">+</div>","null","fixation","","","","","","","","","45","","",""
"revaluation","163","728612","0.0-4.0-2.0-0.23","spark_pilot_norest","10009","3","18","Male","","false","","","","","[427.7000000476837,281.89999997615814]","./assets/img/ocean/memory/26.jpg","[""ArrowDown"",""ArrowRight""]","value training","ocean","30","{""ArrowUp,ArrowLeft"":23,""ArrowUp,ArrowRight"":10,""ArrowDown,ArrowLeft"":8,""ArrowDown,ArrowRight"":30}","true","ArrowDown,ArrowRight","false","original","1","46","","",""
"html-keyboard-response","164","729117","0.0-4.0-2.0-1.23","spark_pilot_norest","10009","3","18","Male","","","","","","","null","<div style=""font-size:60px;"">+</div>","null","fixation","","","","","","","","","47","","",""
"revaluation","165","735127","0.0-4.0-2.0-0.24","spark_pilot_norest","10009","3","18","Male","","false","","","","","[358.7999999523163,263.1999999284744]","./assets/img/ocean/memory/38.jpg","[""ArrowDown"",""ArrowRight""]","value training","ocean","30","{""ArrowUp,ArrowLeft"":23,""ArrowUp,ArrowRight"":10,""ArrowDown,ArrowLeft"":8,""ArrowDown,ArrowRight"":30}","true","ArrowDown,ArrowRight","false","original","1","48","","",""
"html-keyboard-response","166","735630","0.0-4.0-2.0-1.24","spark_pilot_norest","10009","3","18","Male","","","","","","","null","<div style=""font-size:60px;"">+</div>","null","fixation","","","","","","","","","49","","",""
"revaluation","167","741646","0.0-4.0-2.0-0.25","spark_pilot_norest","10009","3","18","Male","","false","","","","","[324.5,248.29999995231628]","./assets/img/ocean/memory/5.jpg","[""ArrowDown"",""ArrowRight""]","value training","ocean","30","{""ArrowUp,ArrowLeft"":23,""ArrowUp,ArrowRight"":10,""ArrowDown,ArrowLeft"":8,""ArrowDown,ArrowRight"":30}","true","ArrowDown,ArrowRight","false","original","1","50","","",""
"html-keyboard-response","168","742161","0.0-4.0-2.0-1.25","spark_pilot_norest","10009","3","18","Male","","","","","","","null","<div style=""font-size:60px;"">+</div>","null","fixation","","","","","","","","","51","","",""
"revaluation","169","748167","0.0-4.0-2.0-0.26","spark_pilot_norest","10009","3","18","Male","","false","","","","","[390.2000000476837,355.59999990463257]","./assets/img/ocean/memory/8.jpg","[""ArrowDown"",""ArrowRight""]","value training","ocean","30","{""ArrowUp,ArrowLeft"":23,""ArrowUp,ArrowRight"":10,""ArrowDown,ArrowLeft"":8,""ArrowDown,ArrowRight"":30}","true","ArrowDown,ArrowRight","false","original","1","52","","",""
"html-keyboard-response","170","748670","0.0-4.0-2.0-1.26","spark_pilot_norest","10009","3","18","Male","","","","","","","null","<div style=""font-size:60px;"">+</div>","null","fixation","","","","","","","","","53","","",""
"revaluation","171","754680","0.0-4.0-2.0-0.27","spark_pilot_norest","10009","3","18","Male","","false","","","","","[421.10000002384186,471.7000000476837]","./assets/img/ocean/memory/26.jpg","[""ArrowDown"",""ArrowRight""]","value training","ocean","30","{""ArrowUp,ArrowLeft"":23,""ArrowUp,ArrowRight"":10,""ArrowDown,ArrowLeft"":8,""ArrowDown,ArrowRight"":30}","true","ArrowDown,ArrowRight","false","original","1","54","","",""
"html-keyboard-response","172","755184","0.0-4.0-2.0-1.27","spark_pilot_norest","10009","3","18","Male","","","","","","","null","<div style=""font-size:60px;"">+</div>","null","fixation","","","","","","","","","55","","",""
"revaluation","173","761200","0.0-4.0-2.0-0.28","spark_pilot_norest","10009","3","18","Male","","false","","","","","[1381.8000000715256,320.89999997615814]","./assets/img/ocean/memory/20.jpg","[""ArrowDown"",""ArrowRight""]","value training","ocean","30","{""ArrowUp,ArrowLeft"":23,""ArrowUp,ArrowRight"":10,""ArrowDown,ArrowLeft"":8,""ArrowDown,ArrowRight"":30}","true","ArrowDown,ArrowRight","false","original","1","56","","",""
"html-keyboard-response","174","761703","0.0-4.0-2.0-1.28","spark_pilot_norest","10009","3","18","Male","","","","","","","null","<div style=""font-size:60px;"">+</div>","null","fixation","","","","","","","","","57","","",""
"revaluation","175","767713","0.0-4.0-2.0-0.29","spark_pilot_norest","10009","3","18","Male","","false","","","","","[472.5,288.59999990463257]","./assets/img/ocean/memory/0.jpg","[""ArrowDown"",""ArrowRight""]","value training","ocean","30","{""ArrowUp,ArrowLeft"":23,""ArrowUp,ArrowRight"":10,""ArrowDown,ArrowLeft"":8,""ArrowDown,ArrowRight"":30}","true","ArrowDown,ArrowRight","false","original","1","58","","",""
"html-keyboard-response","176","768218","0.0-4.0-2.0-1.29","spark_pilot_norest","10009","3","18","Male","","","","","","","null","<div style=""font-size:60px;"">+</div>","null","fixation","","","","","","","","","59","","",""
"revaluation","177","774232","0.0-4.0-2.0-0.30","spark_pilot_norest","10009","3","18","Male","","false","","","","","[412.60000002384186,314.3000000715256]","./assets/img/ocean/memory/28.jpg","[""ArrowDown"",""ArrowRight""]","value training","ocean","30","{""ArrowUp,ArrowLeft"":23,""ArrowUp,ArrowRight"":10,""ArrowDown,ArrowLeft"":8,""ArrowDown,ArrowRight"":30}","true","ArrowDown,ArrowRight","false","original","1","60","","",""
"html-keyboard-response","178","774740","0.0-4.0-2.0-1.30","spark_pilot_norest","10009","3","18","Male","","","","","","","null","<div style=""font-size:60px;"">+</div>","null","fixation","","","","","","","","","61","","",""
"revaluation","179","780751","0.0-4.0-2.0-0.31","spark_pilot_norest","10009","3","18","Male","","false","","","","","[357.40000009536743,299.59999990463257]","./assets/img/ocean/memory/27.jpg","[""ArrowDown"",""ArrowRight""]","value training","ocean","30","{""ArrowUp,ArrowLeft"":23,""ArrowUp,ArrowRight"":10,""ArrowDown,ArrowLeft"":8,""ArrowDown,ArrowRight"":30}","true","ArrowDown,ArrowRight","false","original","1","62","","",""
"html-keyboard-response","180","781255","0.0-4.0-2.0-1.31","spark_pilot_norest","10009","3","18","Male","","","","","","","null","<div style=""font-size:60px;"">+</div>","null","fixation","","","","","","","","","63","","",""
"revaluation","181","785267","0.0-4.0-2.0-0.32","spark_pilot_norest","10009","3","18","Male","","false","","","","","[393.6999999284744]","./assets/img/ocean/catch/2.jpg","[""spaceBar""]","value training","ocean","0","{""ArrowUp,ArrowLeft"":23,""ArrowUp,ArrowRight"":10,""ArrowDown,ArrowLeft"":8,""ArrowDown,ArrowRight"":30}","true","spaceBar","true","original","1","64","","",""
"html-keyboard-response","182","785769","0.0-4.0-2.0-1.32","spark_pilot_norest","10009","3","18","Male","","","","","","","null","<div style=""font-size:60px;"">+</div>","null","fixation","","","","","","","","","65","","",""
"revaluation","183","791790","0.0-4.0-2.0-0.33","spark_pilot_norest","10009","3","18","Male","","false","","","","","[715.2999999523163,282.1999999284744]","./assets/img/ocean/memory/36.jpg","[""ArrowDown"",""ArrowRight""]","value training","ocean","30","{""ArrowUp,ArrowLeft"":23,""ArrowUp,ArrowRight"":10,""ArrowDown,ArrowLeft"":8,""ArrowDown,ArrowRight"":30}","true","ArrowDown,ArrowRight","false","original","1","66","","",""
"html-keyboard-response","184","792300","0.0-4.0-2.0-1.33","spark_pilot_norest","10009","3","18","Male","","","","","","","null","<div style=""font-size:60px;"">+</div>","null","fixation","","","","","","","","","67","","",""
"revaluation","185","798312","0.0-4.0-2.0-0.34","spark_pilot_norest","10009","3","18","Male","","false","","","","","[461.8000000715256,296.10000002384186]","./assets/img/ocean/memory/38.jpg","[""ArrowDown"",""ArrowRight""]","value training","ocean","30","{""ArrowUp,ArrowLeft"":23,""ArrowUp,ArrowRight"":10,""ArrowDown,ArrowLeft"":8,""ArrowDown,ArrowRight"":30}","true","ArrowDown,ArrowRight","false","original","1","68","","",""
"html-keyboard-response","186","798816","0.0-4.0-2.0-1.34","spark_pilot_norest","10009","3","18","Male","","","","","","","null","<div style=""font-size:60px;"">+</div>","null","fixation","","","","","","","","","69","","",""
"revaluation","187","804839","0.0-4.0-2.0-0.35","spark_pilot_norest","10009","3","18","Male","","false","","","","","[389.60000002384186,267.7000000476837]","./assets/img/ocean/memory/1.jpg","[""ArrowDown"",""ArrowRight""]","value training","ocean","30","{""ArrowUp,ArrowLeft"":23,""ArrowUp,ArrowRight"":10,""ArrowDown,ArrowLeft"":8,""ArrowDown,ArrowRight"":30}","true","ArrowDown,ArrowRight","false","original","1","70","","",""
"html-keyboard-response","188","805343","0.0-4.0-2.0-1.35","spark_pilot_norest","10009","3","18","Male","","","","","","","null","<div style=""font-size:60px;"">+</div>","null","fixation","","","","","","","","","71","","",""
"revaluation","189","811354","0.0-4.0-2.0-0.36","spark_pilot_norest","10009","3","18","Male","","false","","","","","[587.5,305.89999997615814]","./assets/img/ocean/memory/19.jpg","[""ArrowDown"",""ArrowRight""]","value training","ocean","30","{""ArrowUp,ArrowLeft"":23,""ArrowUp,ArrowRight"":10,""ArrowDown,ArrowLeft"":8,""ArrowDown,ArrowRight"":30}","true","ArrowDown,ArrowRight","false","original","1","72","","",""
"html-keyboard-response","190","811859","0.0-4.0-2.0-1.36","spark_pilot_norest","10009","3","18","Male","","","","","","","null","<div style=""font-size:60px;"">+</div>","null","fixation","","","","","","","","","73","","",""
"revaluation","191","817873","0.0-4.0-2.0-0.37","spark_pilot_norest","10009","3","18","Male","","false","","","","","[445,410.89999997615814]","./assets/img/ocean/memory/21.jpg","[""ArrowDown"",""ArrowRight""]","value training","ocean","30","{""ArrowUp,ArrowLeft"":23,""ArrowUp,ArrowRight"":10,""ArrowDown,ArrowLeft"":8,""ArrowDown,ArrowRight"":30}","true","ArrowDown,ArrowRight","false","original","1","74","","",""
"html-keyboard-response","192","818378","0.0-4.0-2.0-1.37","spark_pilot_norest","10009","3","18","Male","","","","","","","null","<div style=""font-size:60px;"">+</div>","null","fixation","","","","","","","","","75","","",""
"revaluation","193","824391","0.0-4.0-2.0-0.38","spark_pilot_norest","10009","3","18","Male","","false","","","","","[439.2999999523163,355.5]","./assets/img/ocean/memory/19.jpg","[""ArrowDown"",""ArrowRight""]","value training","ocean","30","{""ArrowUp,ArrowLeft"":23,""ArrowUp,ArrowRight"":10,""ArrowDown,ArrowLeft"":8,""ArrowDown,ArrowRight"":30}","true","ArrowDown,ArrowRight","false","original","1","76","","",""
"html-keyboard-response","194","824895","0.0-4.0-2.0-1.38","spark_pilot_norest","10009","3","18","Male","","","","","","","null","<div style=""font-size:60px;"">+</div>","null","fixation","","","","","","","","","77","","",""
"revaluation","195","830910","0.0-4.0-2.0-0.39","spark_pilot_norest","10009","3","18","Male","","false","","","","","[481.5,334.39999997615814]","./assets/img/ocean/memory/21.jpg","[""ArrowDown"",""ArrowRight""]","value training","ocean","30","{""ArrowUp,ArrowLeft"":23,""ArrowUp,ArrowRight"":10,""ArrowDown,ArrowLeft"":8,""ArrowDown,ArrowRight"":30}","true","ArrowDown,ArrowRight","false","original","1","78","","",""
"html-keyboard-response","196","831414","0.0-4.0-2.0-1.39","spark_pilot_norest","10009","3","18","Male","","","","","","","null","<div style=""font-size:60px;"">+</div>","null","fixation","","","","","","","","","79","","",""
"revaluation","197","837424","0.0-4.0-2.0-0.40","spark_pilot_norest","10009","3","18","Male","","false","","","","","[414.60000002384186,338.39999997615814]","./assets/img/ocean/memory/1.jpg","[""ArrowDown"",""ArrowRight""]","value training","ocean","30","{""ArrowUp,ArrowLeft"":23,""ArrowUp,ArrowRight"":10,""ArrowDown,ArrowLeft"":8,""ArrowDown,ArrowRight"":30}","true","ArrowDown,ArrowRight","false","original","1","80","","",""
"html-keyboard-response","198","837926","0.0-4.0-2.0-1.40","spark_pilot_norest","10009","3","18","Male","","","","","","","null","<div style=""font-size:60px;"">+</div>","null","fixation","","","","","","","","","81","","",""
"revaluation","199","843937","0.0-4.0-2.0-0.41","spark_pilot_norest","10009","3","18","Male","","false","","","","","[512.2000000476837,341.39999997615814]","./assets/img/ocean/memory/36.jpg","[""ArrowDown"",""ArrowRight""]","value training","ocean","30","{""ArrowUp,ArrowLeft"":23,""ArrowUp,ArrowRight"":10,""ArrowDown,ArrowLeft"":8,""ArrowDown,ArrowRight"":30}","true","ArrowDown,ArrowRight","false","original","1","82","","",""
"html-keyboard-response","200","844440","0.0-4.0-2.0-1.41","spark_pilot_norest","10009","3","18","Male","","","","","","","null","<div style=""font-size:60px;"">+</div>","null","fixation","","","","","","","","","83","","",""
"revaluation","201","848447","0.0-4.0-2.0-0.42","spark_pilot_norest","10009","3","18","Male","","false","","","","","[577.2999999523163]","./assets/img/ocean/catch/0.jpg","[""spaceBar""]","value training","ocean","0","{""ArrowUp,ArrowLeft"":23,""ArrowUp,ArrowRight"":10,""ArrowDown,ArrowLeft"":8,""ArrowDown,ArrowRight"":30}","true","spaceBar","true","original","1","84","","",""
"html-keyboard-response","202","848951","0.0-4.0-2.0-1.42","spark_pilot_norest","10009","3","18","Male","","","","","","","null","<div style=""font-size:60px;"">+</div>","null","fixation","","","","","","","","","85","","",""
"revaluation","203","854962","0.0-4.0-2.0-0.43","spark_pilot_norest","10009","3","18","Male","","false","","","","","[429.5,255]","./assets/img/ocean/memory/24.jpg","[""ArrowDown"",""ArrowRight""]","value training","ocean","30","{""ArrowUp,ArrowLeft"":23,""ArrowUp,ArrowRight"":10,""ArrowDown,ArrowLeft"":8,""ArrowDown,ArrowRight"":30}","true","ArrowDown,ArrowRight","false","original","1","86","","",""
"html-keyboard-response","204","855463","0.0-4.0-2.0-1.43","spark_pilot_norest","10009","3","18","Male","","","","","","","null","<div style=""font-size:60px;"">+</div>","null","fixation","","","","","","","","","87","","",""
"revaluation","205","861476","0.0-4.0-2.0-0.44","spark_pilot_norest","10009","3","18","Male","","false","","","","","[339.39999997615814,329.7999999523163]","./assets/img/ocean/memory/28.jpg","[""ArrowDown"",""ArrowRight""]","value training","ocean","30","{""ArrowUp,ArrowLeft"":23,""ArrowUp,ArrowRight"":10,""ArrowDown,ArrowLeft"":8,""ArrowDown,ArrowRight"":30}","true","ArrowDown,ArrowRight","false","original","1","88","","",""
"html-keyboard-response","206","861980","0.0-4.0-2.0-1.44","spark_pilot_norest","10009","3","18","Male","","","","","","","null","<div style=""font-size:60px;"">+</div>","null","fixation","","","","","","","","","89","","",""
"revaluation","207","867995","0.0-4.0-2.0-0.45","spark_pilot_norest","10009","3","18","Male","","false","","","","","[303.10000002384186,248.20000004768372]","./assets/img/ocean/memory/6.jpg","[""ArrowDown"",""ArrowRight""]","value training","ocean","30","{""ArrowUp,ArrowLeft"":23,""ArrowUp,ArrowRight"":10,""ArrowDown,ArrowLeft"":8,""ArrowDown,ArrowRight"":30}","true","ArrowDown,ArrowRight","false","original","1","90","","",""
"html-keyboard-response","208","868499","0.0-4.0-2.0-1.45","spark_pilot_norest","10009","3","18","Male","","","","","","","null","<div style=""font-size:60px;"">+</div>","null","fixation","","","","","","","","","91","","",""
"revaluation","209","872509","0.0-4.0-2.0-0.46","spark_pilot_norest","10009","3","18","Male","","false","","","","","[319.60000002384186]","./assets/img/ocean/catch/5.jpg","[""ArrowDown""]","value training","ocean","-10","{""ArrowUp,ArrowLeft"":23,""ArrowUp,ArrowRight"":10,""ArrowDown,ArrowLeft"":8,""ArrowDown,ArrowRight"":30}","false","ArrowDown","true","original","1","92","","",""
"html-keyboard-response","210","873013","0.0-4.0-2.0-1.46","spark_pilot_norest","10009","3","18","Male","","","","","","","null","<div style=""font-size:60px;"">+</div>","null","fixation","","","","","","","","","93","","",""
"revaluation","211","877021","0.0-4.0-2.0-0.47","spark_pilot_norest","10009","3","18","Male","","false","","","","","[534.8999999761581]","./assets/img/ocean/catch/1.jpg","[""spaceBar""]","value training","ocean","0","{""ArrowUp,ArrowLeft"":23,""ArrowUp,ArrowRight"":10,""ArrowDown,ArrowLeft"":8,""ArrowDown,ArrowRight"":30}","true","spaceBar","true","original","1","94","","",""
"html-keyboard-response","212","877525","0.0-4.0-2.0-1.47","spark_pilot_norest","10009","3","18","Male","","","","","","","null","<div style=""font-size:60px;"">+</div>","null","fixation","","","","","","","","","95","","",""
"revaluation","213","883541","0.0-4.0-2.0-0.48","spark_pilot_norest","10009","3","18","Male","","false","","","","","[542.8999999761581,267.2000000476837]","./assets/img/ocean/memory/39.jpg","[""ArrowDown"",""ArrowRight""]","value training","ocean","30","{""ArrowUp,ArrowLeft"":23,""ArrowUp,ArrowRight"":10,""ArrowDown,ArrowLeft"":8,""ArrowDown,ArrowRight"":30}","true","ArrowDown,ArrowRight","false","original","1","96","","",""
"html-keyboard-response","214","884043","0.0-4.0-2.0-1.48","spark_pilot_norest","10009","3","18","Male","","","","","","","null","<div style=""font-size:60px;"">+</div>","null","fixation","","","","","","","","","97","","",""
"revaluation","215","888052","0.0-4.0-2.0-0.49","spark_pilot_norest","10009","3","18","Male","","false","","","","","[357.60000002384186]","./assets/img/ocean/catch/7.jpg","[""ArrowDown""]","value training","ocean","-10","{""ArrowUp,ArrowLeft"":23,""ArrowUp,ArrowRight"":10,""ArrowDown,ArrowLeft"":8,""ArrowDown,ArrowRight"":30}","false","ArrowDown","true","original","1","98","","",""
"html-keyboard-response","216","888553","0.0-4.0-2.0-1.49","spark_pilot_norest","10009","3","18","Male","","","","","","","null","<div style=""font-size:60px;"">+</div>","null","fixation","","","","","","","","","99","","",""
"learning-instructions","217","908803","0.0-4.0-3.0-0.0","spark_pilot_norest","10009","3","18","Male","","","","","","","7043.600000023842","<p> Now, you will travel with a friend who will choose whether you go up or down first. </p>
            <p> On these turns, you will just see the animal that they found. You will still get to choose which chest to search for treasure.</p>","","instructions","","","","","","","","","","","",""
"revaluation","218","912844","0.0-4.0-4.0-0.0","spark_pilot_norest","10009","3","18","Male","","false","","","","","[1315.5]","./assets/img/ocean/animals/seahorse.jpg","[""ArrowRight""]","revaluation","ocean","10","{""ArrowUp,ArrowLeft"":23,""ArrowUp,ArrowRight"":10,""ArrowDown,ArrowLeft"":8,""ArrowDown,ArrowRight"":30}","false","ArrowUp,ArrowRight","","original","1","0","","",""
"html-keyboard-response","219","913361","0.0-4.0-4.0-1.0","spark_pilot_norest","10009","3","18","Male","","","","","","","null","<div style=""font-size:60px;"">+</div>","null","fixation","","","","","","","","","1","","",""
"revaluation","220","917373","0.0-4.0-4.0-0.1","spark_pilot_norest","10009","3","18","Male","","false","","","","","[415.7000000476837]","./assets/img/ocean/animals/octopus.jpg","[""ArrowRight""]","revaluation","ocean","30","{""ArrowUp,ArrowLeft"":23,""ArrowUp,ArrowRight"":10,""ArrowDown,ArrowLeft"":8,""ArrowDown,ArrowRight"":30}","true","ArrowDown,ArrowRight","","original","1","2","","",""
"html-keyboard-response","221","917880","0.0-4.0-4.0-1.1","spark_pilot_norest","10009","3","18","Male","","","","","","","null","<div style=""font-size:60px;"">+</div>","null","fixation","","","","","","","","","3","","",""
"revaluation","222","921902","0.0-4.0-4.0-0.2","spark_pilot_norest","10009","3","18","Male","","false","","","","","[438.7000000476837]","./assets/img/ocean/animals/octopus.jpg","[""ArrowRight""]","revaluation","ocean","30","{""ArrowUp,ArrowLeft"":23,""ArrowUp,ArrowRight"":10,""ArrowDown,ArrowLeft"":8,""ArrowDown,ArrowRight"":30}","true","ArrowDown,ArrowRight","","original","1","4","","",""
"html-keyboard-response","223","922416","0.0-4.0-4.0-1.2","spark_pilot_norest","10009","3","18","Male","","","","","","","null","<div style=""font-size:60px;"">+</div>","null","fixation","","","","","","","","","5","","",""
"revaluation","224","926441","0.0-4.0-4.0-0.3","spark_pilot_norest","10009","3","18","Male","","false","","","","","[268.60000002384186]","./assets/img/ocean/animals/seahorse.jpg","[""ArrowLeft""]","revaluation","ocean","23","{""ArrowUp,ArrowLeft"":23,""ArrowUp,ArrowRight"":10,""ArrowDown,ArrowLeft"":8,""ArrowDown,ArrowRight"":30}","true","ArrowUp,ArrowLeft","","original","1","6","","",""
"html-keyboard-response","225","926952","0.0-4.0-4.0-1.3","spark_pilot_norest","10009","3","18","Male","","","","","","","null","<div style=""font-size:60px;"">+</div>","null","fixation","","","","","","","","","7","","",""
"revaluation","226","930978","0.0-4.0-4.0-0.4","spark_pilot_norest","10009","3","18","Male","","false","","","","","[353.10000002384186]","./assets/img/ocean/animals/seahorse.jpg","[""ArrowLeft""]","revaluation","ocean","23","{""ArrowUp,ArrowLeft"":23,""ArrowUp,ArrowRight"":10,""ArrowDown,ArrowLeft"":8,""ArrowDown,ArrowRight"":30}","true","ArrowUp,ArrowLeft","","original","1","8","","",""
"html-keyboard-response","227","931485","0.0-4.0-4.0-1.4","spark_pilot_norest","10009","3","18","Male","","","","","","","null","<div style=""font-size:60px;"">+</div>","null","fixation","","","","","","","","","9","","",""
"revaluation","228","935497","0.0-4.0-4.0-0.5","spark_pilot_norest","10009","3","18","Male","","false","","","","","[411.09999990463257]","./assets/img/ocean/animals/seahorse.jpg","[""ArrowLeft""]","revaluation","ocean","23","{""ArrowUp,ArrowLeft"":23,""ArrowUp,ArrowRight"":10,""ArrowDown,ArrowLeft"":8,""ArrowDown,ArrowRight"":30}","true","ArrowUp,ArrowLeft","","original","1","10","","",""
"html-keyboard-response","229","935998","0.0-4.0-4.0-1.5","spark_pilot_norest","10009","3","18","Male","","","","","","","null","<div style=""font-size:60px;"">+</div>","null","fixation","","","","","","","","","11","","",""
"revaluation","230","940012","0.0-4.0-4.0-0.6","spark_pilot_norest","10009","3","18","Male","","false","","","","","[449.7999999523163]","./assets/img/ocean/animals/seahorse.jpg","[""ArrowLeft""]","revaluation","ocean","23","{""ArrowUp,ArrowLeft"":23,""ArrowUp,ArrowRight"":10,""ArrowDown,ArrowLeft"":8,""ArrowDown,ArrowRight"":30}","true","ArrowUp,ArrowLeft","","original","1","12","","",""
"html-keyboard-response","231","940515","0.0-4.0-4.0-1.6","spark_pilot_norest","10009","3","18","Male","","","","","","","null","<div style=""font-size:60px;"">+</div>","null","fixation","","","","","","","","","13","","",""
"revaluation","232","944525","0.0-4.0-4.0-0.7","spark_pilot_norest","10009","3","18","Male","","false","","","","","[275.39999997615814]","./assets/img/ocean/animals/octopus.jpg","[""ArrowRight""]","revaluation","ocean","30","{""ArrowUp,ArrowLeft"":23,""ArrowUp,ArrowRight"":10,""ArrowDown,ArrowLeft"":8,""ArrowDown,ArrowRight"":30}","true","ArrowDown,ArrowRight","","original","1","14","","",""
"html-keyboard-response","233","945028","0.0-4.0-4.0-1.7","spark_pilot_norest","10009","3","18","Male","","","","","","","null","<div style=""font-size:60px;"">+</div>","null","fixation","","","","","","","","","15","","",""
"revaluation","234","949038","0.0-4.0-4.0-0.8","spark_pilot_norest","10009","3","18","Male","","false","","","","","[289]","./assets/img/ocean/animals/octopus.jpg","[""ArrowRight""]","revaluation","ocean","30","{""ArrowUp,ArrowLeft"":23,""ArrowUp,ArrowRight"":10,""ArrowDown,ArrowLeft"":8,""ArrowDown,ArrowRight"":30}","true","ArrowDown,ArrowRight","","original","1","16","","",""
"html-keyboard-response","235","949543","0.0-4.0-4.0-1.8","spark_pilot_norest","10009","3","18","Male","","","","","","","null","<div style=""font-size:60px;"">+</div>","null","fixation","","","","","","","","","17","","",""
"revaluation","236","953554","0.0-4.0-4.0-0.9","spark_pilot_norest","10009","3","18","Male","","false","","","","","[386.39999997615814]","./assets/img/ocean/animals/octopus.jpg","[""ArrowRight""]","revaluation","ocean","30","{""ArrowUp,ArrowLeft"":23,""ArrowUp,ArrowRight"":10,""ArrowDown,ArrowLeft"":8,""ArrowDown,ArrowRight"":30}","true","ArrowDown,ArrowRight","","original","1","18","","",""
"html-keyboard-response","237","954056","0.0-4.0-4.0-1.9","spark_pilot_norest","10009","3","18","Male","","","","","","","null","<div style=""font-size:60px;"">+</div>","null","fixation","","","","","","","","","19","","",""
"revaluation","238","958069","0.0-4.0-4.0-0.10","spark_pilot_norest","10009","3","18","Male","","false","","","","","[495.89999997615814]","./assets/img/ocean/animals/seahorse.jpg","[""ArrowLeft""]","revaluation","ocean","23","{""ArrowUp,ArrowLeft"":23,""ArrowUp,ArrowRight"":10,""ArrowDown,ArrowLeft"":8,""ArrowDown,ArrowRight"":30}","true","ArrowUp,ArrowLeft","","original","1","20","","",""
"html-keyboard-response","239","958574","0.0-4.0-4.0-1.10","spark_pilot_norest","10009","3","18","Male","","","","","","","null","<div style=""font-size:60px;"">+</div>","null","fixation","","","","","","","","","21","","",""
"revaluation","240","962581","0.0-4.0-4.0-0.11","spark_pilot_norest","10009","3","18","Male","","false","","","","","[417]","./assets/img/ocean/animals/octopus.jpg","[""ArrowRight""]","revaluation","ocean","30","{""ArrowUp,ArrowLeft"":23,""ArrowUp,ArrowRight"":10,""ArrowDown,ArrowLeft"":8,""ArrowDown,ArrowRight"":30}","true","ArrowDown,ArrowRight","","original","1","22","","",""
"html-keyboard-response","241","963085","0.0-4.0-4.0-1.11","spark_pilot_norest","10009","3","18","Male","","","","","","","null","<div style=""font-size:60px;"">+</div>","null","fixation","","","","","","","","","23","","",""
"revaluation","242","967092","0.0-4.0-4.0-0.12","spark_pilot_norest","10009","3","18","Male","","false","","","","","[499.2000000476837]","./assets/img/ocean/animals/octopus.jpg","[""ArrowRight""]","revaluation","ocean","30","{""ArrowUp,ArrowLeft"":23,""ArrowUp,ArrowRight"":10,""ArrowDown,ArrowLeft"":8,""ArrowDown,ArrowRight"":30}","true","ArrowDown,ArrowRight","","original","1","24","","",""
"html-keyboard-response","243","967595","0.0-4.0-4.0-1.12","spark_pilot_norest","10009","3","18","Male","","","","","","","null","<div style=""font-size:60px;"">+</div>","null","fixation","","","","","","","","","25","","",""
"revaluation","244","971602","0.0-4.0-4.0-0.13","spark_pilot_norest","10009","3","18","Male","","false","","","","","[429.3000000715256]","./assets/img/ocean/animals/seahorse.jpg","[""ArrowLeft""]","revaluation","ocean","23","{""ArrowUp,ArrowLeft"":23,""ArrowUp,ArrowRight"":10,""ArrowDown,ArrowLeft"":8,""ArrowDown,ArrowRight"":30}","true","ArrowUp,ArrowLeft","","original","1","26","","",""
"html-keyboard-response","245","972106","0.0-4.0-4.0-1.13","spark_pilot_norest","10009","3","18","Male","","","","","","","null","<div style=""font-size:60px;"">+</div>","null","fixation","","","","","","","","","27","","",""
"revaluation","246","976119","0.0-4.0-4.0-0.14","spark_pilot_norest","10009","3","18","Male","","false","","","","","[562.3999999761581]","./assets/img/ocean/animals/seahorse.jpg","[""ArrowLeft""]","revaluation","ocean","23","{""ArrowUp,ArrowLeft"":23,""ArrowUp,ArrowRight"":10,""ArrowDown,ArrowLeft"":8,""ArrowDown,ArrowRight"":30}","true","ArrowUp,ArrowLeft","","original","1","28","","",""
"html-keyboard-response","247","976621","0.0-4.0-4.0-1.14","spark_pilot_norest","10009","3","18","Male","","","","","","","null","<div style=""font-size:60px;"">+</div>","null","fixation","","","","","","","","","29","","",""
"revaluation","248","980631","0.0-4.0-4.0-0.15","spark_pilot_norest","10009","3","18","Male","","false","","","","","[396.2000000476837]","./assets/img/ocean/animals/octopus.jpg","[""ArrowRight""]","revaluation","ocean","30","{""ArrowUp,ArrowLeft"":23,""ArrowUp,ArrowRight"":10,""ArrowDown,ArrowLeft"":8,""ArrowDown,ArrowRight"":30}","true","ArrowDown,ArrowRight","","original","1","30","","",""
"html-keyboard-response","249","981132","0.0-4.0-4.0-1.15","spark_pilot_norest","10009","3","18","Male","","","","","","","null","<div style=""font-size:60px;"">+</div>","null","fixation","","","","","","","","","31","","",""
"revaluation","250","985148","0.0-4.0-4.0-0.16","spark_pilot_norest","10009","3","18","Male","","false","","","","","[365.10000002384186]","./assets/img/ocean/animals/octopus.jpg","[""ArrowRight""]","revaluation","ocean","30","{""ArrowUp,ArrowLeft"":23,""ArrowUp,ArrowRight"":10,""ArrowDown,ArrowLeft"":8,""ArrowDown,ArrowRight"":30}","true","ArrowDown,ArrowRight","","original","1","32","","",""
"html-keyboard-response","251","985651","0.0-4.0-4.0-1.16","spark_pilot_norest","10009","3","18","Male","","","","","","","null","<div style=""font-size:60px;"">+</div>","null","fixation","","","","","","","","","33","","",""
"revaluation","252","989660","0.0-4.0-4.0-0.17","spark_pilot_norest","10009","3","18","Male","","false","","","","","[325.2999999523163]","./assets/img/ocean/animals/seahorse.jpg","[""ArrowLeft""]","revaluation","ocean","23","{""ArrowUp,ArrowLeft"":23,""ArrowUp,ArrowRight"":10,""ArrowDown,ArrowLeft"":8,""ArrowDown,ArrowRight"":30}","true","ArrowUp,ArrowLeft","","original","1","34","","",""
"html-keyboard-response","253","990163","0.0-4.0-4.0-1.17","spark_pilot_norest","10009","3","18","Male","","","","","","","null","<div style=""font-size:60px;"">+</div>","null","fixation","","","","","","","","","35","","",""
"learning-instructions","254","998572","0.0-4.0-5.0-0.0","spark_pilot_norest","10009","3","18","Male","","","","","","","null","<p> You have almost finished this part of the game! </p>
            <p> We are going to ask you to make a few more choices. </p>","","instructions","","","","","","","","","","","",""
"learning-instructions","255","1014605","0.0-4.0-5.0-0.1","spark_pilot_norest","10009","3","18","Male","","","","","","","null","<p> First, you need to decide whether to go up or down. When you see each picture, use the arrow keys to make your choice. </p>
            <p><b>You will not see which animal you found, but try to get to the one that will give you the most treasure.</b></p>","","instructions","","","","","","","","","","","",""
"html-keyboard-response","256","1015615","0.0-4.0-6.0-0.0","spark_pilot_norest","10009","3","18","Male","","","","","","","null","<div style=""font-size:100px;color:red;"">Starting in...</div>","null","","","","","","","","","","","","",""
"html-keyboard-response","257","1016618","0.0-4.0-6.0-1.0","spark_pilot_norest","10009","3","18","Male","","","","","","","null","<div style=""font-size:200px;color:red;"">3</div>","null","","","","","","","","","","","","",""
"html-keyboard-response","258","1017629","0.0-4.0-6.0-2.0","spark_pilot_norest","10009","3","18","Male","","","","","","","null","<div style=""font-size:200px;color:red;"">2</div>","null","","","","","","","","","","","","",""
"html-keyboard-response","259","1018642","0.0-4.0-6.0-3.0","spark_pilot_norest","10009","3","18","Male","","","","","","","null","<div style=""font-size:200px;color:red;"">1</div>","null","","","","","","","","","","","","",""
"revaluation","260","1018953","0.0-4.0-7.0-0.0","spark_pilot_norest","10009","3","18","Male","","false","","","","","[307.10000002384186]","./assets/img/ocean/test/3.jpg","[""ArrowDown""]","first stage test","ocean","0","{""ArrowUp,ArrowLeft"":23,""ArrowUp,ArrowRight"":10,""ArrowDown,ArrowLeft"":8,""ArrowDown,ArrowRight"":30}","true","ArrowDown","false","original","1","","","",""
"html-keyboard-response","261","1019465","0.0-4.0-7.0-1.0","spark_pilot_norest","10009","3","18","Male","","","","","","","null","<div style=""font-size:60px;"">+</div>","null","fixation","","","","","","","","","","","",""
"revaluation","262","1019853","0.0-4.0-7.0-0.1","spark_pilot_norest","10009","3","18","Male","","false","","","","","[386.7999999523163]","./assets/img/ocean/test/2.jpg","[""ArrowDown""]","first stage test","ocean","0","{""ArrowUp,ArrowLeft"":23,""ArrowUp,ArrowRight"":10,""ArrowDown,ArrowLeft"":8,""ArrowDown,ArrowRight"":30}","true","ArrowDown","false","original","1","","","",""
"html-keyboard-response","263","1020363","0.0-4.0-7.0-1.1","spark_pilot_norest","10009","3","18","Male","","","","","","","null","<div style=""font-size:60px;"">+</div>","null","fixation","","","","","","","","","","","",""
"revaluation","264","1020804","0.0-4.0-7.0-0.2","spark_pilot_norest","10009","3","18","Male","","false","","","","","[435.89999997615814]","./assets/img/ocean/test/0.jpg","[""ArrowDown""]","first stage test","ocean","0","{""ArrowUp,ArrowLeft"":23,""ArrowUp,ArrowRight"":10,""ArrowDown,ArrowLeft"":8,""ArrowDown,ArrowRight"":30}","true","ArrowDown","false","original","1","","","",""
"html-keyboard-response","265","1021310","0.0-4.0-7.0-1.2","spark_pilot_norest","10009","3","18","Male","","","","","","","null","<div style=""font-size:60px;"">+</div>","null","fixation","","","","","","","","","","","",""
"revaluation","266","1021706","0.0-4.0-7.0-0.3","spark_pilot_norest","10009","3","18","Male","","false","","","","","[391.1999999284744]","./assets/img/ocean/test/1.jpg","[""ArrowDown""]","first stage test","ocean","0","{""ArrowUp,ArrowLeft"":23,""ArrowUp,ArrowRight"":10,""ArrowDown,ArrowLeft"":8,""ArrowDown,ArrowRight"":30}","true","ArrowDown","false","original","1","","","",""
"html-keyboard-response","267","1022218","0.0-4.0-7.0-1.3","spark_pilot_norest","10009","3","18","Male","","","","","","","null","<div style=""font-size:60px;"">+</div>","null","fixation","","","","","","","","","","","",""
"learning-instructions","268","1035570","0.0-4.0-8.0-0.0","spark_pilot_norest","10009","3","18","Male","","","","","","","null","<p> Now you will see the animals again and can search their chests for treasure. </p>
            <p> This time, you will not see how much treasure you earned, but you will earn more bonus money for making better choices. </p>","","instructions","","","","","","","","","","","",""
"html-keyboard-response","269","1036577","0.0-4.0-9.0-0.0","spark_pilot_norest","10009","3","18","Male","","","","","","","null","<div style=""font-size:100px;color:red;"">Starting in...</div>","null","","","","","","","","","","","","",""
"html-keyboard-response","270","1037581","0.0-4.0-9.0-1.0","spark_pilot_norest","10009","3","18","Male","","","","","","","null","<div style=""font-size:200px;color:red;"">3</div>","null","","","","","","","","","","","","",""
"html-keyboard-response","271","1038592","0.0-4.0-9.0-2.0","spark_pilot_norest","10009","3","18","Male","","","","","","","null","<div style=""font-size:200px;color:red;"">2</div>","null","","","","","","","","","","","","",""
"html-keyboard-response","272","1039595","0.0-4.0-9.0-3.0","spark_pilot_norest","10009","3","18","Male","","","","","","","null","<div style=""font-size:200px;color:red;"">1</div>","null","","","","","","","","","","","","",""
"revaluation","273","1040294","0.0-4.0-10.0-0.0","spark_pilot_norest","10009","3","18","Male","","false","","","","","[693.7999999523163]","./assets/img/ocean/animals/seahorse.jpg","[""ArrowRight""]","second stage test","ocean","0","{""ArrowUp,ArrowLeft"":23,""ArrowUp,ArrowRight"":10,""ArrowDown,ArrowLeft"":8,""ArrowDown,ArrowRight"":30}","false","ArrowUp,ArrowRight","","original","1","","","",""
"html-keyboard-response","274","1040808","0.0-4.0-10.0-1.0","spark_pilot_norest","10009","3","18","Male","","","","","","","null","<div style=""font-size:60px;"">+</div>","null","fixation","","","","","","","","","","","",""
"revaluation","275","1041418","0.0-4.0-10.0-0.1","spark_pilot_norest","10009","3","18","Male","","false","","","","","[603.8999999761581]","./assets/img/ocean/animals/seahorse.jpg","[""ArrowLeft""]","second stage test","ocean","0","{""ArrowUp,ArrowLeft"":23,""ArrowUp,ArrowRight"":10,""ArrowDown,ArrowLeft"":8,""ArrowDown,ArrowRight"":30}","true","ArrowUp,ArrowLeft","","original","1","","","",""
"html-keyboard-response","276","1041930","0.0-4.0-10.0-1.1","spark_pilot_norest","10009","3","18","Male","","","","","","","null","<div style=""font-size:60px;"">+</div>","null","fixation","","","","","","","","","","","",""
"revaluation","277","1042546","0.0-4.0-10.0-0.2","spark_pilot_norest","10009","3","18","Male","","false","","","","","[607.3000000715256]","./assets/img/ocean/animals/seahorse.jpg","[""ArrowLeft""]","second stage test","ocean","0","{""ArrowUp,ArrowLeft"":23,""ArrowUp,ArrowRight"":10,""ArrowDown,ArrowLeft"":8,""ArrowDown,ArrowRight"":30}","true","ArrowUp,ArrowLeft","","original","1","","","",""
"html-keyboard-response","278","1043051","0.0-4.0-10.0-1.2","spark_pilot_norest","10009","3","18","Male","","","","","","","null","<div style=""font-size:60px;"">+</div>","null","fixation","","","","","","","","","","","",""
"revaluation","279","1043635","0.0-4.0-10.0-0.3","spark_pilot_norest","10009","3","18","Male","","false","","","","","[578.6999999284744]","./assets/img/ocean/animals/seahorse.jpg","[""ArrowLeft""]","second stage test","ocean","0","{""ArrowUp,ArrowLeft"":23,""ArrowUp,ArrowRight"":10,""ArrowDown,ArrowLeft"":8,""ArrowDown,ArrowRight"":30}","true","ArrowUp,ArrowLeft","","original","1","","","",""
"html-keyboard-response","280","1044156","0.0-4.0-10.0-1.3","spark_pilot_norest","10009","3","18","Male","","","","","","","null","<div style=""font-size:60px;"">+</div>","null","fixation","","","","","","","","","","","",""
"revaluation","281","1044516","0.0-4.0-10.0-0.4","spark_pilot_norest","10009","3","18","Male","","false","","","","","[356.2000000476837]","./assets/img/ocean/animals/octopus.jpg","[""ArrowRight""]","second stage test","ocean","0","{""ArrowUp,ArrowLeft"":23,""ArrowUp,ArrowRight"":10,""ArrowDown,ArrowLeft"":8,""ArrowDown,ArrowRight"":30}","true","ArrowDown,ArrowRight","","original","1","","","",""
"html-keyboard-response","282","1045021","0.0-4.0-10.0-1.4","spark_pilot_norest","10009","3","18","Male","","","","","","","null","<div style=""font-size:60px;"">+</div>","null","fixation","","","","","","","","","","","",""
"revaluation","283","1045366","0.0-4.0-10.0-0.5","spark_pilot_norest","10009","3","18","Male","","false","","","","","[341.09999990463257]","./assets/img/ocean/animals/octopus.jpg","[""ArrowRight""]","second stage test","ocean","0","{""ArrowUp,ArrowLeft"":23,""ArrowUp,ArrowRight"":10,""ArrowDown,ArrowLeft"":8,""ArrowDown,ArrowRight"":30}","true","ArrowDown,ArrowRight","","original","1","","","",""
"html-keyboard-response","284","1045872","0.0-4.0-10.0-1.5","spark_pilot_norest","10009","3","18","Male","","","","","","","null","<div style=""font-size:60px;"">+</div>","null","fixation","","","","","","","","","","","",""
"revaluation","285","1046207","0.0-4.0-10.0-0.6","spark_pilot_norest","10009","3","18","Male","","false","","","","","[329.7999999523163]","./assets/img/ocean/animals/octopus.jpg","[""ArrowRight""]","second stage test","ocean","0","{""ArrowUp,ArrowLeft"":23,""ArrowUp,ArrowRight"":10,""ArrowDown,ArrowLeft"":8,""ArrowDown,ArrowRight"":30}","true","ArrowDown,ArrowRight","","original","1","","","",""
"html-keyboard-response","286","1046718","0.0-4.0-10.0-1.6","spark_pilot_norest","10009","3","18","Male","","","","","","","null","<div style=""font-size:60px;"">+</div>","null","fixation","","","","","","","","","","","",""
"revaluation","287","1047097","0.0-4.0-10.0-0.7","spark_pilot_norest","10009","3","18","Male","","false","","","","","[371.89999997615814]","./assets/img/ocean/animals/octopus.jpg","[""ArrowRight""]","second stage test","ocean","0","{""ArrowUp,ArrowLeft"":23,""ArrowUp,ArrowRight"":10,""ArrowDown,ArrowLeft"":8,""ArrowDown,ArrowRight"":30}","true","ArrowDown,ArrowRight","","original","1","","","",""
"html-keyboard-response","288","1047606","0.0-4.0-10.0-1.7","spark_pilot_norest","10009","3","18","Male","","","","","","","null","<div style=""font-size:60px;"">+</div>","null","fixation","","","","","","","","","","","",""
"learning-instructions","289","1052457","0.0-4.0-0.1-0.2","spark_pilot_norest","10009","3","18","Male","","","","","","","2064.2000000476837","<p> This time you are searching for treasure in the <b>canyon</b>.</p>","","instructions","","","","","","","","","","","",""
"learning-instructions","290","1073232","0.0-4.0-0.1-0.3","spark_pilot_norest","10009","3","18","Male","","","","","","","3518","<p><b>New</b> animals with <b>new</b> treasure chests live here. You need to explore to discover where the animal with the best treasure chest is.</p>
                    <p> Like before, once you figure out which animal has the chest with the most treasure, you should try to get to that animal and select that chest! </p>","","instructions","","","","","","","","","","","",""
"learning-instructions","291","1089226","0.0-4.0-1.1-0.1","spark_pilot_norest","10009","3","18","Male","","","","","","","1263.2999999523163","<p> Remember, when you see a picture of the place, use the up and down keys to <b>find an animal</b>.</p>
            <p> When you encounter an animal, you should use the left and right keys to <b>select a treasure chest</b>.</p>
            <p> Don't forget to look out for the robber! </p>","","instructions","","","","","","","","","","","",""
"revaluation","292","1095247","0.0-4.0-2.1-0.50","spark_pilot_norest","10009","3","18","Male","","false","","","","","[1092.6000000238419,356.1999999284744]","./assets/img/canyon/memory/29.jpg","[""ArrowUp"",""ArrowRight""]","value training","canyon","10","{""ArrowUp,ArrowLeft"":26,""ArrowUp,ArrowRight"":10,""ArrowDown,ArrowLeft"":5,""ArrowDown,ArrowRight"":17}","false","ArrowUp,ArrowRight","false","revaluation","2","0","","",""
"html-keyboard-response","293","1095759","0.0-4.0-2.1-1.50","spark_pilot_norest","10009","3","18","Male","","","","","","","null","<div style=""font-size:60px;"">+</div>","null","fixation","","","","","","","","","1","","",""
"revaluation","294","1099773","0.0-4.0-2.1-0.51","spark_pilot_norest","10009","3","18","Male","","false","","","","","[290.2999999523163]","./assets/img/canyon/catch/5.jpg","[""ArrowDown""]","value training","canyon","-10","{""ArrowUp,ArrowLeft"":26,""ArrowUp,ArrowRight"":10,""ArrowDown,ArrowLeft"":5,""ArrowDown,ArrowRight"":17}","false","ArrowDown","true","revaluation","2","2","","",""
"html-keyboard-response","295","1100276","0.0-4.0-2.1-1.51","spark_pilot_norest","10009","3","18","Male","","","","","","","null","<div style=""font-size:60px;"">+</div>","null","fixation","","","","","","","","","3","","",""
"revaluation","296","1104300","0.0-4.0-2.1-0.52","spark_pilot_norest","10009","3","18","Male","","false","","","","","[533.7999999523163]","./assets/img/canyon/catch/4.jpg","[""spaceBar""]","value training","canyon","0","{""ArrowUp,ArrowLeft"":26,""ArrowUp,ArrowRight"":10,""ArrowDown,ArrowLeft"":5,""ArrowDown,ArrowRight"":17}","true","spaceBar","true","revaluation","2","4","","",""
"html-keyboard-response","297","1104809","0.0-4.0-2.1-1.52","spark_pilot_norest","10009","3","18","Male","","","","","","","null","<div style=""font-size:60px;"">+</div>","null","fixation","","","","","","","","","5","","",""
"revaluation","298","1110853","0.0-4.0-2.1-0.53","spark_pilot_norest","10009","3","18","Male","","false","","","","","[517.1000000238419,525.2000000476837]","./assets/img/canyon/memory/20.jpg","[""ArrowDown"",""ArrowRight""]","value training","canyon","17","{""ArrowUp,ArrowLeft"":26,""ArrowUp,ArrowRight"":10,""ArrowDown,ArrowLeft"":5,""ArrowDown,ArrowRight"":17}","false","ArrowDown,ArrowRight","false","revaluation","2","6","","",""
"html-keyboard-response","299","1111356","0.0-4.0-2.1-1.53","spark_pilot_norest","10009","3","18","Male","","","","","","","null","<div style=""font-size:60px;"">+</div>","null","fixation","","","","","","","","","7","","",""
"revaluation","300","1115386","0.0-4.0-2.1-0.54","spark_pilot_norest","10009","3","18","Male","","false","","","","","[478.5]","./assets/img/canyon/catch/0.jpg","[""spaceBar""]","value training","canyon","0","{""ArrowUp,ArrowLeft"":26,""ArrowUp,ArrowRight"":10,""ArrowDown,ArrowLeft"":5,""ArrowDown,ArrowRight"":17}","true","spaceBar","true","revaluation","2","8","","",""
"html-keyboard-response","301","1115900","0.0-4.0-2.1-1.54","spark_pilot_norest","10009","3","18","Male","","","","","","","null","<div style=""font-size:60px;"">+</div>","null","fixation","","","","","","","","","9","","",""
"revaluation","302","1121926","0.0-4.0-2.1-0.55","spark_pilot_norest","10009","3","18","Male","","false","","","","","[483.5,264.60000002384186]","./assets/img/canyon/memory/0.jpg","[""ArrowUp"",""ArrowLeft""]","value training","canyon","26","{""ArrowUp,ArrowLeft"":26,""ArrowUp,ArrowRight"":10,""ArrowDown,ArrowLeft"":5,""ArrowDown,ArrowRight"":17}","true","ArrowUp,ArrowLeft","false","revaluation","2","10","","",""
"html-keyboard-response","303","1122428","0.0-4.0-2.1-1.55","spark_pilot_norest","10009","3","18","Male","","","","","","","null","<div style=""font-size:60px;"">+</div>","null","fixation","","","","","","","","","11","","",""
"revaluation","304","1128446","0.0-4.0-2.1-0.56","spark_pilot_norest","10009","3","18","Male","","false","","","","","[520.1000000238419,376.1999999284744]","./assets/img/canyon/memory/27.jpg","[""ArrowDown"",""ArrowLeft""]","value training","canyon","5","{""ArrowUp,ArrowLeft"":26,""ArrowUp,ArrowRight"":10,""ArrowDown,ArrowLeft"":5,""ArrowDown,ArrowRight"":17}","false","ArrowDown,ArrowLeft","false","revaluation","2","12","","",""
"html-keyboard-response","305","1128948","0.0-4.0-2.1-1.56","spark_pilot_norest","10009","3","18","Male","","","","","","","null","<div style=""font-size:60px;"">+</div>","null","fixation","","","","","","","","","13","","",""
"revaluation","306","1134959","0.0-4.0-2.1-0.57","spark_pilot_norest","10009","3","18","Male","","false","","","","","[890.3999999761581,454.89999997615814]","./assets/img/canyon/memory/1.jpg","[""ArrowUp"",""ArrowLeft""]","value training","canyon","26","{""ArrowUp,ArrowLeft"":26,""ArrowUp,ArrowRight"":10,""ArrowDown,ArrowLeft"":5,""ArrowDown,ArrowRight"":17}","true","ArrowUp,ArrowLeft","false","revaluation","2","14","","",""
"html-keyboard-response","307","1135463","0.0-4.0-2.1-1.57","spark_pilot_norest","10009","3","18","Male","","","","","","","null","<div style=""font-size:60px;"">+</div>","null","fixation","","","","","","","","","15","","",""
"revaluation","308","1141477","0.0-4.0-2.1-0.58","spark_pilot_norest","10009","3","18","Male","","false","","","","","[629.8999999761581,238.89999997615814]","./assets/img/canyon/memory/39.jpg","[""ArrowUp"",""ArrowLeft""]","value training","canyon","26","{""ArrowUp,ArrowLeft"":26,""ArrowUp,ArrowRight"":10,""ArrowDown,ArrowLeft"":5,""ArrowDown,ArrowRight"":17}","true","ArrowUp,ArrowLeft","false","revaluation","2","16","","",""
"html-keyboard-response","309","1141980","0.0-4.0-2.1-1.58","spark_pilot_norest","10009","3","18","Male","","","","","","","null","<div style=""font-size:60px;"">+</div>","null","fixation","","","","","","","","","17","","",""
"revaluation","310","1147993","0.0-4.0-2.1-0.59","spark_pilot_norest","10009","3","18","Male","","false","","","","","[375.5,242.5]","./assets/img/canyon/memory/8.jpg","[""ArrowUp"",""ArrowLeft""]","value training","canyon","26","{""ArrowUp,ArrowLeft"":26,""ArrowUp,ArrowRight"":10,""ArrowDown,ArrowLeft"":5,""ArrowDown,ArrowRight"":17}","true","ArrowUp,ArrowLeft","false","revaluation","2","18","","",""
"html-keyboard-response","311","1148496","0.0-4.0-2.1-1.59","spark_pilot_norest","10009","3","18","Male","","","","","","","null","<div style=""font-size:60px;"">+</div>","null","fixation","","","","","","","","","19","","",""
"revaluation","312","1154514","0.0-4.0-2.1-0.60","spark_pilot_norest","10009","3","18","Male","","false","","","","","[369,252.20000004768372]","./assets/img/canyon/memory/19.jpg","[""ArrowUp"",""ArrowLeft""]","value training","canyon","26","{""ArrowUp,ArrowLeft"":26,""ArrowUp,ArrowRight"":10,""ArrowDown,ArrowLeft"":5,""ArrowDown,ArrowRight"":17}","true","ArrowUp,ArrowLeft","false","revaluation","2","20","","",""
