"trial_type","trial_index","time_elapsed","internal_node_id","task_version","subject_id","assigned_condition","age","gender","browser_interaction","success","timeout","failed_images","failed_audio","failed_video","rt","stimulus","response","task_part","environment","score","rewardMap","correct","fullState","isCatch","condition","order","trial_num","key_press","ground_truth","bonus"
"pavlovia","0","1496","0.0-0.0","spark_pilot_norest","10094","3","18","Male","[{""event"":""blur"",""trial"":1,""time"":5598},{""event"":""focus"",""trial"":1,""time"":18373},{""event"":""blur"",""trial"":1,""time"":19367},{""event"":""focus"",""trial"":1,""time"":20654},{""event"":""fullscreenenter"",""trial"":2,""time"":24450},{""event"":""fullscreenexit"",""trial"":3,""time"":29059},{""event"":""blur"",""trial"":3,""time"":30942},{""event"":""focus"",""trial"":3,""time"":33093},{""event"":""blur"",""trial"":9,""time"":90917},{""event"":""focus"",""trial"":9,""time"":94491},{""event"":""blur"",""trial"":10,""time"":100376},{""event"":""focus"",""trial"":10,""time"":115043},{""event"":""blur"",""trial"":111,""time"":533399},{""event"":""focus"",""trial"":111,""time"":535096}]","","","","","","","","","","","","","","","","","","","","",""
"preload","1","21727","0.0-1.0","spark_pilot_norest","10094","3","18","Male","[{""event"":""blur"",""trial"":1,""time"":5598},{""event"":""focus"",""trial"":1,""time"":18373},{""event"":""blur"",""trial"":1,""time"":19367},{""event"":""focus"",""trial"":1,""time"":20654},{""event"":""fullscreenenter"",""trial"":2,""time"":24450},{""event"":""fullscreenexit"",""trial"":3,""time"":29059},{""event"":""blur"",""trial"":3,""time"":30942},{""event"":""focus"",""trial"":3,""time"":33093},{""event"":""blur"",""trial"":9,""time"":90917},{""event"":""focus"",""trial"":9,""time"":94491},{""event"":""blur"",""trial"":10,""time"":100376},{""event"":""focus"",""trial"":10,""time"":115043},{""event"":""blur"",""trial"":111,""time"":533399},{""event"":""focus"",""trial"":111,""time"":535096}]","true","false","[]","[]","[]","","","","","","","","","","","","","","","",""
"fullscreen","2","25436","0.0-2.0","spark_pilot_norest","10094","3","18","Male","[{""event"":""blur"",""trial"":1,""time"":5598},{""event"":""focus"",""trial"":1,""time"":18373},{""event"":""blur"",""trial"":1,""time"":19367},{""event"":""focus"",""trial"":1,""time"":20654},{""event"":""fullscreenenter"",""trial"":2,""time"":24450},{""event"":""fullscreenexit"",""trial"":3,""time"":29059},{""event"":""blur"",""trial"":3,""time"":30942},{""event"":""focus"",""trial"":3,""time"":33093},{""event"":""blur"",""trial"":9,""time"":90917},{""event"":""focus"",""trial"":9,""time"":94491},{""event"":""blur"",""trial"":10,""time"":100376},{""event"":""focus"",""trial"":10,""time"":115043},{""event"":""blur"",""trial"":111,""time"":533399},{""event"":""focus"",""trial"":111,""time"":535096}]","true","","","","","","","","","","","","","","","","","","","",""
"audio-button-response","3","33130","0.0-3.0-0.0-0.0","spark_pilot_norest","10094","3","18","Male","","","","","","","7651","./assets/audio/audiotest/turtle.mp3","4","audio_test","","","","","","","","","","","",""
"audio-button-response","4","35154","0.0-3.0-0.1-0.1","spark_pilot_norest","10094","3","18","Male","","","","","","","1008","./assets/audio/audiotest/turtle.mp3","2","audio_test","","","","","","","","","","","",""
"learning-instructions","5","43107","0.0-3.0-1.0-0.0","spark_pilot_norest","10094","3","18","Male","","","","","","","968.5","<p> Welcome! Please remember to stay in fullscreen mode and don't click away from the experiment. </p>","","instructions","","","","","","","","","","","",""
"learning-instructions","6","54027","0.0-3.0-1.0-0.1","spark_pilot_norest","10094","3","18","Male","","","","","","","2518.2999999970198","<p> Today you will be playing a game to earn treasure. </p>
            <p> At the end of the experiment, you will earn a bonus based on how much treasure you find. </p>
            <img src='./assets/img/instructions/treasure.jpg' class='instructions-image'>","","instructions","","","","","","","","","","","",""
"learning-instructions","7","63955","0.0-3.0-1.0-0.2","spark_pilot_norest","10094","3","18","Male","","","","","","","1668.0999999977648","<p> Animals have hidden treasure in treasure chests. </p>
            <p> You need to first find an animal and then choose which of their treasure chests to search. </p>
            <img src='./assets/img/space/animals/cat.jpg' class='instructions-image'>","","instructions","","","","","","","","","","","",""
"learning-instructions","8","79555","0.0-3.0-1.0-0.3","spark_pilot_norest","10094","3","18","Male","[{""event"":""blur"",""trial"":1,""time"":5598},{""event"":""focus"",""trial"":1,""time"":18373},{""event"":""blur"",""trial"":1,""time"":19367},{""event"":""focus"",""trial"":1,""time"":20654},{""event"":""fullscreenenter"",""trial"":2,""time"":24450},{""event"":""fullscreenexit"",""trial"":3,""time"":29059},{""event"":""blur"",""trial"":3,""time"":30942},{""event"":""focus"",""trial"":3,""time"":33093},{""event"":""blur"",""trial"":9,""time"":90917},{""event"":""focus"",""trial"":9,""time"":94491},{""event"":""blur"",""trial"":10,""time"":100376},{""event"":""focus"",""trial"":10,""time"":115043},{""event"":""blur"",""trial"":111,""time"":533399},{""event"":""focus"",""trial"":111,""time"":535096}]","","","","","","2447.39999999851","<p> In each round, you will search for treasure in a different place. In the real game, there will be two rounds. </p>
            <p> You will begin with a separate, practice round where you will search for treasure in outer space. </p>
            <img src='./assets/img/space/0.jpg' class='instructions-image'>","","instructions","","","","","","","","","","","",""
"learning-instructions","9","94538","0.0-3.0-1.0-0.4","spark_pilot_norest","10094","3","18","Male","[{""event"":""blur"",""trial"":1,""time"":5598},{""event"":""focus"",""trial"":1,""time"":18373},{""event"":""blur"",""trial"":1,""time"":19367},{""event"":""focus"",""trial"":1,""time"":20654},{""event"":""fullscreenenter"",""trial"":2,""time"":24450},{""event"":""fullscreenexit"",""trial"":3,""time"":29059},{""event"":""blur"",""trial"":3,""time"":30942},{""event"":""focus"",""trial"":3,""time"":33093},{""event"":""blur"",""trial"":9,""time"":90917},{""event"":""focus"",""trial"":9,""time"":94491},{""event"":""blur"",""trial"":10,""time"":100376},{""event"":""focus"",""trial"":10,""time"":115043},{""event"":""blur"",""trial"":111,""time"":533399},{""event"":""focus"",""trial"":111,""time"":535096}]","","","","","","3581.699999999255","<p> On every turn, you will see a picture of the place that you are in, but the specific image may be different each time. </p>
            <p> For example, both of these images mean you are in outer space. </p>
            <img src='./assets/img/instructions/outerspace.jpg' class='instructions-image'>","","instructions","","","","","","","","","","","",""
"learning-instructions","10","116083","0.0-3.0-1.0-0.5","spark_pilot_norest","10094","3","18","Male","","","","","","","13725.79999999702","<p> You need to decide which direction to travel in. </p>
            <p> You can choose between going <b>up or down</b> by using the arrow keys. </p>
            <img src='./assets/img/instructions/updown.jpg' class='instructions-image'>","","instructions","","","","","","","","","","","",""
"learning-instructions","11","126819","0.0-3.0-1.0-0.6","spark_pilot_norest","10094","3","18","Male","","","","","","","1932.0999999977648","<p> You will have <b>2 seconds</b> to make your choice. </p>
            <p> If you do not make a choice within 2 seconds, you will not find an animal or earn treasure. </p>
            <img src='./assets/img/instructions/2seconds.jpg' class='instructions-image'>","","instructions","","","","","","","","","","","",""
"learning-instructions","12","134515","0.0-3.0-1.0-0.7","spark_pilot_norest","10094","3","18","Male","","","","","","","666.1999999992549","<p> Let’s try practicing that now! </p>
            <p> When you see a picture of the place you are in, press the <b>up</b> key to travel up. </p>
            <img src='./assets/img/instructions/pressUp.jpg' class='instructions-image'>","","instructions","","","","","","","","","","","",""
"revaluation","13","138540","0.0-3.0-2.0-0.0","spark_pilot_norest","10094","3","18","Male","","","false","","","","[1049.1000000014901]","./assets/img/space/0.jpg","[""ArrowUp""]","first stage practice","space","0","null","null","ArrowUp","false","","","","","",""
"html-keyboard-response","14","139056","0.0-3.0-2.0-1.0","spark_pilot_norest","10094","3","18","Male","","","","","","","null","<div style=""font-size:60px;"">+</div>","null","fixation","","","","","","","","","","","",""
"revaluation","15","143077","0.0-3.0-2.0-0.1","spark_pilot_norest","10094","3","18","Male","","","false","","","","[1310.5999999977648]","./assets/img/space/1.jpg","[""ArrowUp""]","first stage practice","space","0","null","null","ArrowUp","false","","","","","",""
"html-keyboard-response","16","143592","0.0-3.0-2.0-1.1","spark_pilot_norest","10094","3","18","Male","","","","","","","null","<div style=""font-size:60px;"">+</div>","null","fixation","","","","","","","","","","","",""
"revaluation","17","147615","0.0-3.0-2.0-0.2","spark_pilot_norest","10094","3","18","Male","","","false","","","","[902.5]","./assets/img/space/2.jpg","[""ArrowUp""]","first stage practice","space","0","null","null","ArrowUp","false","","","","","",""
"html-keyboard-response","18","148129","0.0-3.0-2.0-1.2","spark_pilot_norest","10094","3","18","Male","","","","","","","null","<div style=""font-size:60px;"">+</div>","null","fixation","","","","","","","","","","","",""
"learning-instructions","19","153986","0.0-3.0-3.0-0.0","spark_pilot_norest","10094","3","18","Male","","","","","","","1159.699999999255","<p> Great job! Now try pressing the <b>down</b> key to travel down. </p>
            <img src='./assets/img/instructions/pressDown.jpg' class='instructions-image'>","","instructions","","","","","","","","","","","",""
"revaluation","20","158003","0.0-3.0-4.0-0.0","spark_pilot_norest","10094","3","18","Male","","","false","","","","[950.1000000014901]","./assets/img/space/3.jpg","[""ArrowDown""]","first stage practice","space","0","null","null","ArrowDown","false","","","","","",""
"html-keyboard-response","21","158517","0.0-3.0-4.0-1.0","spark_pilot_norest","10094","3","18","Male","","","","","","","null","<div style=""font-size:60px;"">+</div>","null","fixation","","","","","","","","","","","",""
"revaluation","22","162539","0.0-3.0-4.0-0.1","spark_pilot_norest","10094","3","18","Male","","","false","","","","[1937.4000000022352]","./assets/img/space/4.jpg","[""ArrowDown""]","first stage practice","space","0","null","null","ArrowDown","false","","","","","",""
"html-keyboard-response","23","163053","0.0-3.0-4.0-1.1","spark_pilot_norest","10094","3","18","Male","","","","","","","null","<div style=""font-size:60px;"">+</div>","null","fixation","","","","","","","","","","","",""
"revaluation","24","167080","0.0-3.0-4.0-0.2","spark_pilot_norest","10094","3","18","Male","","","false","","","","[859.1000000014901]","./assets/img/space/5.jpg","[""ArrowDown""]","first stage practice","space","0","null","null","ArrowDown","false","","","","","",""
"html-keyboard-response","25","167595","0.0-3.0-4.0-1.2","spark_pilot_norest","10094","3","18","Male","","","","","","","null","<div style=""font-size:60px;"">+</div>","null","fixation","","","","","","","","","","","",""
"learning-instructions","26","178834","0.0-3.0-5.0-0.0","spark_pilot_norest","10094","3","18","Male","","","","","","","1387.1000000014901","<p> The animals don’t move, so the animal in the upper part of a place will stay in the upper part of a place, and the animal in the lower part of a place will stay in the lower part of a place. </p>","","instructions","","","","","","","","","","","",""
"learning-instructions","27","188690","0.0-3.0-5.0-0.1","spark_pilot_norest","10094","3","18","Male","","","","","","","734","<p> Each animal has two treasure chests for you to choose from. </p>
            <p> The amount of treasure in each chest can range from <b> 0 to 40 pieces.</b></p>","","instructions","","","","","","","","","","","",""
"learning-instructions","28","201185","0.0-3.0-5.0-0.2","spark_pilot_norest","10094","3","18","Male","","","","","","","1308.2999999970198","<p> You should decide which chest to search for treasure by using the <b>left</b> and <b>right</b> arrow keys. </p>
            <p><b> Pay attention to which animal is on the screen, as the animals have different treasure chests. </b></p>
            <img src='./assets/img/instructions/leftright.jpg' class='instructions-image'>","","instructions","","","","","","","","","","","",""
"learning-instructions","29","208457","0.0-3.0-5.0-0.3","spark_pilot_norest","10094","3","18","Male","","","","","","","901.6000000014901","<p> Let’s try practicing that now. </p>
            <p> When you see an animal, choose which chest to search for treasure. </p>
            <img src='./assets/img/instructions/chooseChest.jpg' class='instructions-image'>","","instructions","","","","","","","","","","","",""
"revaluation","30","212474","0.0-3.0-6.0-0.0","spark_pilot_norest","10094","3","18","Male","","","false","","","","[1167.199999999255]","./assets/img/space/animals/rabbit.jpg","[""ArrowRight""]","second stage practice","space","23","{""ArrowUp,ArrowLeft"":3,""ArrowUp,ArrowRight"":36,""ArrowDown,ArrowLeft"":15,""ArrowDown,ArrowRight"":23}","true","ArrowDown,ArrowRight","","","","","","",""
"html-keyboard-response","31","212991","0.0-3.0-6.0-1.0","spark_pilot_norest","10094","3","18","Male","","","","","","","null","<div style=""font-size:60px;"">+</div>","null","fixation","","","","","","","","","","","",""
"revaluation","32","217005","0.0-3.0-6.0-0.1","spark_pilot_norest","10094","3","18","Male","","","false","","","","[599.0999999977648]","./assets/img/space/animals/cat.jpg","[""ArrowLeft""]","second stage practice","space","3","{""ArrowUp,ArrowLeft"":3,""ArrowUp,ArrowRight"":36,""ArrowDown,ArrowLeft"":15,""ArrowDown,ArrowRight"":23}","false","ArrowUp,ArrowLeft","","","","","","",""
"html-keyboard-response","33","217519","0.0-3.0-6.0-1.1","spark_pilot_norest","10094","3","18","Male","","","","","","","null","<div style=""font-size:60px;"">+</div>","null","fixation","","","","","","","","","","","",""
"revaluation","34","221549","0.0-3.0-6.0-0.2","spark_pilot_norest","10094","3","18","Male","","","false","","","","[663.3000000007451]","./assets/img/space/animals/rabbit.jpg","[""ArrowRight""]","second stage practice","space","23","{""ArrowUp,ArrowLeft"":3,""ArrowUp,ArrowRight"":36,""ArrowDown,ArrowLeft"":15,""ArrowDown,ArrowRight"":23}","true","ArrowDown,ArrowRight","","","","","","",""
"html-keyboard-response","35","222061","0.0-3.0-6.0-1.2","spark_pilot_norest","10094","3","18","Male","","","","","","","null","<div style=""font-size:60px;"">+</div>","null","fixation","","","","","","","","","","","",""
"revaluation","36","226082","0.0-3.0-6.0-0.3","spark_pilot_norest","10094","3","18","Male","","","false","","","","[456.69999999925494]","./assets/img/space/animals/cat.jpg","[""ArrowRight""]","second stage practice","space","36","{""ArrowUp,ArrowLeft"":3,""ArrowUp,ArrowRight"":36,""ArrowDown,ArrowLeft"":15,""ArrowDown,ArrowRight"":23}","true","ArrowUp,ArrowRight","","","","","","",""
"html-keyboard-response","37","226595","0.0-3.0-6.0-1.3","spark_pilot_norest","10094","3","18","Male","","","","","","","null","<div style=""font-size:60px;"">+</div>","null","fixation","","","","","","","","","","","",""
"learning-instructions","38","244505","0.0-3.0-7.0-0.0","spark_pilot_norest","10094","3","18","Male","","","","","","","1059.699999999255","<p> Great job. Now let’s try putting it together. </p>
            <p> On each turn, you will first see a picture to remind you of the place you are in, and you need to choose whether to go up or down. </p>
            <p> Then you will see an animal and choose which of its chests to search for treasure. </p>","","instructions","","","","","","","","","","","",""
"learning-instructions","39","253641","0.0-3.0-7.0-0.1","spark_pilot_norest","10094","3","18","Male","","","","","","","876.5","<p> When you choose whether to go up or down, try to go to the animal with the chest with the most treasure. </p>
            <p> Try practicing that now! </p>","","instructions","","","","","","","","","","","",""
"revaluation","40","259665","0.0-3.0-8.0-0.0","spark_pilot_norest","10094","3","18","Male","","","false","","","","[1159,917.1999999992549]","./assets/img/space/6.jpg","[""ArrowUp"",""ArrowRight""]","full practice","space","36","{""ArrowUp,ArrowLeft"":3,""ArrowUp,ArrowRight"":36,""ArrowDown,ArrowLeft"":15,""ArrowDown,ArrowRight"":23}","true","ArrowUp,ArrowRight","false","","","","","",""
"html-keyboard-response","41","260180","0.0-3.0-8.0-1.0","spark_pilot_norest","10094","3","18","Male","","","","","","","null","<div style=""font-size:60px;"">+</div>","null","fixation","","","","","","","","","","","",""
"revaluation","42","266203","0.0-3.0-8.0-0.1","spark_pilot_norest","10094","3","18","Male","","","false","","","","[921.7999999970198,733.8999999985099]","./assets/img/space/7.jpg","[""ArrowUp"",""ArrowLeft""]","full practice","space","3","{""ArrowUp,ArrowLeft"":3,""ArrowUp,ArrowRight"":36,""ArrowDown,ArrowLeft"":15,""ArrowDown,ArrowRight"":23}","false","ArrowUp,ArrowLeft","false","","","","","",""
"html-keyboard-response","43","266719","0.0-3.0-8.0-1.1","spark_pilot_norest","10094","3","18","Male","","","","","","","null","<div style=""font-size:60px;"">+</div>","null","fixation","","","","","","","","","","","",""
"revaluation","44","272745","0.0-3.0-8.0-0.2","spark_pilot_norest","10094","3","18","Male","","","false","","","","[838.7000000029802,1088.3999999985099]","./assets/img/space/8.jpg","[""ArrowUp"",""ArrowRight""]","full practice","space","36","{""ArrowUp,ArrowLeft"":3,""ArrowUp,ArrowRight"":36,""ArrowDown,ArrowLeft"":15,""ArrowDown,ArrowRight"":23}","true","ArrowUp,ArrowRight","false","","","","","",""
"html-keyboard-response","45","273257","0.0-3.0-8.0-1.2","spark_pilot_norest","10094","3","18","Male","","","","","","","null","<div style=""font-size:60px;"">+</div>","null","fixation","","","","","","","","","","","",""
"revaluation","46","279280","0.0-3.0-8.0-0.3","spark_pilot_norest","10094","3","18","Male","","","false","","","","[620.5,642.6999999992549]","./assets/img/space/9.jpg","[""ArrowDown"",""ArrowLeft""]","full practice","space","15","{""ArrowUp,ArrowLeft"":3,""ArrowUp,ArrowRight"":36,""ArrowDown,ArrowLeft"":15,""ArrowDown,ArrowRight"":23}","false","ArrowDown,ArrowLeft","false","","","","","",""
"html-keyboard-response","47","279796","0.0-3.0-8.0-1.3","spark_pilot_norest","10094","3","18","Male","","","","","","","null","<div style=""font-size:60px;"">+</div>","null","fixation","","","","","","","","","","","",""
"revaluation","48","285812","0.0-3.0-8.0-0.4","spark_pilot_norest","10094","3","18","Male","","","false","","","","[930.8000000007451,415.69999999925494]","./assets/img/space/10.jpg","[""ArrowDown"",""ArrowRight""]","full practice","space","23","{""ArrowUp,ArrowLeft"":3,""ArrowUp,ArrowRight"":36,""ArrowDown,ArrowLeft"":15,""ArrowDown,ArrowRight"":23}","false","ArrowDown,ArrowRight","false","","","","","",""
"html-keyboard-response","49","286314","0.0-3.0-8.0-1.4","spark_pilot_norest","10094","3","18","Male","","","","","","","null","<div style=""font-size:60px;"">+</div>","null","fixation","","","","","","","","","","","",""
"learning-instructions","50","297425","0.0-3.0-9.0-0.0","spark_pilot_norest","10094","3","18","Male","","","","","","","801.5999999977648","<p> One last thing: sometimes, you will see a robber. The robber can be anywhere in the picture. </p>
            <p> If you do not stop them, you will lose treasure. </p>
            <img src='./assets/img/instructions/robber.jpg' class='instructions-image'>","","instructions","","","","","","","","","","","",""
"learning-instructions","51","305841","0.0-3.0-9.0-0.1","spark_pilot_norest","10094","3","18","Male","","","","","","","1259.199999999255","<p> If you see the robber, you should <b>press the space bar</b> rather than using the arrow keys. </p>
            <p> Try practicing that now! </p>","","instructions","","","","","","","","","","","",""
"revaluation","52","309866","0.0-3.0-10.0-0.0","spark_pilot_norest","10094","3","18","Male","","","false","","","","[623.3000000007451]","./assets/img/space/catch/0.jpg","[""spaceBar""]","catch practice","space","0","{""ArrowUp,ArrowLeft"":3,""ArrowUp,ArrowRight"":36,""ArrowDown,ArrowLeft"":15,""ArrowDown,ArrowRight"":23}","true","spaceBar","true","","","","","",""
"html-keyboard-response","53","310383","0.0-3.0-10.0-1.0","spark_pilot_norest","10094","3","18","Male","","","","","","","null","<div style=""font-size:60px;"">+</div>","null","fixation","","","","","","","","","","","",""
"revaluation","54","314401","0.0-3.0-10.0-0.1","spark_pilot_norest","10094","3","18","Male","","","false","","","","[841.7000000029802]","./assets/img/space/catch/1.jpg","[""spaceBar""]","catch practice","space","0","{""ArrowUp,ArrowLeft"":3,""ArrowUp,ArrowRight"":36,""ArrowDown,ArrowLeft"":15,""ArrowDown,ArrowRight"":23}","true","spaceBar","true","","","","","",""
"html-keyboard-response","55","314914","0.0-3.0-10.0-1.1","spark_pilot_norest","10094","3","18","Male","","","","","","","null","<div style=""font-size:60px;"">+</div>","null","fixation","","","","","","","","","","","",""
"revaluation","56","318937","0.0-3.0-10.0-0.2","spark_pilot_norest","10094","3","18","Male","","","false","","","","[563.6999999992549]","./assets/img/space/catch/2.jpg","[""spaceBar""]","catch practice","space","0","{""ArrowUp,ArrowLeft"":3,""ArrowUp,ArrowRight"":36,""ArrowDown,ArrowLeft"":15,""ArrowDown,ArrowRight"":23}","true","spaceBar","true","","","","","",""
"html-keyboard-response","57","319454","0.0-3.0-10.0-1.2","spark_pilot_norest","10094","3","18","Male","","","","","","","null","<div style=""font-size:60px;"">+</div>","null","fixation","","","","","","","","","","","",""
"learning-instructions","58","325873","0.0-3.0-11.0-0.0-0.0","spark_pilot_norest","10094","3","18","Male","","","","","","","1170.300000000745","<p> Now, you will practice a shortened version of the game to get a sense of how it all fits together. </p>","","instructions","","","","","","","","","","","",""
"learning-instructions","59","331793","0.0-3.0-11.0-0.0-0.1","spark_pilot_norest","10094","3","18","Male","","","","","","","2740.199999999255","<p>This time you are searching for treasure in outer space.</p>","","instructions","","","","","","","","","","","",""
"learning-instructions","60","347393","0.0-3.0-11.0-1.0-0.0","spark_pilot_norest","10094","3","18","Male","","","","","","","841.6000000014901","<p> Remember, when you see a picture of the place, use the up and down keys to <b>find an animal</b>.</p>
            <p> When you encounter an animal, you should use the left and right keys to <b>select a treasure chest</b>.</p>
            <p> Don't forget to look out for the robber! </p>","","instructions","","","","","","","","","","","",""
"revaluation","61","353420","0.0-3.0-11.0-2.0-0.0","spark_pilot_norest","10094","3","18","Male","","","false","","","","[1103.3999999985099,374.30000000074506]","./assets/img/space/11.jpg","[""ArrowUp"",""ArrowRight""]","practice block","space","36","{""ArrowUp,ArrowLeft"":3,""ArrowUp,ArrowRight"":36,""ArrowDown,ArrowLeft"":15,""ArrowDown,ArrowRight"":23}","true","ArrowUp,ArrowRight","false","","","","","",""
"html-keyboard-response","62","353937","0.0-3.0-11.0-2.0-1.0","spark_pilot_norest","10094","3","18","Male","","","","","","","null","<div style=""font-size:60px;"">+</div>","null","fixation","","","","","","","","","","","",""
"revaluation","63","359966","0.0-3.0-11.0-2.0-0.1","spark_pilot_norest","10094","3","18","Male","","","false","","","","[845.0999999977648,266.19999999925494]","./assets/img/space/12.jpg","[""ArrowUp"",""ArrowRight""]","practice block","space","36","{""ArrowUp,ArrowLeft"":3,""ArrowUp,ArrowRight"":36,""ArrowDown,ArrowLeft"":15,""ArrowDown,ArrowRight"":23}","true","ArrowUp,ArrowRight","false","","","","","",""
"html-keyboard-response","64","360481","0.0-3.0-11.0-2.0-1.1","spark_pilot_norest","10094","3","18","Male","","","","","","","null","<div style=""font-size:60px;"">+</div>","null","fixation","","","","","","","","","","","",""
"revaluation","65","366506","0.0-3.0-11.0-2.0-0.2","spark_pilot_norest","10094","3","18","Male","","","false","","","","[669.0999999977648,276.5]","./assets/img/space/13.jpg","[""ArrowUp"",""ArrowRight""]","practice block","space","36","{""ArrowUp,ArrowLeft"":3,""ArrowUp,ArrowRight"":36,""ArrowDown,ArrowLeft"":15,""ArrowDown,ArrowRight"":23}","true","ArrowUp,ArrowRight","false","","","","","",""
"html-keyboard-response","66","367023","0.0-3.0-11.0-2.0-1.2","spark_pilot_norest","10094","3","18","Male","","","","","","","null","<div style=""font-size:60px;"">+</div>","null","fixation","","","","","","","","","","","",""
"revaluation","67","373061","0.0-3.0-11.0-2.0-0.3","spark_pilot_norest","10094","3","18","Male","","","false","","","","[543.5999999977648,250.29999999701977]","./assets/img/space/14.jpg","[""ArrowDown"",""ArrowRight""]","practice block","space","23","{""ArrowUp,ArrowLeft"":3,""ArrowUp,ArrowRight"":36,""ArrowDown,ArrowLeft"":15,""ArrowDown,ArrowRight"":23}","false","ArrowDown,ArrowRight","false","","","","","",""
"html-keyboard-response","68","373574","0.0-3.0-11.0-2.0-1.3","spark_pilot_norest","10094","3","18","Male","","","","","","","null","<div style=""font-size:60px;"">+</div>","null","fixation","","","","","","","","","","","",""
"revaluation","69","379589","0.0-3.0-11.0-2.0-0.4","spark_pilot_norest","10094","3","18","Male","","","false","","","","[624.6999999992549,247.30000000074506]","./assets/img/space/11.jpg","[""ArrowUp"",""ArrowRight""]","practice block","space","36","{""ArrowUp,ArrowLeft"":3,""ArrowUp,ArrowRight"":36,""ArrowDown,ArrowLeft"":15,""ArrowDown,ArrowRight"":23}","true","ArrowUp,ArrowRight","false","","","","","",""
"html-keyboard-response","70","380091","0.0-3.0-11.0-2.0-1.4","spark_pilot_norest","10094","3","18","Male","","","","","","","null","<div style=""font-size:60px;"">+</div>","null","fixation","","","","","","","","","","","",""
"revaluation","71","386095","0.0-3.0-11.0-2.0-0.5","spark_pilot_norest","10094","3","18","Male","","","false","","","","[692.4000000022352,228.29999999701977]","./assets/img/space/12.jpg","[""ArrowUp"",""ArrowRight""]","practice block","space","36","{""ArrowUp,ArrowLeft"":3,""ArrowUp,ArrowRight"":36,""ArrowDown,ArrowLeft"":15,""ArrowDown,ArrowRight"":23}","true","ArrowUp,ArrowRight","false","","","","","",""
"html-keyboard-response","72","386597","0.0-3.0-11.0-2.0-1.5","spark_pilot_norest","10094","3","18","Male","","","","","","","null","<div style=""font-size:60px;"">+</div>","null","fixation","","","","","","","","","","","",""
"revaluation","73","392601","0.0-3.0-11.0-2.0-0.6","spark_pilot_norest","10094","3","18","Male","","","false","","","","[523.3000000007451,313.79999999701977]","./assets/img/space/13.jpg","[""ArrowUp"",""ArrowRight""]","practice block","space","36","{""ArrowUp,ArrowLeft"":3,""ArrowUp,ArrowRight"":36,""ArrowDown,ArrowLeft"":15,""ArrowDown,ArrowRight"":23}","true","ArrowUp,ArrowRight","false","","","","","",""
"html-keyboard-response","74","393102","0.0-3.0-11.0-2.0-1.6","spark_pilot_norest","10094","3","18","Male","","","","","","","null","<div style=""font-size:60px;"">+</div>","null","fixation","","","","","","","","","","","",""
"revaluation","75","399108","0.0-3.0-11.0-2.0-0.7","spark_pilot_norest","10094","3","18","Male","","","false","","","","[479,238.60000000149012]","./assets/img/space/14.jpg","[""ArrowUp"",""ArrowRight""]","practice block","space","36","{""ArrowUp,ArrowLeft"":3,""ArrowUp,ArrowRight"":36,""ArrowDown,ArrowLeft"":15,""ArrowDown,ArrowRight"":23}","true","ArrowUp,ArrowRight","false","","","","","",""
"html-keyboard-response","76","399610","0.0-3.0-11.0-2.0-1.7","spark_pilot_norest","10094","3","18","Male","","","","","","","null","<div style=""font-size:60px;"">+</div>","null","fixation","","","","","","","","","","","",""
"revaluation","77","403612","0.0-3.0-11.0-2.0-0.8","spark_pilot_norest","10094","3","18","Male","","","false","","","","[430.4000000022352]","./assets/img/space/catch/3.jpg","[""ArrowUp""]","practice block","space","-10","{""ArrowUp,ArrowLeft"":3,""ArrowUp,ArrowRight"":36,""ArrowDown,ArrowLeft"":15,""ArrowDown,ArrowRight"":23}","false","ArrowUp","true","","","","","",""
"html-keyboard-response","78","404114","0.0-3.0-11.0-2.0-1.8","spark_pilot_norest","10094","3","18","Male","","","","","","","null","<div style=""font-size:60px;"">+</div>","null","fixation","","","","","","","","","","","",""
"learning-instructions","79","420488","0.0-3.0-11.0-3.0-0.0","spark_pilot_norest","10094","3","18","Male","","","","","","","3434.7999999970198","<p> Now, you will travel with a friend who will choose whether you go up or down first. </p>
            <p> On these turns, you will just see the animal that they found. You will still get to choose which chest to search for treasure.</p>","","instructions","","","","","","","","","","","",""
"revaluation","80","424504","0.0-3.0-11.0-4.0-0.0","spark_pilot_norest","10094","3","18","Male","","","false","","","","[1455.2999999970198]","./assets/img/space/animals/cat.jpg","[""ArrowRight""]","practice block","space","36","{""ArrowUp,ArrowLeft"":3,""ArrowUp,ArrowRight"":36,""ArrowDown,ArrowLeft"":15,""ArrowDown,ArrowRight"":23}","true","ArrowUp,ArrowRight","","","","","","",""
"html-keyboard-response","81","425019","0.0-3.0-11.0-4.0-1.0","spark_pilot_norest","10094","3","18","Male","","","","","","","null","<div style=""font-size:60px;"">+</div>","null","fixation","","","","","","","","","","","",""
"revaluation","82","429043","0.0-3.0-11.0-4.0-0.1","spark_pilot_norest","10094","3","18","Male","","","false","","","","[739.1999999992549]","./assets/img/space/animals/rabbit.jpg","[""ArrowRight""]","practice block","space","23","{""ArrowUp,ArrowLeft"":3,""ArrowUp,ArrowRight"":36,""ArrowDown,ArrowLeft"":15,""ArrowDown,ArrowRight"":23}","true","ArrowDown,ArrowRight","","","","","","",""
"html-keyboard-response","83","429558","0.0-3.0-11.0-4.0-1.1","spark_pilot_norest","10094","3","18","Male","","","","","","","null","<div style=""font-size:60px;"">+</div>","null","fixation","","","","","","","","","","","",""
"revaluation","84","433585","0.0-3.0-11.0-4.0-0.2","spark_pilot_norest","10094","3","18","Male","","","false","","","","[521.5999999977648]","./assets/img/space/animals/rabbit.jpg","[""ArrowRight""]","practice block","space","23","{""ArrowUp,ArrowLeft"":3,""ArrowUp,ArrowRight"":36,""ArrowDown,ArrowLeft"":15,""ArrowDown,ArrowRight"":23}","true","ArrowDown,ArrowRight","","","","","","",""
"html-keyboard-response","85","434100","0.0-3.0-11.0-4.0-1.2","spark_pilot_norest","10094","3","18","Male","","","","","","","null","<div style=""font-size:60px;"">+</div>","null","fixation","","","","","","","","","","","",""
"revaluation","86","438125","0.0-3.0-11.0-4.0-0.3","spark_pilot_norest","10094","3","18","Male","","","false","","","","[489.9000000022352]","./assets/img/space/animals/cat.jpg","[""ArrowRight""]","practice block","space","36","{""ArrowUp,ArrowLeft"":3,""ArrowUp,ArrowRight"":36,""ArrowDown,ArrowLeft"":15,""ArrowDown,ArrowRight"":23}","true","ArrowUp,ArrowRight","","","","","","",""
"html-keyboard-response","87","438640","0.0-3.0-11.0-4.0-1.3","spark_pilot_norest","10094","3","18","Male","","","","","","","null","<div style=""font-size:60px;"">+</div>","null","fixation","","","","","","","","","","","",""
"learning-instructions","88","446779","0.0-3.0-11.0-5.0-0.0","spark_pilot_norest","10094","3","18","Male","","","","","","","null","<p> You have almost finished this part of the game! </p>
            <p> We are going to ask you to make a few more choices. </p>","","instructions","","","","","","","","","","","",""
"learning-instructions","89","462805","0.0-3.0-11.0-5.0-0.1","spark_pilot_norest","10094","3","18","Male","","","","","","","null","<p> First, you need to decide whether to go up or down. When you see each picture, use the arrow keys to make your choice. </p>
            <p><b>You will not see which animal you found, but try to get to the one that will give you the most treasure.</b></p>","","instructions","","","","","","","","","","","",""
"html-keyboard-response","90","463817","0.0-3.0-11.0-6.0-0.0","spark_pilot_norest","10094","3","18","Male","","","","","","","null","<div style=""font-size:100px;color:red;"">Starting in...</div>","null","","","","","","","","","","","","",""
"html-keyboard-response","91","464832","0.0-3.0-11.0-6.0-1.0","spark_pilot_norest","10094","3","18","Male","","","","","","","null","<div style=""font-size:200px;color:red;"">3</div>","null","","","","","","","","","","","","",""
"html-keyboard-response","92","465833","0.0-3.0-11.0-6.0-2.0","spark_pilot_norest","10094","3","18","Male","","","","","","","null","<div style=""font-size:200px;color:red;"">2</div>","null","","","","","","","","","","","","",""
"html-keyboard-response","93","466849","0.0-3.0-11.0-6.0-3.0","spark_pilot_norest","10094","3","18","Male","","","","","","","null","<div style=""font-size:200px;color:red;"">1</div>","null","","","","","","","","","","","","",""
"revaluation","94","467368","0.0-3.0-11.0-7.0","spark_pilot_norest","10094","3","18","Male","","","false","","","","[517]","./assets/img/space/15.jpg","[""ArrowUp""]","practice block","space","0","{""ArrowUp,ArrowLeft"":3,""ArrowUp,ArrowRight"":36,""ArrowDown,ArrowLeft"":15,""ArrowDown,ArrowRight"":23}","true","ArrowUp","false","","","","","",""
"html-keyboard-response","95","467879","0.0-3.0-11.0-8.0","spark_pilot_norest","10094","3","18","Male","","","","","","","null","<div style=""font-size:60px;"">+</div>","null","fixation","","","","","","","","","","","",""
"learning-instructions","96","481281","0.0-3.0-11.0-9.0-0.0","spark_pilot_norest","10094","3","18","Male","","","","","","","null","<p> Now you will see the animals again and can search their chests for treasure. </p>
            <p> This time, you will not see how much treasure you earned, but you will earn more bonus money for making better choices. </p>","","instructions","","","","","","","","","","","",""
"html-keyboard-response","97","482295","0.0-3.0-11.0-10.0-0.0","spark_pilot_norest","10094","3","18","Male","","","","","","","null","<div style=""font-size:100px;color:red;"">Starting in...</div>","null","","","","","","","","","","","","",""
"html-keyboard-response","98","483309","0.0-3.0-11.0-10.0-1.0","spark_pilot_norest","10094","3","18","Male","","","","","","","null","<div style=""font-size:200px;color:red;"">3</div>","null","","","","","","","","","","","","",""
"html-keyboard-response","99","484309","0.0-3.0-11.0-10.0-2.0","spark_pilot_norest","10094","3","18","Male","","","","","","","null","<div style=""font-size:200px;color:red;"">2</div>","null","","","","","","","","","","","","",""
"html-keyboard-response","100","485310","0.0-3.0-11.0-10.0-3.0","spark_pilot_norest","10094","3","18","Male","","","","","","","null","<div style=""font-size:200px;color:red;"">1</div>","null","","","","","","","","","","","","",""
"revaluation","101","486169","0.0-3.0-11.0-11.0-0.0","spark_pilot_norest","10094","3","18","Male","","","false","","","","[854.9000000022352]","./assets/img/space/animals/cat.jpg","[""ArrowRight""]","practice block","space","0","{""ArrowUp,ArrowLeft"":3,""ArrowUp,ArrowRight"":36,""ArrowDown,ArrowLeft"":15,""ArrowDown,ArrowRight"":23}","true","ArrowUp,ArrowRight","","","","","","",""
"html-keyboard-response","102","486674","0.0-3.0-11.0-11.0-1.0","spark_pilot_norest","10094","3","18","Male","","","","","","","null","<div style=""font-size:60px;"">+</div>","null","fixation","","","","","","","","","","","",""
"revaluation","103","487489","0.0-3.0-11.0-11.0-0.1","spark_pilot_norest","10094","3","18","Male","","","false","","","","[813.0999999977648]","./assets/img/space/animals/rabbit.jpg","[""ArrowRight""]","practice block","space","0","{""ArrowUp,ArrowLeft"":3,""ArrowUp,ArrowRight"":36,""ArrowDown,ArrowLeft"":15,""ArrowDown,ArrowRight"":23}","true","ArrowDown,ArrowRight","","","","","","",""
"html-keyboard-response","104","488002","0.0-3.0-11.0-11.0-1.1","spark_pilot_norest","10094","3","18","Male","","","","","","","null","<div style=""font-size:60px;"">+</div>","null","fixation","","","","","","","","","","","",""
"learning-instructions","105","494744","0.0-3.0-12.0-0.0","spark_pilot_norest","10094","3","18","Male","","","","","","","2159.699999999255","<p> Before you start, we're going to ask you a few questions about how the game works. </p>","","instructions","","","","","","","","","","","",""
"comp-q","106","501344","0.0-3.0-13.0-0.0-0.0","spark_pilot_norest","10094","3","18","Male","","","","","","","1014.9000000022352","<p> <b> True or False? </b> </p>
            <p> There can be 50 pieces of treasure in a given animal's chest. </p>","1","comp_question","","","","true","","","","","","","",""
"comp-q","107","509528","0.0-3.0-13.0-0.0-1.0","spark_pilot_norest","10094","3","18","Male","","","","","","","1523.5999999977648","<p> <b> That's right! </b> The amount of treasure in each chest can range from 0 to 40 pieces. </p>","0","comp_answer","","","","","","","","","","","",""
"comp-q","108","517200","0.0-3.0-13.0-0.1-0.1","spark_pilot_norest","10094","3","18","Male","","","","","","","565.8999999985099","<p> <b> True or False? </b> </p><p> In this game, all animals have the same amount of treasure in their left and right chests. </p>","0","comp_question","","","","false","","","","","","","",""
"comp-q","109","522856","0.0-3.0-13.0-0.1-1.1","spark_pilot_norest","10094","3","18","Male","","","","","","","561.6999999992549","<p> <b>Incorrect.</b> Animals have different amounts of treasure in their treasure chests. </p>","0","comp_answer","","","","","","","","","","","",""
"comp-q","110","530696","0.0-3.0-13.0-0.2-0.2","spark_pilot_norest","10094","3","18","Male","[{""event"":""blur"",""trial"":1,""time"":5598},{""event"":""focus"",""trial"":1,""time"":18373},{""event"":""blur"",""trial"":1,""time"":19367},{""event"":""focus"",""trial"":1,""time"":20654},{""event"":""fullscreenenter"",""trial"":2,""time"":24450},{""event"":""fullscreenexit"",""trial"":3,""time"":29059},{""event"":""blur"",""trial"":3,""time"":30942},{""event"":""focus"",""trial"":3,""time"":33093},{""event"":""blur"",""trial"":9,""time"":90917},{""event"":""focus"",""trial"":9,""time"":94491},{""event"":""blur"",""trial"":10,""time"":100376},{""event"":""focus"",""trial"":10,""time"":115043},{""event"":""blur"",""trial"":111,""time"":533399},{""event"":""focus"",""trial"":111,""time"":535096}]","","","","","","741.5","<p> <b> True or False? </b> </p><p> In this game, all animals have the same amount of treasure in their left and right chests. </p>","1","comp_question","","","","true","","","","","","","",""
"comp-q","111","536791","0.0-3.0-13.0-0.2-1.2","spark_pilot_norest","10094","3","18","Male","","","","","","","867.8000000007451","<p> <b> That's right! </b> Animals have different amounts of treasure in their treasure chests. </p>","0","comp_answer","","","","","","","","","","","",""
"comp-q","112","543176","0.0-3.0-13.0-0.3-0.3","spark_pilot_norest","10094","3","18","Male","","","","","","","541.6999999992549","<p> <b> True or False? </b> </p><p> The same animal will always be there if you go up in the same place. </p>","0","comp_question","","","","true","","","","","","","",""
"comp-q","113","550304","0.0-3.0-13.0-0.3-1.3","spark_pilot_norest","10094","3","18","Male","","","","","","","689.8999999985099","<p> <b> That's right! </b> One animal lives in the upper part and one lives in the lower part of every place. </p>","0","comp_answer","","","","","","","","","","","",""
"comp-q","114","556304","0.0-3.0-13.0-0.4-0.4","spark_pilot_norest","10094","3","18","Male","","","","","","","469.8999999985099","<p> <b> True or False? </b> </p><p> If you see a different picture, it means you are in a new place. </p>","1","comp_question","","","","true","","","","","","","",""
"comp-q","115","568424","0.0-3.0-13.0-0.4-1.4","spark_pilot_norest","10094","3","18","Male","","","","","","","889.3999999985099","<p> <b> That's right! </b> Lots of different images may show the same place. For example,  you may see three different images that all remind you that you are in outer space. </p>","0","comp_answer","","","","","","","","","","","",""
"learning-instructions","116","580088","0.0-3.0-14.0-0.0","spark_pilot_norest","10094","3","18","Male","","","","","","","1815.199999999255","<p> Good job. Remember to do your best because the amount of treasure you earn will be converted into bonus money. </p>
            <p> It’s time to start the real game! </p>","","instructions","","","","","","","","","","","",""
"learning-instructions","117","583648","0.0-4.0-0.0-0.0","spark_pilot_norest","10094","3","18","Male","","","","","","","854.1000000014901","<p> This time you are searching for treasure in the <b>ocean</b>.</p>","","instructions","","","","","","","","","","","",""
"learning-instructions","118","601880","0.0-4.0-0.0-0.1","spark_pilot_norest","10094","3","18","Male","","","","","","","946","<p><b>New</b> animals with <b>new</b> treasure chests live here. You need to explore to discover where the animal with the best treasure chest is.</p>
                    <p> Like before, once you figure out which animal has the chest with the most treasure, you should try to get to that animal and select that chest! </p>","","instructions","","","","","","","","","","","",""
"learning-instructions","119","617616","0.0-4.0-1.0-0.0","spark_pilot_norest","10094","3","18","Male","","","","","","","1011.5999999977648","<p> Remember, when you see a picture of the place, use the up and down keys to <b>find an animal</b>.</p>
            <p> When you encounter an animal, you should use the left and right keys to <b>select a treasure chest</b>.</p>
            <p> Don't forget to look out for the robber! </p>","","instructions","","","","","","","","","","","",""
"revaluation","120","623656","0.0-4.0-2.0-0.0","spark_pilot_norest","10094","3","18","Male","","","false","","","","[1383.1000000014901,488.79999999701977]","./assets/img/ocean/memory/30.jpg","[""ArrowUp"",""ArrowRight""]","value training","ocean","10","{""ArrowUp,ArrowLeft"":23,""ArrowUp,ArrowRight"":10,""ArrowDown,ArrowLeft"":8,""ArrowDown,ArrowRight"":30}","false","ArrowUp,ArrowRight","false","original","1","0","","",""
"html-keyboard-response","121","624171","0.0-4.0-2.0-1.0","spark_pilot_norest","10094","3","18","Male","","","","","","","null","<div style=""font-size:60px;"">+</div>","null","fixation","","","","","","","","","1","","",""
"revaluation","122","630198","0.0-4.0-2.0-0.1","spark_pilot_norest","10094","3","18","Male","","","false","","","","[809.4000000022352,298]","./assets/img/ocean/memory/21.jpg","[""ArrowUp"",""ArrowLeft""]","value training","ocean","23","{""ArrowUp,ArrowLeft"":23,""ArrowUp,ArrowRight"":10,""ArrowDown,ArrowLeft"":8,""ArrowDown,ArrowRight"":30}","false","ArrowUp,ArrowLeft","false","original","1","2","","",""
"html-keyboard-response","123","630714","0.0-4.0-2.0-1.1","spark_pilot_norest","10094","3","18","Male","","","","","","","null","<div style=""font-size:60px;"">+</div>","null","fixation","","","","","","","","","3","","",""
"revaluation","124","636755","0.0-4.0-2.0-0.2","spark_pilot_norest","10094","3","18","Male","","","false","","","","[626.6000000014901,371.19999999925494]","./assets/img/ocean/memory/31.jpg","[""ArrowDown"",""ArrowRight""]","value training","ocean","30","{""ArrowUp,ArrowLeft"":23,""ArrowUp,ArrowRight"":10,""ArrowDown,ArrowLeft"":8,""ArrowDown,ArrowRight"":30}","true","ArrowDown,ArrowRight","false","original","1","4","","",""
"html-keyboard-response","125","637268","0.0-4.0-2.0-1.2","spark_pilot_norest","10094","3","18","Male","","","","","","","null","<div style=""font-size:60px;"">+</div>","null","fixation","","","","","","","","","5","","",""
"revaluation","126","643292","0.0-4.0-2.0-0.3","spark_pilot_norest","10094","3","18","Male","","","false","","","","[512.8000000007451,264.80000000074506]","./assets/img/ocean/memory/4.jpg","[""ArrowDown"",""ArrowLeft""]","value training","ocean","8","{""ArrowUp,ArrowLeft"":23,""ArrowUp,ArrowRight"":10,""ArrowDown,ArrowLeft"":8,""ArrowDown,ArrowRight"":30}","false","ArrowDown,ArrowLeft","false","original","1","6","","",""
"html-keyboard-response","127","643806","0.0-4.0-2.0-1.3","spark_pilot_norest","10094","3","18","Male","","","","","","","null","<div style=""font-size:60px;"">+</div>","null","fixation","","","","","","","","","7","","",""
"revaluation","128","649822","0.0-4.0-2.0-0.4","spark_pilot_norest","10094","3","18","Male","","","false","","","","[414.3999999985099,276]","./assets/img/ocean/memory/17.jpg","[""ArrowDown"",""ArrowRight""]","value training","ocean","30","{""ArrowUp,ArrowLeft"":23,""ArrowUp,ArrowRight"":10,""ArrowDown,ArrowLeft"":8,""ArrowDown,ArrowRight"":30}","true","ArrowDown,ArrowRight","false","original","1","8","","",""
"html-keyboard-response","129","650335","0.0-4.0-2.0-1.4","spark_pilot_norest","10094","3","18","Male","","","","","","","null","<div style=""font-size:60px;"">+</div>","null","fixation","","","","","","","","","9","","",""
"revaluation","130","656342","0.0-4.0-2.0-0.5","spark_pilot_norest","10094","3","18","Male","","","false","","","","[581.3000000007451,268.80000000074506]","./assets/img/ocean/memory/40.jpg","[""ArrowDown"",""ArrowRight""]","value training","ocean","30","{""ArrowUp,ArrowLeft"":23,""ArrowUp,ArrowRight"":10,""ArrowDown,ArrowLeft"":8,""ArrowDown,ArrowRight"":30}","true","ArrowDown,ArrowRight","false","original","1","10","","",""
"html-keyboard-response","131","656843","0.0-4.0-2.0-1.5","spark_pilot_norest","10094","3","18","Male","","","","","","","null","<div style=""font-size:60px;"">+</div>","null","fixation","","","","","","","","","11","","",""
"revaluation","132","662849","0.0-4.0-2.0-0.6","spark_pilot_norest","10094","3","18","Male","","","false","","","","[323.19999999925494,249.80000000074506]","./assets/img/ocean/memory/23.jpg","[""ArrowDown"",""ArrowRight""]","value training","ocean","30","{""ArrowUp,ArrowLeft"":23,""ArrowUp,ArrowRight"":10,""ArrowDown,ArrowLeft"":8,""ArrowDown,ArrowRight"":30}","true","ArrowDown,ArrowRight","false","original","1","12","","",""
"html-keyboard-response","133","663350","0.0-4.0-2.0-1.6","spark_pilot_norest","10094","3","18","Male","","","","","","","null","<div style=""font-size:60px;"">+</div>","null","fixation","","","","","","","","","13","","",""
"revaluation","134","669359","0.0-4.0-2.0-0.7","spark_pilot_norest","10094","3","18","Male","","","false","","","","[246.89999999850988,261.5]","./assets/img/ocean/memory/14.jpg","[""ArrowDown"",""ArrowRight""]","value training","ocean","30","{""ArrowUp,ArrowLeft"":23,""ArrowUp,ArrowRight"":10,""ArrowDown,ArrowLeft"":8,""ArrowDown,ArrowRight"":30}","true","ArrowDown,ArrowRight","false","original","1","14","","",""
"html-keyboard-response","135","669860","0.0-4.0-2.0-1.7","spark_pilot_norest","10094","3","18","Male","","","","","","","null","<div style=""font-size:60px;"">+</div>","null","fixation","","","","","","","","","15","","",""
"revaluation","136","675866","0.0-4.0-2.0-0.8","spark_pilot_norest","10094","3","18","Male","","","false","","","","[369,312.5]","./assets/img/ocean/memory/12.jpg","[""ArrowDown"",""ArrowRight""]","value training","ocean","30","{""ArrowUp,ArrowLeft"":23,""ArrowUp,ArrowRight"":10,""ArrowDown,ArrowLeft"":8,""ArrowDown,ArrowRight"":30}","true","ArrowDown,ArrowRight","false","original","1","16","","",""
"html-keyboard-response","137","676368","0.0-4.0-2.0-1.8","spark_pilot_norest","10094","3","18","Male","","","","","","","null","<div style=""font-size:60px;"">+</div>","null","fixation","","","","","","","","","17","","",""
"revaluation","138","680373","0.0-4.0-2.0-0.9","spark_pilot_norest","10094","3","18","Male","","","false","","","","[628.5999999977648]","./assets/img/ocean/catch/5.jpg","[""ArrowDown""]","value training","ocean","-10","{""ArrowUp,ArrowLeft"":23,""ArrowUp,ArrowRight"":10,""ArrowDown,ArrowLeft"":8,""ArrowDown,ArrowRight"":30}","false","ArrowDown","true","original","1","18","","",""
"html-keyboard-response","139","680878","0.0-4.0-2.0-1.9","spark_pilot_norest","10094","3","18","Male","","","","","","","null","<div style=""font-size:60px;"">+</div>","null","fixation","","","","","","","","","19","","",""
"revaluation","140","686884","0.0-4.0-2.0-0.10","spark_pilot_norest","10094","3","18","Male","","","false","","","","[751.1999999992549,301.80000000074506]","./assets/img/ocean/memory/36.jpg","[""ArrowDown"",""ArrowRight""]","value training","ocean","30","{""ArrowUp,ArrowLeft"":23,""ArrowUp,ArrowRight"":10,""ArrowDown,ArrowLeft"":8,""ArrowDown,ArrowRight"":30}","true","ArrowDown,ArrowRight","false","original","1","20","","",""
"html-keyboard-response","141","687387","0.0-4.0-2.0-1.10","spark_pilot_norest","10094","3","18","Male","","","","","","","null","<div style=""font-size:60px;"">+</div>","null","fixation","","","","","","","","","21","","",""
"revaluation","142","693391","0.0-4.0-2.0-0.11","spark_pilot_norest","10094","3","18","Male","","","false","","","","[635.5,74.5]","./assets/img/ocean/memory/26.jpg","[""ArrowDown"",""ArrowRight""]","value training","ocean","30","{""ArrowUp,ArrowLeft"":23,""ArrowUp,ArrowRight"":10,""ArrowDown,ArrowLeft"":8,""ArrowDown,ArrowRight"":30}","true","ArrowDown,ArrowRight","false","original","1","22","","",""
"html-keyboard-response","143","693907","0.0-4.0-2.0-1.11","spark_pilot_norest","10094","3","18","Male","","","","","","","null","<div style=""font-size:60px;"">+</div>","null","fixation","","","","","","","","","23","","",""
"revaluation","144","699913","0.0-4.0-2.0-0.12","spark_pilot_norest","10094","3","18","Male","","","false","","","","[544.7999999970198,232.19999999925494]","./assets/img/ocean/memory/23.jpg","[""ArrowDown"",""ArrowRight""]","value training","ocean","30","{""ArrowUp,ArrowLeft"":23,""ArrowUp,ArrowRight"":10,""ArrowDown,ArrowLeft"":8,""ArrowDown,ArrowRight"":30}","true","ArrowDown,ArrowRight","false","original","1","24","","",""
"html-keyboard-response","145","700415","0.0-4.0-2.0-1.12","spark_pilot_norest","10094","3","18","Male","","","","","","","null","<div style=""font-size:60px;"">+</div>","null","fixation","","","","","","","","","25","","",""
"revaluation","146","706421","0.0-4.0-2.0-0.13","spark_pilot_norest","10094","3","18","Male","","","false","","","","[517.8999999985099,204.69999999925494]","./assets/img/ocean/memory/29.jpg","[""ArrowDown"",""ArrowRight""]","value training","ocean","30","{""ArrowUp,ArrowLeft"":23,""ArrowUp,ArrowRight"":10,""ArrowDown,ArrowLeft"":8,""ArrowDown,ArrowRight"":30}","true","ArrowDown,ArrowRight","false","original","1","26","","",""
"html-keyboard-response","147","706923","0.0-4.0-2.0-1.13","spark_pilot_norest","10094","3","18","Male","","","","","","","null","<div style=""font-size:60px;"">+</div>","null","fixation","","","","","","","","","27","","",""
"revaluation","148","712929","0.0-4.0-2.0-0.14","spark_pilot_norest","10094","3","18","Male","","","false","","","","[625.3000000007451,488]","./assets/img/ocean/memory/30.jpg","[""ArrowDown"",""ArrowRight""]","value training","ocean","30","{""ArrowUp,ArrowLeft"":23,""ArrowUp,ArrowRight"":10,""ArrowDown,ArrowLeft"":8,""ArrowDown,ArrowRight"":30}","true","ArrowDown,ArrowRight","false","original","1","28","","",""
"html-keyboard-response","149","713430","0.0-4.0-2.0-1.14","spark_pilot_norest","10094","3","18","Male","","","","","","","null","<div style=""font-size:60px;"">+</div>","null","fixation","","","","","","","","","29","","",""
"revaluation","150","719437","0.0-4.0-2.0-0.15","spark_pilot_norest","10094","3","18","Male","","","false","","","","[405.79999999701977,252.19999999925494]","./assets/img/ocean/memory/37.jpg","[""ArrowDown"",""ArrowRight""]","value training","ocean","30","{""ArrowUp,ArrowLeft"":23,""ArrowUp,ArrowRight"":10,""ArrowDown,ArrowLeft"":8,""ArrowDown,ArrowRight"":30}","true","ArrowDown,ArrowRight","false","original","1","30","","",""
"html-keyboard-response","151","719939","0.0-4.0-2.0-1.15","spark_pilot_norest","10094","3","18","Male","","","","","","","null","<div style=""font-size:60px;"">+</div>","null","fixation","","","","","","","","","31","","",""
"revaluation","152","723946","0.0-4.0-2.0-0.16","spark_pilot_norest","10094","3","18","Male","","","false","","","","[1393.3999999985099]","./assets/img/ocean/catch/3.jpg","[""spaceBar""]","value training","ocean","0","{""ArrowUp,ArrowLeft"":23,""ArrowUp,ArrowRight"":10,""ArrowDown,ArrowLeft"":8,""ArrowDown,ArrowRight"":30}","true","spaceBar","true","original","1","32","","",""
"html-keyboard-response","153","724447","0.0-4.0-2.0-1.16","spark_pilot_norest","10094","3","18","Male","","","","","","","null","<div style=""font-size:60px;"">+</div>","null","fixation","","","","","","","","","33","","",""
"revaluation","154","730455","0.0-4.0-2.0-0.17","spark_pilot_norest","10094","3","18","Male","","","false","","","","[364.69999999925494,211.39999999850988]","./assets/img/ocean/memory/9.jpg","[""ArrowDown"",""ArrowRight""]","value training","ocean","30","{""ArrowUp,ArrowLeft"":23,""ArrowUp,ArrowRight"":10,""ArrowDown,ArrowLeft"":8,""ArrowDown,ArrowRight"":30}","true","ArrowDown,ArrowRight","false","original","1","34","","",""
"html-keyboard-response","155","730955","0.0-4.0-2.0-1.17","spark_pilot_norest","10094","3","18","Male","","","","","","","null","<div style=""font-size:60px;"">+</div>","null","fixation","","","","","","","","","35","","",""
"revaluation","156","736960","0.0-4.0-2.0-0.18","spark_pilot_norest","10094","3","18","Male","","","false","","","","[329.80000000074506,290]","./assets/img/ocean/memory/29.jpg","[""ArrowDown"",""ArrowRight""]","value training","ocean","30","{""ArrowUp,ArrowLeft"":23,""ArrowUp,ArrowRight"":10,""ArrowDown,ArrowLeft"":8,""ArrowDown,ArrowRight"":30}","true","ArrowDown,ArrowRight","false","original","1","36","","",""
"html-keyboard-response","157","737461","0.0-4.0-2.0-1.18","spark_pilot_norest","10094","3","18","Male","","","","","","","null","<div style=""font-size:60px;"">+</div>","null","fixation","","","","","","","","","37","","",""
"revaluation","158","743469","0.0-4.0-2.0-0.19","spark_pilot_norest","10094","3","18","Male","","","false","","","","[342.30000000074506,237]","./assets/img/ocean/memory/9.jpg","[""ArrowDown"",""ArrowRight""]","value training","ocean","30","{""ArrowUp,ArrowLeft"":23,""ArrowUp,ArrowRight"":10,""ArrowDown,ArrowLeft"":8,""ArrowDown,ArrowRight"":30}","true","ArrowDown,ArrowRight","false","original","1","38","","",""
"html-keyboard-response","159","743971","0.0-4.0-2.0-1.19","spark_pilot_norest","10094","3","18","Male","","","","","","","null","<div style=""font-size:60px;"">+</div>","null","fixation","","","","","","","","","39","","",""
"revaluation","160","749976","0.0-4.0-2.0-0.20","spark_pilot_norest","10094","3","18","Male","","","false","","","","[826.4000000022352,313.30000000074506]","./assets/img/ocean/memory/0.jpg","[""ArrowDown"",""ArrowRight""]","value training","ocean","30","{""ArrowUp,ArrowLeft"":23,""ArrowUp,ArrowRight"":10,""ArrowDown,ArrowLeft"":8,""ArrowDown,ArrowRight"":30}","true","ArrowDown,ArrowRight","false","original","1","40","","",""
"html-keyboard-response","161","750478","0.0-4.0-2.0-1.20","spark_pilot_norest","10094","3","18","Male","","","","","","","null","<div style=""font-size:60px;"">+</div>","null","fixation","","","","","","","","","41","","",""
"revaluation","162","754484","0.0-4.0-2.0-0.21","spark_pilot_norest","10094","3","18","Male","","","false","","","","[62.19999999925494]","./assets/img/ocean/catch/2.jpg","[""ArrowDown""]","value training","ocean","-10","{""ArrowUp,ArrowLeft"":23,""ArrowUp,ArrowRight"":10,""ArrowDown,ArrowLeft"":8,""ArrowDown,ArrowRight"":30}","false","ArrowDown","true","original","1","42","","",""
"html-keyboard-response","163","754986","0.0-4.0-2.0-1.21","spark_pilot_norest","10094","3","18","Male","","","","","","","null","<div style=""font-size:60px;"">+</div>","null","fixation","","","","","","","","","43","","",""
"revaluation","164","760989","0.0-4.0-2.0-0.22","spark_pilot_norest","10094","3","18","Male","","","false","","","","[461,307.9000000022352]","./assets/img/ocean/memory/1.jpg","[""ArrowDown"",""ArrowRight""]","value training","ocean","30","{""ArrowUp,ArrowLeft"":23,""ArrowUp,ArrowRight"":10,""ArrowDown,ArrowLeft"":8,""ArrowDown,ArrowRight"":30}","true","ArrowDown,ArrowRight","false","original","1","44","","",""
"html-keyboard-response","165","761490","0.0-4.0-2.0-1.22","spark_pilot_norest","10094","3","18","Male","","","","","","","null","<div style=""font-size:60px;"">+</div>","null","fixation","","","","","","","","","45","","",""
"revaluation","166","767494","0.0-4.0-2.0-0.23","spark_pilot_norest","10094","3","18","Male","","","false","","","","[332.19999999925494,378]","./assets/img/ocean/memory/12.jpg","[""ArrowDown"",""ArrowRight""]","value training","ocean","30","{""ArrowUp,ArrowLeft"":23,""ArrowUp,ArrowRight"":10,""ArrowDown,ArrowLeft"":8,""ArrowDown,ArrowRight"":30}","true","ArrowDown,ArrowRight","false","original","1","46","","",""
"html-keyboard-response","167","767995","0.0-4.0-2.0-1.23","spark_pilot_norest","10094","3","18","Male","","","","","","","null","<div style=""font-size:60px;"">+</div>","null","fixation","","","","","","","","","47","","",""
"revaluation","168","774001","0.0-4.0-2.0-0.24","spark_pilot_norest","10094","3","18","Male","","","false","","","","[496.5,311.5999999977648]","./assets/img/ocean/memory/4.jpg","[""ArrowDown"",""ArrowRight""]","value training","ocean","30","{""ArrowUp,ArrowLeft"":23,""ArrowUp,ArrowRight"":10,""ArrowDown,ArrowLeft"":8,""ArrowDown,ArrowRight"":30}","true","ArrowDown,ArrowRight","false","original","1","48","","",""
"html-keyboard-response","169","774503","0.0-4.0-2.0-1.24","spark_pilot_norest","10094","3","18","Male","","","","","","","null","<div style=""font-size:60px;"">+</div>","null","fixation","","","","","","","","","49","","",""
"revaluation","170","780509","0.0-4.0-2.0-0.25","spark_pilot_norest","10094","3","18","Male","","","false","","","","[541.3999999985099,107.89999999850988]","./assets/img/ocean/memory/14.jpg","[""ArrowDown"",""ArrowRight""]","value training","ocean","30","{""ArrowUp,ArrowLeft"":23,""ArrowUp,ArrowRight"":10,""ArrowDown,ArrowLeft"":8,""ArrowDown,ArrowRight"":30}","true","ArrowDown,ArrowRight","false","original","1","50","","",""
"html-keyboard-response","171","781011","0.0-4.0-2.0-1.25","spark_pilot_norest","10094","3","18","Male","","","","","","","null","<div style=""font-size:60px;"">+</div>","null","fixation","","","","","","","","","51","","",""
"revaluation","172","787018","0.0-4.0-2.0-0.26","spark_pilot_norest","10094","3","18","Male","","","false","","","","[545.8000000007451,254.69999999925494]","./assets/img/ocean/memory/36.jpg","[""ArrowDown"",""ArrowRight""]","value training","ocean","30","{""ArrowUp,ArrowLeft"":23,""ArrowUp,ArrowRight"":10,""ArrowDown,ArrowLeft"":8,""ArrowDown,ArrowRight"":30}","true","ArrowDown,ArrowRight","false","original","1","52","","",""
"html-keyboard-response","173","787519","0.0-4.0-2.0-1.26","spark_pilot_norest","10094","3","18","Male","","","","","","","null","<div style=""font-size:60px;"">+</div>","null","fixation","","","","","","","","","53","","",""
"revaluation","174","791531","0.0-4.0-2.0-0.27","spark_pilot_norest","10094","3","18","Male","","","false","","","","[1300.8999999985099]","./assets/img/ocean/catch/0.jpg","[""spaceBar""]","value training","ocean","0","{""ArrowUp,ArrowLeft"":23,""ArrowUp,ArrowRight"":10,""ArrowDown,ArrowLeft"":8,""ArrowDown,ArrowRight"":30}","true","spaceBar","true","original","1","54","","",""
"html-keyboard-response","175","792033","0.0-4.0-2.0-1.27","spark_pilot_norest","10094","3","18","Male","","","","","","","null","<div style=""font-size:60px;"">+</div>","null","fixation","","","","","","","","","55","","",""
"revaluation","176","798039","0.0-4.0-2.0-0.28","spark_pilot_norest","10094","3","18","Male","","","false","","","","[523.4000000022352,257.9000000022352]","./assets/img/ocean/memory/40.jpg","[""ArrowDown"",""ArrowRight""]","value training","ocean","30","{""ArrowUp,ArrowLeft"":23,""ArrowUp,ArrowRight"":10,""ArrowDown,ArrowLeft"":8,""ArrowDown,ArrowRight"":30}","true","ArrowDown,ArrowRight","false","original","1","56","","",""
"html-keyboard-response","177","798540","0.0-4.0-2.0-1.28","spark_pilot_norest","10094","3","18","Male","","","","","","","null","<div style=""font-size:60px;"">+</div>","null","fixation","","","","","","","","","57","","",""
"revaluation","178","802546","0.0-4.0-2.0-0.29","spark_pilot_norest","10094","3","18","Male","","","false","","","","[1215.800000000745]","./assets/img/ocean/catch/1.jpg","[""spaceBar""]","value training","ocean","0","{""ArrowUp,ArrowLeft"":23,""ArrowUp,ArrowRight"":10,""ArrowDown,ArrowLeft"":8,""ArrowDown,ArrowRight"":30}","true","spaceBar","true","original","1","58","","",""
"html-keyboard-response","179","803047","0.0-4.0-2.0-1.29","spark_pilot_norest","10094","3","18","Male","","","","","","","null","<div style=""font-size:60px;"">+</div>","null","fixation","","","","","","","","","59","","",""
"revaluation","180","809054","0.0-4.0-2.0-0.30","spark_pilot_norest","10094","3","18","Male","","","false","","","","[572.1999999992549,283.30000000074506]","./assets/img/ocean/memory/15.jpg","[""ArrowDown"",""ArrowRight""]","value training","ocean","30","{""ArrowUp,ArrowLeft"":23,""ArrowUp,ArrowRight"":10,""ArrowDown,ArrowLeft"":8,""ArrowDown,ArrowRight"":30}","true","ArrowDown,ArrowRight","false","original","1","60","","",""
"html-keyboard-response","181","809555","0.0-4.0-2.0-1.30","spark_pilot_norest","10094","3","18","Male","","","","","","","null","<div style=""font-size:60px;"">+</div>","null","fixation","","","","","","","","","61","","",""
"revaluation","182","813559","0.0-4.0-2.0-0.31","spark_pilot_norest","10094","3","18","Male","","","false","","","","[1130.5]","./assets/img/ocean/catch/6.jpg","[""spaceBar""]","value training","ocean","0","{""ArrowUp,ArrowLeft"":23,""ArrowUp,ArrowRight"":10,""ArrowDown,ArrowLeft"":8,""ArrowDown,ArrowRight"":30}","true","spaceBar","true","original","1","62","","",""
"html-keyboard-response","183","814060","0.0-4.0-2.0-1.31","spark_pilot_norest","10094","3","18","Male","","","","","","","null","<div style=""font-size:60px;"">+</div>","null","fixation","","","","","","","","","63","","",""
"revaluation","184","820066","0.0-4.0-2.0-0.32","spark_pilot_norest","10094","3","18","Male","","","false","","","","[591.5,886]","./assets/img/ocean/memory/17.jpg","[""ArrowDown"",""ArrowRight""]","value training","ocean","30","{""ArrowUp,ArrowLeft"":23,""ArrowUp,ArrowRight"":10,""ArrowDown,ArrowLeft"":8,""ArrowDown,ArrowRight"":30}","true","ArrowDown,ArrowRight","false","original","1","64","","",""
"html-keyboard-response","185","820568","0.0-4.0-2.0-1.32","spark_pilot_norest","10094","3","18","Male","","","","","","","null","<div style=""font-size:60px;"">+</div>","null","fixation","","","","","","","","","65","","",""
"revaluation","186","826575","0.0-4.0-2.0-0.33","spark_pilot_norest","10094","3","18","Male","","","false","","","","[531.5,322.80000000074506]","./assets/img/ocean/memory/37.jpg","[""ArrowDown"",""ArrowRight""]","value training","ocean","30","{""ArrowUp,ArrowLeft"":23,""ArrowUp,ArrowRight"":10,""ArrowDown,ArrowLeft"":8,""ArrowDown,ArrowRight"":30}","true","ArrowDown,ArrowRight","false","original","1","66","","",""
"html-keyboard-response","187","827076","0.0-4.0-2.0-1.33","spark_pilot_norest","10094","3","18","Male","","","","","","","null","<div style=""font-size:60px;"">+</div>","null","fixation","","","","","","","","","67","","",""
"revaluation","188","831079","0.0-4.0-2.0-0.34","spark_pilot_norest","10094","3","18","Male","","","false","","","","[1105.699999999255]","./assets/img/ocean/catch/7.jpg","[""spaceBar""]","value training","ocean","0","{""ArrowUp,ArrowLeft"":23,""ArrowUp,ArrowRight"":10,""ArrowDown,ArrowLeft"":8,""ArrowDown,ArrowRight"":30}","true","spaceBar","true","original","1","68","","",""
"html-keyboard-response","189","831581","0.0-4.0-2.0-1.34","spark_pilot_norest","10094","3","18","Male","","","","","","","null","<div style=""font-size:60px;"">+</div>","null","fixation","","","","","","","","","69","","",""
"revaluation","190","837588","0.0-4.0-2.0-0.35","spark_pilot_norest","10094","3","18","Male","","","false","","","","[414.9000000022352,253.80000000074506]","./assets/img/ocean/memory/21.jpg","[""ArrowDown"",""ArrowRight""]","value training","ocean","30","{""ArrowUp,ArrowLeft"":23,""ArrowUp,ArrowRight"":10,""ArrowDown,ArrowLeft"":8,""ArrowDown,ArrowRight"":30}","true","ArrowDown,ArrowRight","false","original","1","70","","",""
"html-keyboard-response","191","838089","0.0-4.0-2.0-1.35","spark_pilot_norest","10094","3","18","Male","","","","","","","null","<div style=""font-size:60px;"">+</div>","null","fixation","","","","","","","","","71","","",""
"revaluation","192","844097","0.0-4.0-2.0-0.36","spark_pilot_norest","10094","3","18","Male","","","false","","","","[489.80000000074506,153.69999999925494]","./assets/img/ocean/memory/15.jpg","[""ArrowDown"",""ArrowRight""]","value training","ocean","30","{""ArrowUp,ArrowLeft"":23,""ArrowUp,ArrowRight"":10,""ArrowDown,ArrowLeft"":8,""ArrowDown,ArrowRight"":30}","true","ArrowDown,ArrowRight","false","original","1","72","","",""
"html-keyboard-response","193","844599","0.0-4.0-2.0-1.36","spark_pilot_norest","10094","3","18","Male","","","","","","","null","<div style=""font-size:60px;"">+</div>","null","fixation","","","","","","","","","73","","",""
"revaluation","194","850606","0.0-4.0-2.0-0.37","spark_pilot_norest","10094","3","18","Male","","","false","","","","[436.6000000014901,284.19999999925494]","./assets/img/ocean/memory/41.jpg","[""ArrowDown"",""ArrowRight""]","value training","ocean","30","{""ArrowUp,ArrowLeft"":23,""ArrowUp,ArrowRight"":10,""ArrowDown,ArrowLeft"":8,""ArrowDown,ArrowRight"":30}","true","ArrowDown,ArrowRight","false","original","1","74","","",""
"html-keyboard-response","195","851107","0.0-4.0-2.0-1.37","spark_pilot_norest","10094","3","18","Male","","","","","","","null","<div style=""font-size:60px;"">+</div>","null","fixation","","","","","","","","","75","","",""
"revaluation","196","857113","0.0-4.0-2.0-0.38","spark_pilot_norest","10094","3","18","Male","","","false","","","","[273.70000000298023,272.79999999701977]","./assets/img/ocean/memory/16.jpg","[""ArrowDown"",""ArrowRight""]","value training","ocean","30","{""ArrowUp,ArrowLeft"":23,""ArrowUp,ArrowRight"":10,""ArrowDown,ArrowLeft"":8,""ArrowDown,ArrowRight"":30}","true","ArrowDown,ArrowRight","false","original","1","76","","",""
"html-keyboard-response","197","857615","0.0-4.0-2.0-1.38","spark_pilot_norest","10094","3","18","Male","","","","","","","null","<div style=""font-size:60px;"">+</div>","null","fixation","","","","","","","","","77","","",""
"revaluation","198","863619","0.0-4.0-2.0-0.39","spark_pilot_norest","10094","3","18","Male","","","false","","","","[391,292.8999999985099]","./assets/img/ocean/memory/25.jpg","[""ArrowDown"",""ArrowRight""]","value training","ocean","30","{""ArrowUp,ArrowLeft"":23,""ArrowUp,ArrowRight"":10,""ArrowDown,ArrowLeft"":8,""ArrowDown,ArrowRight"":30}","true","ArrowDown,ArrowRight","false","original","1","78","","",""
"html-keyboard-response","199","864120","0.0-4.0-2.0-1.39","spark_pilot_norest","10094","3","18","Male","","","","","","","null","<div style=""font-size:60px;"">+</div>","null","fixation","","","","","","","","","79","","",""
"revaluation","200","870127","0.0-4.0-2.0-0.40","spark_pilot_norest","10094","3","18","Male","","","false","","","","[603.0999999977648,322.29999999701977]","./assets/img/ocean/memory/0.jpg","[""ArrowDown"",""ArrowRight""]","value training","ocean","30","{""ArrowUp,ArrowLeft"":23,""ArrowUp,ArrowRight"":10,""ArrowDown,ArrowLeft"":8,""ArrowDown,ArrowRight"":30}","true","ArrowDown,ArrowRight","false","original","1","80","","",""
"html-keyboard-response","201","870630","0.0-4.0-2.0-1.40","spark_pilot_norest","10094","3","18","Male","","","","","","","null","<div style=""font-size:60px;"">+</div>","null","fixation","","","","","","","","","81","","",""
"revaluation","202","876637","0.0-4.0-2.0-0.41","spark_pilot_norest","10094","3","18","Male","","","false","","","","[566.3999999985099,243.30000000074506]","./assets/img/ocean/memory/26.jpg","[""ArrowDown"",""ArrowRight""]","value training","ocean","30","{""ArrowUp,ArrowLeft"":23,""ArrowUp,ArrowRight"":10,""ArrowDown,ArrowLeft"":8,""ArrowDown,ArrowRight"":30}","true","ArrowDown,ArrowRight","false","original","1","82","","",""
"html-keyboard-response","203","877140","0.0-4.0-2.0-1.41","spark_pilot_norest","10094","3","18","Male","","","","","","","null","<div style=""font-size:60px;"">+</div>","null","fixation","","","","","","","","","83","","",""
"revaluation","204","883147","0.0-4.0-2.0-0.42","spark_pilot_norest","10094","3","18","Male","","","false","","","","[376.19999999925494,37.19999999925494]","./assets/img/ocean/memory/31.jpg","[""ArrowDown"",""ArrowRight""]","value training","ocean","30","{""ArrowUp,ArrowLeft"":23,""ArrowUp,ArrowRight"":10,""ArrowDown,ArrowLeft"":8,""ArrowDown,ArrowRight"":30}","true","ArrowDown,ArrowRight","false","original","1","84","","",""
"html-keyboard-response","205","883649","0.0-4.0-2.0-1.42","spark_pilot_norest","10094","3","18","Male","","","","","","","null","<div style=""font-size:60px;"">+</div>","null","fixation","","","","","","","","","85","","",""
"revaluation","206","889654","0.0-4.0-2.0-0.43","spark_pilot_norest","10094","3","18","Male","","","false","","","","[411,122.89999999850988]","./assets/img/ocean/memory/11.jpg","[""ArrowDown"",""ArrowRight""]","value training","ocean","30","{""ArrowUp,ArrowLeft"":23,""ArrowUp,ArrowRight"":10,""ArrowDown,ArrowLeft"":8,""ArrowDown,ArrowRight"":30}","true","ArrowDown,ArrowRight","false","original","1","86","","",""
"html-keyboard-response","207","890156","0.0-4.0-2.0-1.43","spark_pilot_norest","10094","3","18","Male","","","","","","","null","<div style=""font-size:60px;"">+</div>","null","fixation","","","","","","","","","87","","",""
"revaluation","208","894160","0.0-4.0-2.0-0.44","spark_pilot_norest","10094","3","18","Male","","","false","","","","[1168.300000000745]","./assets/img/ocean/catch/4.jpg","[""spaceBar""]","value training","ocean","0","{""ArrowUp,ArrowLeft"":23,""ArrowUp,ArrowRight"":10,""ArrowDown,ArrowLeft"":8,""ArrowDown,ArrowRight"":30}","true","spaceBar","true","original","1","88","","",""
"html-keyboard-response","209","894662","0.0-4.0-2.0-1.44","spark_pilot_norest","10094","3","18","Male","","","","","","","null","<div style=""font-size:60px;"">+</div>","null","fixation","","","","","","","","","89","","",""
"revaluation","210","900668","0.0-4.0-2.0-0.45","spark_pilot_norest","10094","3","18","Male","","","false","","","","[349.5,236.89999999850988]","./assets/img/ocean/memory/11.jpg","[""ArrowDown"",""ArrowRight""]","value training","ocean","30","{""ArrowUp,ArrowLeft"":23,""ArrowUp,ArrowRight"":10,""ArrowDown,ArrowLeft"":8,""ArrowDown,ArrowRight"":30}","true","ArrowDown,ArrowRight","false","original","1","90","","",""
"html-keyboard-response","211","901169","0.0-4.0-2.0-1.45","spark_pilot_norest","10094","3","18","Male","","","","","","","null","<div style=""font-size:60px;"">+</div>","null","fixation","","","","","","","","","91","","",""
"revaluation","212","907176","0.0-4.0-2.0-0.46","spark_pilot_norest","10094","3","18","Male","","","false","","","","[385.80000000074506,545.6999999992549]","./assets/img/ocean/memory/1.jpg","[""ArrowDown"",""ArrowRight""]","value training","ocean","30","{""ArrowUp,ArrowLeft"":23,""ArrowUp,ArrowRight"":10,""ArrowDown,ArrowLeft"":8,""ArrowDown,ArrowRight"":30}","true","ArrowDown,ArrowRight","false","original","1","92","","",""
"html-keyboard-response","213","907677","0.0-4.0-2.0-1.46","spark_pilot_norest","10094","3","18","Male","","","","","","","null","<div style=""font-size:60px;"">+</div>","null","fixation","","","","","","","","","93","","",""
"revaluation","214","913684","0.0-4.0-2.0-0.47","spark_pilot_norest","10094","3","18","Male","","","false","","","","[430.5,333.0999999977648]","./assets/img/ocean/memory/25.jpg","[""ArrowDown"",""ArrowRight""]","value training","ocean","30","{""ArrowUp,ArrowLeft"":23,""ArrowUp,ArrowRight"":10,""ArrowDown,ArrowLeft"":8,""ArrowDown,ArrowRight"":30}","true","ArrowDown,ArrowRight","false","original","1","94","","",""
"html-keyboard-response","215","914186","0.0-4.0-2.0-1.47","spark_pilot_norest","10094","3","18","Male","","","","","","","null","<div style=""font-size:60px;"">+</div>","null","fixation","","","","","","","","","95","","",""
"revaluation","216","920193","0.0-4.0-2.0-0.48","spark_pilot_norest","10094","3","18","Male","","","false","","","","[377.9000000022352,295.8999999985099]","./assets/img/ocean/memory/16.jpg","[""ArrowDown"",""ArrowRight""]","value training","ocean","30","{""ArrowUp,ArrowLeft"":23,""ArrowUp,ArrowRight"":10,""ArrowDown,ArrowLeft"":8,""ArrowDown,ArrowRight"":30}","true","ArrowDown,ArrowRight","false","original","1","96","","",""
"html-keyboard-response","217","920695","0.0-4.0-2.0-1.48","spark_pilot_norest","10094","3","18","Male","","","","","","","null","<div style=""font-size:60px;"">+</div>","null","fixation","","","","","","","","","97","","",""
"revaluation","218","926705","0.0-4.0-2.0-0.49","spark_pilot_norest","10094","3","18","Male","","","false","","","","[548.5,275.1000000014901]","./assets/img/ocean/memory/41.jpg","[""ArrowDown"",""ArrowRight""]","value training","ocean","30","{""ArrowUp,ArrowLeft"":23,""ArrowUp,ArrowRight"":10,""ArrowDown,ArrowLeft"":8,""ArrowDown,ArrowRight"":30}","true","ArrowDown,ArrowRight","false","original","1","98","","",""
"html-keyboard-response","219","927207","0.0-4.0-2.0-1.49","spark_pilot_norest","10094","3","18","Male","","","","","","","null","<div style=""font-size:60px;"">+</div>","null","fixation","","","","","","","","","99","","",""
"learning-instructions","220","942039","0.0-4.0-3.0-0.0","spark_pilot_norest","10094","3","18","Male","","","","","","","1924.3999999985099","<p> Now, you will travel with a friend who will choose whether you go up or down first. </p>
            <p> On these turns, you will just see the animal that they found. You will still get to choose which chest to search for treasure.</p>","","instructions","","","","","","","","","","","",""
"revaluation","221","946057","0.0-4.0-4.0-0.0","spark_pilot_norest","10094","3","18","Male","","","false","","","","[1207.3999999985099]","./assets/img/ocean/animals/seahorse.jpg","[""ArrowRight""]","revaluation","ocean","30","{""ArrowUp,ArrowLeft"":23,""ArrowUp,ArrowRight"":10,""ArrowDown,ArrowLeft"":8,""ArrowDown,ArrowRight"":30}","true","ArrowDown,ArrowRight","","original","1","0","","",""
"html-keyboard-response","222","946572","0.0-4.0-4.0-1.0","spark_pilot_norest","10094","3","18","Male","","","","","","","null","<div style=""font-size:60px;"">+</div>","null","fixation","","","","","","","","","1","","",""
"revaluation","223","950585","0.0-4.0-4.0-0.1","spark_pilot_norest","10094","3","18","Male","","","false","","","","[538.1999999992549]","./assets/img/ocean/animals/seahorse.jpg","[""ArrowRight""]","revaluation","ocean","30","{""ArrowUp,ArrowLeft"":23,""ArrowUp,ArrowRight"":10,""ArrowDown,ArrowLeft"":8,""ArrowDown,ArrowRight"":30}","true","ArrowDown,ArrowRight","","original","1","2","","",""
"html-keyboard-response","224","951097","0.0-4.0-4.0-1.1","spark_pilot_norest","10094","3","18","Male","","","","","","","null","<div style=""font-size:60px;"">+</div>","null","fixation","","","","","","","","","3","","",""
"revaluation","225","955119","0.0-4.0-4.0-0.2","spark_pilot_norest","10094","3","18","Male","","","false","","","","[548]","./assets/img/ocean/animals/octopus.jpg","[""ArrowLeft""]","revaluation","ocean","23","{""ArrowUp,ArrowLeft"":23,""ArrowUp,ArrowRight"":10,""ArrowDown,ArrowLeft"":8,""ArrowDown,ArrowRight"":30}","true","ArrowUp,ArrowLeft","","original","1","4","","",""
"html-keyboard-response","226","955635","0.0-4.0-4.0-1.2","spark_pilot_norest","10094","3","18","Male","","","","","","","null","<div style=""font-size:60px;"">+</div>","null","fixation","","","","","","","","","5","","",""
"revaluation","227","959662","0.0-4.0-4.0-0.3","spark_pilot_norest","10094","3","18","Male","","","false","","","","[529.1000000014901]","./assets/img/ocean/animals/octopus.jpg","[""ArrowLeft""]","revaluation","ocean","23","{""ArrowUp,ArrowLeft"":23,""ArrowUp,ArrowRight"":10,""ArrowDown,ArrowLeft"":8,""ArrowDown,ArrowRight"":30}","true","ArrowUp,ArrowLeft","","original","1","6","","",""
"html-keyboard-response","228","960176","0.0-4.0-4.0-1.3","spark_pilot_norest","10094","3","18","Male","","","","","","","null","<div style=""font-size:60px;"">+</div>","null","fixation","","","","","","","","","7","","",""
"revaluation","229","964205","0.0-4.0-4.0-0.4","spark_pilot_norest","10094","3","18","Male","","","false","","","","[363]","./assets/img/ocean/animals/seahorse.jpg","[""ArrowRight""]","revaluation","ocean","30","{""ArrowUp,ArrowLeft"":23,""ArrowUp,ArrowRight"":10,""ArrowDown,ArrowLeft"":8,""ArrowDown,ArrowRight"":30}","true","ArrowDown,ArrowRight","","original","1","8","","",""
"html-keyboard-response","230","964719","0.0-4.0-4.0-1.4","spark_pilot_norest","10094","3","18","Male","","","","","","","null","<div style=""font-size:60px;"">+</div>","null","fixation","","","","","","","","","9","","",""
"revaluation","231","968746","0.0-4.0-4.0-0.5","spark_pilot_norest","10094","3","18","Male","","","false","","","","[492.20000000298023]","./assets/img/ocean/animals/octopus.jpg","[""ArrowLeft""]","revaluation","ocean","23","{""ArrowUp,ArrowLeft"":23,""ArrowUp,ArrowRight"":10,""ArrowDown,ArrowLeft"":8,""ArrowDown,ArrowRight"":30}","true","ArrowUp,ArrowLeft","","original","1","10","","",""
"html-keyboard-response","232","969248","0.0-4.0-4.0-1.5","spark_pilot_norest","10094","3","18","Male","","","","","","","null","<div style=""font-size:60px;"">+</div>","null","fixation","","","","","","","","","11","","",""
"revaluation","233","973253","0.0-4.0-4.0-0.6","spark_pilot_norest","10094","3","18","Male","","","false","","","","[644.1000000014901]","./assets/img/ocean/animals/seahorse.jpg","[""ArrowRight""]","revaluation","ocean","30","{""ArrowUp,ArrowLeft"":23,""ArrowUp,ArrowRight"":10,""ArrowDown,ArrowLeft"":8,""ArrowDown,ArrowRight"":30}","true","ArrowDown,ArrowRight","","original","1","12","","",""
"html-keyboard-response","234","973755","0.0-4.0-4.0-1.6","spark_pilot_norest","10094","3","18","Male","","","","","","","null","<div style=""font-size:60px;"">+</div>","null","fixation","","","","","","","","","13","","",""
"revaluation","235","977760","0.0-4.0-4.0-0.7","spark_pilot_norest","10094","3","18","Male","","","false","","","","[656.5]","./assets/img/ocean/animals/octopus.jpg","[""ArrowLeft""]","revaluation","ocean","23","{""ArrowUp,ArrowLeft"":23,""ArrowUp,ArrowRight"":10,""ArrowDown,ArrowLeft"":8,""ArrowDown,ArrowRight"":30}","true","ArrowUp,ArrowLeft","","original","1","14","","",""
"html-keyboard-response","236","978262","0.0-4.0-4.0-1.7","spark_pilot_norest","10094","3","18","Male","","","","","","","null","<div style=""font-size:60px;"">+</div>","null","fixation","","","","","","","","","15","","",""
"revaluation","237","982266","0.0-4.0-4.0-0.8","spark_pilot_norest","10094","3","18","Male","","","false","","","","[663.3000000007451]","./assets/img/ocean/animals/octopus.jpg","[""ArrowLeft""]","revaluation","ocean","23","{""ArrowUp,ArrowLeft"":23,""ArrowUp,ArrowRight"":10,""ArrowDown,ArrowLeft"":8,""ArrowDown,ArrowRight"":30}","true","ArrowUp,ArrowLeft","","original","1","16","","",""
"html-keyboard-response","238","982768","0.0-4.0-4.0-1.8","spark_pilot_norest","10094","3","18","Male","","","","","","","null","<div style=""font-size:60px;"">+</div>","null","fixation","","","","","","","","","17","","",""
"revaluation","239","986774","0.0-4.0-4.0-0.9","spark_pilot_norest","10094","3","18","Male","","","false","","","","[468.1000000014901]","./assets/img/ocean/animals/octopus.jpg","[""ArrowLeft""]","revaluation","ocean","23","{""ArrowUp,ArrowLeft"":23,""ArrowUp,ArrowRight"":10,""ArrowDown,ArrowLeft"":8,""ArrowDown,ArrowRight"":30}","true","ArrowUp,ArrowLeft","","original","1","18","","",""
"html-keyboard-response","240","987276","0.0-4.0-4.0-1.9","spark_pilot_norest","10094","3","18","Male","","","","","","","null","<div style=""font-size:60px;"">+</div>","null","fixation","","","","","","","","","19","","",""
"revaluation","241","991284","0.0-4.0-4.0-0.10","spark_pilot_norest","10094","3","18","Male","","","false","","","","[431.69999999925494]","./assets/img/ocean/animals/seahorse.jpg","[""ArrowRight""]","revaluation","ocean","30","{""ArrowUp,ArrowLeft"":23,""ArrowUp,ArrowRight"":10,""ArrowDown,ArrowLeft"":8,""ArrowDown,ArrowRight"":30}","true","ArrowDown,ArrowRight","","original","1","20","","",""
"html-keyboard-response","242","991785","0.0-4.0-4.0-1.10","spark_pilot_norest","10094","3","18","Male","","","","","","","null","<div style=""font-size:60px;"">+</div>","null","fixation","","","","","","","","","21","","",""
"revaluation","243","995793","0.0-4.0-4.0-0.11","spark_pilot_norest","10094","3","18","Male","","","false","","","","[578.1999999992549]","./assets/img/ocean/animals/octopus.jpg","[""ArrowLeft""]","revaluation","ocean","23","{""ArrowUp,ArrowLeft"":23,""ArrowUp,ArrowRight"":10,""ArrowDown,ArrowLeft"":8,""ArrowDown,ArrowRight"":30}","true","ArrowUp,ArrowLeft","","original","1","22","","",""
"html-keyboard-response","244","996295","0.0-4.0-4.0-1.11","spark_pilot_norest","10094","3","18","Male","","","","","","","null","<div style=""font-size:60px;"">+</div>","null","fixation","","","","","","","","","23","","",""
"revaluation","245","1000300","0.0-4.0-4.0-0.12","spark_pilot_norest","10094","3","18","Male","","","false","","","","[540.5999999977648]","./assets/img/ocean/animals/seahorse.jpg","[""ArrowRight""]","revaluation","ocean","30","{""ArrowUp,ArrowLeft"":23,""ArrowUp,ArrowRight"":10,""ArrowDown,ArrowLeft"":8,""ArrowDown,ArrowRight"":30}","true","ArrowDown,ArrowRight","","original","1","24","","",""
"html-keyboard-response","246","1000802","0.0-4.0-4.0-1.12","spark_pilot_norest","10094","3","18","Male","","","","","","","null","<div style=""font-size:60px;"">+</div>","null","fixation","","","","","","","","","25","","",""
"revaluation","247","1004807","0.0-4.0-4.0-0.13","spark_pilot_norest","10094","3","18","Male","","","false","","","","[560.3999999985099]","./assets/img/ocean/animals/octopus.jpg","[""ArrowLeft""]","revaluation","ocean","23","{""ArrowUp,ArrowLeft"":23,""ArrowUp,ArrowRight"":10,""ArrowDown,ArrowLeft"":8,""ArrowDown,ArrowRight"":30}","true","ArrowUp,ArrowLeft","","original","1","26","","",""
"html-keyboard-response","248","1005309","0.0-4.0-4.0-1.13","spark_pilot_norest","10094","3","18","Male","","","","","","","null","<div style=""font-size:60px;"">+</div>","null","fixation","","","","","","","","","27","","",""
"revaluation","249","1009315","0.0-4.0-4.0-0.14","spark_pilot_norest","10094","3","18","Male","","","false","","","","[486.0999999977648]","./assets/img/ocean/animals/seahorse.jpg","[""ArrowRight""]","revaluation","ocean","30","{""ArrowUp,ArrowLeft"":23,""ArrowUp,ArrowRight"":10,""ArrowDown,ArrowLeft"":8,""ArrowDown,ArrowRight"":30}","true","ArrowDown,ArrowRight","","original","1","28","","",""
"html-keyboard-response","250","1009817","0.0-4.0-4.0-1.14","spark_pilot_norest","10094","3","18","Male","","","","","","","null","<div style=""font-size:60px;"">+</div>","null","fixation","","","","","","","","","29","","",""
"revaluation","251","1013821","0.0-4.0-4.0-0.15","spark_pilot_norest","10094","3","18","Male","","","false","","","","[691.3999999985099]","./assets/img/ocean/animals/octopus.jpg","[""ArrowLeft""]","revaluation","ocean","23","{""ArrowUp,ArrowLeft"":23,""ArrowUp,ArrowRight"":10,""ArrowDown,ArrowLeft"":8,""ArrowDown,ArrowRight"":30}","true","ArrowUp,ArrowLeft","","original","1","30","","",""
"html-keyboard-response","252","1014327","0.0-4.0-4.0-1.15","spark_pilot_norest","10094","3","18","Male","","","","","","","null","<div style=""font-size:60px;"">+</div>","null","fixation","","","","","","","","","31","","",""
"revaluation","253","1018332","0.0-4.0-4.0-0.16","spark_pilot_norest","10094","3","18","Male","","","false","","","","[556.5999999977648]","./assets/img/ocean/animals/seahorse.jpg","[""ArrowRight""]","revaluation","ocean","30","{""ArrowUp,ArrowLeft"":23,""ArrowUp,ArrowRight"":10,""ArrowDown,ArrowLeft"":8,""ArrowDown,ArrowRight"":30}","true","ArrowDown,ArrowRight","","original","1","32","","",""
"html-keyboard-response","254","1018835","0.0-4.0-4.0-1.16","spark_pilot_norest","10094","3","18","Male","","","","","","","null","<div style=""font-size:60px;"">+</div>","null","fixation","","","","","","","","","33","","",""
"revaluation","255","1022840","0.0-4.0-4.0-0.17","spark_pilot_norest","10094","3","18","Male","","","false","","","","[431.4000000022352]","./assets/img/ocean/animals/seahorse.jpg","[""ArrowRight""]","revaluation","ocean","30","{""ArrowUp,ArrowLeft"":23,""ArrowUp,ArrowRight"":10,""ArrowDown,ArrowLeft"":8,""ArrowDown,ArrowRight"":30}","true","ArrowDown,ArrowRight","","original","1","34","","",""
"html-keyboard-response","256","1023343","0.0-4.0-4.0-1.17","spark_pilot_norest","10094","3","18","Male","","","","","","","null","<div style=""font-size:60px;"">+</div>","null","fixation","","","","","","","","","35","","",""
"learning-instructions","257","1031499","0.0-4.0-5.0-0.0","spark_pilot_norest","10094","3","18","Male","","","","","","","null","<p> You have almost finished this part of the game! </p>
            <p> We are going to ask you to make a few more choices. </p>","","instructions","","","","","","","","","","","",""
"learning-instructions","258","1047465","0.0-4.0-5.0-0.1","spark_pilot_norest","10094","3","18","Male","","","","","","","null","<p> First, you need to decide whether to go up or down. When you see each picture, use the arrow keys to make your choice. </p>
            <p><b>You will not see which animal you found, but try to get to the one that will give you the most treasure.</b></p>","","instructions","","","","","","","","","","","",""
"html-keyboard-response","259","1048480","0.0-4.0-6.0-0.0","spark_pilot_norest","10094","3","18","Male","","","","","","","null","<div style=""font-size:100px;color:red;"">Starting in...</div>","null","","","","","","","","","","","","",""
"html-keyboard-response","260","1049491","0.0-4.0-6.0-1.0","spark_pilot_norest","10094","3","18","Male","","","","","","","null","<div style=""font-size:200px;color:red;"">3</div>","null","","","","","","","","","","","","",""
"html-keyboard-response","261","1050493","0.0-4.0-6.0-2.0","spark_pilot_norest","10094","3","18","Male","","","","","","","null","<div style=""font-size:200px;color:red;"">2</div>","null","","","","","","","","","","","","",""
"html-keyboard-response","262","1051503","0.0-4.0-6.0-3.0","spark_pilot_norest","10094","3","18","Male","","","","","","","null","<div style=""font-size:200px;color:red;"">1</div>","null","","","","","","","","","","","","",""
"revaluation","263","1052342","0.0-4.0-7.0-0.0","spark_pilot_norest","10094","3","18","Male","","","false","","","","[835]","./assets/img/ocean/test/2.jpg","[""ArrowDown""]","first stage test","ocean","0","{""ArrowUp,ArrowLeft"":23,""ArrowUp,ArrowRight"":10,""ArrowDown,ArrowLeft"":8,""ArrowDown,ArrowRight"":30}","true","ArrowDown","false","original","1","","","",""
"html-keyboard-response","264","1052858","0.0-4.0-7.0-1.0","spark_pilot_norest","10094","3","18","Male","","","","","","","null","<div style=""font-size:60px;"">+</div>","null","fixation","","","","","","","","","","","",""
"revaluation","265","1054686","0.0-4.0-7.0-0.1","spark_pilot_norest","10094","3","18","Male","","","false","","","","[1823.8999999985099]","./assets/img/ocean/test/1.jpg","[""ArrowDown""]","first stage test","ocean","0","{""ArrowUp,ArrowLeft"":23,""ArrowUp,ArrowRight"":10,""ArrowDown,ArrowLeft"":8,""ArrowDown,ArrowRight"":30}","true","ArrowDown","false","original","1","","","",""
"html-keyboard-response","266","1055192","0.0-4.0-7.0-1.1","spark_pilot_norest","10094","3","18","Male","","","","","","","null","<div style=""font-size:60px;"">+</div>","null","fixation","","","","","","","","","","","",""
"revaluation","267","1056279","0.0-4.0-7.0-0.2","spark_pilot_norest","10094","3","18","Male","","","false","","","","[1085.1000000014901]","./assets/img/ocean/test/0.jpg","[""ArrowDown""]","first stage test","ocean","0","{""ArrowUp,ArrowLeft"":23,""ArrowUp,ArrowRight"":10,""ArrowDown,ArrowLeft"":8,""ArrowDown,ArrowRight"":30}","true","ArrowDown","false","original","1","","","",""
"html-keyboard-response","268","1056785","0.0-4.0-7.0-1.2","spark_pilot_norest","10094","3","18","Male","","","","","","","null","<div style=""font-size:60px;"">+</div>","null","fixation","","","","","","","","","","","",""
"revaluation","269","1057671","0.0-4.0-7.0-0.3","spark_pilot_norest","10094","3","18","Male","","","false","","","","[881.8000000007451]","./assets/img/ocean/test/3.jpg","[""ArrowDown""]","first stage test","ocean","0","{""ArrowUp,ArrowLeft"":23,""ArrowUp,ArrowRight"":10,""ArrowDown,ArrowLeft"":8,""ArrowDown,ArrowRight"":30}","true","ArrowDown","false","original","1","","","",""
"html-keyboard-response","270","1058187","0.0-4.0-7.0-1.3","spark_pilot_norest","10094","3","18","Male","","","","","","","null","<div style=""font-size:60px;"">+</div>","null","fixation","","","","","","","","","","","",""
"learning-instructions","271","1071536","0.0-4.0-8.0-0.0","spark_pilot_norest","10094","3","18","Male","","","","","","","null","<p> Now you will see the animals again and can search their chests for treasure. </p>
            <p> This time, you will not see how much treasure you earned, but you will earn more bonus money for making better choices. </p>","","instructions","","","","","","","","","","","",""
"html-keyboard-response","272","1072551","0.0-4.0-9.0-0.0","spark_pilot_norest","10094","3","18","Male","","","","","","","null","<div style=""font-size:100px;color:red;"">Starting in...</div>","null","","","","","","","","","","","","",""
"html-keyboard-response","273","1073564","0.0-4.0-9.0-1.0","spark_pilot_norest","10094","3","18","Male","","","","","","","null","<div style=""font-size:200px;color:red;"">3</div>","null","","","","","","","","","","","","",""
"html-keyboard-response","274","1074576","0.0-4.0-9.0-2.0","spark_pilot_norest","10094","3","18","Male","","","","","","","null","<div style=""font-size:200px;color:red;"">2</div>","null","","","","","","","","","","","","",""
"html-keyboard-response","275","1075578","0.0-4.0-9.0-3.0","spark_pilot_norest","10094","3","18","Male","","","","","","","null","<div style=""font-size:200px;color:red;"">1</div>","null","","","","","","","","","","","","",""
"revaluation","276","1076407","0.0-4.0-10.0-0.0","spark_pilot_norest","10094","3","18","Male","","","false","","","","[824.8999999985099]","./assets/img/ocean/animals/octopus.jpg","[""ArrowLeft""]","second stage test","ocean","0","{""ArrowUp,ArrowLeft"":23,""ArrowUp,ArrowRight"":10,""ArrowDown,ArrowLeft"":8,""ArrowDown,ArrowRight"":30}","true","ArrowUp,ArrowLeft","","original","1","","","",""
"html-keyboard-response","277","1076921","0.0-4.0-10.0-1.0","spark_pilot_norest","10094","3","18","Male","","","","","","","null","<div style=""font-size:60px;"">+</div>","null","fixation","","","","","","","","","","","",""
"revaluation","278","1077287","0.0-4.0-10.0-0.1","spark_pilot_norest","10094","3","18","Male","","","false","","","","[362.6000000014901]","./assets/img/ocean/animals/octopus.jpg","[""ArrowRight""]","second stage test","ocean","0","{""ArrowUp,ArrowLeft"":23,""ArrowUp,ArrowRight"":10,""ArrowDown,ArrowLeft"":8,""ArrowDown,ArrowRight"":30}","false","ArrowUp,ArrowRight","","original","1","","","",""
"html-keyboard-response","279","1077794","0.0-4.0-10.0-1.1","spark_pilot_norest","10094","3","18","Male","","","","","","","null","<div style=""font-size:60px;"">+</div>","null","fixation","","","","","","","","","","","",""
"revaluation","280","1078246","0.0-4.0-10.0-0.2","spark_pilot_norest","10094","3","18","Male","","","false","","","","[448.80000000074506]","./assets/img/ocean/animals/octopus.jpg","[""ArrowLeft""]","second stage test","ocean","0","{""ArrowUp,ArrowLeft"":23,""ArrowUp,ArrowRight"":10,""ArrowDown,ArrowLeft"":8,""ArrowDown,ArrowRight"":30}","true","ArrowUp,ArrowLeft","","original","1","","","",""
"html-keyboard-response","281","1078762","0.0-4.0-10.0-1.2","spark_pilot_norest","10094","3","18","Male","","","","","","","null","<div style=""font-size:60px;"">+</div>","null","fixation","","","","","","","","","","","",""
"revaluation","282","1079119","0.0-4.0-10.0-0.3","spark_pilot_norest","10094","3","18","Male","","","false","","","","[353]","./assets/img/ocean/animals/octopus.jpg","[""ArrowLeft""]","second stage test","ocean","0","{""ArrowUp,ArrowLeft"":23,""ArrowUp,ArrowRight"":10,""ArrowDown,ArrowLeft"":8,""ArrowDown,ArrowRight"":30}","true","ArrowUp,ArrowLeft","","original","1","","","",""
"html-keyboard-response","283","1079621","0.0-4.0-10.0-1.3","spark_pilot_norest","10094","3","18","Male","","","","","","","null","<div style=""font-size:60px;"">+</div>","null","fixation","","","","","","","","","","","",""
"revaluation","284","1080327","0.0-4.0-10.0-0.4","spark_pilot_norest","10094","3","18","Male","","","false","","","","[701.8000000007451]","./assets/img/ocean/animals/seahorse.jpg","[""ArrowRight""]","second stage test","ocean","0","{""ArrowUp,ArrowLeft"":23,""ArrowUp,ArrowRight"":10,""ArrowDown,ArrowLeft"":8,""ArrowDown,ArrowRight"":30}","true","ArrowDown,ArrowRight","","original","1","","","",""
"html-keyboard-response","285","1080838","0.0-4.0-10.0-1.4","spark_pilot_norest","10094","3","18","Male","","","","","","","null","<div style=""font-size:60px;"">+</div>","null","fixation","","","","","","","","","","","",""
"revaluation","286","1081279","0.0-4.0-10.0-0.5","spark_pilot_norest","10094","3","18","Male","","","false","","","","[437.5]","./assets/img/ocean/animals/seahorse.jpg","[""ArrowRight""]","second stage test","ocean","0","{""ArrowUp,ArrowLeft"":23,""ArrowUp,ArrowRight"":10,""ArrowDown,ArrowLeft"":8,""ArrowDown,ArrowRight"":30}","true","ArrowDown,ArrowRight","","original","1","","","",""
"html-keyboard-response","287","1081786","0.0-4.0-10.0-1.5","spark_pilot_norest","10094","3","18","Male","","","","","","","null","<div style=""font-size:60px;"">+</div>","null","fixation","","","","","","","","","","","",""
"revaluation","288","1082199","0.0-4.0-10.0-0.6","spark_pilot_norest","10094","3","18","Male","","","false","","","","[408.69999999925494]","./assets/img/ocean/animals/seahorse.jpg","[""ArrowRight""]","second stage test","ocean","0","{""ArrowUp,ArrowLeft"":23,""ArrowUp,ArrowRight"":10,""ArrowDown,ArrowLeft"":8,""ArrowDown,ArrowRight"":30}","true","ArrowDown,ArrowRight","","original","1","","","",""
"html-keyboard-response","289","1082708","0.0-4.0-10.0-1.6","spark_pilot_norest","10094","3","18","Male","","","","","","","null","<div style=""font-size:60px;"">+</div>","null","fixation","","","","","","","","","","","",""
"revaluation","290","1083143","0.0-4.0-10.0-0.7","spark_pilot_norest","10094","3","18","Male","","","false","","","","[430.8999999985099]","./assets/img/ocean/animals/seahorse.jpg","[""ArrowRight""]","second stage test","ocean","0","{""ArrowUp,ArrowLeft"":23,""ArrowUp,ArrowRight"":10,""ArrowDown,ArrowLeft"":8,""ArrowDown,ArrowRight"":30}","true","ArrowDown,ArrowRight","","original","1","","","",""
"html-keyboard-response","291","1083645","0.0-4.0-10.0-1.7","spark_pilot_norest","10094","3","18","Male","","","","","","","null","<div style=""font-size:60px;"">+</div>","null","fixation","","","","","","","","","","","",""
"learning-instructions","292","1088846","0.0-4.0-0.1-0.2","spark_pilot_norest","10094","3","18","Male","","","","","","","2433.5","<p> This time you are searching for treasure in the <b>canyon</b>.</p>","","instructions","","","","","","","","","","","",""
"learning-instructions","293","1107046","0.0-4.0-0.1-0.3","spark_pilot_norest","10094","3","18","Male","","","","","","","954.6999999992549","<p><b>New</b> animals with <b>new</b> treasure chests live here. You need to explore to discover where the animal with the best treasure chest is.</p>
                    <p> Like before, once you figure out which animal has the chest with the most treasure, you should try to get to that animal and select that chest! </p>","","instructions","","","","","","","","","","","",""
"learning-instructions","294","1122878","0.0-4.0-1.1-0.1","spark_pilot_norest","10094","3","18","Male","","","","","","","1106.300000000745","<p> Remember, when you see a picture of the place, use the up and down keys to <b>find an animal</b>.</p>
            <p> When you encounter an animal, you should use the left and right keys to <b>select a treasure chest</b>.</p>
            <p> Don't forget to look out for the robber! </p>","","instructions","","","","","","","","","","","",""
"revaluation","295","1128907","0.0-4.0-2.1-0.50","spark_pilot_norest","10094","3","18","Male","","","false","","","","[839.5,437.5999999977648]","./assets/img/canyon/memory/14.jpg","[""ArrowUp"",""ArrowRight""]","value training","canyon","10","{""ArrowUp,ArrowLeft"":26,""ArrowUp,ArrowRight"":10,""ArrowDown,ArrowLeft"":5,""ArrowDown,ArrowRight"":17}","false","ArrowUp,ArrowRight","false","revaluation","2","0","","",""
"html-keyboard-response","296","1129421","0.0-4.0-2.1-1.50","spark_pilot_norest","10094","3","18","Male","","","","","","","null","<div style=""font-size:60px;"">+</div>","null","fixation","","","","","","","","","1","","",""
"revaluation","297","1135454","0.0-4.0-2.1-0.51","spark_pilot_norest","10094","3","18","Male","","","false","","","","[429.69999999925494,179.10000000149012]","./assets/img/canyon/memory/15.jpg","[""ArrowUp"",""ArrowLeft""]","value training","canyon","26","{""ArrowUp,ArrowLeft"":26,""ArrowUp,ArrowRight"":10,""ArrowDown,ArrowLeft"":5,""ArrowDown,ArrowRight"":17}","true","ArrowUp,ArrowLeft","false","revaluation","2","2","","",""
"html-keyboard-response","298","1135969","0.0-4.0-2.1-1.51","spark_pilot_norest","10094","3","18","Male","","","","","","","null","<div style=""font-size:60px;"">+</div>","null","fixation","","","","","","","","","3","","",""
"revaluation","299","1139989","0.0-4.0-2.1-0.52","spark_pilot_norest","10094","3","18","Male","","","false","","","","[258.19999999925494]","./assets/img/canyon/catch/7.jpg","[""ArrowDown""]","value training","canyon","-10","{""ArrowUp,ArrowLeft"":26,""ArrowUp,ArrowRight"":10,""ArrowDown,ArrowLeft"":5,""ArrowDown,ArrowRight"":17}","false","ArrowDown","true","revaluation","2","4","","",""
