"trial_type","trial_index","time_elapsed","internal_node_id","task_version","subject_id","assigned_condition","age","gender","success","timeout","failed_images","failed_audio","failed_video","browser_interaction","rt","stimulus","response","task_part","environment","score","rewardMap","correct","fullState","isCatch","condition","order","trial_num","key_press","ground_truth","bonus"
"pavlovia","0","1724","0.0-0.0","spark_pilot_norest","8587","8","11","Female","","","","","","","","","","","","","","","","","","","","","",""
"preload","1","15026","0.0-1.0","spark_pilot_norest","8587","8","11","Female","true","false","[]","[]","[]","[{""event"":""blur"",""trial"":2,""time"":17658},{""event"":""focus"",""trial"":2,""time"":19182},{""event"":""fullscreenenter"",""trial"":2,""time"":21059},{""event"":""blur"",""trial"":584,""time"":2005844},{""event"":""focus"",""trial"":584,""time"":2005847},{""event"":""fullscreenexit"",""trial"":584,""time"":2005847}]","","","","","","","","","","","","","","","",""
"fullscreen","2","22060","0.0-2.0","spark_pilot_norest","8587","8","11","Female","true","","","","","","","","","","","","","","","","","","","","",""
"audio-button-response","3","23583","0.0-3.0-0.0-0.0","spark_pilot_norest","8587","8","11","Female","","","","","","","1461","./assets/audio/audiotest/turtle.mp3","2","audio_test","","","","","","","","","","","",""
"learning-instructions","4","36000","0.0-3.0-1.0-0.0","spark_pilot_norest","8587","8","11","Female","","","","","","","5427.099999997765","<p> Welcome! Please remember to stay in fullscreen mode and don't click away from the experiment. </p>","","instructions","","","","","","","","","","","",""
"learning-instructions","5","49264","0.0-3.0-1.0-0.1","spark_pilot_norest","8587","8","11","Female","","","","","","","4840.800000000745","<p> Today you will be playing a game to earn treasure. </p>
            <p> At the end of the experiment, you will earn a bonus based on how much treasure you find. </p>
            <img src='./assets/img/instructions/treasure.jpg' class='instructions-image'>","","instructions","","","","","","","","","","","",""
"learning-instructions","6","267949","0.0-3.0-1.0-0.2","spark_pilot_norest","8587","8","11","Female","","","","","","","210415.59999999776","<p> Animals have hidden treasure in treasure chests. </p>
            <p> You need to first find an animal and then choose which of their treasure chests to search. </p>
            <img src='./assets/img/space/animals/cat.jpg' class='instructions-image'>","","instructions","","","","","","","","","","","",""
"learning-instructions","7","281576","0.0-3.0-1.0-0.3","spark_pilot_norest","8587","8","11","Female","","","","","","","448.80000000074506","<p> In each round, you will search for treasure in a different place. In the real game, there will be two rounds. </p>
            <p> You will begin with a separate, practice round where you will search for treasure in outer space. </p>
            <img src='./assets/img/space/0.jpg' class='instructions-image'>","","instructions","","","","","","","","","","","",""
"learning-instructions","8","293620","0.0-3.0-1.0-0.4","spark_pilot_norest","8587","8","11","Female","","","","","","","623.1000000014901","<p> On every turn, you will see a picture of the place that you are in, but the specific image may be different each time. </p>
            <p> For example, both of these images mean you are in outer space. </p>
            <img src='./assets/img/instructions/outerspace.jpg' class='instructions-image'>","","instructions","","","","","","","","","","","",""
"learning-instructions","9","301850","0.0-3.0-1.0-0.5","spark_pilot_norest","8587","8","11","Female","","","","","","","394.1000000014901","<p> You need to decide which direction to travel in. </p>
            <p> You can choose between going <b>up or down</b> by using the arrow keys. </p>
            <img src='./assets/img/instructions/updown.jpg' class='instructions-image'>","","instructions","","","","","","","","","","","",""
"learning-instructions","10","311089","0.0-3.0-1.0-0.6","spark_pilot_norest","8587","8","11","Female","","","","","","","417.19999999925494","<p> You will have <b>2 seconds</b> to make your choice. </p>
            <p> If you do not make a choice within 2 seconds, you will not find an animal or earn treasure. </p>
            <img src='./assets/img/instructions/2seconds.jpg' class='instructions-image'>","","instructions","","","","","","","","","","","",""
"learning-instructions","11","318525","0.0-3.0-1.0-0.7","spark_pilot_norest","8587","8","11","Female","","","","","","","386.80000000074506","<p> Let’s try practicing that now! </p>
            <p> When you see a picture of the place you are in, press the <b>up</b> key to travel up. </p>
            <img src='./assets/img/instructions/pressUp.jpg' class='instructions-image'>","","instructions","","","","","","","","","","","",""
"revaluation","12","322558","0.0-3.0-2.0-0.0","spark_pilot_norest","8587","8","11","Female","","false","","","","","[305]","./assets/img/space/0.jpg","[""ArrowUp""]","first stage practice","space","0","null","null","ArrowUp","false","","","","","",""
"html-keyboard-response","13","323061","0.0-3.0-2.0-1.0","spark_pilot_norest","8587","8","11","Female","","","","","","","null","<div style=""font-size:60px;"">+</div>","null","fixation","","","","","","","","","","","",""
"revaluation","14","327077","0.0-3.0-2.0-0.1","spark_pilot_norest","8587","8","11","Female","","false","","","","","[623.1999999992549]","./assets/img/space/1.jpg","[""ArrowUp""]","first stage practice","space","0","null","null","ArrowUp","false","","","","","",""
"html-keyboard-response","15","327581","0.0-3.0-2.0-1.1","spark_pilot_norest","8587","8","11","Female","","","","","","","null","<div style=""font-size:60px;"">+</div>","null","fixation","","","","","","","","","","","",""
"revaluation","16","331597","0.0-3.0-2.0-0.2","spark_pilot_norest","8587","8","11","Female","","false","","","","","[279.5]","./assets/img/space/2.jpg","[""ArrowUp""]","first stage practice","space","0","null","null","ArrowUp","false","","","","","",""
"html-keyboard-response","17","332100","0.0-3.0-2.0-1.2","spark_pilot_norest","8587","8","11","Female","","","","","","","null","<div style=""font-size:60px;"">+</div>","null","fixation","","","","","","","","","","","",""
"learning-instructions","18","338194","0.0-3.0-3.0-0.0","spark_pilot_norest","8587","8","11","Female","","","","","","","1389.3999999985099","<p> Great job! Now try pressing the <b>down</b> key to travel down. </p>
            <img src='./assets/img/instructions/pressDown.jpg' class='instructions-image'>","","instructions","","","","","","","","","","","",""
"revaluation","19","342205","0.0-3.0-4.0-0.0","spark_pilot_norest","8587","8","11","Female","","false","","","","","[292.9000000022352]","./assets/img/space/3.jpg","[""ArrowDown""]","first stage practice","space","0","null","null","ArrowDown","false","","","","","",""
"html-keyboard-response","20","342709","0.0-3.0-4.0-1.0","spark_pilot_norest","8587","8","11","Female","","","","","","","null","<div style=""font-size:60px;"">+</div>","null","fixation","","","","","","","","","","","",""
"revaluation","21","346725","0.0-3.0-4.0-0.1","spark_pilot_norest","8587","8","11","Female","","false","","","","","[310.4000000022352]","./assets/img/space/4.jpg","[""ArrowDown""]","first stage practice","space","0","null","null","ArrowDown","false","","","","","",""
"html-keyboard-response","22","347229","0.0-3.0-4.0-1.1","spark_pilot_norest","8587","8","11","Female","","","","","","","null","<div style=""font-size:60px;"">+</div>","null","fixation","","","","","","","","","","","",""
"revaluation","23","351245","0.0-3.0-4.0-0.2","spark_pilot_norest","8587","8","11","Female","","false","","","","","[284.3999999985099]","./assets/img/space/5.jpg","[""ArrowDown""]","first stage practice","space","0","null","null","ArrowDown","false","","","","","",""
"html-keyboard-response","24","351749","0.0-3.0-4.0-1.2","spark_pilot_norest","8587","8","11","Female","","","","","","","null","<div style=""font-size:60px;"">+</div>","null","fixation","","","","","","","","","","","",""
"learning-instructions","25","363291","0.0-3.0-5.0-0.0","spark_pilot_norest","8587","8","11","Female","","","","","","","1676.4000000022352","<p> The animals don’t move, so the animal in the upper part of a place will stay in the upper part of a place, and the animal in the lower part of a place will stay in the lower part of a place. </p>","","instructions","","","","","","","","","","","",""
"learning-instructions","26","372882","0.0-3.0-5.0-0.1","spark_pilot_norest","8587","8","11","Female","","","","","","","450.69999999925494","<p> Each animal has two treasure chests for you to choose from. </p>
            <p> The amount of treasure in each chest can range from <b> 0 to 40 pieces.</b></p>","","instructions","","","","","","","","","","","",""
"learning-instructions","27","384447","0.0-3.0-5.0-0.2","spark_pilot_norest","8587","8","11","Female","","","","","","","357","<p> You should decide which chest to search for treasure by using the <b>left</b> and <b>right</b> arrow keys. </p>
            <p><b> Pay attention to which animal is on the screen, as the animals have different treasure chests. </b></p>
            <img src='./assets/img/instructions/leftright.jpg' class='instructions-image'>","","instructions","","","","","","","","","","","",""
"learning-instructions","28","391931","0.0-3.0-5.0-0.3","spark_pilot_norest","8587","8","11","Female","","","","","","","1098.9000000022352","<p> Let’s try practicing that now. </p>
            <p> When you see an animal, choose which chest to search for treasure. </p>
            <img src='./assets/img/instructions/chooseChest.jpg' class='instructions-image'>","","instructions","","","","","","","","","","","",""
"revaluation","29","395950","0.0-3.0-6.0-0.0","spark_pilot_norest","8587","8","11","Female","","false","","","","","[378.80000000074506]","./assets/img/space/animals/rabbit.jpg","[""ArrowRight""]","second stage practice","space","23","{""ArrowUp,ArrowLeft"":3,""ArrowUp,ArrowRight"":36,""ArrowDown,ArrowLeft"":15,""ArrowDown,ArrowRight"":23}","true","ArrowDown,ArrowRight","","","","","","",""
"html-keyboard-response","30","396452","0.0-3.0-6.0-1.0","spark_pilot_norest","8587","8","11","Female","","","","","","","null","<div style=""font-size:60px;"">+</div>","null","fixation","","","","","","","","","","","",""
"revaluation","31","400469","0.0-3.0-6.0-0.1","spark_pilot_norest","8587","8","11","Female","","false","","","","","[274.1000000014901]","./assets/img/space/animals/cat.jpg","[""ArrowLeft""]","second stage practice","space","3","{""ArrowUp,ArrowLeft"":3,""ArrowUp,ArrowRight"":36,""ArrowDown,ArrowLeft"":15,""ArrowDown,ArrowRight"":23}","false","ArrowUp,ArrowLeft","","","","","","",""
"html-keyboard-response","32","400973","0.0-3.0-6.0-1.1","spark_pilot_norest","8587","8","11","Female","","","","","","","null","<div style=""font-size:60px;"">+</div>","null","fixation","","","","","","","","","","","",""
"revaluation","33","404989","0.0-3.0-6.0-0.2","spark_pilot_norest","8587","8","11","Female","","false","","","","","[970.1000000014901]","./assets/img/space/animals/rabbit.jpg","[""ArrowLeft""]","second stage practice","space","15","{""ArrowUp,ArrowLeft"":3,""ArrowUp,ArrowRight"":36,""ArrowDown,ArrowLeft"":15,""ArrowDown,ArrowRight"":23}","false","ArrowDown,ArrowLeft","","","","","","",""
"html-keyboard-response","34","405493","0.0-3.0-6.0-1.2","spark_pilot_norest","8587","8","11","Female","","","","","","","null","<div style=""font-size:60px;"">+</div>","null","fixation","","","","","","","","","","","",""
"revaluation","35","409509","0.0-3.0-6.0-0.3","spark_pilot_norest","8587","8","11","Female","","false","","","","","[786.6999999992549]","./assets/img/space/animals/cat.jpg","[""ArrowRight""]","second stage practice","space","36","{""ArrowUp,ArrowLeft"":3,""ArrowUp,ArrowRight"":36,""ArrowDown,ArrowLeft"":15,""ArrowDown,ArrowRight"":23}","true","ArrowUp,ArrowRight","","","","","","",""
"html-keyboard-response","36","410012","0.0-3.0-6.0-1.3","spark_pilot_norest","8587","8","11","Female","","","","","","","null","<div style=""font-size:60px;"">+</div>","null","fixation","","","","","","","","","","","",""
"learning-instructions","37","427675","0.0-3.0-7.0-0.0","spark_pilot_norest","8587","8","11","Female","","","","","","","832.3999999985099","<p> Great job. Now let’s try putting it together. </p>
            <p> On each turn, you will first see a picture to remind you of the place you are in, and you need to choose whether to go up or down. </p>
            <p> Then you will see an animal and choose which of its chests to search for treasure. </p>","","instructions","","","","","","","","","","","",""
"learning-instructions","38","436728","0.0-3.0-7.0-0.1","spark_pilot_norest","8587","8","11","Female","","","","","","","787.1999999992549","<p> When you choose whether to go up or down, try to go to the animal with the chest with the most treasure. </p>
            <p> Try practicing that now! </p>","","instructions","","","","","","","","","","","",""
"revaluation","39","442749","0.0-3.0-8.0-0.0","spark_pilot_norest","8587","8","11","Female","","false","","","","","[605.1999999992549,394.80000000074506]","./assets/img/space/6.jpg","[""ArrowUp"",""ArrowRight""]","full practice","space","36","{""ArrowUp,ArrowLeft"":3,""ArrowUp,ArrowRight"":36,""ArrowDown,ArrowLeft"":15,""ArrowDown,ArrowRight"":23}","true","ArrowUp,ArrowRight","false","","","","","",""
"html-keyboard-response","40","443253","0.0-3.0-8.0-1.0","spark_pilot_norest","8587","8","11","Female","","","","","","","null","<div style=""font-size:60px;"">+</div>","null","fixation","","","","","","","","","","","",""
"revaluation","41","449277","0.0-3.0-8.0-0.1","spark_pilot_norest","8587","8","11","Female","","false","","","","","[779.1000000014901,585]","./assets/img/space/7.jpg","[""ArrowUp"",""ArrowRight""]","full practice","space","36","{""ArrowUp,ArrowLeft"":3,""ArrowUp,ArrowRight"":36,""ArrowDown,ArrowLeft"":15,""ArrowDown,ArrowRight"":23}","true","ArrowUp,ArrowRight","false","","","","","",""
"html-keyboard-response","42","449781","0.0-3.0-8.0-1.1","spark_pilot_norest","8587","8","11","Female","","","","","","","null","<div style=""font-size:60px;"">+</div>","null","fixation","","","","","","","","","","","",""
"revaluation","43","455813","0.0-3.0-8.0-0.2","spark_pilot_norest","8587","8","11","Female","","false","","","","","[496.80000000074506,678.8000000007451]","./assets/img/space/8.jpg","[""ArrowUp"",""ArrowRight""]","full practice","space","36","{""ArrowUp,ArrowLeft"":3,""ArrowUp,ArrowRight"":36,""ArrowDown,ArrowLeft"":15,""ArrowDown,ArrowRight"":23}","true","ArrowUp,ArrowRight","false","","","","","",""
"html-keyboard-response","44","456316","0.0-3.0-8.0-1.2","spark_pilot_norest","8587","8","11","Female","","","","","","","null","<div style=""font-size:60px;"">+</div>","null","fixation","","","","","","","","","","","",""
"revaluation","45","462341","0.0-3.0-8.0-0.3","spark_pilot_norest","8587","8","11","Female","","false","","","","","[449.5,442.19999999925494]","./assets/img/space/9.jpg","[""ArrowUp"",""ArrowRight""]","full practice","space","36","{""ArrowUp,ArrowLeft"":3,""ArrowUp,ArrowRight"":36,""ArrowDown,ArrowLeft"":15,""ArrowDown,ArrowRight"":23}","true","ArrowUp,ArrowRight","false","","","","","",""
"html-keyboard-response","46","462845","0.0-3.0-8.0-1.3","spark_pilot_norest","8587","8","11","Female","","","","","","","null","<div style=""font-size:60px;"">+</div>","null","fixation","","","","","","","","","","","",""
"revaluation","47","468869","0.0-3.0-8.0-0.4","spark_pilot_norest","8587","8","11","Female","","false","","","","","[483.29999999701977,470.9000000022352]","./assets/img/space/10.jpg","[""ArrowUp"",""ArrowRight""]","full practice","space","36","{""ArrowUp,ArrowLeft"":3,""ArrowUp,ArrowRight"":36,""ArrowDown,ArrowLeft"":15,""ArrowDown,ArrowRight"":23}","true","ArrowUp,ArrowRight","false","","","","","",""
"html-keyboard-response","48","469373","0.0-3.0-8.0-1.4","spark_pilot_norest","8587","8","11","Female","","","","","","","null","<div style=""font-size:60px;"">+</div>","null","fixation","","","","","","","","","","","",""
"learning-instructions","49","481163","0.0-3.0-9.0-0.0","spark_pilot_norest","8587","8","11","Female","","","","","","","1484.7000000029802","<p> One last thing: sometimes, you will see a robber. The robber can be anywhere in the picture. </p>
            <p> If you do not stop them, you will lose treasure. </p>
            <img src='./assets/img/instructions/robber.jpg' class='instructions-image'>","","instructions","","","","","","","","","","","",""
"learning-instructions","50","488842","0.0-3.0-9.0-0.1","spark_pilot_norest","8587","8","11","Female","","","","","","","492.29999999701977","<p> If you see the robber, you should <b>press the space bar</b> rather than using the arrow keys. </p>
            <p> Try practicing that now! </p>","","instructions","","","","","","","","","","","",""
"revaluation","51","492862","0.0-3.0-10.0-0.0","spark_pilot_norest","8587","8","11","Female","","false","","","","","[548.8999999985099]","./assets/img/space/catch/0.jpg","[""spaceBar""]","catch practice","space","0","{""ArrowUp,ArrowLeft"":3,""ArrowUp,ArrowRight"":36,""ArrowDown,ArrowLeft"":15,""ArrowDown,ArrowRight"":23}","true","spaceBar","true","","","","","",""
"html-keyboard-response","52","493364","0.0-3.0-10.0-1.0","spark_pilot_norest","8587","8","11","Female","","","","","","","null","<div style=""font-size:60px;"">+</div>","null","fixation","","","","","","","","","","","",""
"revaluation","53","497381","0.0-3.0-10.0-0.1","spark_pilot_norest","8587","8","11","Female","","false","","","","","[629.8999999985099]","./assets/img/space/catch/1.jpg","[""spaceBar""]","catch practice","space","0","{""ArrowUp,ArrowLeft"":3,""ArrowUp,ArrowRight"":36,""ArrowDown,ArrowLeft"":15,""ArrowDown,ArrowRight"":23}","true","spaceBar","true","","","","","",""
"html-keyboard-response","54","497885","0.0-3.0-10.0-1.1","spark_pilot_norest","8587","8","11","Female","","","","","","","null","<div style=""font-size:60px;"">+</div>","null","fixation","","","","","","","","","","","",""
"revaluation","55","501901","0.0-3.0-10.0-0.2","spark_pilot_norest","8587","8","11","Female","","false","","","","","[299.0999999977648]","./assets/img/space/catch/2.jpg","[""spaceBar""]","catch practice","space","0","{""ArrowUp,ArrowLeft"":3,""ArrowUp,ArrowRight"":36,""ArrowDown,ArrowLeft"":15,""ArrowDown,ArrowRight"":23}","true","spaceBar","true","","","","","",""
"html-keyboard-response","56","502405","0.0-3.0-10.0-1.2","spark_pilot_norest","8587","8","11","Female","","","","","","","null","<div style=""font-size:60px;"">+</div>","null","fixation","","","","","","","","","","","",""
"learning-instructions","57","511322","0.0-3.0-11.0-0.0-0.0","spark_pilot_norest","8587","8","11","Female","","","","","","","3644.199999999255","<p> Now, you will practice a shortened version of the game to get a sense of how it all fits together. </p>","","instructions","","","","","","","","","","","",""
"learning-instructions","58","515284","0.0-3.0-11.0-0.0-0.1","spark_pilot_norest","8587","8","11","Female","","","","","","","758.6999999992549","<p>This time you are searching for treasure in outer space.</p>","","instructions","","","","","","","","","","","",""
"learning-instructions","59","530537","0.0-3.0-11.0-1.0-0.0","spark_pilot_norest","8587","8","11","Female","","","","","","","470.0999999977648","<p> Remember, when you see a picture of the place, use the up and down keys to <b>find an animal</b>.</p>
            <p> When you encounter an animal, you should use the left and right keys to <b>select a treasure chest</b>.</p>
            <p> Don't forget to look out for the robber! </p>","","instructions","","","","","","","","","","","",""
"revaluation","60","534549","0.0-3.0-11.0-2.0-0.0","spark_pilot_norest","8587","8","11","Female","","true","","","","","[]","./assets/img/space/11.jpg","[]","practice block","space","-5","{""ArrowUp,ArrowLeft"":3,""ArrowUp,ArrowRight"":36,""ArrowDown,ArrowLeft"":15,""ArrowDown,ArrowRight"":23}","false","","false","","","","","",""
"html-keyboard-response","61","535053","0.0-3.0-11.0-2.0-1.0","spark_pilot_norest","8587","8","11","Female","","","","","","","null","<div style=""font-size:60px;"">+</div>","null","fixation","","","","","","","","","","","",""
"revaluation","62","541077","0.0-3.0-11.0-2.0-0.1","spark_pilot_norest","8587","8","11","Female","","false","","","","","[898.8999999985099,428.80000000074506]","./assets/img/space/12.jpg","[""ArrowUp"",""ArrowRight""]","practice block","space","36","{""ArrowUp,ArrowLeft"":3,""ArrowUp,ArrowRight"":36,""ArrowDown,ArrowLeft"":15,""ArrowDown,ArrowRight"":23}","true","ArrowUp,ArrowRight","false","","","","","",""
"html-keyboard-response","63","541581","0.0-3.0-11.0-2.0-1.1","spark_pilot_norest","8587","8","11","Female","","","","","","","null","<div style=""font-size:60px;"">+</div>","null","fixation","","","","","","","","","","","",""
"revaluation","64","547605","0.0-3.0-11.0-2.0-0.2","spark_pilot_norest","8587","8","11","Female","","false","","","","","[753,471.8999999985099]","./assets/img/space/13.jpg","[""ArrowUp"",""ArrowRight""]","practice block","space","36","{""ArrowUp,ArrowLeft"":3,""ArrowUp,ArrowRight"":36,""ArrowDown,ArrowLeft"":15,""ArrowDown,ArrowRight"":23}","true","ArrowUp,ArrowRight","false","","","","","",""
"html-keyboard-response","65","548109","0.0-3.0-11.0-2.0-1.2","spark_pilot_norest","8587","8","11","Female","","","","","","","null","<div style=""font-size:60px;"">+</div>","null","fixation","","","","","","","","","","","",""
"revaluation","66","554133","0.0-3.0-11.0-2.0-0.3","spark_pilot_norest","8587","8","11","Female","","false","","","","","[814.6999999992549,724.0999999977648]","./assets/img/space/14.jpg","[""ArrowUp"",""ArrowRight""]","practice block","space","36","{""ArrowUp,ArrowLeft"":3,""ArrowUp,ArrowRight"":36,""ArrowDown,ArrowLeft"":15,""ArrowDown,ArrowRight"":23}","true","ArrowUp,ArrowRight","false","","","","","",""
"html-keyboard-response","67","554636","0.0-3.0-11.0-2.0-1.3","spark_pilot_norest","8587","8","11","Female","","","","","","","null","<div style=""font-size:60px;"">+</div>","null","fixation","","","","","","","","","","","",""
"revaluation","68","560661","0.0-3.0-11.0-2.0-0.4","spark_pilot_norest","8587","8","11","Female","","false","","","","","[985.1999999992549,379.5]","./assets/img/space/11.jpg","[""ArrowDown"",""ArrowLeft""]","practice block","space","15","{""ArrowUp,ArrowLeft"":3,""ArrowUp,ArrowRight"":36,""ArrowDown,ArrowLeft"":15,""ArrowDown,ArrowRight"":23}","false","ArrowDown,ArrowLeft","false","","","","","",""
"html-keyboard-response","69","561165","0.0-3.0-11.0-2.0-1.4","spark_pilot_norest","8587","8","11","Female","","","","","","","null","<div style=""font-size:60px;"">+</div>","null","fixation","","","","","","","","","","","",""
"revaluation","70","567189","0.0-3.0-11.0-2.0-0.5","spark_pilot_norest","8587","8","11","Female","","false","","","","","[1078.9000000022352,429.19999999925494]","./assets/img/space/12.jpg","[""ArrowUp"",""ArrowRight""]","practice block","space","36","{""ArrowUp,ArrowLeft"":3,""ArrowUp,ArrowRight"":36,""ArrowDown,ArrowLeft"":15,""ArrowDown,ArrowRight"":23}","true","ArrowUp,ArrowRight","false","","","","","",""
"html-keyboard-response","71","567693","0.0-3.0-11.0-2.0-1.5","spark_pilot_norest","8587","8","11","Female","","","","","","","null","<div style=""font-size:60px;"">+</div>","null","fixation","","","","","","","","","","","",""
"revaluation","72","573717","0.0-3.0-11.0-2.0-0.6","spark_pilot_norest","8587","8","11","Female","","false","","","","","[1253.1000000014901,421.80000000074506]","./assets/img/space/13.jpg","[""ArrowUp"",""ArrowRight""]","practice block","space","36","{""ArrowUp,ArrowLeft"":3,""ArrowUp,ArrowRight"":36,""ArrowDown,ArrowLeft"":15,""ArrowDown,ArrowRight"":23}","true","ArrowUp,ArrowRight","false","","","","","",""
"html-keyboard-response","73","574220","0.0-3.0-11.0-2.0-1.6","spark_pilot_norest","8587","8","11","Female","","","","","","","null","<div style=""font-size:60px;"">+</div>","null","fixation","","","","","","","","","","","",""
"revaluation","74","580245","0.0-3.0-11.0-2.0-0.7","spark_pilot_norest","8587","8","11","Female","","false","","","","","[801.6000000014901,400]","./assets/img/space/14.jpg","[""ArrowUp"",""ArrowRight""]","practice block","space","36","{""ArrowUp,ArrowLeft"":3,""ArrowUp,ArrowRight"":36,""ArrowDown,ArrowLeft"":15,""ArrowDown,ArrowRight"":23}","true","ArrowUp,ArrowRight","false","","","","","",""
"html-keyboard-response","75","580749","0.0-3.0-11.0-2.0-1.7","spark_pilot_norest","8587","8","11","Female","","","","","","","null","<div style=""font-size:60px;"">+</div>","null","fixation","","","","","","","","","","","",""
"revaluation","76","584765","0.0-3.0-11.0-2.0-0.8","spark_pilot_norest","8587","8","11","Female","","false","","","","","[807.7999999970198]","./assets/img/space/catch/3.jpg","[""spaceBar""]","practice block","space","0","{""ArrowUp,ArrowLeft"":3,""ArrowUp,ArrowRight"":36,""ArrowDown,ArrowLeft"":15,""ArrowDown,ArrowRight"":23}","true","spaceBar","true","","","","","",""
"html-keyboard-response","77","585269","0.0-3.0-11.0-2.0-1.8","spark_pilot_norest","8587","8","11","Female","","","","","","","null","<div style=""font-size:60px;"">+</div>","null","fixation","","","","","","","","","","","",""
"learning-instructions","78","600391","0.0-3.0-11.0-3.0-0.0","spark_pilot_norest","8587","8","11","Female","","","","","","","2189.199999999255","<p> Now, you will travel with a friend who will choose whether you go up or down first. </p>
            <p> On these turns, you will just see the animal that they found. You will still get to choose which chest to search for treasure.</p>","","instructions","","","","","","","","","","","",""
"revaluation","79","604405","0.0-3.0-11.0-4.0-0.0","spark_pilot_norest","8587","8","11","Female","","false","","","","","[1087.199999999255]","./assets/img/space/animals/cat.jpg","[""ArrowRight""]","practice block","space","36","{""ArrowUp,ArrowLeft"":3,""ArrowUp,ArrowRight"":36,""ArrowDown,ArrowLeft"":15,""ArrowDown,ArrowRight"":23}","true","ArrowUp,ArrowRight","","","","","","",""
"html-keyboard-response","80","604909","0.0-3.0-11.0-4.0-1.0","spark_pilot_norest","8587","8","11","Female","","","","","","","null","<div style=""font-size:60px;"">+</div>","null","fixation","","","","","","","","","","","",""
"revaluation","81","608925","0.0-3.0-11.0-4.0-0.1","spark_pilot_norest","8587","8","11","Female","","false","","","","","[692.6000000014901]","./assets/img/space/animals/rabbit.jpg","[""ArrowLeft""]","practice block","space","15","{""ArrowUp,ArrowLeft"":3,""ArrowUp,ArrowRight"":36,""ArrowDown,ArrowLeft"":15,""ArrowDown,ArrowRight"":23}","false","ArrowDown,ArrowLeft","","","","","","",""
"html-keyboard-response","82","609429","0.0-3.0-11.0-4.0-1.1","spark_pilot_norest","8587","8","11","Female","","","","","","","null","<div style=""font-size:60px;"">+</div>","null","fixation","","","","","","","","","","","",""
"revaluation","83","613445","0.0-3.0-11.0-4.0-0.2","spark_pilot_norest","8587","8","11","Female","","false","","","","","[319]","./assets/img/space/animals/cat.jpg","[""ArrowRight""]","practice block","space","36","{""ArrowUp,ArrowLeft"":3,""ArrowUp,ArrowRight"":36,""ArrowDown,ArrowLeft"":15,""ArrowDown,ArrowRight"":23}","true","ArrowUp,ArrowRight","","","","","","",""
"html-keyboard-response","84","613948","0.0-3.0-11.0-4.0-1.2","spark_pilot_norest","8587","8","11","Female","","","","","","","null","<div style=""font-size:60px;"">+</div>","null","fixation","","","","","","","","","","","",""
"revaluation","85","617965","0.0-3.0-11.0-4.0-0.3","spark_pilot_norest","8587","8","11","Female","","false","","","","","[371.5]","./assets/img/space/animals/rabbit.jpg","[""ArrowRight""]","practice block","space","23","{""ArrowUp,ArrowLeft"":3,""ArrowUp,ArrowRight"":36,""ArrowDown,ArrowLeft"":15,""ArrowDown,ArrowRight"":23}","true","ArrowDown,ArrowRight","","","","","","",""
"html-keyboard-response","86","618468","0.0-3.0-11.0-4.0-1.3","spark_pilot_norest","8587","8","11","Female","","","","","","","null","<div style=""font-size:60px;"">+</div>","null","fixation","","","","","","","","","","","",""
"learning-instructions","87","626592","0.0-3.0-11.0-5.0-0.0","spark_pilot_norest","8587","8","11","Female","","","","","","","null","<p> You have almost finished this part of the game! </p>
            <p> We are going to ask you to make a few more choices. </p>","","instructions","","","","","","","","","","","",""
"learning-instructions","88","642628","0.0-3.0-11.0-5.0-0.1","spark_pilot_norest","8587","8","11","Female","","","","","","","null","<p> First, you need to decide whether to go up or down. When you see each picture, use the arrow keys to make your choice. </p>
            <p><b>You will not see which animal you found, but try to get to the one that will give you the most treasure.</b></p>","","instructions","","","","","","","","","","","",""
"html-keyboard-response","89","643632","0.0-3.0-11.0-6.0-0.0","spark_pilot_norest","8587","8","11","Female","","","","","","","null","<div style=""font-size:100px;color:red;"">Starting in...</div>","null","","","","","","","","","","","","",""
"html-keyboard-response","90","644636","0.0-3.0-11.0-6.0-1.0","spark_pilot_norest","8587","8","11","Female","","","","","","","null","<div style=""font-size:200px;color:red;"">3</div>","null","","","","","","","","","","","","",""
"html-keyboard-response","91","645645","0.0-3.0-11.0-6.0-2.0","spark_pilot_norest","8587","8","11","Female","","","","","","","null","<div style=""font-size:200px;color:red;"">2</div>","null","","","","","","","","","","","","",""
"html-keyboard-response","92","646653","0.0-3.0-11.0-6.0-3.0","spark_pilot_norest","8587","8","11","Female","","","","","","","null","<div style=""font-size:200px;color:red;"">1</div>","null","","","","","","","","","","","","",""
"revaluation","93","647009","0.0-3.0-11.0-7.0","spark_pilot_norest","8587","8","11","Female","","false","","","","","[354.20000000298023]","./assets/img/space/15.jpg","[""ArrowUp""]","practice block","space","0","{""ArrowUp,ArrowLeft"":3,""ArrowUp,ArrowRight"":36,""ArrowDown,ArrowLeft"":15,""ArrowDown,ArrowRight"":23}","true","ArrowUp","false","","","","","",""
"html-keyboard-response","94","647517","0.0-3.0-11.0-8.0","spark_pilot_norest","8587","8","11","Female","","","","","","","null","<div style=""font-size:60px;"">+</div>","null","fixation","","","","","","","","","","","",""
"learning-instructions","95","660909","0.0-3.0-11.0-9.0-0.0","spark_pilot_norest","8587","8","11","Female","","","","","","","null","<p> Now you will see the animals again and can search their chests for treasure. </p>
            <p> This time, you will not see how much treasure you earned, but you will earn more bonus money for making better choices. </p>","","instructions","","","","","","","","","","","",""
"html-keyboard-response","96","661916","0.0-3.0-11.0-10.0-0.0","spark_pilot_norest","8587","8","11","Female","","","","","","","null","<div style=""font-size:100px;color:red;"">Starting in...</div>","null","","","","","","","","","","","","",""
"html-keyboard-response","97","662925","0.0-3.0-11.0-10.0-1.0","spark_pilot_norest","8587","8","11","Female","","","","","","","null","<div style=""font-size:200px;color:red;"">3</div>","null","","","","","","","","","","","","",""
"html-keyboard-response","98","663933","0.0-3.0-11.0-10.0-2.0","spark_pilot_norest","8587","8","11","Female","","","","","","","null","<div style=""font-size:200px;color:red;"">2</div>","null","","","","","","","","","","","","",""
"html-keyboard-response","99","664941","0.0-3.0-11.0-10.0-3.0","spark_pilot_norest","8587","8","11","Female","","","","","","","null","<div style=""font-size:200px;color:red;"">1</div>","null","","","","","","","","","","","","",""
"revaluation","100","665634","0.0-3.0-11.0-11.0-0.0","spark_pilot_norest","8587","8","11","Female","","false","","","","","[686.3999999985099]","./assets/img/space/animals/cat.jpg","[""ArrowRight""]","practice block","space","0","{""ArrowUp,ArrowLeft"":3,""ArrowUp,ArrowRight"":36,""ArrowDown,ArrowLeft"":15,""ArrowDown,ArrowRight"":23}","true","ArrowUp,ArrowRight","","","","","","",""
"html-keyboard-response","101","666141","0.0-3.0-11.0-11.0-1.0","spark_pilot_norest","8587","8","11","Female","","","","","","","null","<div style=""font-size:60px;"">+</div>","null","fixation","","","","","","","","","","","",""
"revaluation","102","666627","0.0-3.0-11.0-11.0-0.1","spark_pilot_norest","8587","8","11","Female","","false","","","","","[482.3999999985099]","./assets/img/space/animals/rabbit.jpg","[""ArrowRight""]","practice block","space","0","{""ArrowUp,ArrowLeft"":3,""ArrowUp,ArrowRight"":36,""ArrowDown,ArrowLeft"":15,""ArrowDown,ArrowRight"":23}","true","ArrowDown,ArrowRight","","","","","","",""
"html-keyboard-response","103","667130","0.0-3.0-11.0-11.0-1.1","spark_pilot_norest","8587","8","11","Female","","","","","","","null","<div style=""font-size:60px;"">+</div>","null","fixation","","","","","","","","","","","",""
"learning-instructions","104","673237","0.0-3.0-12.0-0.0","spark_pilot_norest","8587","8","11","Female","","","","","","","1520.5","<p> Before you start, we're going to ask you a few questions about how the game works. </p>","","instructions","","","","","","","","","","","",""
"comp-q","105","680248","0.0-3.0-13.0-0.0-0.0","spark_pilot_norest","8587","8","11","Female","","","","","","","1413.5","<p> <b> True or False? </b> </p>
            <p> There can be 50 pieces of treasure in a given animal's chest. </p>","1","comp_question","","","","true","","","","","","","",""
"comp-q","106","688080","0.0-3.0-13.0-0.0-1.0","spark_pilot_norest","8587","8","11","Female","","","","","","","1163.6000000014901","<p> <b> That's right! </b> The amount of treasure in each chest can range from 0 to 40 pieces. </p>","0","comp_answer","","","","","","","","","","","",""
"comp-q","107","696339","0.0-3.0-13.0-0.1-0.1","spark_pilot_norest","8587","8","11","Female","","","","","","","1134.4000000022352","<p> <b> True or False? </b> </p><p> In this game, all animals have the same amount of treasure in their left and right chests. </p>","1","comp_question","","","","true","","","","","","","",""
"comp-q","108","704752","0.0-3.0-13.0-0.1-1.1","spark_pilot_norest","8587","8","11","Female","","","","","","","3168.900000002235","<p> <b> That's right! </b> Animals have different amounts of treasure in their treasure chests. </p>","0","comp_answer","","","","","","","","","","","",""
"comp-q","109","711862","0.0-3.0-13.0-0.2-0.2","spark_pilot_norest","8587","8","11","Female","","","","","","","1254.199999999255","<p> <b> True or False? </b> </p><p> The same animal will always be there if you go up in the same place. </p>","0","comp_question","","","","true","","","","","","","",""
"comp-q","110","719458","0.0-3.0-13.0-0.2-1.2","spark_pilot_norest","8587","8","11","Female","","","","","","","1149.3999999985099","<p> <b> That's right! </b> One animal lives in the upper part and one lives in the lower part of every place. </p>","0","comp_answer","","","","","","","","","","","",""
"comp-q","111","726353","0.0-3.0-13.0-0.3-0.3","spark_pilot_norest","8587","8","11","Female","","","","","","","1367.5","<p> <b> True or False? </b> </p><p> If you see a different picture, it means you are in a new place. </p>","1","comp_question","","","","true","","","","","","","",""
"comp-q","112","738838","0.0-3.0-13.0-0.3-1.3","spark_pilot_norest","8587","8","11","Female","","","","","","","1244","<p> <b> That's right! </b> Lots of different images may show the same place. For example,  you may see three different images that all remind you that you are in outer space. </p>","0","comp_answer","","","","","","","","","","","",""
"learning-instructions","113","750116","0.0-3.0-14.0-0.0","spark_pilot_norest","8587","8","11","Female","","","","","","","1418.300000000745","<p> Good job. Remember to do your best because the amount of treasure you earn will be converted into bonus money. </p>
            <p> It’s time to start the real game! </p>","","instructions","","","","","","","","","","","",""
"learning-instructions","114","753654","0.0-4.0-0.0-0.0","spark_pilot_norest","8587","8","11","Female","","","","","","","752.9000000022352","<p> This time you are searching for treasure in the <b>canyon</b>.</p>","","instructions","","","","","","","","","","","",""
"learning-instructions","115","773597","0.0-4.0-0.0-0.1","spark_pilot_norest","8587","8","11","Female","","","","","","","2616.199999999255","<p><b>New</b> animals with <b>new</b> treasure chests live here. You need to explore to discover where the animal with the best treasure chest is.</p>
                    <p> Like before, once you figure out which animal has the chest with the most treasure, you should try to get to that animal and select that chest! </p>","","instructions","","","","","","","","","","","",""
"learning-instructions","116","798097","0.0-4.0-1.0-0.0","spark_pilot_norest","8587","8","11","Female","","","","","","","9772.10000000149","<p> Remember, when you see a picture of the place, use the up and down keys to <b>find an animal</b>.</p>
            <p> When you encounter an animal, you should use the left and right keys to <b>select a treasure chest</b>.</p>
            <p> Don't forget to look out for the robber! </p>","","instructions","","","","","","","","","","","",""
"revaluation","117","802109","0.0-4.0-2.0-0.0","spark_pilot_norest","8587","8","11","Female","","false","","","","","[1179.9000000022352]","./assets/img/canyon/catch/2.jpg","[""ArrowUp""]","value training","canyon","-10","{""ArrowUp,ArrowLeft"":26,""ArrowUp,ArrowRight"":10,""ArrowDown,ArrowLeft"":5,""ArrowDown,ArrowRight"":17}","false","ArrowUp","true","revaluation","1","0","","",""
"html-keyboard-response","118","802621","0.0-4.0-2.0-1.0","spark_pilot_norest","8587","8","11","Female","","","","","","","null","<div style=""font-size:60px;"">+</div>","null","fixation","","","","","","","","","1","","",""
"revaluation","119","808645","0.0-4.0-2.0-0.1","spark_pilot_norest","8587","8","11","Female","","false","","","","","[1148.699999999255,1199.5]","./assets/img/canyon/memory/22.jpg","[""ArrowDown"",""ArrowRight""]","value training","canyon","17","{""ArrowUp,ArrowLeft"":26,""ArrowUp,ArrowRight"":10,""ArrowDown,ArrowLeft"":5,""ArrowDown,ArrowRight"":17}","false","ArrowDown,ArrowRight","false","revaluation","1","2","","",""
"html-keyboard-response","120","809149","0.0-4.0-2.0-1.1","spark_pilot_norest","8587","8","11","Female","","","","","","","null","<div style=""font-size:60px;"">+</div>","null","fixation","","","","","","","","","3","","",""
"revaluation","121","815173","0.0-4.0-2.0-0.2","spark_pilot_norest","8587","8","11","Female","","false","","","","","[1064.800000000745,383.19999999925494]","./assets/img/canyon/memory/26.jpg","[""ArrowUp"",""ArrowLeft""]","value training","canyon","26","{""ArrowUp,ArrowLeft"":26,""ArrowUp,ArrowRight"":10,""ArrowDown,ArrowLeft"":5,""ArrowDown,ArrowRight"":17}","true","ArrowUp,ArrowLeft","false","revaluation","1","4","","",""
"html-keyboard-response","122","815677","0.0-4.0-2.0-1.2","spark_pilot_norest","8587","8","11","Female","","","","","","","null","<div style=""font-size:60px;"">+</div>","null","fixation","","","","","","","","","5","","",""
"revaluation","123","821701","0.0-4.0-2.0-0.3","spark_pilot_norest","8587","8","11","Female","","false","","","","","[1489,515.3000000007451]","./assets/img/canyon/memory/15.jpg","[""ArrowDown"",""ArrowRight""]","value training","canyon","17","{""ArrowUp,ArrowLeft"":26,""ArrowUp,ArrowRight"":10,""ArrowDown,ArrowLeft"":5,""ArrowDown,ArrowRight"":17}","false","ArrowDown,ArrowRight","false","revaluation","1","6","","",""
"html-keyboard-response","124","822205","0.0-4.0-2.0-1.3","spark_pilot_norest","8587","8","11","Female","","","","","","","null","<div style=""font-size:60px;"">+</div>","null","fixation","","","","","","","","","7","","",""
"revaluation","125","828229","0.0-4.0-2.0-0.4","spark_pilot_norest","8587","8","11","Female","","false","","","","","[547.1000000014901,330.69999999925494]","./assets/img/canyon/memory/13.jpg","[""ArrowUp"",""ArrowLeft""]","value training","canyon","26","{""ArrowUp,ArrowLeft"":26,""ArrowUp,ArrowRight"":10,""ArrowDown,ArrowLeft"":5,""ArrowDown,ArrowRight"":17}","true","ArrowUp,ArrowLeft","false","revaluation","1","8","","",""
"html-keyboard-response","126","828733","0.0-4.0-2.0-1.4","spark_pilot_norest","8587","8","11","Female","","","","","","","null","<div style=""font-size:60px;"">+</div>","null","fixation","","","","","","","","","9","","",""
"revaluation","127","834757","0.0-4.0-2.0-0.5","spark_pilot_norest","8587","8","11","Female","","false","","","","","[1612.699999999255,665.6000000014901]","./assets/img/canyon/memory/0.jpg","[""ArrowUp"",""ArrowLeft""]","value training","canyon","26","{""ArrowUp,ArrowLeft"":26,""ArrowUp,ArrowRight"":10,""ArrowDown,ArrowLeft"":5,""ArrowDown,ArrowRight"":17}","true","ArrowUp,ArrowLeft","false","revaluation","1","10","","",""
"html-keyboard-response","128","835261","0.0-4.0-2.0-1.5","spark_pilot_norest","8587","8","11","Female","","","","","","","null","<div style=""font-size:60px;"">+</div>","null","fixation","","","","","","","","","11","","",""
"revaluation","129","841285","0.0-4.0-2.0-0.6","spark_pilot_norest","8587","8","11","Female","","false","","","","","[1557.699999999255,583.1999999992549]","./assets/img/canyon/memory/22.jpg","[""ArrowDown"",""ArrowRight""]","value training","canyon","17","{""ArrowUp,ArrowLeft"":26,""ArrowUp,ArrowRight"":10,""ArrowDown,ArrowLeft"":5,""ArrowDown,ArrowRight"":17}","false","ArrowDown,ArrowRight","false","revaluation","1","12","","",""
"html-keyboard-response","130","841789","0.0-4.0-2.0-1.6","spark_pilot_norest","8587","8","11","Female","","","","","","","null","<div style=""font-size:60px;"">+</div>","null","fixation","","","","","","","","","13","","",""
"revaluation","131","847813","0.0-4.0-2.0-0.7","spark_pilot_norest","8587","8","11","Female","","false","","","","","[1149.6000000014901,566.8999999985099]","./assets/img/canyon/memory/31.jpg","[""ArrowUp"",""ArrowLeft""]","value training","canyon","26","{""ArrowUp,ArrowLeft"":26,""ArrowUp,ArrowRight"":10,""ArrowDown,ArrowLeft"":5,""ArrowDown,ArrowRight"":17}","true","ArrowUp,ArrowLeft","false","revaluation","1","14","","",""
"html-keyboard-response","132","848317","0.0-4.0-2.0-1.7","spark_pilot_norest","8587","8","11","Female","","","","","","","null","<div style=""font-size:60px;"">+</div>","null","fixation","","","","","","","","","15","","",""
"revaluation","133","854341","0.0-4.0-2.0-0.8","spark_pilot_norest","8587","8","11","Female","","false","","","","","[1021.2999999970198,630.3999999985099]","./assets/img/canyon/memory/40.jpg","[""ArrowDown"",""ArrowRight""]","value training","canyon","17","{""ArrowUp,ArrowLeft"":26,""ArrowUp,ArrowRight"":10,""ArrowDown,ArrowLeft"":5,""ArrowDown,ArrowRight"":17}","false","ArrowDown,ArrowRight","false","revaluation","1","16","","",""
"html-keyboard-response","134","854845","0.0-4.0-2.0-1.8","spark_pilot_norest","8587","8","11","Female","","","","","","","null","<div style=""font-size:60px;"">+</div>","null","fixation","","","","","","","","","17","","",""
"revaluation","135","860869","0.0-4.0-2.0-0.9","spark_pilot_norest","8587","8","11","Female","","false","","","","","[1267.5,1219.9000000022352]","./assets/img/canyon/memory/38.jpg","[""ArrowUp"",""ArrowRight""]","value training","canyon","10","{""ArrowUp,ArrowLeft"":26,""ArrowUp,ArrowRight"":10,""ArrowDown,ArrowLeft"":5,""ArrowDown,ArrowRight"":17}","false","ArrowUp,ArrowRight","false","revaluation","1","18","","",""
"html-keyboard-response","136","861373","0.0-4.0-2.0-1.9","spark_pilot_norest","8587","8","11","Female","","","","","","","null","<div style=""font-size:60px;"">+</div>","null","fixation","","","","","","","","","19","","",""
"revaluation","137","867397","0.0-4.0-2.0-0.10","spark_pilot_norest","8587","8","11","Female","","false","","","","","[1843,850.6999999992549]","./assets/img/canyon/memory/20.jpg","[""ArrowDown"",""ArrowRight""]","value training","canyon","17","{""ArrowUp,ArrowLeft"":26,""ArrowUp,ArrowRight"":10,""ArrowDown,ArrowLeft"":5,""ArrowDown,ArrowRight"":17}","false","ArrowDown,ArrowRight","false","revaluation","1","20","","",""
"html-keyboard-response","138","867901","0.0-4.0-2.0-1.10","spark_pilot_norest","8587","8","11","Female","","","","","","","null","<div style=""font-size:60px;"">+</div>","null","fixation","","","","","","","","","21","","",""
"revaluation","139","871917","0.0-4.0-2.0-0.11","spark_pilot_norest","8587","8","11","Female","","false","","","","","[912.3000000007451]","./assets/img/canyon/catch/5.jpg","[""spaceBar""]","value training","canyon","0","{""ArrowUp,ArrowLeft"":26,""ArrowUp,ArrowRight"":10,""ArrowDown,ArrowLeft"":5,""ArrowDown,ArrowRight"":17}","true","spaceBar","true","revaluation","1","22","","",""
"html-keyboard-response","140","872422","0.0-4.0-2.0-1.11","spark_pilot_norest","8587","8","11","Female","","","","","","","null","<div style=""font-size:60px;"">+</div>","null","fixation","","","","","","","","","23","","",""
"revaluation","141","878445","0.0-4.0-2.0-0.12","spark_pilot_norest","8587","8","11","Female","","false","","","","","[651.1000000014901,789.6000000014901]","./assets/img/canyon/memory/33.jpg","[""ArrowUp"",""ArrowLeft""]","value training","canyon","26","{""ArrowUp,ArrowLeft"":26,""ArrowUp,ArrowRight"":10,""ArrowDown,ArrowLeft"":5,""ArrowDown,ArrowRight"":17}","true","ArrowUp,ArrowLeft","false","revaluation","1","24","","",""
"html-keyboard-response","142","878949","0.0-4.0-2.0-1.12","spark_pilot_norest","8587","8","11","Female","","","","","","","null","<div style=""font-size:60px;"">+</div>","null","fixation","","","","","","","","","25","","",""
"revaluation","143","884973","0.0-4.0-2.0-0.13","spark_pilot_norest","8587","8","11","Female","","false","","","","","[1038.800000000745,495.20000000298023]","./assets/img/canyon/memory/5.jpg","[""ArrowUp"",""ArrowRight""]","value training","canyon","10","{""ArrowUp,ArrowLeft"":26,""ArrowUp,ArrowRight"":10,""ArrowDown,ArrowLeft"":5,""ArrowDown,ArrowRight"":17}","false","ArrowUp,ArrowRight","false","revaluation","1","26","","",""
"html-keyboard-response","144","885476","0.0-4.0-2.0-1.13","spark_pilot_norest","8587","8","11","Female","","","","","","","null","<div style=""font-size:60px;"">+</div>","null","fixation","","","","","","","","","27","","",""
"revaluation","145","889493","0.0-4.0-2.0-0.14","spark_pilot_norest","8587","8","11","Female","","false","","","","","[697.1000000014901]","./assets/img/canyon/catch/6.jpg","[""spaceBar""]","value training","canyon","0","{""ArrowUp,ArrowLeft"":26,""ArrowUp,ArrowRight"":10,""ArrowDown,ArrowLeft"":5,""ArrowDown,ArrowRight"":17}","true","spaceBar","true","revaluation","1","28","","",""
"html-keyboard-response","146","889997","0.0-4.0-2.0-1.14","spark_pilot_norest","8587","8","11","Female","","","","","","","null","<div style=""font-size:60px;"">+</div>","null","fixation","","","","","","","","","29","","",""
"revaluation","147","896022","0.0-4.0-2.0-0.15","spark_pilot_norest","8587","8","11","Female","","false","","","","","[1337.300000000745,730.5]","./assets/img/canyon/memory/23.jpg","[""ArrowDown"",""ArrowLeft""]","value training","canyon","5","{""ArrowUp,ArrowLeft"":26,""ArrowUp,ArrowRight"":10,""ArrowDown,ArrowLeft"":5,""ArrowDown,ArrowRight"":17}","false","ArrowDown,ArrowLeft","false","revaluation","1","30","","",""
"html-keyboard-response","148","896524","0.0-4.0-2.0-1.15","spark_pilot_norest","8587","8","11","Female","","","","","","","null","<div style=""font-size:60px;"">+</div>","null","fixation","","","","","","","","","31","","",""
"revaluation","149","902549","0.0-4.0-2.0-0.16","spark_pilot_norest","8587","8","11","Female","","false","","","","","[1174.7000000029802,613.3000000007451]","./assets/img/canyon/memory/13.jpg","[""ArrowUp"",""ArrowRight""]","value training","canyon","10","{""ArrowUp,ArrowLeft"":26,""ArrowUp,ArrowRight"":10,""ArrowDown,ArrowLeft"":5,""ArrowDown,ArrowRight"":17}","false","ArrowUp,ArrowRight","false","revaluation","1","32","","",""
"html-keyboard-response","150","903053","0.0-4.0-2.0-1.16","spark_pilot_norest","8587","8","11","Female","","","","","","","null","<div style=""font-size:60px;"">+</div>","null","fixation","","","","","","","","","33","","",""
"revaluation","151","909077","0.0-4.0-2.0-0.17","spark_pilot_norest","8587","8","11","Female","","false","","","","","[1509.8999999985099,786]","./assets/img/canyon/memory/1.jpg","[""ArrowDown"",""ArrowLeft""]","value training","canyon","5","{""ArrowUp,ArrowLeft"":26,""ArrowUp,ArrowRight"":10,""ArrowDown,ArrowLeft"":5,""ArrowDown,ArrowRight"":17}","false","ArrowDown,ArrowLeft","false","revaluation","1","34","","",""
"html-keyboard-response","152","909580","0.0-4.0-2.0-1.17","spark_pilot_norest","8587","8","11","Female","","","","","","","null","<div style=""font-size:60px;"">+</div>","null","fixation","","","","","","","","","35","","",""
"revaluation","153","915605","0.0-4.0-2.0-0.18","spark_pilot_norest","8587","8","11","Female","","false","","","","","[858.0999999977648,1066.199999999255]","./assets/img/canyon/memory/8.jpg","[""ArrowUp"",""ArrowRight""]","value training","canyon","10","{""ArrowUp,ArrowLeft"":26,""ArrowUp,ArrowRight"":10,""ArrowDown,ArrowLeft"":5,""ArrowDown,ArrowRight"":17}","false","ArrowUp,ArrowRight","false","revaluation","1","36","","",""
"html-keyboard-response","154","916109","0.0-4.0-2.0-1.18","spark_pilot_norest","8587","8","11","Female","","","","","","","null","<div style=""font-size:60px;"">+</div>","null","fixation","","","","","","","","","37","","",""
"revaluation","155","922133","0.0-4.0-2.0-0.19","spark_pilot_norest","8587","8","11","Female","","false","","","","","[1451.1000000014901,927.0999999977648]","./assets/img/canyon/memory/24.jpg","[""ArrowDown"",""ArrowRight""]","value training","canyon","17","{""ArrowUp,ArrowLeft"":26,""ArrowUp,ArrowRight"":10,""ArrowDown,ArrowLeft"":5,""ArrowDown,ArrowRight"":17}","false","ArrowDown,ArrowRight","false","revaluation","1","38","","",""
"html-keyboard-response","156","922637","0.0-4.0-2.0-1.19","spark_pilot_norest","8587","8","11","Female","","","","","","","null","<div style=""font-size:60px;"">+</div>","null","fixation","","","","","","","","","39","","",""
"revaluation","157","928661","0.0-4.0-2.0-0.20","spark_pilot_norest","8587","8","11","Female","","false","","","","","[1152.699999999255,1405.300000000745]","./assets/img/canyon/memory/3.jpg","[""ArrowUp"",""ArrowRight""]","value training","canyon","10","{""ArrowUp,ArrowLeft"":26,""ArrowUp,ArrowRight"":10,""ArrowDown,ArrowLeft"":5,""ArrowDown,ArrowRight"":17}","false","ArrowUp,ArrowRight","false","revaluation","1","40","","",""
"html-keyboard-response","158","929165","0.0-4.0-2.0-1.20","spark_pilot_norest","8587","8","11","Female","","","","","","","null","<div style=""font-size:60px;"">+</div>","null","fixation","","","","","","","","","41","","",""
"revaluation","159","935189","0.0-4.0-2.0-0.21","spark_pilot_norest","8587","8","11","Female","","false","","","","","[1204.9000000022352,1482.5999999977648]","./assets/img/canyon/memory/10.jpg","[""ArrowUp"",""ArrowLeft""]","value training","canyon","26","{""ArrowUp,ArrowLeft"":26,""ArrowUp,ArrowRight"":10,""ArrowDown,ArrowLeft"":5,""ArrowDown,ArrowRight"":17}","true","ArrowUp,ArrowLeft","false","revaluation","1","42","","",""
"html-keyboard-response","160","935693","0.0-4.0-2.0-1.21","spark_pilot_norest","8587","8","11","Female","","","","","","","null","<div style=""font-size:60px;"">+</div>","null","fixation","","","","","","","","","43","","",""
"revaluation","161","941717","0.0-4.0-2.0-0.22","spark_pilot_norest","8587","8","11","Female","","false","","","","","[650.6999999992549,587.1999999992549]","./assets/img/canyon/memory/10.jpg","[""ArrowUp"",""ArrowLeft""]","value training","canyon","26","{""ArrowUp,ArrowLeft"":26,""ArrowUp,ArrowRight"":10,""ArrowDown,ArrowLeft"":5,""ArrowDown,ArrowRight"":17}","true","ArrowUp,ArrowLeft","false","revaluation","1","44","","",""
"html-keyboard-response","162","942221","0.0-4.0-2.0-1.22","spark_pilot_norest","8587","8","11","Female","","","","","","","null","<div style=""font-size:60px;"">+</div>","null","fixation","","","","","","","","","45","","",""
"revaluation","163","948245","0.0-4.0-2.0-0.23","spark_pilot_norest","8587","8","11","Female","","false","","","","","[330.5,380.80000000074506]","./assets/img/canyon/memory/24.jpg","[""ArrowUp"",""ArrowLeft""]","value training","canyon","26","{""ArrowUp,ArrowLeft"":26,""ArrowUp,ArrowRight"":10,""ArrowDown,ArrowLeft"":5,""ArrowDown,ArrowRight"":17}","true","ArrowUp,ArrowLeft","false","revaluation","1","46","","",""
"html-keyboard-response","164","948749","0.0-4.0-2.0-1.23","spark_pilot_norest","8587","8","11","Female","","","","","","","null","<div style=""font-size:60px;"">+</div>","null","fixation","","","","","","","","","47","","",""
"revaluation","165","954773","0.0-4.0-2.0-0.24","spark_pilot_norest","8587","8","11","Female","","false","","","","","[937.1999999992549,599.0999999977648]","./assets/img/canyon/memory/30.jpg","[""ArrowUp"",""ArrowLeft""]","value training","canyon","26","{""ArrowUp,ArrowLeft"":26,""ArrowUp,ArrowRight"":10,""ArrowDown,ArrowLeft"":5,""ArrowDown,ArrowRight"":17}","true","ArrowUp,ArrowLeft","false","revaluation","1","48","","",""
"html-keyboard-response","166","955277","0.0-4.0-2.0-1.24","spark_pilot_norest","8587","8","11","Female","","","","","","","null","<div style=""font-size:60px;"">+</div>","null","fixation","","","","","","","","","49","","",""
"revaluation","167","961301","0.0-4.0-2.0-0.25","spark_pilot_norest","8587","8","11","Female","","false","","","","","[872.5,397.30000000074506]","./assets/img/canyon/memory/23.jpg","[""ArrowUp"",""ArrowLeft""]","value training","canyon","26","{""ArrowUp,ArrowLeft"":26,""ArrowUp,ArrowRight"":10,""ArrowDown,ArrowLeft"":5,""ArrowDown,ArrowRight"":17}","true","ArrowUp,ArrowLeft","false","revaluation","1","50","","",""
"html-keyboard-response","168","961805","0.0-4.0-2.0-1.25","spark_pilot_norest","8587","8","11","Female","","","","","","","null","<div style=""font-size:60px;"">+</div>","null","fixation","","","","","","","","","51","","",""
"revaluation","169","967829","0.0-4.0-2.0-0.26","spark_pilot_norest","8587","8","11","Female","","false","","","","","[659.5,435.80000000074506]","./assets/img/canyon/memory/11.jpg","[""ArrowUp"",""ArrowLeft""]","value training","canyon","26","{""ArrowUp,ArrowLeft"":26,""ArrowUp,ArrowRight"":10,""ArrowDown,ArrowLeft"":5,""ArrowDown,ArrowRight"":17}","true","ArrowUp,ArrowLeft","false","revaluation","1","52","","",""
"html-keyboard-response","170","968333","0.0-4.0-2.0-1.26","spark_pilot_norest","8587","8","11","Female","","","","","","","null","<div style=""font-size:60px;"">+</div>","null","fixation","","","","","","","","","53","","",""
"revaluation","171","974357","0.0-4.0-2.0-0.27","spark_pilot_norest","8587","8","11","Female","","false","","","","","[1111.3999999985099,522.3000000007451]","./assets/img/canyon/memory/26.jpg","[""ArrowUp"",""ArrowLeft""]","value training","canyon","26","{""ArrowUp,ArrowLeft"":26,""ArrowUp,ArrowRight"":10,""ArrowDown,ArrowLeft"":5,""ArrowDown,ArrowRight"":17}","true","ArrowUp,ArrowLeft","false","revaluation","1","54","","",""
"html-keyboard-response","172","974861","0.0-4.0-2.0-1.27","spark_pilot_norest","8587","8","11","Female","","","","","","","null","<div style=""font-size:60px;"">+</div>","null","fixation","","","","","","","","","55","","",""
"revaluation","173","980885","0.0-4.0-2.0-0.28","spark_pilot_norest","8587","8","11","Female","","false","","","","","[680.5,335.9000000022352]","./assets/img/canyon/memory/35.jpg","[""ArrowUp"",""ArrowLeft""]","value training","canyon","26","{""ArrowUp,ArrowLeft"":26,""ArrowUp,ArrowRight"":10,""ArrowDown,ArrowLeft"":5,""ArrowDown,ArrowRight"":17}","true","ArrowUp,ArrowLeft","false","revaluation","1","56","","",""
"html-keyboard-response","174","981389","0.0-4.0-2.0-1.28","spark_pilot_norest","8587","8","11","Female","","","","","","","null","<div style=""font-size:60px;"">+</div>","null","fixation","","","","","","","","","57","","",""
"revaluation","175","987413","0.0-4.0-2.0-0.29","spark_pilot_norest","8587","8","11","Female","","false","","","","","[634.0999999977648,396.80000000074506]","./assets/img/canyon/memory/27.jpg","[""ArrowUp"",""ArrowLeft""]","value training","canyon","26","{""ArrowUp,ArrowLeft"":26,""ArrowUp,ArrowRight"":10,""ArrowDown,ArrowLeft"":5,""ArrowDown,ArrowRight"":17}","true","ArrowUp,ArrowLeft","false","revaluation","1","58","","",""
"html-keyboard-response","176","987917","0.0-4.0-2.0-1.29","spark_pilot_norest","8587","8","11","Female","","","","","","","null","<div style=""font-size:60px;"">+</div>","null","fixation","","","","","","","","","59","","",""
"revaluation","177","993941","0.0-4.0-2.0-0.30","spark_pilot_norest","8587","8","11","Female","","false","","","","","[921.8999999985099,497.9000000022352]","./assets/img/canyon/memory/11.jpg","[""ArrowUp"",""ArrowLeft""]","value training","canyon","26","{""ArrowUp,ArrowLeft"":26,""ArrowUp,ArrowRight"":10,""ArrowDown,ArrowLeft"":5,""ArrowDown,ArrowRight"":17}","true","ArrowUp,ArrowLeft","false","revaluation","1","60","","",""
"html-keyboard-response","178","994445","0.0-4.0-2.0-1.30","spark_pilot_norest","8587","8","11","Female","","","","","","","null","<div style=""font-size:60px;"">+</div>","null","fixation","","","","","","","","","61","","",""
"revaluation","179","998461","0.0-4.0-2.0-0.31","spark_pilot_norest","8587","8","11","Female","","false","","","","","[814]","./assets/img/canyon/catch/7.jpg","[""spaceBar""]","value training","canyon","0","{""ArrowUp,ArrowLeft"":26,""ArrowUp,ArrowRight"":10,""ArrowDown,ArrowLeft"":5,""ArrowDown,ArrowRight"":17}","true","spaceBar","true","revaluation","1","62","","",""
"html-keyboard-response","180","998965","0.0-4.0-2.0-1.31","spark_pilot_norest","8587","8","11","Female","","","","","","","null","<div style=""font-size:60px;"">+</div>","null","fixation","","","","","","","","","63","","",""
"revaluation","181","1004989","0.0-4.0-2.0-0.32","spark_pilot_norest","8587","8","11","Female","","false","","","","","[1360.1000000014901,459.5]","./assets/img/canyon/memory/1.jpg","[""ArrowUp"",""ArrowLeft""]","value training","canyon","26","{""ArrowUp,ArrowLeft"":26,""ArrowUp,ArrowRight"":10,""ArrowDown,ArrowLeft"":5,""ArrowDown,ArrowRight"":17}","true","ArrowUp,ArrowLeft","false","revaluation","1","64","","",""
"html-keyboard-response","182","1005493","0.0-4.0-2.0-1.32","spark_pilot_norest","8587","8","11","Female","","","","","","","null","<div style=""font-size:60px;"">+</div>","null","fixation","","","","","","","","","65","","",""
"revaluation","183","1011517","0.0-4.0-2.0-0.33","spark_pilot_norest","8587","8","11","Female","","false","","","","","[631.3999999985099,371.1000000014901]","./assets/img/canyon/memory/38.jpg","[""ArrowUp"",""ArrowLeft""]","value training","canyon","26","{""ArrowUp,ArrowLeft"":26,""ArrowUp,ArrowRight"":10,""ArrowDown,ArrowLeft"":5,""ArrowDown,ArrowRight"":17}","true","ArrowUp,ArrowLeft","false","revaluation","1","66","","",""
"html-keyboard-response","184","1012020","0.0-4.0-2.0-1.33","spark_pilot_norest","8587","8","11","Female","","","","","","","null","<div style=""font-size:60px;"">+</div>","null","fixation","","","","","","","","","67","","",""
"revaluation","185","1018045","0.0-4.0-2.0-0.34","spark_pilot_norest","8587","8","11","Female","","false","","","","","[767.1999999992549,488.19999999925494]","./assets/img/canyon/memory/27.jpg","[""ArrowUp"",""ArrowLeft""]","value training","canyon","26","{""ArrowUp,ArrowLeft"":26,""ArrowUp,ArrowRight"":10,""ArrowDown,ArrowLeft"":5,""ArrowDown,ArrowRight"":17}","true","ArrowUp,ArrowLeft","false","revaluation","1","68","","",""
"html-keyboard-response","186","1018549","0.0-4.0-2.0-1.34","spark_pilot_norest","8587","8","11","Female","","","","","","","null","<div style=""font-size:60px;"">+</div>","null","fixation","","","","","","","","","69","","",""
"revaluation","187","1024573","0.0-4.0-2.0-0.35","spark_pilot_norest","8587","8","11","Female","","false","","","","","[710.3000000007451,583.6999999992549]","./assets/img/canyon/memory/40.jpg","[""ArrowUp"",""ArrowLeft""]","value training","canyon","26","{""ArrowUp,ArrowLeft"":26,""ArrowUp,ArrowRight"":10,""ArrowDown,ArrowLeft"":5,""ArrowDown,ArrowRight"":17}","true","ArrowUp,ArrowLeft","false","revaluation","1","70","","",""
"html-keyboard-response","188","1025077","0.0-4.0-2.0-1.35","spark_pilot_norest","8587","8","11","Female","","","","","","","null","<div style=""font-size:60px;"">+</div>","null","fixation","","","","","","","","","71","","",""
"revaluation","189","1031101","0.0-4.0-2.0-0.36","spark_pilot_norest","8587","8","11","Female","","false","","","","","[971.0999999977648,761.0999999977648]","./assets/img/canyon/memory/20.jpg","[""ArrowUp"",""ArrowLeft""]","value training","canyon","26","{""ArrowUp,ArrowLeft"":26,""ArrowUp,ArrowRight"":10,""ArrowDown,ArrowLeft"":5,""ArrowDown,ArrowRight"":17}","true","ArrowUp,ArrowLeft","false","revaluation","1","72","","",""
"html-keyboard-response","190","1031605","0.0-4.0-2.0-1.36","spark_pilot_norest","8587","8","11","Female","","","","","","","null","<div style=""font-size:60px;"">+</div>","null","fixation","","","","","","","","","73","","",""
"revaluation","191","1035622","0.0-4.0-2.0-0.37","spark_pilot_norest","8587","8","11","Female","","false","","","","","[882.8000000007451]","./assets/img/canyon/catch/3.jpg","[""spaceBar""]","value training","canyon","0","{""ArrowUp,ArrowLeft"":26,""ArrowUp,ArrowRight"":10,""ArrowDown,ArrowLeft"":5,""ArrowDown,ArrowRight"":17}","true","spaceBar","true","revaluation","1","74","","",""
"html-keyboard-response","192","1036125","0.0-4.0-2.0-1.37","spark_pilot_norest","8587","8","11","Female","","","","","","","null","<div style=""font-size:60px;"">+</div>","null","fixation","","","","","","","","","75","","",""
"revaluation","193","1042149","0.0-4.0-2.0-0.38","spark_pilot_norest","8587","8","11","Female","","false","","","","","[683.4000000022352,252.5]","./assets/img/canyon/memory/0.jpg","[""ArrowUp"",""ArrowLeft""]","value training","canyon","26","{""ArrowUp,ArrowLeft"":26,""ArrowUp,ArrowRight"":10,""ArrowDown,ArrowLeft"":5,""ArrowDown,ArrowRight"":17}","true","ArrowUp,ArrowLeft","false","revaluation","1","76","","",""
"html-keyboard-response","194","1042653","0.0-4.0-2.0-1.38","spark_pilot_norest","8587","8","11","Female","","","","","","","null","<div style=""font-size:60px;"">+</div>","null","fixation","","","","","","","","","77","","",""
"revaluation","195","1046669","0.0-4.0-2.0-0.39","spark_pilot_norest","8587","8","11","Female","","false","","","","","[712.3999999985099]","./assets/img/canyon/catch/4.jpg","[""spaceBar""]","value training","canyon","0","{""ArrowUp,ArrowLeft"":26,""ArrowUp,ArrowRight"":10,""ArrowDown,ArrowLeft"":5,""ArrowDown,ArrowRight"":17}","true","spaceBar","true","revaluation","1","78","","",""
"html-keyboard-response","196","1047172","0.0-4.0-2.0-1.39","spark_pilot_norest","8587","8","11","Female","","","","","","","null","<div style=""font-size:60px;"">+</div>","null","fixation","","","","","","","","","79","","",""
"revaluation","197","1051189","0.0-4.0-2.0-0.40","spark_pilot_norest","8587","8","11","Female","","false","","","","","[821.1999999992549]","./assets/img/canyon/catch/1.jpg","[""spaceBar""]","value training","canyon","0","{""ArrowUp,ArrowLeft"":26,""ArrowUp,ArrowRight"":10,""ArrowDown,ArrowLeft"":5,""ArrowDown,ArrowRight"":17}","true","spaceBar","true","revaluation","1","80","","",""
"html-keyboard-response","198","1051693","0.0-4.0-2.0-1.40","spark_pilot_norest","8587","8","11","Female","","","","","","","null","<div style=""font-size:60px;"">+</div>","null","fixation","","","","","","","","","81","","",""
"revaluation","199","1057717","0.0-4.0-2.0-0.41","spark_pilot_norest","8587","8","11","Female","","false","","","","","[673.6999999992549,291.5999999977648]","./assets/img/canyon/memory/31.jpg","[""ArrowUp"",""ArrowLeft""]","value training","canyon","26","{""ArrowUp,ArrowLeft"":26,""ArrowUp,ArrowRight"":10,""ArrowDown,ArrowLeft"":5,""ArrowDown,ArrowRight"":17}","true","ArrowUp,ArrowLeft","false","revaluation","1","82","","",""
"html-keyboard-response","200","1058221","0.0-4.0-2.0-1.41","spark_pilot_norest","8587","8","11","Female","","","","","","","null","<div style=""font-size:60px;"">+</div>","null","fixation","","","","","","","","","83","","",""
"revaluation","201","1064245","0.0-4.0-2.0-0.42","spark_pilot_norest","8587","8","11","Female","","false","","","","","[799.5,301.9000000022352]","./assets/img/canyon/memory/30.jpg","[""ArrowUp"",""ArrowLeft""]","value training","canyon","26","{""ArrowUp,ArrowLeft"":26,""ArrowUp,ArrowRight"":10,""ArrowDown,ArrowLeft"":5,""ArrowDown,ArrowRight"":17}","true","ArrowUp,ArrowLeft","false","revaluation","1","84","","",""
"html-keyboard-response","202","1064749","0.0-4.0-2.0-1.42","spark_pilot_norest","8587","8","11","Female","","","","","","","null","<div style=""font-size:60px;"">+</div>","null","fixation","","","","","","","","","85","","",""
"revaluation","203","1070773","0.0-4.0-2.0-0.43","spark_pilot_norest","8587","8","11","Female","","false","","","","","[590.1999999992549,327.5]","./assets/img/canyon/memory/33.jpg","[""ArrowUp"",""ArrowLeft""]","value training","canyon","26","{""ArrowUp,ArrowLeft"":26,""ArrowUp,ArrowRight"":10,""ArrowDown,ArrowLeft"":5,""ArrowDown,ArrowRight"":17}","true","ArrowUp,ArrowLeft","false","revaluation","1","86","","",""
"html-keyboard-response","204","1071277","0.0-4.0-2.0-1.43","spark_pilot_norest","8587","8","11","Female","","","","","","","null","<div style=""font-size:60px;"">+</div>","null","fixation","","","","","","","","","87","","",""
"revaluation","205","1077301","0.0-4.0-2.0-0.44","spark_pilot_norest","8587","8","11","Female","","false","","","","","[961.6000000014901,1102.3999999985099]","./assets/img/canyon/memory/3.jpg","[""ArrowUp"",""ArrowLeft""]","value training","canyon","26","{""ArrowUp,ArrowLeft"":26,""ArrowUp,ArrowRight"":10,""ArrowDown,ArrowLeft"":5,""ArrowDown,ArrowRight"":17}","true","ArrowUp,ArrowLeft","false","revaluation","1","88","","",""
"html-keyboard-response","206","1077805","0.0-4.0-2.0-1.44","spark_pilot_norest","8587","8","11","Female","","","","","","","null","<div style=""font-size:60px;"">+</div>","null","fixation","","","","","","","","","89","","",""
"revaluation","207","1083829","0.0-4.0-2.0-0.45","spark_pilot_norest","8587","8","11","Female","","false","","","","","[1008.6000000014901,533.7000000029802]","./assets/img/canyon/memory/8.jpg","[""ArrowUp"",""ArrowLeft""]","value training","canyon","26","{""ArrowUp,ArrowLeft"":26,""ArrowUp,ArrowRight"":10,""ArrowDown,ArrowLeft"":5,""ArrowDown,ArrowRight"":17}","true","ArrowUp,ArrowLeft","false","revaluation","1","90","","",""
"html-keyboard-response","208","1084333","0.0-4.0-2.0-1.45","spark_pilot_norest","8587","8","11","Female","","","","","","","null","<div style=""font-size:60px;"">+</div>","null","fixation","","","","","","","","","91","","",""
"revaluation","209","1090357","0.0-4.0-2.0-0.46","spark_pilot_norest","8587","8","11","Female","","false","","","","","[904.1000000014901,563.9000000022352]","./assets/img/canyon/memory/35.jpg","[""ArrowUp"",""ArrowLeft""]","value training","canyon","26","{""ArrowUp,ArrowLeft"":26,""ArrowUp,ArrowRight"":10,""ArrowDown,ArrowLeft"":5,""ArrowDown,ArrowRight"":17}","true","ArrowUp,ArrowLeft","false","revaluation","1","92","","",""
"html-keyboard-response","210","1090861","0.0-4.0-2.0-1.46","spark_pilot_norest","8587","8","11","Female","","","","","","","null","<div style=""font-size:60px;"">+</div>","null","fixation","","","","","","","","","93","","",""
"revaluation","211","1094877","0.0-4.0-2.0-0.47","spark_pilot_norest","8587","8","11","Female","","false","","","","","[891.3000000007451]","./assets/img/canyon/catch/0.jpg","[""spaceBar""]","value training","canyon","0","{""ArrowUp,ArrowLeft"":26,""ArrowUp,ArrowRight"":10,""ArrowDown,ArrowLeft"":5,""ArrowDown,ArrowRight"":17}","true","spaceBar","true","revaluation","1","94","","",""
"html-keyboard-response","212","1095381","0.0-4.0-2.0-1.47","spark_pilot_norest","8587","8","11","Female","","","","","","","null","<div style=""font-size:60px;"">+</div>","null","fixation","","","","","","","","","95","","",""
"revaluation","213","1101405","0.0-4.0-2.0-0.48","spark_pilot_norest","8587","8","11","Female","","false","","","","","[614.7000000029802,816.5]","./assets/img/canyon/memory/5.jpg","[""ArrowDown"",""ArrowRight""]","value training","canyon","17","{""ArrowUp,ArrowLeft"":26,""ArrowUp,ArrowRight"":10,""ArrowDown,ArrowLeft"":5,""ArrowDown,ArrowRight"":17}","false","ArrowDown,ArrowRight","false","revaluation","1","96","","",""
"html-keyboard-response","214","1101909","0.0-4.0-2.0-1.48","spark_pilot_norest","8587","8","11","Female","","","","","","","null","<div style=""font-size:60px;"">+</div>","null","fixation","","","","","","","","","97","","",""
"revaluation","215","1107933","0.0-4.0-2.0-0.49","spark_pilot_norest","8587","8","11","Female","","false","","","","","[1165.6000000014901,431.3999999985099]","./assets/img/canyon/memory/15.jpg","[""ArrowDown"",""ArrowLeft""]","value training","canyon","5","{""ArrowUp,ArrowLeft"":26,""ArrowUp,ArrowRight"":10,""ArrowDown,ArrowLeft"":5,""ArrowDown,ArrowRight"":17}","false","ArrowDown,ArrowLeft","false","revaluation","1","98","","",""
"html-keyboard-response","216","1108437","0.0-4.0-2.0-1.49","spark_pilot_norest","8587","8","11","Female","","","","","","","null","<div style=""font-size:60px;"">+</div>","null","fixation","","","","","","","","","99","","",""
"learning-instructions","217","1123456","0.0-4.0-3.0-0.0","spark_pilot_norest","8587","8","11","Female","","","","","","","2131.60000000149","<p> Now, you will travel with a friend who will choose whether you go up or down first. </p>
            <p> On these turns, you will just see the animal that they found. You will still get to choose which chest to search for treasure.</p>","","instructions","","","","","","","","","","","",""
"revaluation","218","1127469","0.0-4.0-4.0-0.0","spark_pilot_norest","8587","8","11","Female","","false","","","","","[676.5]","./assets/img/canyon/animals/lion.jpg","[""ArrowLeft""]","revaluation","canyon","8","{""ArrowUp,ArrowLeft"":2,""ArrowUp,ArrowRight"":11,""ArrowDown,ArrowLeft"":8,""ArrowDown,ArrowRight"":27}","false","ArrowDown,ArrowLeft","","revaluation","1","0","","",""
"html-keyboard-response","219","1127980","0.0-4.0-4.0-1.0","spark_pilot_norest","8587","8","11","Female","","","","","","","null","<div style=""font-size:60px;"">+</div>","null","fixation","","","","","","","","","1","","",""
"revaluation","220","1131997","0.0-4.0-4.0-0.1","spark_pilot_norest","8587","8","11","Female","","false","","","","","[905]","./assets/img/canyon/animals/giraffe.jpg","[""ArrowRight""]","revaluation","canyon","11","{""ArrowUp,ArrowLeft"":2,""ArrowUp,ArrowRight"":11,""ArrowDown,ArrowLeft"":8,""ArrowDown,ArrowRight"":27}","true","ArrowUp,ArrowRight","","revaluation","1","2","","",""
"html-keyboard-response","221","1132501","0.0-4.0-4.0-1.1","spark_pilot_norest","8587","8","11","Female","","","","","","","null","<div style=""font-size:60px;"">+</div>","null","fixation","","","","","","","","","3","","",""
"revaluation","222","1136517","0.0-4.0-4.0-0.2","spark_pilot_norest","8587","8","11","Female","","false","","","","","[428.29999999701977]","./assets/img/canyon/animals/giraffe.jpg","[""ArrowLeft""]","revaluation","canyon","2","{""ArrowUp,ArrowLeft"":2,""ArrowUp,ArrowRight"":11,""ArrowDown,ArrowLeft"":8,""ArrowDown,ArrowRight"":27}","false","ArrowUp,ArrowLeft","","revaluation","1","4","","",""
"html-keyboard-response","223","1137021","0.0-4.0-4.0-1.2","spark_pilot_norest","8587","8","11","Female","","","","","","","null","<div style=""font-size:60px;"">+</div>","null","fixation","","","","","","","","","5","","",""
"revaluation","224","1141037","0.0-4.0-4.0-0.3","spark_pilot_norest","8587","8","11","Female","","false","","","","","[663.9000000022352]","./assets/img/canyon/animals/giraffe.jpg","[""ArrowRight""]","revaluation","canyon","11","{""ArrowUp,ArrowLeft"":2,""ArrowUp,ArrowRight"":11,""ArrowDown,ArrowLeft"":8,""ArrowDown,ArrowRight"":27}","true","ArrowUp,ArrowRight","","revaluation","1","6","","",""
"html-keyboard-response","225","1141541","0.0-4.0-4.0-1.3","spark_pilot_norest","8587","8","11","Female","","","","","","","null","<div style=""font-size:60px;"">+</div>","null","fixation","","","","","","","","","7","","",""
"revaluation","226","1145557","0.0-4.0-4.0-0.4","spark_pilot_norest","8587","8","11","Female","","false","","","","","[492.19999999925494]","./assets/img/canyon/animals/lion.jpg","[""ArrowLeft""]","revaluation","canyon","8","{""ArrowUp,ArrowLeft"":2,""ArrowUp,ArrowRight"":11,""ArrowDown,ArrowLeft"":8,""ArrowDown,ArrowRight"":27}","false","ArrowDown,ArrowLeft","","revaluation","1","8","","",""
"html-keyboard-response","227","1146060","0.0-4.0-4.0-1.4","spark_pilot_norest","8587","8","11","Female","","","","","","","null","<div style=""font-size:60px;"">+</div>","null","fixation","","","","","","","","","9","","",""
"revaluation","228","1150077","0.0-4.0-4.0-0.5","spark_pilot_norest","8587","8","11","Female","","false","","","","","[427]","./assets/img/canyon/animals/lion.jpg","[""ArrowRight""]","revaluation","canyon","27","{""ArrowUp,ArrowLeft"":2,""ArrowUp,ArrowRight"":11,""ArrowDown,ArrowLeft"":8,""ArrowDown,ArrowRight"":27}","true","ArrowDown,ArrowRight","","revaluation","1","10","","",""
"html-keyboard-response","229","1150581","0.0-4.0-4.0-1.5","spark_pilot_norest","8587","8","11","Female","","","","","","","null","<div style=""font-size:60px;"">+</div>","null","fixation","","","","","","","","","11","","",""
"revaluation","230","1154597","0.0-4.0-4.0-0.6","spark_pilot_norest","8587","8","11","Female","","false","","","","","[1055.800000000745]","./assets/img/canyon/animals/giraffe.jpg","[""ArrowLeft""]","revaluation","canyon","2","{""ArrowUp,ArrowLeft"":2,""ArrowUp,ArrowRight"":11,""ArrowDown,ArrowLeft"":8,""ArrowDown,ArrowRight"":27}","false","ArrowUp,ArrowLeft","","revaluation","1","12","","",""
"html-keyboard-response","231","1155101","0.0-4.0-4.0-1.6","spark_pilot_norest","8587","8","11","Female","","","","","","","null","<div style=""font-size:60px;"">+</div>","null","fixation","","","","","","","","","13","","",""
"revaluation","232","1159117","0.0-4.0-4.0-0.7","spark_pilot_norest","8587","8","11","Female","","false","","","","","[641]","./assets/img/canyon/animals/giraffe.jpg","[""ArrowRight""]","revaluation","canyon","11","{""ArrowUp,ArrowLeft"":2,""ArrowUp,ArrowRight"":11,""ArrowDown,ArrowLeft"":8,""ArrowDown,ArrowRight"":27}","true","ArrowUp,ArrowRight","","revaluation","1","14","","",""
"html-keyboard-response","233","1159620","0.0-4.0-4.0-1.7","spark_pilot_norest","8587","8","11","Female","","","","","","","null","<div style=""font-size:60px;"">+</div>","null","fixation","","","","","","","","","15","","",""
"revaluation","234","1163637","0.0-4.0-4.0-0.8","spark_pilot_norest","8587","8","11","Female","","false","","","","","[311]","./assets/img/canyon/animals/lion.jpg","[""ArrowRight""]","revaluation","canyon","27","{""ArrowUp,ArrowLeft"":2,""ArrowUp,ArrowRight"":11,""ArrowDown,ArrowLeft"":8,""ArrowDown,ArrowRight"":27}","true","ArrowDown,ArrowRight","","revaluation","1","16","","",""
"html-keyboard-response","235","1164142","0.0-4.0-4.0-1.8","spark_pilot_norest","8587","8","11","Female","","","","","","","null","<div style=""font-size:60px;"">+</div>","null","fixation","","","","","","","","","17","","",""
"revaluation","236","1168166","0.0-4.0-4.0-0.9","spark_pilot_norest","8587","8","11","Female","","false","","","","","[399.3999999985099]","./assets/img/canyon/animals/lion.jpg","[""ArrowRight""]","revaluation","canyon","27","{""ArrowUp,ArrowLeft"":2,""ArrowUp,ArrowRight"":11,""ArrowDown,ArrowLeft"":8,""ArrowDown,ArrowRight"":27}","true","ArrowDown,ArrowRight","","revaluation","1","18","","",""
"html-keyboard-response","237","1168669","0.0-4.0-4.0-1.9","spark_pilot_norest","8587","8","11","Female","","","","","","","null","<div style=""font-size:60px;"">+</div>","null","fixation","","","","","","","","","19","","",""
"revaluation","238","1172685","0.0-4.0-4.0-0.10","spark_pilot_norest","8587","8","11","Female","","false","","","","","[379.5999999977648]","./assets/img/canyon/animals/giraffe.jpg","[""ArrowRight""]","revaluation","canyon","11","{""ArrowUp,ArrowLeft"":2,""ArrowUp,ArrowRight"":11,""ArrowDown,ArrowLeft"":8,""ArrowDown,ArrowRight"":27}","true","ArrowUp,ArrowRight","","revaluation","1","20","","",""
"html-keyboard-response","239","1173188","0.0-4.0-4.0-1.10","spark_pilot_norest","8587","8","11","Female","","","","","","","null","<div style=""font-size:60px;"">+</div>","null","fixation","","","","","","","","","21","","",""
"revaluation","240","1177205","0.0-4.0-4.0-0.11","spark_pilot_norest","8587","8","11","Female","","false","","","","","[360.4000000022352]","./assets/img/canyon/animals/giraffe.jpg","[""ArrowRight""]","revaluation","canyon","11","{""ArrowUp,ArrowLeft"":2,""ArrowUp,ArrowRight"":11,""ArrowDown,ArrowLeft"":8,""ArrowDown,ArrowRight"":27}","true","ArrowUp,ArrowRight","","revaluation","1","22","","",""
"html-keyboard-response","241","1177709","0.0-4.0-4.0-1.11","spark_pilot_norest","8587","8","11","Female","","","","","","","null","<div style=""font-size:60px;"">+</div>","null","fixation","","","","","","","","","23","","",""
"revaluation","242","1181725","0.0-4.0-4.0-0.12","spark_pilot_norest","8587","8","11","Female","","false","","","","","[266.69999999925494]","./assets/img/canyon/animals/giraffe.jpg","[""ArrowRight""]","revaluation","canyon","11","{""ArrowUp,ArrowLeft"":2,""ArrowUp,ArrowRight"":11,""ArrowDown,ArrowLeft"":8,""ArrowDown,ArrowRight"":27}","true","ArrowUp,ArrowRight","","revaluation","1","24","","",""
"html-keyboard-response","243","1182229","0.0-4.0-4.0-1.12","spark_pilot_norest","8587","8","11","Female","","","","","","","null","<div style=""font-size:60px;"">+</div>","null","fixation","","","","","","","","","25","","",""
"revaluation","244","1186245","0.0-4.0-4.0-0.13","spark_pilot_norest","8587","8","11","Female","","false","","","","","[546.3999999985099]","./assets/img/canyon/animals/lion.jpg","[""ArrowRight""]","revaluation","canyon","27","{""ArrowUp,ArrowLeft"":2,""ArrowUp,ArrowRight"":11,""ArrowDown,ArrowLeft"":8,""ArrowDown,ArrowRight"":27}","true","ArrowDown,ArrowRight","","revaluation","1","26","","",""
"html-keyboard-response","245","1186749","0.0-4.0-4.0-1.13","spark_pilot_norest","8587","8","11","Female","","","","","","","null","<div style=""font-size:60px;"">+</div>","null","fixation","","","","","","","","","27","","",""
"revaluation","246","1190765","0.0-4.0-4.0-0.14","spark_pilot_norest","8587","8","11","Female","","false","","","","","[366]","./assets/img/canyon/animals/giraffe.jpg","[""ArrowRight""]","revaluation","canyon","11","{""ArrowUp,ArrowLeft"":2,""ArrowUp,ArrowRight"":11,""ArrowDown,ArrowLeft"":8,""ArrowDown,ArrowRight"":27}","true","ArrowUp,ArrowRight","","revaluation","1","28","","",""
"html-keyboard-response","247","1191269","0.0-4.0-4.0-1.14","spark_pilot_norest","8587","8","11","Female","","","","","","","null","<div style=""font-size:60px;"">+</div>","null","fixation","","","","","","","","","29","","",""
"revaluation","248","1195285","0.0-4.0-4.0-0.15","spark_pilot_norest","8587","8","11","Female","","false","","","","","[485.6000000014901]","./assets/img/canyon/animals/lion.jpg","[""ArrowRight""]","revaluation","canyon","27","{""ArrowUp,ArrowLeft"":2,""ArrowUp,ArrowRight"":11,""ArrowDown,ArrowLeft"":8,""ArrowDown,ArrowRight"":27}","true","ArrowDown,ArrowRight","","revaluation","1","30","","",""
"html-keyboard-response","249","1195789","0.0-4.0-4.0-1.15","spark_pilot_norest","8587","8","11","Female","","","","","","","null","<div style=""font-size:60px;"">+</div>","null","fixation","","","","","","","","","31","","",""
"revaluation","250","1199805","0.0-4.0-4.0-0.16","spark_pilot_norest","8587","8","11","Female","","false","","","","","[509.5999999977648]","./assets/img/canyon/animals/lion.jpg","[""ArrowRight""]","revaluation","canyon","27","{""ArrowUp,ArrowLeft"":2,""ArrowUp,ArrowRight"":11,""ArrowDown,ArrowLeft"":8,""ArrowDown,ArrowRight"":27}","true","ArrowDown,ArrowRight","","revaluation","1","32","","",""
"html-keyboard-response","251","1200308","0.0-4.0-4.0-1.16","spark_pilot_norest","8587","8","11","Female","","","","","","","null","<div style=""font-size:60px;"">+</div>","null","fixation","","","","","","","","","33","","",""
"revaluation","252","1204325","0.0-4.0-4.0-0.17","spark_pilot_norest","8587","8","11","Female","","false","","","","","[416.80000000074506]","./assets/img/canyon/animals/lion.jpg","[""ArrowRight""]","revaluation","canyon","27","{""ArrowUp,ArrowLeft"":2,""ArrowUp,ArrowRight"":11,""ArrowDown,ArrowLeft"":8,""ArrowDown,ArrowRight"":27}","true","ArrowDown,ArrowRight","","revaluation","1","34","","",""
"html-keyboard-response","253","1204829","0.0-4.0-4.0-1.17","spark_pilot_norest","8587","8","11","Female","","","","","","","null","<div style=""font-size:60px;"">+</div>","null","fixation","","","","","","","","","35","","",""
"learning-instructions","254","1212940","0.0-4.0-5.0-0.0","spark_pilot_norest","8587","8","11","Female","","","","","","","null","<p> You have almost finished this part of the game! </p>
            <p> We are going to ask you to make a few more choices. </p>","","instructions","","","","","","","","","","","",""
"learning-instructions","255","1228918","0.0-4.0-5.0-0.1","spark_pilot_norest","8587","8","11","Female","","","","","","","null","<p> First, you need to decide whether to go up or down. When you see each picture, use the arrow keys to make your choice. </p>
            <p><b>You will not see which animal you found, but try to get to the one that will give you the most treasure.</b></p>","","instructions","","","","","","","","","","","",""
"html-keyboard-response","256","1229924","0.0-4.0-6.0-0.0","spark_pilot_norest","8587","8","11","Female","","","","","","","null","<div style=""font-size:100px;color:red;"">Starting in...</div>","null","","","","","","","","","","","","",""
"html-keyboard-response","257","1230933","0.0-4.0-6.0-1.0","spark_pilot_norest","8587","8","11","Female","","","","","","","null","<div style=""font-size:200px;color:red;"">3</div>","null","","","","","","","","","","","","",""
"html-keyboard-response","258","1231941","0.0-4.0-6.0-2.0","spark_pilot_norest","8587","8","11","Female","","","","","","","null","<div style=""font-size:200px;color:red;"">2</div>","null","","","","","","","","","","","","",""
"html-keyboard-response","259","1232949","0.0-4.0-6.0-3.0","spark_pilot_norest","8587","8","11","Female","","","","","","","null","<div style=""font-size:200px;color:red;"">1</div>","null","","","","","","","","","","","","",""
"revaluation","260","1233603","0.0-4.0-7.0-0.0","spark_pilot_norest","8587","8","11","Female","","false","","","","","[651.3000000007451]","./assets/img/canyon/test/0.jpg","[""ArrowUp""]","first stage test","canyon","0","{""ArrowUp,ArrowLeft"":2,""ArrowUp,ArrowRight"":11,""ArrowDown,ArrowLeft"":8,""ArrowDown,ArrowRight"":27}","false","ArrowUp","false","revaluation","1","","","",""
"html-keyboard-response","261","1234109","0.0-4.0-7.0-1.0","spark_pilot_norest","8587","8","11","Female","","","","","","","null","<div style=""font-size:60px;"">+</div>","null","fixation","","","","","","","","","","","",""
"revaluation","262","1235266","0.0-4.0-7.0-0.1","spark_pilot_norest","8587","8","11","Female","","false","","","","","[1152.699999999255]","./assets/img/canyon/test/1.jpg","[""ArrowDown""]","first stage test","canyon","0","{""ArrowUp,ArrowLeft"":2,""ArrowUp,ArrowRight"":11,""ArrowDown,ArrowLeft"":8,""ArrowDown,ArrowRight"":27}","true","ArrowDown","false","revaluation","1","","","",""
"html-keyboard-response","263","1235773","0.0-4.0-7.0-1.1","spark_pilot_norest","8587","8","11","Female","","","","","","","null","<div style=""font-size:60px;"">+</div>","null","fixation","","","","","","","","","","","",""
"revaluation","264","1236997","0.0-4.0-7.0-0.2","spark_pilot_norest","8587","8","11","Female","","false","","","","","[1220.5]","./assets/img/canyon/test/3.jpg","[""ArrowDown""]","first stage test","canyon","0","{""ArrowUp,ArrowLeft"":2,""ArrowUp,ArrowRight"":11,""ArrowDown,ArrowLeft"":8,""ArrowDown,ArrowRight"":27}","true","ArrowDown","false","revaluation","1","","","",""
"html-keyboard-response","265","1237501","0.0-4.0-7.0-1.2","spark_pilot_norest","8587","8","11","Female","","","","","","","null","<div style=""font-size:60px;"">+</div>","null","fixation","","","","","","","","","","","",""
"revaluation","266","1238434","0.0-4.0-7.0-0.3","spark_pilot_norest","8587","8","11","Female","","false","","","","","[928.1999999992549]","./assets/img/canyon/test/2.jpg","[""ArrowUp""]","first stage test","canyon","0","{""ArrowUp,ArrowLeft"":2,""ArrowUp,ArrowRight"":11,""ArrowDown,ArrowLeft"":8,""ArrowDown,ArrowRight"":27}","false","ArrowUp","false","revaluation","1","","","",""
"html-keyboard-response","267","1238941","0.0-4.0-7.0-1.3","spark_pilot_norest","8587","8","11","Female","","","","","","","null","<div style=""font-size:60px;"">+</div>","null","fixation","","","","","","","","","","","",""
"learning-instructions","268","1252284","0.0-4.0-8.0-0.0","spark_pilot_norest","8587","8","11","Female","","","","","","","null","<p> Now you will see the animals again and can search their chests for treasure. </p>
            <p> This time, you will not see how much treasure you earned, but you will earn more bonus money for making better choices. </p>","","instructions","","","","","","","","","","","",""
"html-keyboard-response","269","1253293","0.0-4.0-9.0-0.0","spark_pilot_norest","8587","8","11","Female","","","","","","","null","<div style=""font-size:100px;color:red;"">Starting in...</div>","null","","","","","","","","","","","","",""
"html-keyboard-response","270","1254301","0.0-4.0-9.0-1.0","spark_pilot_norest","8587","8","11","Female","","","","","","","null","<div style=""font-size:200px;color:red;"">3</div>","null","","","","","","","","","","","","",""
"html-keyboard-response","271","1255309","0.0-4.0-9.0-2.0","spark_pilot_norest","8587","8","11","Female","","","","","","","null","<div style=""font-size:200px;color:red;"">2</div>","null","","","","","","","","","","","","",""
"html-keyboard-response","272","1256317","0.0-4.0-9.0-3.0","spark_pilot_norest","8587","8","11","Female","","","","","","","null","<div style=""font-size:200px;color:red;"">1</div>","null","","","","","","","","","","","","",""
"revaluation","273","1257314","0.0-4.0-10.0-0.0","spark_pilot_norest","8587","8","11","Female","","false","","","","","[991.9000000022352]","./assets/img/canyon/animals/giraffe.jpg","[""ArrowRight""]","second stage test","canyon","0","{""ArrowUp,ArrowLeft"":2,""ArrowUp,ArrowRight"":11,""ArrowDown,ArrowLeft"":8,""ArrowDown,ArrowRight"":27}","true","ArrowUp,ArrowRight","","revaluation","1","","","",""
"html-keyboard-response","274","1257821","0.0-4.0-10.0-1.0","spark_pilot_norest","8587","8","11","Female","","","","","","","null","<div style=""font-size:60px;"">+</div>","null","fixation","","","","","","","","","","","",""
"revaluation","275","1258369","0.0-4.0-10.0-0.1","spark_pilot_norest","8587","8","11","Female","","false","","","","","[543]","./assets/img/canyon/animals/giraffe.jpg","[""ArrowLeft""]","second stage test","canyon","0","{""ArrowUp,ArrowLeft"":2,""ArrowUp,ArrowRight"":11,""ArrowDown,ArrowLeft"":8,""ArrowDown,ArrowRight"":27}","false","ArrowUp,ArrowLeft","","revaluation","1","","","",""
"html-keyboard-response","276","1258877","0.0-4.0-10.0-1.1","spark_pilot_norest","8587","8","11","Female","","","","","","","null","<div style=""font-size:60px;"">+</div>","null","fixation","","","","","","","","","","","",""
"revaluation","277","1259737","0.0-4.0-10.0-0.2","spark_pilot_norest","8587","8","11","Female","","false","","","","","[857.5]","./assets/img/canyon/animals/giraffe.jpg","[""ArrowRight""]","second stage test","canyon","0","{""ArrowUp,ArrowLeft"":2,""ArrowUp,ArrowRight"":11,""ArrowDown,ArrowLeft"":8,""ArrowDown,ArrowRight"":27}","true","ArrowUp,ArrowRight","","revaluation","1","","","",""
"html-keyboard-response","278","1260245","0.0-4.0-10.0-1.2","spark_pilot_norest","8587","8","11","Female","","","","","","","null","<div style=""font-size:60px;"">+</div>","null","fixation","","","","","","","","","","","",""
"revaluation","279","1261213","0.0-4.0-10.0-0.3","spark_pilot_norest","8587","8","11","Female","","false","","","","","[964.6999999992549]","./assets/img/canyon/animals/giraffe.jpg","[""ArrowRight""]","second stage test","canyon","0","{""ArrowUp,ArrowLeft"":2,""ArrowUp,ArrowRight"":11,""ArrowDown,ArrowLeft"":8,""ArrowDown,ArrowRight"":27}","true","ArrowUp,ArrowRight","","revaluation","1","","","",""
"html-keyboard-response","280","1261717","0.0-4.0-10.0-1.3","spark_pilot_norest","8587","8","11","Female","","","","","","","null","<div style=""font-size:60px;"">+</div>","null","fixation","","","","","","","","","","","",""
"revaluation","281","1262567","0.0-4.0-10.0-0.4","spark_pilot_norest","8587","8","11","Female","","false","","","","","[847.4000000022352]","./assets/img/canyon/animals/lion.jpg","[""ArrowLeft""]","second stage test","canyon","0","{""ArrowUp,ArrowLeft"":2,""ArrowUp,ArrowRight"":11,""ArrowDown,ArrowLeft"":8,""ArrowDown,ArrowRight"":27}","false","ArrowDown,ArrowLeft","","revaluation","1","","","",""
"html-keyboard-response","282","1263069","0.0-4.0-10.0-1.4","spark_pilot_norest","8587","8","11","Female","","","","","","","null","<div style=""font-size:60px;"">+</div>","null","fixation","","","","","","","","","","","",""
"revaluation","283","1263518","0.0-4.0-10.0-0.5","spark_pilot_norest","8587","8","11","Female","","false","","","","","[444.80000000074506]","./assets/img/canyon/animals/lion.jpg","[""ArrowRight""]","second stage test","canyon","0","{""ArrowUp,ArrowLeft"":2,""ArrowUp,ArrowRight"":11,""ArrowDown,ArrowLeft"":8,""ArrowDown,ArrowRight"":27}","true","ArrowDown,ArrowRight","","revaluation","1","","","",""
"html-keyboard-response","284","1264021","0.0-4.0-10.0-1.5","spark_pilot_norest","8587","8","11","Female","","","","","","","null","<div style=""font-size:60px;"">+</div>","null","fixation","","","","","","","","","","","",""
"revaluation","285","1264471","0.0-4.0-10.0-0.6","spark_pilot_norest","8587","8","11","Female","","false","","","","","[446.69999999925494]","./assets/img/canyon/animals/lion.jpg","[""ArrowRight""]","second stage test","canyon","0","{""ArrowUp,ArrowLeft"":2,""ArrowUp,ArrowRight"":11,""ArrowDown,ArrowLeft"":8,""ArrowDown,ArrowRight"":27}","true","ArrowDown,ArrowRight","","revaluation","1","","","",""
"html-keyboard-response","286","1264972","0.0-4.0-10.0-1.6","spark_pilot_norest","8587","8","11","Female","","","","","","","null","<div style=""font-size:60px;"">+</div>","null","fixation","","","","","","","","","","","",""
"revaluation","287","1265444","0.0-4.0-10.0-0.7","spark_pilot_norest","8587","8","11","Female","","false","","","","","[467.9000000022352]","./assets/img/canyon/animals/lion.jpg","[""ArrowLeft""]","second stage test","canyon","0","{""ArrowUp,ArrowLeft"":2,""ArrowUp,ArrowRight"":11,""ArrowDown,ArrowLeft"":8,""ArrowDown,ArrowRight"":27}","false","ArrowDown,ArrowLeft","","revaluation","1","","","",""
"html-keyboard-response","288","1265949","0.0-4.0-10.0-1.7","spark_pilot_norest","8587","8","11","Female","","","","","","","null","<div style=""font-size:60px;"">+</div>","null","fixation","","","","","","","","","","","",""
"learning-instructions","289","1272537","0.0-4.0-0.1-0.2","spark_pilot_norest","8587","8","11","Female","","","","","","","3875.60000000149","<p> This time you are searching for treasure in the <b>ocean</b>.</p>","","instructions","","","","","","","","","","","",""
"learning-instructions","290","1290785","0.0-4.0-0.1-0.3","spark_pilot_norest","8587","8","11","Female","","","","","","","991.6000000014901","<p><b>New</b> animals with <b>new</b> treasure chests live here. You need to explore to discover where the animal with the best treasure chest is.</p>
                    <p> Like before, once you figure out which animal has the chest with the most treasure, you should try to get to that animal and select that chest! </p>","","instructions","","","","","","","","","","","",""
"learning-instructions","291","1307001","0.0-4.0-1.1-0.1","spark_pilot_norest","8587","8","11","Female","","","","","","","1485.2000000029802","<p> Remember, when you see a picture of the place, use the up and down keys to <b>find an animal</b>.</p>
            <p> When you encounter an animal, you should use the left and right keys to <b>select a treasure chest</b>.</p>
            <p> Don't forget to look out for the robber! </p>","","instructions","","","","","","","","","","","",""
"revaluation","292","1311013","0.0-4.0-2.1-0.50","spark_pilot_norest","8587","8","11","Female","","false","","","","","[728.6999999992549]","./assets/img/ocean/catch/2.jpg","[""spaceBar""]","value training","ocean","0","{""ArrowUp,ArrowLeft"":23,""ArrowUp,ArrowRight"":10,""ArrowDown,ArrowLeft"":8,""ArrowDown,ArrowRight"":30}","true","spaceBar","true","original","2","0","","",""
"html-keyboard-response","293","1311517","0.0-4.0-2.1-1.50","spark_pilot_norest","8587","8","11","Female","","","","","","","null","<div style=""font-size:60px;"">+</div>","null","fixation","","","","","","","","","1","","",""
"revaluation","294","1317541","0.0-4.0-2.1-0.51","spark_pilot_norest","8587","8","11","Female","","false","","","","","[1145.5,445]","./assets/img/ocean/memory/10.jpg","[""ArrowUp"",""ArrowLeft""]","value training","ocean","23","{""ArrowUp,ArrowLeft"":23,""ArrowUp,ArrowRight"":10,""ArrowDown,ArrowLeft"":8,""ArrowDown,ArrowRight"":30}","false","ArrowUp,ArrowLeft","false","original","2","2","","",""
"html-keyboard-response","295","1318045","0.0-4.0-2.1-1.51","spark_pilot_norest","8587","8","11","Female","","","","","","","null","<div style=""font-size:60px;"">+</div>","null","fixation","","","","","","","","","3","","",""
"revaluation","296","1324069","0.0-4.0-2.1-0.52","spark_pilot_norest","8587","8","11","Female","","false","","","","","[1638,460]","./assets/img/ocean/memory/24.jpg","[""ArrowUp"",""ArrowRight""]","value training","ocean","10","{""ArrowUp,ArrowLeft"":23,""ArrowUp,ArrowRight"":10,""ArrowDown,ArrowLeft"":8,""ArrowDown,ArrowRight"":30}","false","ArrowUp,ArrowRight","false","original","2","4","","",""
"html-keyboard-response","297","1324573","0.0-4.0-2.1-1.52","spark_pilot_norest","8587","8","11","Female","","","","","","","null","<div style=""font-size:60px;"">+</div>","null","fixation","","","","","","","","","5","","",""
"revaluation","298","1328589","0.0-4.0-2.1-0.53","spark_pilot_norest","8587","8","11","Female","","false","","","","","[947.1000000014901]","./assets/img/ocean/catch/5.jpg","[""spaceBar""]","value training","ocean","0","{""ArrowUp,ArrowLeft"":23,""ArrowUp,ArrowRight"":10,""ArrowDown,ArrowLeft"":8,""ArrowDown,ArrowRight"":30}","true","spaceBar","true","original","2","6","","",""
"html-keyboard-response","299","1329093","0.0-4.0-2.1-1.53","spark_pilot_norest","8587","8","11","Female","","","","","","","null","<div style=""font-size:60px;"">+</div>","null","fixation","","","","","","","","","7","","",""
"revaluation","300","1335117","0.0-4.0-2.1-0.54","spark_pilot_norest","8587","8","11","Female","","false","","","","","[1369.4000000022352,465.1000000014901]","./assets/img/ocean/memory/20.jpg","[""ArrowUp"",""ArrowLeft""]","value training","ocean","23","{""ArrowUp,ArrowLeft"":23,""ArrowUp,ArrowRight"":10,""ArrowDown,ArrowLeft"":8,""ArrowDown,ArrowRight"":30}","false","ArrowUp,ArrowLeft","false","original","2","8","","",""
"html-keyboard-response","301","1335621","0.0-4.0-2.1-1.54","spark_pilot_norest","8587","8","11","Female","","","","","","","null","<div style=""font-size:60px;"">+</div>","null","fixation","","","","","","","","","9","","",""
"revaluation","302","1341645","0.0-4.0-2.1-0.55","spark_pilot_norest","8587","8","11","Female","","false","","","","","[1317.1000000014901,612.6999999992549]","./assets/img/ocean/memory/24.jpg","[""ArrowDown"",""ArrowRight""]","value training","ocean","30","{""ArrowUp,ArrowLeft"":23,""ArrowUp,ArrowRight"":10,""ArrowDown,ArrowLeft"":8,""ArrowDown,ArrowRight"":30}","true","ArrowDown,ArrowRight","false","original","2","10","","",""
"html-keyboard-response","303","1342149","0.0-4.0-2.1-1.55","spark_pilot_norest","8587","8","11","Female","","","","","","","null","<div style=""font-size:60px;"">+</div>","null","fixation","","","","","","","","","11","","",""
"revaluation","304","1348173","0.0-4.0-2.1-0.56","spark_pilot_norest","8587","8","11","Female","","false","","","","","[786.5,318.3999999985099]","./assets/img/ocean/memory/40.jpg","[""ArrowDown"",""ArrowRight""]","value training","ocean","30","{""ArrowUp,ArrowLeft"":23,""ArrowUp,ArrowRight"":10,""ArrowDown,ArrowLeft"":8,""ArrowDown,ArrowRight"":30}","true","ArrowDown,ArrowRight","false","original","2","12","","",""
"html-keyboard-response","305","1348677","0.0-4.0-2.1-1.56","spark_pilot_norest","8587","8","11","Female","","","","","","","null","<div style=""font-size:60px;"">+</div>","null","fixation","","","","","","","","","13","","",""
"revaluation","306","1352693","0.0-4.0-2.1-0.57","spark_pilot_norest","8587","8","11","Female","","false","","","","","[983.0999999977648]","./assets/img/ocean/catch/7.jpg","[""spaceBar""]","value training","ocean","0","{""ArrowUp,ArrowLeft"":23,""ArrowUp,ArrowRight"":10,""ArrowDown,ArrowLeft"":8,""ArrowDown,ArrowRight"":30}","true","spaceBar","true","original","2","14","","",""
"html-keyboard-response","307","1353197","0.0-4.0-2.1-1.57","spark_pilot_norest","8587","8","11","Female","","","","","","","null","<div style=""font-size:60px;"">+</div>","null","fixation","","","","","","","","","15","","",""
"revaluation","308","1359221","0.0-4.0-2.1-0.58","spark_pilot_norest","8587","8","11","Female","","false","","","","","[845.5999999977648,739.3999999985099]","./assets/img/ocean/memory/35.jpg","[""ArrowDown"",""ArrowRight""]","value training","ocean","30","{""ArrowUp,ArrowLeft"":23,""ArrowUp,ArrowRight"":10,""ArrowDown,ArrowLeft"":8,""ArrowDown,ArrowRight"":30}","true","ArrowDown,ArrowRight","false","original","2","16","","",""
"html-keyboard-response","309","1359724","0.0-4.0-2.1-1.58","spark_pilot_norest","8587","8","11","Female","","","","","","","null","<div style=""font-size:60px;"">+</div>","null","fixation","","","","","","","","","17","","",""
"revaluation","310","1365749","0.0-4.0-2.1-0.59","spark_pilot_norest","8587","8","11","Female","","false","","","","","[898,1063]","./assets/img/ocean/memory/8.jpg","[""ArrowDown"",""ArrowRight""]","value training","ocean","30","{""ArrowUp,ArrowLeft"":23,""ArrowUp,ArrowRight"":10,""ArrowDown,ArrowLeft"":8,""ArrowDown,ArrowRight"":30}","true","ArrowDown,ArrowRight","false","original","2","18","","",""
