"trial_type","trial_index","time_elapsed","internal_node_id","task_version","subject_id","assigned_condition","age","gender","success","timeout","failed_images","failed_audio","failed_video","browser_interaction","value","rt","stimulus","response","task_part","environment","score","rewardMap","correct","fullState","isCatch","condition","order","trial_num","key_press","ground_truth","bonus"
"pavlovia","0","1342","0.0-0.0","spark_pilot_norest","9998","8","21","Male","","","","","","","","","","","","","","","","","","","","","","",""
"preload","1","22136","0.0-1.0","spark_pilot_norest","9998","8","21","Male","true","false","[]","[]","[]","[{""event"":""fullscreenenter"",""trial"":2,""time"":29680},{""event"":""blur"",""trial"":601,""time"":1993555},{""event"":""fullscreenexit"",""trial"":601,""time"":2000607},{""event"":""focus"",""trial"":601,""time"":2000659}]","","","","","","","","","","","","","","","","",""
"fullscreen","2","30623","0.0-2.0","spark_pilot_norest","9998","8","21","Male","true","","","","","","","","","","","","","","","","","","","","","",""
"call-function","3","37103","0.0-3.0","spark_pilot_norest","9998","8","21","Male","","","","","","","","","","","","","","","","","","","","","","",""
"audio-button-response","4","38287","0.0-4.0-0.0-0.0","spark_pilot_norest","9998","8","21","Male","","","","","","","","1061","./assets/audio/audiotest/turtle.mp3","2","audio_test","","","","","","","","","","","",""
"learning-instructions","5","49703","0.0-4.0-1.0-0.0","spark_pilot_norest","9998","8","21","Male","","","","","","","","4459.000000000007","<p> Welcome! Please remember to stay in fullscreen mode and don't click away from the experiment. </p>","","instructions","","","","","","","","","","","",""
"learning-instructions","6","60010","0.0-4.0-1.0-0.1","spark_pilot_norest","9998","8","21","Male","","","","","","","","1918","<p> Today you will be playing a game to earn treasure. </p>
            <p> At the end of the experiment, you will earn a bonus based on how much treasure you find. </p>
            <img src='./assets/img/instructions/treasure.jpg' class='instructions-image'>","","instructions","","","","","","","","","","","",""
"learning-instructions","7","77126","0.0-4.0-1.0-0.2","spark_pilot_norest","9998","8","21","Male","","","","","","","","8875.999999999985","<p> Animals have hidden treasure in treasure chests. </p>
            <p> You need to first find an animal and then choose which of their treasure chests to search. </p>
            <img src='./assets/img/space/animals/cat.jpg' class='instructions-image'>","","instructions","","","","","","","","","","","",""
"learning-instructions","8","92145","0.0-4.0-1.0-0.3","spark_pilot_norest","9998","8","21","Male","","","","","","","","1888","<p> In each round, you will search for treasure in a different place. In the real game, there will be two rounds. </p>
            <p> You will begin with a separate, practice round where you will search for treasure in outer space. </p>
            <img src='./assets/img/space/0.jpg' class='instructions-image'>","","instructions","","","","","","","","","","","",""
"learning-instructions","9","105859","0.0-4.0-1.0-0.4","spark_pilot_norest","9998","8","21","Male","","","","","","","","2316.0000000000146","<p> On every turn, you will see a picture of the place that you are in, but the specific image may be different each time. </p>
            <p> For example, both of these images mean you are in outer space. </p>
            <img src='./assets/img/instructions/outerspace.jpg' class='instructions-image'>","","instructions","","","","","","","","","","","",""
"learning-instructions","10","114190","0.0-4.0-1.0-0.5","spark_pilot_norest","9998","8","21","Male","","","","","","","","524","<p> You need to decide which direction to travel in. </p>
            <p> You can choose between going <b>up or down</b> by using the arrow keys. </p>
            <img src='./assets/img/instructions/updown.jpg' class='instructions-image'>","","instructions","","","","","","","","","","","",""
"learning-instructions","11","123613","0.0-4.0-1.0-0.6","spark_pilot_norest","9998","8","21","Male","","","","","","","","634.9999999999854","<p> You will have <b>2 seconds</b> to make your choice. </p>
            <p> If you do not make a choice within 2 seconds, you will not find an animal or earn treasure. </p>
            <img src='./assets/img/instructions/2seconds.jpg' class='instructions-image'>","","instructions","","","","","","","","","","","",""
"learning-instructions","12","131092","0.0-4.0-1.0-0.7","spark_pilot_norest","9998","8","21","Male","","","","","","","","464","<p> Let’s try practicing that now! </p>
            <p> When you see a picture of the place you are in, press the <b>up</b> key to travel up. </p>
            <img src='./assets/img/instructions/pressUp.jpg' class='instructions-image'>","","instructions","","","","","","","","","","","",""
"revaluation","13","135108","0.0-4.0-2.0-0.0","spark_pilot_norest","9998","8","21","Male","","false","","","","","","[1099.000000000029]","./assets/img/space/0.jpg","[""ArrowUp""]","first stage practice","space","0","null","null","ArrowUp","false","","","","","",""
"html-keyboard-response","14","135612","0.0-4.0-2.0-1.0","spark_pilot_norest","9998","8","21","Male","","","","","","","","null","<div style=""font-size:60px;"">+</div>","null","fixation","","","","","","","","","","","",""
"revaluation","15","139616","0.0-4.0-2.0-0.1","spark_pilot_norest","9998","8","21","Male","","false","","","","","","[1388]","./assets/img/space/1.jpg","[""ArrowUp""]","first stage practice","space","0","null","null","ArrowUp","false","","","","","",""
"html-keyboard-response","16","140119","0.0-4.0-2.0-1.1","spark_pilot_norest","9998","8","21","Male","","","","","","","","null","<div style=""font-size:60px;"">+</div>","null","fixation","","","","","","","","","","","",""
"revaluation","17","144123","0.0-4.0-2.0-0.2","spark_pilot_norest","9998","8","21","Male","","false","","","","","","[608]","./assets/img/space/2.jpg","[""ArrowUp""]","first stage practice","space","0","null","null","ArrowUp","false","","","","","",""
"html-keyboard-response","18","144625","0.0-4.0-2.0-1.2","spark_pilot_norest","9998","8","21","Male","","","","","","","","null","<div style=""font-size:60px;"">+</div>","null","fixation","","","","","","","","","","","",""
"learning-instructions","19","150065","0.0-4.0-3.0-0.0","spark_pilot_norest","9998","8","21","Male","","","","","","","","757.0000000000291","<p> Great job! Now try pressing the <b>down</b> key to travel down. </p>
            <img src='./assets/img/instructions/pressDown.jpg' class='instructions-image'>","","instructions","","","","","","","","","","","",""
"revaluation","20","154070","0.0-4.0-4.0-0.0","spark_pilot_norest","9998","8","21","Male","","false","","","","","","[1105.000000000029]","./assets/img/space/3.jpg","[""ArrowDown""]","first stage practice","space","0","null","null","ArrowDown","false","","","","","",""
"html-keyboard-response","21","154572","0.0-4.0-4.0-1.0","spark_pilot_norest","9998","8","21","Male","","","","","","","","null","<div style=""font-size:60px;"">+</div>","null","fixation","","","","","","","","","","","",""
"revaluation","22","158576","0.0-4.0-4.0-0.1","spark_pilot_norest","9998","8","21","Male","","false","","","","","","[1161]","./assets/img/space/4.jpg","[""ArrowDown""]","first stage practice","space","0","null","null","ArrowDown","false","","","","","",""
"html-keyboard-response","23","159079","0.0-4.0-4.0-1.1","spark_pilot_norest","9998","8","21","Male","","","","","","","","null","<div style=""font-size:60px;"">+</div>","null","fixation","","","","","","","","","","","",""
"revaluation","24","163084","0.0-4.0-4.0-0.2","spark_pilot_norest","9998","8","21","Male","","true","","","","","","[]","./assets/img/space/5.jpg","[]","first stage practice","space","-5","null","null","","false","","","","","",""
"html-keyboard-response","25","163585","0.0-4.0-4.0-1.2","spark_pilot_norest","9998","8","21","Male","","","","","","","","null","<div style=""font-size:60px;"">+</div>","null","fixation","","","","","","","","","","","",""
"learning-instructions","26","174416","0.0-4.0-5.0-0.0","spark_pilot_norest","9998","8","21","Male","","","","","","","","1004","<p> The animals don’t move, so the animal in the upper part of a place will stay in the upper part of a place, and the animal in the lower part of a place will stay in the lower part of a place. </p>","","instructions","","","","","","","","","","","",""
"learning-instructions","27","184167","0.0-4.0-5.0-0.1","spark_pilot_norest","9998","8","21","Male","","","","","","","","642","<p> Each animal has two treasure chests for you to choose from. </p>
            <p> The amount of treasure in each chest can range from <b> 0 to 40 pieces.</b></p>","","instructions","","","","","","","","","","","",""
"learning-instructions","28","196086","0.0-4.0-5.0-0.2","spark_pilot_norest","9998","8","21","Male","","","","","","","","751","<p> You should decide which chest to search for treasure by using the <b>left</b> and <b>right</b> arrow keys. </p>
            <p><b> Pay attention to which animal is on the screen, as the animals have different treasure chests. </b></p>
            <img src='./assets/img/instructions/leftright.jpg' class='instructions-image'>","","instructions","","","","","","","","","","","",""
"learning-instructions","29","202853","0.0-4.0-5.0-0.3","spark_pilot_norest","9998","8","21","Male","","","","","","","","422","<p> Let’s try practicing that now. </p>
            <p> When you see an animal, choose which chest to search for treasure. </p>
            <img src='./assets/img/instructions/chooseChest.jpg' class='instructions-image'>","","instructions","","","","","","","","","","","",""
"revaluation","30","206859","0.0-4.0-6.0-0.0","spark_pilot_norest","9998","8","21","Male","","false","","","","","","[730]","./assets/img/space/animals/cat.jpg","[""ArrowLeft""]","second stage practice","space","3","{""ArrowUp,ArrowLeft"":3,""ArrowUp,ArrowRight"":36,""ArrowDown,ArrowLeft"":15,""ArrowDown,ArrowRight"":23}","false","ArrowUp,ArrowLeft","","","","","","",""
"html-keyboard-response","31","207362","0.0-4.0-6.0-1.0","spark_pilot_norest","9998","8","21","Male","","","","","","","","null","<div style=""font-size:60px;"">+</div>","null","fixation","","","","","","","","","","","",""
"revaluation","32","211370","0.0-4.0-6.0-0.1","spark_pilot_norest","9998","8","21","Male","","false","","","","","","[635.0000000000291]","./assets/img/space/animals/cat.jpg","[""ArrowRight""]","second stage practice","space","36","{""ArrowUp,ArrowLeft"":3,""ArrowUp,ArrowRight"":36,""ArrowDown,ArrowLeft"":15,""ArrowDown,ArrowRight"":23}","true","ArrowUp,ArrowRight","","","","","","",""
"html-keyboard-response","33","211874","0.0-4.0-6.0-1.1","spark_pilot_norest","9998","8","21","Male","","","","","","","","null","<div style=""font-size:60px;"">+</div>","null","fixation","","","","","","","","","","","",""
"revaluation","34","215883","0.0-4.0-6.0-0.2","spark_pilot_norest","9998","8","21","Male","","false","","","","","","[818.0000000000291]","./assets/img/space/animals/rabbit.jpg","[""ArrowLeft""]","second stage practice","space","15","{""ArrowUp,ArrowLeft"":3,""ArrowUp,ArrowRight"":36,""ArrowDown,ArrowLeft"":15,""ArrowDown,ArrowRight"":23}","false","ArrowDown,ArrowLeft","","","","","","",""
"html-keyboard-response","35","216385","0.0-4.0-6.0-1.2","spark_pilot_norest","9998","8","21","Male","","","","","","","","null","<div style=""font-size:60px;"">+</div>","null","fixation","","","","","","","","","","","",""
"revaluation","36","220391","0.0-4.0-6.0-0.3","spark_pilot_norest","9998","8","21","Male","","false","","","","","","[332]","./assets/img/space/animals/rabbit.jpg","[""ArrowRight""]","second stage practice","space","23","{""ArrowUp,ArrowLeft"":3,""ArrowUp,ArrowRight"":36,""ArrowDown,ArrowLeft"":15,""ArrowDown,ArrowRight"":23}","true","ArrowDown,ArrowRight","","","","","","",""
"html-keyboard-response","37","220892","0.0-4.0-6.0-1.3","spark_pilot_norest","9998","8","21","Male","","","","","","","","null","<div style=""font-size:60px;"">+</div>","null","fixation","","","","","","","","","","","",""
"learning-instructions","38","238206","0.0-4.0-7.0-0.0","spark_pilot_norest","9998","8","21","Male","","","","","","","","522.0000000000291","<p> Great job. Now let’s try putting it together. </p>
            <p> On each turn, you will first see a picture to remind you of the place you are in, and you need to choose whether to go up or down. </p>
            <p> Then you will see an animal and choose which of its chests to search for treasure. </p>","","instructions","","","","","","","","","","","",""
"learning-instructions","39","246947","0.0-4.0-7.0-0.1","spark_pilot_norest","9998","8","21","Male","","","","","","","","502.9999999999709","<p> When you choose whether to go up or down, try to go to the animal with the chest with the most treasure. </p>
            <p> Try practicing that now! </p>","","instructions","","","","","","","","","","","",""
"revaluation","40","252953","0.0-4.0-8.0-0.0","spark_pilot_norest","9998","8","21","Male","","false","","","","","","[1043.000000000029,899]","./assets/img/space/6.jpg","[""ArrowUp"",""ArrowRight""]","full practice","space","36","{""ArrowUp,ArrowLeft"":3,""ArrowUp,ArrowRight"":36,""ArrowDown,ArrowLeft"":15,""ArrowDown,ArrowRight"":23}","true","ArrowUp,ArrowRight","false","","","","","",""
"html-keyboard-response","41","253455","0.0-4.0-8.0-1.0","spark_pilot_norest","9998","8","21","Male","","","","","","","","null","<div style=""font-size:60px;"">+</div>","null","fixation","","","","","","","","","","","",""
"revaluation","42","259461","0.0-4.0-8.0-0.1","spark_pilot_norest","9998","8","21","Male","","false","","","","","","[810.9999999999709,651]","./assets/img/space/7.jpg","[""ArrowDown"",""ArrowLeft""]","full practice","space","15","{""ArrowUp,ArrowLeft"":3,""ArrowUp,ArrowRight"":36,""ArrowDown,ArrowLeft"":15,""ArrowDown,ArrowRight"":23}","false","ArrowDown,ArrowLeft","false","","","","","",""
"html-keyboard-response","43","259963","0.0-4.0-8.0-1.1","spark_pilot_norest","9998","8","21","Male","","","","","","","","null","<div style=""font-size:60px;"">+</div>","null","fixation","","","","","","","","","","","",""
"revaluation","44","265969","0.0-4.0-8.0-0.2","spark_pilot_norest","9998","8","21","Male","","false","","","","","","[804.9999999999709,669]","./assets/img/space/8.jpg","[""ArrowDown"",""ArrowLeft""]","full practice","space","15","{""ArrowUp,ArrowLeft"":3,""ArrowUp,ArrowRight"":36,""ArrowDown,ArrowLeft"":15,""ArrowDown,ArrowRight"":23}","false","ArrowDown,ArrowLeft","false","","","","","",""
"html-keyboard-response","45","266471","0.0-4.0-8.0-1.2","spark_pilot_norest","9998","8","21","Male","","","","","","","","null","<div style=""font-size:60px;"">+</div>","null","fixation","","","","","","","","","","","",""
"revaluation","46","272477","0.0-4.0-8.0-0.3","spark_pilot_norest","9998","8","21","Male","","false","","","","","","[1497,618]","./assets/img/space/9.jpg","[""ArrowDown"",""ArrowRight""]","full practice","space","23","{""ArrowUp,ArrowLeft"":3,""ArrowUp,ArrowRight"":36,""ArrowDown,ArrowLeft"":15,""ArrowDown,ArrowRight"":23}","false","ArrowDown,ArrowRight","false","","","","","",""
"html-keyboard-response","47","272979","0.0-4.0-8.0-1.3","spark_pilot_norest","9998","8","21","Male","","","","","","","","null","<div style=""font-size:60px;"">+</div>","null","fixation","","","","","","","","","","","",""
"revaluation","48","278986","0.0-4.0-8.0-0.4","spark_pilot_norest","9998","8","21","Male","","false","","","","","","[1252,858]","./assets/img/space/10.jpg","[""ArrowDown"",""ArrowLeft""]","full practice","space","15","{""ArrowUp,ArrowLeft"":3,""ArrowUp,ArrowRight"":36,""ArrowDown,ArrowLeft"":15,""ArrowDown,ArrowRight"":23}","false","ArrowDown,ArrowLeft","false","","","","","",""
"html-keyboard-response","49","279487","0.0-4.0-8.0-1.4","spark_pilot_norest","9998","8","21","Male","","","","","","","","null","<div style=""font-size:60px;"">+</div>","null","fixation","","","","","","","","","","","",""
"learning-instructions","50","290945","0.0-4.0-9.0-0.0","spark_pilot_norest","9998","8","21","Male","","","","","","","","1163","<p> One last thing: sometimes, you will see a robber. The robber can be anywhere in the picture. </p>
            <p> If you do not stop them, you will lose treasure. </p>
            <img src='./assets/img/instructions/robber.jpg' class='instructions-image'>","","instructions","","","","","","","","","","","",""
"learning-instructions","51","298934","0.0-4.0-9.0-0.1","spark_pilot_norest","9998","8","21","Male","","","","","","","","839","<p> If you see the robber, you should <b>press the space bar</b> rather than using the arrow keys. </p>
            <p> Try practicing that now! </p>","","instructions","","","","","","","","","","","",""
"revaluation","52","302939","0.0-4.0-10.0-0.0","spark_pilot_norest","9998","8","21","Male","","false","","","","","","[664.9999999999418]","./assets/img/space/catch/0.jpg","[""spaceBar""]","catch practice","space","0","{""ArrowUp,ArrowLeft"":3,""ArrowUp,ArrowRight"":36,""ArrowDown,ArrowLeft"":15,""ArrowDown,ArrowRight"":23}","true","spaceBar","true","","","","","",""
"html-keyboard-response","53","303441","0.0-4.0-10.0-1.0","spark_pilot_norest","9998","8","21","Male","","","","","","","","null","<div style=""font-size:60px;"">+</div>","null","fixation","","","","","","","","","","","",""
"revaluation","54","307445","0.0-4.0-10.0-0.1","spark_pilot_norest","9998","8","21","Male","","false","","","","","","[603]","./assets/img/space/catch/1.jpg","[""spaceBar""]","catch practice","space","0","{""ArrowUp,ArrowLeft"":3,""ArrowUp,ArrowRight"":36,""ArrowDown,ArrowLeft"":15,""ArrowDown,ArrowRight"":23}","true","spaceBar","true","","","","","",""
"html-keyboard-response","55","307946","0.0-4.0-10.0-1.1","spark_pilot_norest","9998","8","21","Male","","","","","","","","null","<div style=""font-size:60px;"">+</div>","null","fixation","","","","","","","","","","","",""
"revaluation","56","311950","0.0-4.0-10.0-0.2","spark_pilot_norest","9998","8","21","Male","","false","","","","","","[437]","./assets/img/space/catch/2.jpg","[""spaceBar""]","catch practice","space","0","{""ArrowUp,ArrowLeft"":3,""ArrowUp,ArrowRight"":36,""ArrowDown,ArrowLeft"":15,""ArrowDown,ArrowRight"":23}","true","spaceBar","true","","","","","",""
"html-keyboard-response","57","312453","0.0-4.0-10.0-1.2","spark_pilot_norest","9998","8","21","Male","","","","","","","","null","<div style=""font-size:60px;"">+</div>","null","fixation","","","","","","","","","","","",""
"learning-instructions","58","318225","0.0-4.0-11.0-0.0-0.0","spark_pilot_norest","9998","8","21","Male","","","","","","","","543","<p> Now, you will practice a shortened version of the game to get a sense of how it all fits together. </p>","","instructions","","","","","","","","","","","",""
"learning-instructions","59","322252","0.0-4.0-11.0-0.0-0.1","spark_pilot_norest","9998","8","21","Male","","","","","","","","855","<p>This time you are searching for treasure in outer space.</p>","","instructions","","","","","","","","","","","",""
"learning-instructions","60","337409","0.0-4.0-11.0-1.0-0.0","spark_pilot_norest","9998","8","21","Male","","","","","","","","409.9999999999418","<p> Remember, when you see a picture of the place, use the up and down keys to <b>find an animal</b>.</p>
            <p> When you encounter an animal, you should use the left and right keys to <b>select a treasure chest</b>.</p>
            <p> Don't forget to look out for the robber! </p>","","instructions","","","","","","","","","","","",""
"revaluation","61","343415","0.0-4.0-11.0-2.0-0.0","spark_pilot_norest","9998","8","21","Male","","false","","","","","","[1134.9999999999418,413]","./assets/img/space/11.jpg","[""ArrowUp"",""ArrowRight""]","practice block","space","36","{""ArrowUp,ArrowLeft"":3,""ArrowUp,ArrowRight"":36,""ArrowDown,ArrowLeft"":15,""ArrowDown,ArrowRight"":23}","true","ArrowUp,ArrowRight","false","","","","","",""
"html-keyboard-response","62","343917","0.0-4.0-11.0-2.0-1.0","spark_pilot_norest","9998","8","21","Male","","","","","","","","null","<div style=""font-size:60px;"">+</div>","null","fixation","","","","","","","","","","","",""
"revaluation","63","349923","0.0-4.0-11.0-2.0-0.1","spark_pilot_norest","9998","8","21","Male","","false","","","","","","[1091,1095]","./assets/img/space/12.jpg","[""ArrowDown"",""ArrowLeft""]","practice block","space","15","{""ArrowUp,ArrowLeft"":3,""ArrowUp,ArrowRight"":36,""ArrowDown,ArrowLeft"":15,""ArrowDown,ArrowRight"":23}","false","ArrowDown,ArrowLeft","false","","","","","",""
"html-keyboard-response","64","350423","0.0-4.0-11.0-2.0-1.1","spark_pilot_norest","9998","8","21","Male","","","","","","","","null","<div style=""font-size:60px;"">+</div>","null","fixation","","","","","","","","","","","",""
"revaluation","65","356429","0.0-4.0-11.0-2.0-0.2","spark_pilot_norest","9998","8","21","Male","","false","","","","","","[643,970]","./assets/img/space/13.jpg","[""ArrowDown"",""ArrowRight""]","practice block","space","23","{""ArrowUp,ArrowLeft"":3,""ArrowUp,ArrowRight"":36,""ArrowDown,ArrowLeft"":15,""ArrowDown,ArrowRight"":23}","false","ArrowDown,ArrowRight","false","","","","","",""
"html-keyboard-response","66","356930","0.0-4.0-11.0-2.0-1.2","spark_pilot_norest","9998","8","21","Male","","","","","","","","null","<div style=""font-size:60px;"">+</div>","null","fixation","","","","","","","","","","","",""
"revaluation","67","362936","0.0-4.0-11.0-2.0-0.3","spark_pilot_norest","9998","8","21","Male","","false","","","","","","[1115.0000000000582,828.0000000000582]","./assets/img/space/14.jpg","[""ArrowDown"",""ArrowRight""]","practice block","space","23","{""ArrowUp,ArrowLeft"":3,""ArrowUp,ArrowRight"":36,""ArrowDown,ArrowLeft"":15,""ArrowDown,ArrowRight"":23}","false","ArrowDown,ArrowRight","false","","","","","",""
"html-keyboard-response","68","363437","0.0-4.0-11.0-2.0-1.3","spark_pilot_norest","9998","8","21","Male","","","","","","","","null","<div style=""font-size:60px;"">+</div>","null","fixation","","","","","","","","","","","",""
"revaluation","69","369443","0.0-4.0-11.0-2.0-0.4","spark_pilot_norest","9998","8","21","Male","","false","","","","","","[1234.9999999999418,1009]","./assets/img/space/11.jpg","[""ArrowUp"",""ArrowRight""]","practice block","space","36","{""ArrowUp,ArrowLeft"":3,""ArrowUp,ArrowRight"":36,""ArrowDown,ArrowLeft"":15,""ArrowDown,ArrowRight"":23}","true","ArrowUp,ArrowRight","false","","","","","",""
"html-keyboard-response","70","369944","0.0-4.0-11.0-2.0-1.4","spark_pilot_norest","9998","8","21","Male","","","","","","","","null","<div style=""font-size:60px;"">+</div>","null","fixation","","","","","","","","","","","",""
"revaluation","71","375949","0.0-4.0-11.0-2.0-0.5","spark_pilot_norest","9998","8","21","Male","","false","","","","","","[1570.9999999999418,972]","./assets/img/space/12.jpg","[""ArrowDown"",""ArrowRight""]","practice block","space","23","{""ArrowUp,ArrowLeft"":3,""ArrowUp,ArrowRight"":36,""ArrowDown,ArrowLeft"":15,""ArrowDown,ArrowRight"":23}","false","ArrowDown,ArrowRight","false","","","","","",""
"html-keyboard-response","72","376450","0.0-4.0-11.0-2.0-1.5","spark_pilot_norest","9998","8","21","Male","","","","","","","","null","<div style=""font-size:60px;"">+</div>","null","fixation","","","","","","","","","","","",""
"revaluation","73","382456","0.0-4.0-11.0-2.0-0.6","spark_pilot_norest","9998","8","21","Male","","false","","","","","","[1100,810]","./assets/img/space/13.jpg","[""ArrowDown"",""ArrowRight""]","practice block","space","23","{""ArrowUp,ArrowLeft"":3,""ArrowUp,ArrowRight"":36,""ArrowDown,ArrowLeft"":15,""ArrowDown,ArrowRight"":23}","false","ArrowDown,ArrowRight","false","","","","","",""
"html-keyboard-response","74","382957","0.0-4.0-11.0-2.0-1.6","spark_pilot_norest","9998","8","21","Male","","","","","","","","null","<div style=""font-size:60px;"">+</div>","null","fixation","","","","","","","","","","","",""
"revaluation","75","388963","0.0-4.0-11.0-2.0-0.7","spark_pilot_norest","9998","8","21","Male","","false","","","","","","[792,387]","./assets/img/space/14.jpg","[""ArrowDown"",""ArrowRight""]","practice block","space","23","{""ArrowUp,ArrowLeft"":3,""ArrowUp,ArrowRight"":36,""ArrowDown,ArrowLeft"":15,""ArrowDown,ArrowRight"":23}","false","ArrowDown,ArrowRight","false","","","","","",""
"html-keyboard-response","76","389464","0.0-4.0-11.0-2.0-1.7","spark_pilot_norest","9998","8","21","Male","","","","","","","","null","<div style=""font-size:60px;"">+</div>","null","fixation","","","","","","","","","","","",""
"revaluation","77","393468","0.0-4.0-11.0-2.0-0.8","spark_pilot_norest","9998","8","21","Male","","false","","","","","","[557.0000000000582]","./assets/img/space/catch/3.jpg","[""spaceBar""]","practice block","space","0","{""ArrowUp,ArrowLeft"":3,""ArrowUp,ArrowRight"":36,""ArrowDown,ArrowLeft"":15,""ArrowDown,ArrowRight"":23}","true","spaceBar","true","","","","","",""
"html-keyboard-response","78","393970","0.0-4.0-11.0-2.0-1.8","spark_pilot_norest","9998","8","21","Male","","","","","","","","null","<div style=""font-size:60px;"">+</div>","null","fixation","","","","","","","","","","","",""
"learning-instructions","79","407843","0.0-4.0-11.0-3.0-0.0","spark_pilot_norest","9998","8","21","Male","","","","","","","","977","<p> Now, you will travel with a friend who will choose whether you go up or down first. </p>
            <p> On these turns, you will just see the animal that they found. You will still get to choose which chest to search for treasure.</p>","","instructions","","","","","","","","","","","",""
"revaluation","80","411848","0.0-4.0-11.0-4.0-0.0","spark_pilot_norest","9998","8","21","Male","","false","","","","","","[662]","./assets/img/space/animals/rabbit.jpg","[""ArrowRight""]","practice block","space","23","{""ArrowUp,ArrowLeft"":3,""ArrowUp,ArrowRight"":36,""ArrowDown,ArrowLeft"":15,""ArrowDown,ArrowRight"":23}","true","ArrowDown,ArrowRight","","","","","","",""
"html-keyboard-response","81","412349","0.0-4.0-11.0-4.0-1.0","spark_pilot_norest","9998","8","21","Male","","","","","","","","null","<div style=""font-size:60px;"">+</div>","null","fixation","","","","","","","","","","","",""
"revaluation","82","416353","0.0-4.0-11.0-4.0-0.1","spark_pilot_norest","9998","8","21","Male","","false","","","","","","[411]","./assets/img/space/animals/rabbit.jpg","[""ArrowRight""]","practice block","space","23","{""ArrowUp,ArrowLeft"":3,""ArrowUp,ArrowRight"":36,""ArrowDown,ArrowLeft"":15,""ArrowDown,ArrowRight"":23}","true","ArrowDown,ArrowRight","","","","","","",""
"html-keyboard-response","83","416856","0.0-4.0-11.0-4.0-1.1","spark_pilot_norest","9998","8","21","Male","","","","","","","","null","<div style=""font-size:60px;"">+</div>","null","fixation","","","","","","","","","","","",""
"revaluation","84","420860","0.0-4.0-11.0-4.0-0.2","spark_pilot_norest","9998","8","21","Male","","false","","","","","","[661]","./assets/img/space/animals/cat.jpg","[""ArrowRight""]","practice block","space","36","{""ArrowUp,ArrowLeft"":3,""ArrowUp,ArrowRight"":36,""ArrowDown,ArrowLeft"":15,""ArrowDown,ArrowRight"":23}","true","ArrowUp,ArrowRight","","","","","","",""
"html-keyboard-response","85","421362","0.0-4.0-11.0-4.0-1.2","spark_pilot_norest","9998","8","21","Male","","","","","","","","null","<div style=""font-size:60px;"">+</div>","null","fixation","","","","","","","","","","","",""
"revaluation","86","425367","0.0-4.0-11.0-4.0-0.3","spark_pilot_norest","9998","8","21","Male","","false","","","","","","[627]","./assets/img/space/animals/cat.jpg","[""ArrowLeft""]","practice block","space","3","{""ArrowUp,ArrowLeft"":3,""ArrowUp,ArrowRight"":36,""ArrowDown,ArrowLeft"":15,""ArrowDown,ArrowRight"":23}","false","ArrowUp,ArrowLeft","","","","","","",""
"html-keyboard-response","87","425869","0.0-4.0-11.0-4.0-1.3","spark_pilot_norest","9998","8","21","Male","","","","","","","","null","<div style=""font-size:60px;"">+</div>","null","fixation","","","","","","","","","","","",""
"learning-instructions","88","433978","0.0-4.0-11.0-5.0-0.0","spark_pilot_norest","9998","8","21","Male","","","","","","","","null","<p> You have almost finished this part of the game! </p>
            <p> We are going to ask you to make a few more choices. </p>","","instructions","","","","","","","","","","","",""
"learning-instructions","89","449969","0.0-4.0-11.0-5.0-0.1","spark_pilot_norest","9998","8","21","Male","","","","","","","","null","<p> First, you need to decide whether to go up or down. When you see each picture, use the arrow keys to make your choice. </p>
            <p><b>You will not see which animal you found, but try to get to the one that will give you the most treasure.</b></p>","","instructions","","","","","","","","","","","",""
"html-keyboard-response","90","450971","0.0-4.0-11.0-6.0-0.0","spark_pilot_norest","9998","8","21","Male","","","","","","","","null","<div style=""font-size:100px;color:red;"">Starting in...</div>","null","","","","","","","","","","","","",""
"html-keyboard-response","91","451973","0.0-4.0-11.0-6.0-1.0","spark_pilot_norest","9998","8","21","Male","","","","","","","","null","<div style=""font-size:200px;color:red;"">3</div>","null","","","","","","","","","","","","",""
"html-keyboard-response","92","452975","0.0-4.0-11.0-6.0-2.0","spark_pilot_norest","9998","8","21","Male","","","","","","","","null","<div style=""font-size:200px;color:red;"">2</div>","null","","","","","","","","","","","","",""
"html-keyboard-response","93","453977","0.0-4.0-11.0-6.0-3.0","spark_pilot_norest","9998","8","21","Male","","","","","","","","null","<div style=""font-size:200px;color:red;"">1</div>","null","","","","","","","","","","","","",""
"revaluation","94","454741","0.0-4.0-11.0-7.0","spark_pilot_norest","9998","8","21","Male","","false","","","","","","[762]","./assets/img/space/15.jpg","[""ArrowDown""]","practice block","space","0","{""ArrowUp,ArrowLeft"":3,""ArrowUp,ArrowRight"":36,""ArrowDown,ArrowLeft"":15,""ArrowDown,ArrowRight"":23}","false","ArrowDown","false","","","","","",""
"html-keyboard-response","95","455243","0.0-4.0-11.0-8.0","spark_pilot_norest","9998","8","21","Male","","","","","","","","null","<div style=""font-size:60px;"">+</div>","null","fixation","","","","","","","","","","","",""
"learning-instructions","96","468601","0.0-4.0-11.0-9.0-0.0","spark_pilot_norest","9998","8","21","Male","","","","","","","","null","<p> Now you will see the animals again and can search their chests for treasure. </p>
            <p> This time, you will not see how much treasure you earned, but you will earn more bonus money for making better choices. </p>","","instructions","","","","","","","","","","","",""
"html-keyboard-response","97","469603","0.0-4.0-11.0-10.0-0.0","spark_pilot_norest","9998","8","21","Male","","","","","","","","null","<div style=""font-size:100px;color:red;"">Starting in...</div>","null","","","","","","","","","","","","",""
"html-keyboard-response","98","470605","0.0-4.0-11.0-10.0-1.0","spark_pilot_norest","9998","8","21","Male","","","","","","","","null","<div style=""font-size:200px;color:red;"">3</div>","null","","","","","","","","","","","","",""
"html-keyboard-response","99","471608","0.0-4.0-11.0-10.0-2.0","spark_pilot_norest","9998","8","21","Male","","","","","","","","null","<div style=""font-size:200px;color:red;"">2</div>","null","","","","","","","","","","","","",""
"html-keyboard-response","100","472610","0.0-4.0-11.0-10.0-3.0","spark_pilot_norest","9998","8","21","Male","","","","","","","","null","<div style=""font-size:200px;color:red;"">1</div>","null","","","","","","","","","","","","",""
"revaluation","101","473253","0.0-4.0-11.0-11.0-0.0","spark_pilot_norest","9998","8","21","Male","","false","","","","","","[641]","./assets/img/space/animals/cat.jpg","[""ArrowRight""]","practice block","space","0","{""ArrowUp,ArrowLeft"":3,""ArrowUp,ArrowRight"":36,""ArrowDown,ArrowLeft"":15,""ArrowDown,ArrowRight"":23}","true","ArrowUp,ArrowRight","","","","","","",""
"html-keyboard-response","102","473755","0.0-4.0-11.0-11.0-1.0","spark_pilot_norest","9998","8","21","Male","","","","","","","","null","<div style=""font-size:60px;"">+</div>","null","fixation","","","","","","","","","","","",""
"revaluation","103","474511","0.0-4.0-11.0-11.0-0.1","spark_pilot_norest","9998","8","21","Male","","false","","","","","","[754]","./assets/img/space/animals/rabbit.jpg","[""ArrowLeft""]","practice block","space","0","{""ArrowUp,ArrowLeft"":3,""ArrowUp,ArrowRight"":36,""ArrowDown,ArrowLeft"":15,""ArrowDown,ArrowRight"":23}","false","ArrowDown,ArrowLeft","","","","","","",""
"html-keyboard-response","104","475013","0.0-4.0-11.0-11.0-1.1","spark_pilot_norest","9998","8","21","Male","","","","","","","","null","<div style=""font-size:60px;"">+</div>","null","fixation","","","","","","","","","","","",""
"learning-instructions","105","480671","0.0-4.0-12.0-0.0","spark_pilot_norest","9998","8","21","Male","","","","","","","","1094","<p> Before you start, we're going to ask you a few questions about how the game works. </p>","","instructions","","","","","","","","","","","",""
"comp-q","106","487117","0.0-4.0-13.0-0.0-0.0","spark_pilot_norest","9998","8","21","Male","","","","","","","","876.0000000000582","<p> <b> True or False? </b> </p>
            <p> There can be 50 pieces of treasure in a given animal's chest. </p>","0","comp_question","","","","false","","","","","","","",""
"comp-q","107","494216","0.0-4.0-13.0-0.0-1.0","spark_pilot_norest","9998","8","21","Male","","","","","","","","587","<p> <b>Incorrect.</b> The amount of treasure in each chest can range from 0 to 40 pieces. </p>","0","comp_answer","","","","","","","","","","","",""
"comp-q","108","501828","0.0-4.0-13.0-0.1-0.1","spark_pilot_norest","9998","8","21","Male","","","","","","","","2052","<p> <b> True or False? </b> </p>
            <p> There can be 50 pieces of treasure in a given animal's chest. </p>","1","comp_question","","","","true","","","","","","","",""
"comp-q","109","509393","0.0-4.0-13.0-0.1-1.1","spark_pilot_norest","9998","8","21","Male","","","","","","","","924","<p> <b> That's right! </b> The amount of treasure in each chest can range from 0 to 40 pieces. </p>","0","comp_answer","","","","","","","","","","","",""
"comp-q","110","517047","0.0-4.0-13.0-0.2-0.2","spark_pilot_norest","9998","8","21","Male","","","","","","","","554","<p> <b> True or False? </b> </p><p> In this game, all animals have the same amount of treasure in their left and right chests. </p>","1","comp_question","","","","true","","","","","","","",""
"comp-q","111","523598","0.0-4.0-13.0-0.2-1.2","spark_pilot_norest","9998","8","21","Male","","","","","","","","1336.0000000000582","<p> <b> That's right! </b> Animals have different amounts of treasure in their treasure chests. </p>","0","comp_answer","","","","","","","","","","","",""
"comp-q","112","530031","0.0-4.0-13.0-0.3-0.3","spark_pilot_norest","9998","8","21","Male","","","","","","","","603","<p> <b> True or False? </b> </p><p> The same animal will always be there if you go up in the same place. </p>","1","comp_question","","","","false","","","","","","","",""
"comp-q","113","537973","0.0-4.0-13.0-0.3-1.3","spark_pilot_norest","9998","8","21","Male","","","","","","","","1652.0000000001164","<p> <b>Incorrect.</b> One animal lives in the upper part and one lives in the lower part of every place. </p>","0","comp_answer","","","","","","","","","","","",""
"comp-q","114","544320","0.0-4.0-13.0-0.4-0.4","spark_pilot_norest","9998","8","21","Male","","","","","","","","525","<p> <b> True or False? </b> </p><p> The same animal will always be there if you go up in the same place. </p>","0","comp_question","","","","true","","","","","","","",""
"comp-q","115","551774","0.0-4.0-13.0-0.4-1.4","spark_pilot_norest","9998","8","21","Male","","","","","","","","1022","<p> <b> That's right! </b> One animal lives in the upper part and one lives in the lower part of every place. </p>","0","comp_answer","","","","","","","","","","","",""
"comp-q","116","557758","0.0-4.0-13.0-0.5-0.5","spark_pilot_norest","9998","8","21","Male","","","","","","","","472","<p> <b> True or False? </b> </p><p> If you see a different picture, it means you are in a new place. </p>","0","comp_question","","","","false","","","","","","","",""
"comp-q","117","569496","0.0-4.0-13.0-0.5-1.5","spark_pilot_norest","9998","8","21","Male","","","","","","","","661.0000000001164","<p> <b>Incorrect.</b> Lots of different images may show the same place. For example,  you may see three different images that all remind you that you are in outer space. </p>","0","comp_answer","","","","","","","","","","","",""
"comp-q","118","575444","0.0-4.0-13.0-0.6-0.6","spark_pilot_norest","9998","8","21","Male","","","","","","","","446","<p> <b> True or False? </b> </p><p> If you see a different picture, it means you are in a new place. </p>","1","comp_question","","","","true","","","","","","","",""
"comp-q","119","587263","0.0-4.0-13.0-0.6-1.6","spark_pilot_norest","9998","8","21","Male","","","","","","","","612","<p> <b> That's right! </b> Lots of different images may show the same place. For example,  you may see three different images that all remind you that you are in outer space. </p>","0","comp_answer","","","","","","","","","","","",""
"learning-instructions","120","598389","0.0-4.0-14.0-0.0","spark_pilot_norest","9998","8","21","Male","","","","","","","","1292.9999999998836","<p> Good job. Remember to do your best because the amount of treasure you earn will be converted into bonus money. </p>
            <p> It’s time to start the real game! </p>","","instructions","","","","","","","","","","","",""
"learning-instructions","121","602506","0.0-5.0-0.0-0.0","spark_pilot_norest","9998","8","21","Male","","","","","","","","1359","<p> This time you are searching for treasure in the <b>canyon</b>.</p>","","instructions","","","","","","","","","","","",""
"learning-instructions","122","620513","0.0-5.0-0.0-0.1","spark_pilot_norest","9998","8","21","Male","","","","","","","","731","<p><b>New</b> animals with <b>new</b> treasure chests live here. You need to explore to discover where the animal with the best treasure chest is.</p>
                    <p> Like before, once you figure out which animal has the chest with the most treasure, you should try to get to that animal and select that chest! </p>","","instructions","","","","","","","","","","","",""
"learning-instructions","123","636185","0.0-5.0-1.0-0.0","spark_pilot_norest","9998","8","21","Male","","","","","","","","941","<p> Remember, when you see a picture of the place, use the up and down keys to <b>find an animal</b>.</p>
            <p> When you encounter an animal, you should use the left and right keys to <b>select a treasure chest</b>.</p>
            <p> Don't forget to look out for the robber! </p>","","instructions","","","","","","","","","","","",""
"revaluation","124","642190","0.0-5.0-2.0-0.0","spark_pilot_norest","9998","8","21","Male","","false","","","","","","[1126,618]","./assets/img/canyon/memory/22.jpg","[""ArrowUp"",""ArrowRight""]","value training","canyon","10","{""ArrowUp,ArrowLeft"":26,""ArrowUp,ArrowRight"":10,""ArrowDown,ArrowLeft"":5,""ArrowDown,ArrowRight"":17}","false","ArrowUp,ArrowRight","false","revaluation","1","0","","",""
"html-keyboard-response","125","642693","0.0-5.0-2.0-1.0","spark_pilot_norest","9998","8","21","Male","","","","","","","","null","<div style=""font-size:60px;"">+</div>","null","fixation","","","","","","","","","1","","",""
"revaluation","126","648698","0.0-5.0-2.0-0.1","spark_pilot_norest","9998","8","21","Male","","false","","","","","","[588,441.9999999998836]","./assets/img/canyon/memory/37.jpg","[""ArrowDown"",""ArrowRight""]","value training","canyon","17","{""ArrowUp,ArrowLeft"":26,""ArrowUp,ArrowRight"":10,""ArrowDown,ArrowLeft"":5,""ArrowDown,ArrowRight"":17}","false","ArrowDown,ArrowRight","false","revaluation","1","2","","",""
"html-keyboard-response","127","649201","0.0-5.0-2.0-1.1","spark_pilot_norest","9998","8","21","Male","","","","","","","","null","<div style=""font-size:60px;"">+</div>","null","fixation","","","","","","","","","3","","",""
"revaluation","128","655206","0.0-5.0-2.0-0.2","spark_pilot_norest","9998","8","21","Male","","false","","","","","","[1147,1194]","./assets/img/canyon/memory/41.jpg","[""ArrowDown"",""ArrowLeft""]","value training","canyon","5","{""ArrowUp,ArrowLeft"":26,""ArrowUp,ArrowRight"":10,""ArrowDown,ArrowLeft"":5,""ArrowDown,ArrowRight"":17}","false","ArrowDown,ArrowLeft","false","revaluation","1","4","","",""
"html-keyboard-response","129","655707","0.0-5.0-2.0-1.2","spark_pilot_norest","9998","8","21","Male","","","","","","","","null","<div style=""font-size:60px;"">+</div>","null","fixation","","","","","","","","","5","","",""
"revaluation","130","659712","0.0-5.0-2.0-0.3","spark_pilot_norest","9998","8","21","Male","","false","","","","","","[737.0000000001164]","./assets/img/canyon/catch/1.jpg","[""ArrowDown""]","value training","canyon","-10","{""ArrowUp,ArrowLeft"":26,""ArrowUp,ArrowRight"":10,""ArrowDown,ArrowLeft"":5,""ArrowDown,ArrowRight"":17}","false","ArrowDown","true","revaluation","1","6","","",""
"html-keyboard-response","131","660214","0.0-5.0-2.0-1.3","spark_pilot_norest","9998","8","21","Male","","","","","","","","null","<div style=""font-size:60px;"">+</div>","null","fixation","","","","","","","","","7","","",""
"revaluation","132","666220","0.0-5.0-2.0-0.4","spark_pilot_norest","9998","8","21","Male","","false","","","","","","[744,617]","./assets/img/canyon/memory/16.jpg","[""ArrowDown"",""ArrowRight""]","value training","canyon","17","{""ArrowUp,ArrowLeft"":26,""ArrowUp,ArrowRight"":10,""ArrowDown,ArrowLeft"":5,""ArrowDown,ArrowRight"":17}","false","ArrowDown,ArrowRight","false","revaluation","1","8","","",""
"html-keyboard-response","133","666722","0.0-5.0-2.0-1.4","spark_pilot_norest","9998","8","21","Male","","","","","","","","null","<div style=""font-size:60px;"">+</div>","null","fixation","","","","","","","","","9","","",""
"revaluation","134","670726","0.0-5.0-2.0-0.5","spark_pilot_norest","9998","8","21","Male","","false","","","","","","[667]","./assets/img/canyon/catch/5.jpg","[""spaceBar""]","value training","canyon","0","{""ArrowUp,ArrowLeft"":26,""ArrowUp,ArrowRight"":10,""ArrowDown,ArrowLeft"":5,""ArrowDown,ArrowRight"":17}","true","spaceBar","true","revaluation","1","10","","",""
"html-keyboard-response","135","671229","0.0-5.0-2.0-1.5","spark_pilot_norest","9998","8","21","Male","","","","","","","","null","<div style=""font-size:60px;"">+</div>","null","fixation","","","","","","","","","11","","",""
"revaluation","136","677234","0.0-5.0-2.0-0.6","spark_pilot_norest","9998","8","21","Male","","false","","","","","","[894,489]","./assets/img/canyon/memory/33.jpg","[""ArrowUp"",""ArrowRight""]","value training","canyon","10","{""ArrowUp,ArrowLeft"":26,""ArrowUp,ArrowRight"":10,""ArrowDown,ArrowLeft"":5,""ArrowDown,ArrowRight"":17}","false","ArrowUp,ArrowRight","false","revaluation","1","12","","",""
"html-keyboard-response","137","677737","0.0-5.0-2.0-1.6","spark_pilot_norest","9998","8","21","Male","","","","","","","","null","<div style=""font-size:60px;"">+</div>","null","fixation","","","","","","","","","13","","",""
"revaluation","138","683742","0.0-5.0-2.0-0.7","spark_pilot_norest","9998","8","21","Male","","false","","","","","","[957,520]","./assets/img/canyon/memory/40.jpg","[""ArrowDown"",""ArrowRight""]","value training","canyon","17","{""ArrowUp,ArrowLeft"":26,""ArrowUp,ArrowRight"":10,""ArrowDown,ArrowLeft"":5,""ArrowDown,ArrowRight"":17}","false","ArrowDown,ArrowRight","false","revaluation","1","14","","",""
"html-keyboard-response","139","684243","0.0-5.0-2.0-1.7","spark_pilot_norest","9998","8","21","Male","","","","","","","","null","<div style=""font-size:60px;"">+</div>","null","fixation","","","","","","","","","15","","",""
"revaluation","140","688248","0.0-5.0-2.0-0.8","spark_pilot_norest","9998","8","21","Male","","false","","","","","","[811]","./assets/img/canyon/catch/6.jpg","[""spaceBar""]","value training","canyon","0","{""ArrowUp,ArrowLeft"":26,""ArrowUp,ArrowRight"":10,""ArrowDown,ArrowLeft"":5,""ArrowDown,ArrowRight"":17}","true","spaceBar","true","revaluation","1","16","","",""
"html-keyboard-response","141","688750","0.0-5.0-2.0-1.8","spark_pilot_norest","9998","8","21","Male","","","","","","","","null","<div style=""font-size:60px;"">+</div>","null","fixation","","","","","","","","","17","","",""
"revaluation","142","694756","0.0-5.0-2.0-0.9","spark_pilot_norest","9998","8","21","Male","","false","","","","","","[697,911]","./assets/img/canyon/memory/40.jpg","[""ArrowUp"",""ArrowLeft""]","value training","canyon","26","{""ArrowUp,ArrowLeft"":26,""ArrowUp,ArrowRight"":10,""ArrowDown,ArrowLeft"":5,""ArrowDown,ArrowRight"":17}","true","ArrowUp,ArrowLeft","false","revaluation","1","18","","",""
"html-keyboard-response","143","695257","0.0-5.0-2.0-1.9","spark_pilot_norest","9998","8","21","Male","","","","","","","","null","<div style=""font-size:60px;"">+</div>","null","fixation","","","","","","","","","19","","",""
"revaluation","144","701262","0.0-5.0-2.0-0.10","spark_pilot_norest","9998","8","21","Male","","false","","","","","","[797,771]","./assets/img/canyon/memory/1.jpg","[""ArrowUp"",""ArrowLeft""]","value training","canyon","26","{""ArrowUp,ArrowLeft"":26,""ArrowUp,ArrowRight"":10,""ArrowDown,ArrowLeft"":5,""ArrowDown,ArrowRight"":17}","true","ArrowUp,ArrowLeft","false","revaluation","1","20","","",""
"html-keyboard-response","145","701764","0.0-5.0-2.0-1.10","spark_pilot_norest","9998","8","21","Male","","","","","","","","null","<div style=""font-size:60px;"">+</div>","null","fixation","","","","","","","","","21","","",""
"revaluation","146","707769","0.0-5.0-2.0-0.11","spark_pilot_norest","9998","8","21","Male","","false","","","","","","[761,648]","./assets/img/canyon/memory/41.jpg","[""ArrowUp"",""ArrowLeft""]","value training","canyon","26","{""ArrowUp,ArrowLeft"":26,""ArrowUp,ArrowRight"":10,""ArrowDown,ArrowLeft"":5,""ArrowDown,ArrowRight"":17}","true","ArrowUp,ArrowLeft","false","revaluation","1","22","","",""
"html-keyboard-response","147","708272","0.0-5.0-2.0-1.11","spark_pilot_norest","9998","8","21","Male","","","","","","","","null","<div style=""font-size:60px;"">+</div>","null","fixation","","","","","","","","","23","","",""
"revaluation","148","714278","0.0-5.0-2.0-0.12","spark_pilot_norest","9998","8","21","Male","","false","","","","","","[485,619]","./assets/img/canyon/memory/35.jpg","[""ArrowUp"",""ArrowLeft""]","value training","canyon","26","{""ArrowUp,ArrowLeft"":26,""ArrowUp,ArrowRight"":10,""ArrowDown,ArrowLeft"":5,""ArrowDown,ArrowRight"":17}","true","ArrowUp,ArrowLeft","false","revaluation","1","24","","",""
"html-keyboard-response","149","714780","0.0-5.0-2.0-1.12","spark_pilot_norest","9998","8","21","Male","","","","","","","","null","<div style=""font-size:60px;"">+</div>","null","fixation","","","","","","","","","25","","",""
"revaluation","150","720785","0.0-5.0-2.0-0.13","spark_pilot_norest","9998","8","21","Male","","false","","","","","","[630,554]","./assets/img/canyon/memory/16.jpg","[""ArrowUp"",""ArrowLeft""]","value training","canyon","26","{""ArrowUp,ArrowLeft"":26,""ArrowUp,ArrowRight"":10,""ArrowDown,ArrowLeft"":5,""ArrowDown,ArrowRight"":17}","true","ArrowUp,ArrowLeft","false","revaluation","1","26","","",""
"html-keyboard-response","151","721286","0.0-5.0-2.0-1.13","spark_pilot_norest","9998","8","21","Male","","","","","","","","null","<div style=""font-size:60px;"">+</div>","null","fixation","","","","","","","","","27","","",""
"revaluation","152","727292","0.0-5.0-2.0-0.14","spark_pilot_norest","9998","8","21","Male","","false","","","","","","[997,442]","./assets/img/canyon/memory/25.jpg","[""ArrowUp"",""ArrowLeft""]","value training","canyon","26","{""ArrowUp,ArrowLeft"":26,""ArrowUp,ArrowRight"":10,""ArrowDown,ArrowLeft"":5,""ArrowDown,ArrowRight"":17}","true","ArrowUp,ArrowLeft","false","revaluation","1","28","","",""
"html-keyboard-response","153","727794","0.0-5.0-2.0-1.14","spark_pilot_norest","9998","8","21","Male","","","","","","","","null","<div style=""font-size:60px;"">+</div>","null","fixation","","","","","","","","","29","","",""
"revaluation","154","731798","0.0-5.0-2.0-0.15","spark_pilot_norest","9998","8","21","Male","","false","","","","","","[589]","./assets/img/canyon/catch/4.jpg","[""ArrowUp""]","value training","canyon","-10","{""ArrowUp,ArrowLeft"":26,""ArrowUp,ArrowRight"":10,""ArrowDown,ArrowLeft"":5,""ArrowDown,ArrowRight"":17}","false","ArrowUp","true","revaluation","1","30","","",""
"html-keyboard-response","155","732300","0.0-5.0-2.0-1.15","spark_pilot_norest","9998","8","21","Male","","","","","","","","null","<div style=""font-size:60px;"">+</div>","null","fixation","","","","","","","","","31","","",""
"revaluation","156","738305","0.0-5.0-2.0-0.16","spark_pilot_norest","9998","8","21","Male","","false","","","","","","[688,427]","./assets/img/canyon/memory/33.jpg","[""ArrowUp"",""ArrowLeft""]","value training","canyon","26","{""ArrowUp,ArrowLeft"":26,""ArrowUp,ArrowRight"":10,""ArrowDown,ArrowLeft"":5,""ArrowDown,ArrowRight"":17}","true","ArrowUp,ArrowLeft","false","revaluation","1","32","","",""
"html-keyboard-response","157","738808","0.0-5.0-2.0-1.16","spark_pilot_norest","9998","8","21","Male","","","","","","","","null","<div style=""font-size:60px;"">+</div>","null","fixation","","","","","","","","","33","","",""
"revaluation","158","744813","0.0-5.0-2.0-0.17","spark_pilot_norest","9998","8","21","Male","","false","","","","","","[445,457]","./assets/img/canyon/memory/9.jpg","[""ArrowUp"",""ArrowLeft""]","value training","canyon","26","{""ArrowUp,ArrowLeft"":26,""ArrowUp,ArrowRight"":10,""ArrowDown,ArrowLeft"":5,""ArrowDown,ArrowRight"":17}","true","ArrowUp,ArrowLeft","false","revaluation","1","34","","",""
"html-keyboard-response","159","745315","0.0-5.0-2.0-1.17","spark_pilot_norest","9998","8","21","Male","","","","","","","","null","<div style=""font-size:60px;"">+</div>","null","fixation","","","","","","","","","35","","",""
"revaluation","160","751321","0.0-5.0-2.0-0.18","spark_pilot_norest","9998","8","21","Male","","false","","","","","","[822,399]","./assets/img/canyon/memory/6.jpg","[""ArrowUp"",""ArrowLeft""]","value training","canyon","26","{""ArrowUp,ArrowLeft"":26,""ArrowUp,ArrowRight"":10,""ArrowDown,ArrowLeft"":5,""ArrowDown,ArrowRight"":17}","true","ArrowUp,ArrowLeft","false","revaluation","1","36","","",""
"html-keyboard-response","161","751822","0.0-5.0-2.0-1.18","spark_pilot_norest","9998","8","21","Male","","","","","","","","null","<div style=""font-size:60px;"">+</div>","null","fixation","","","","","","","","","37","","",""
"revaluation","162","757828","0.0-5.0-2.0-0.19","spark_pilot_norest","9998","8","21","Male","","false","","","","","","[692,400]","./assets/img/canyon/memory/22.jpg","[""ArrowUp"",""ArrowLeft""]","value training","canyon","26","{""ArrowUp,ArrowLeft"":26,""ArrowUp,ArrowRight"":10,""ArrowDown,ArrowLeft"":5,""ArrowDown,ArrowRight"":17}","true","ArrowUp,ArrowLeft","false","revaluation","1","38","","",""
"html-keyboard-response","163","758329","0.0-5.0-2.0-1.19","spark_pilot_norest","9998","8","21","Male","","","","","","","","null","<div style=""font-size:60px;"">+</div>","null","fixation","","","","","","","","","39","","",""
"revaluation","164","764335","0.0-5.0-2.0-0.20","spark_pilot_norest","9998","8","21","Male","","false","","","","","","[883,391.0000000001164]","./assets/img/canyon/memory/32.jpg","[""ArrowUp"",""ArrowLeft""]","value training","canyon","26","{""ArrowUp,ArrowLeft"":26,""ArrowUp,ArrowRight"":10,""ArrowDown,ArrowLeft"":5,""ArrowDown,ArrowRight"":17}","true","ArrowUp,ArrowLeft","false","revaluation","1","40","","",""
"html-keyboard-response","165","764837","0.0-5.0-2.0-1.20","spark_pilot_norest","9998","8","21","Male","","","","","","","","null","<div style=""font-size:60px;"">+</div>","null","fixation","","","","","","","","","41","","",""
"revaluation","166","770843","0.0-5.0-2.0-0.21","spark_pilot_norest","9998","8","21","Male","","false","","","","","","[848,331]","./assets/img/canyon/memory/34.jpg","[""ArrowUp"",""ArrowLeft""]","value training","canyon","26","{""ArrowUp,ArrowLeft"":26,""ArrowUp,ArrowRight"":10,""ArrowDown,ArrowLeft"":5,""ArrowDown,ArrowRight"":17}","true","ArrowUp,ArrowLeft","false","revaluation","1","42","","",""
"html-keyboard-response","167","771345","0.0-5.0-2.0-1.21","spark_pilot_norest","9998","8","21","Male","","","","","","","","null","<div style=""font-size:60px;"">+</div>","null","fixation","","","","","","","","","43","","",""
"revaluation","168","777351","0.0-5.0-2.0-0.22","spark_pilot_norest","9998","8","21","Male","","false","","","","","","[649,1120]","./assets/img/canyon/memory/9.jpg","[""ArrowUp"",""ArrowLeft""]","value training","canyon","26","{""ArrowUp,ArrowLeft"":26,""ArrowUp,ArrowRight"":10,""ArrowDown,ArrowLeft"":5,""ArrowDown,ArrowRight"":17}","true","ArrowUp,ArrowLeft","false","revaluation","1","44","","",""
"html-keyboard-response","169","777853","0.0-5.0-2.0-1.22","spark_pilot_norest","9998","8","21","Male","","","","","","","","null","<div style=""font-size:60px;"">+</div>","null","fixation","","","","","","","","","45","","",""
"revaluation","170","783859","0.0-5.0-2.0-0.23","spark_pilot_norest","9998","8","21","Male","","false","","","","","","[455,373]","./assets/img/canyon/memory/15.jpg","[""ArrowUp"",""ArrowRight""]","value training","canyon","10","{""ArrowUp,ArrowLeft"":26,""ArrowUp,ArrowRight"":10,""ArrowDown,ArrowLeft"":5,""ArrowDown,ArrowRight"":17}","false","ArrowUp,ArrowRight","false","revaluation","1","46","","",""
"html-keyboard-response","171","784361","0.0-5.0-2.0-1.23","spark_pilot_norest","9998","8","21","Male","","","","","","","","null","<div style=""font-size:60px;"">+</div>","null","fixation","","","","","","","","","47","","",""
"revaluation","172","790366","0.0-5.0-2.0-0.24","spark_pilot_norest","9998","8","21","Male","","false","","","","","","[505,427]","./assets/img/canyon/memory/38.jpg","[""ArrowUp"",""ArrowLeft""]","value training","canyon","26","{""ArrowUp,ArrowLeft"":26,""ArrowUp,ArrowRight"":10,""ArrowDown,ArrowLeft"":5,""ArrowDown,ArrowRight"":17}","true","ArrowUp,ArrowLeft","false","revaluation","1","48","","",""
"html-keyboard-response","173","790868","0.0-5.0-2.0-1.24","spark_pilot_norest","9998","8","21","Male","","","","","","","","null","<div style=""font-size:60px;"">+</div>","null","fixation","","","","","","","","","49","","",""
"revaluation","174","796873","0.0-5.0-2.0-0.25","spark_pilot_norest","9998","8","21","Male","","false","","","","","","[459,503]","./assets/img/canyon/memory/1.jpg","[""ArrowUp"",""ArrowLeft""]","value training","canyon","26","{""ArrowUp,ArrowLeft"":26,""ArrowUp,ArrowRight"":10,""ArrowDown,ArrowLeft"":5,""ArrowDown,ArrowRight"":17}","true","ArrowUp,ArrowLeft","false","revaluation","1","50","","",""
"html-keyboard-response","175","797375","0.0-5.0-2.0-1.25","spark_pilot_norest","9998","8","21","Male","","","","","","","","null","<div style=""font-size:60px;"">+</div>","null","fixation","","","","","","","","","51","","",""
"revaluation","176","803380","0.0-5.0-2.0-0.26","spark_pilot_norest","9998","8","21","Male","","false","","","","","","[691,410]","./assets/img/canyon/memory/18.jpg","[""ArrowUp"",""ArrowLeft""]","value training","canyon","26","{""ArrowUp,ArrowLeft"":26,""ArrowUp,ArrowRight"":10,""ArrowDown,ArrowLeft"":5,""ArrowDown,ArrowRight"":17}","true","ArrowUp,ArrowLeft","false","revaluation","1","52","","",""
"html-keyboard-response","177","803881","0.0-5.0-2.0-1.26","spark_pilot_norest","9998","8","21","Male","","","","","","","","null","<div style=""font-size:60px;"">+</div>","null","fixation","","","","","","","","","53","","",""
"revaluation","178","809887","0.0-5.0-2.0-0.27","spark_pilot_norest","9998","8","21","Male","","false","","","","","","[474,394]","./assets/img/canyon/memory/31.jpg","[""ArrowUp"",""ArrowLeft""]","value training","canyon","26","{""ArrowUp,ArrowLeft"":26,""ArrowUp,ArrowRight"":10,""ArrowDown,ArrowLeft"":5,""ArrowDown,ArrowRight"":17}","true","ArrowUp,ArrowLeft","false","revaluation","1","54","","",""
"html-keyboard-response","179","810388","0.0-5.0-2.0-1.27","spark_pilot_norest","9998","8","21","Male","","","","","","","","null","<div style=""font-size:60px;"">+</div>","null","fixation","","","","","","","","","55","","",""
"revaluation","180","816394","0.0-5.0-2.0-0.28","spark_pilot_norest","9998","8","21","Male","","false","","","","","","[540.9999999998836,445]","./assets/img/canyon/memory/13.jpg","[""ArrowUp"",""ArrowLeft""]","value training","canyon","26","{""ArrowUp,ArrowLeft"":26,""ArrowUp,ArrowRight"":10,""ArrowDown,ArrowLeft"":5,""ArrowDown,ArrowRight"":17}","true","ArrowUp,ArrowLeft","false","revaluation","1","56","","",""
"html-keyboard-response","181","816895","0.0-5.0-2.0-1.28","spark_pilot_norest","9998","8","21","Male","","","","","","","","null","<div style=""font-size:60px;"">+</div>","null","fixation","","","","","","","","","57","","",""
"revaluation","182","822900","0.0-5.0-2.0-0.29","spark_pilot_norest","9998","8","21","Male","","false","","","","","","[789,427]","./assets/img/canyon/memory/25.jpg","[""ArrowUp"",""ArrowLeft""]","value training","canyon","26","{""ArrowUp,ArrowLeft"":26,""ArrowUp,ArrowRight"":10,""ArrowDown,ArrowLeft"":5,""ArrowDown,ArrowRight"":17}","true","ArrowUp,ArrowLeft","false","revaluation","1","58","","",""
"html-keyboard-response","183","823401","0.0-5.0-2.0-1.29","spark_pilot_norest","9998","8","21","Male","","","","","","","","null","<div style=""font-size:60px;"">+</div>","null","fixation","","","","","","","","","59","","",""
"revaluation","184","829407","0.0-5.0-2.0-0.30","spark_pilot_norest","9998","8","21","Male","","false","","","","","","[460,285]","./assets/img/canyon/memory/34.jpg","[""ArrowUp"",""ArrowLeft""]","value training","canyon","26","{""ArrowUp,ArrowLeft"":26,""ArrowUp,ArrowRight"":10,""ArrowDown,ArrowLeft"":5,""ArrowDown,ArrowRight"":17}","true","ArrowUp,ArrowLeft","false","revaluation","1","60","","",""
"html-keyboard-response","185","829908","0.0-5.0-2.0-1.30","spark_pilot_norest","9998","8","21","Male","","","","","","","","null","<div style=""font-size:60px;"">+</div>","null","fixation","","","","","","","","","61","","",""
"revaluation","186","835914","0.0-5.0-2.0-0.31","spark_pilot_norest","9998","8","21","Male","","false","","","","","","[417,364]","./assets/img/canyon/memory/6.jpg","[""ArrowUp"",""ArrowLeft""]","value training","canyon","26","{""ArrowUp,ArrowLeft"":26,""ArrowUp,ArrowRight"":10,""ArrowDown,ArrowLeft"":5,""ArrowDown,ArrowRight"":17}","true","ArrowUp,ArrowLeft","false","revaluation","1","62","","",""
"html-keyboard-response","187","836415","0.0-5.0-2.0-1.31","spark_pilot_norest","9998","8","21","Male","","","","","","","","null","<div style=""font-size:60px;"">+</div>","null","fixation","","","","","","","","","63","","",""
"revaluation","188","840420","0.0-5.0-2.0-0.32","spark_pilot_norest","9998","8","21","Male","","false","","","","","","[681]","./assets/img/canyon/catch/0.jpg","[""spaceBar""]","value training","canyon","0","{""ArrowUp,ArrowLeft"":26,""ArrowUp,ArrowRight"":10,""ArrowDown,ArrowLeft"":5,""ArrowDown,ArrowRight"":17}","true","spaceBar","true","revaluation","1","64","","",""
"html-keyboard-response","189","840921","0.0-5.0-2.0-1.32","spark_pilot_norest","9998","8","21","Male","","","","","","","","null","<div style=""font-size:60px;"">+</div>","null","fixation","","","","","","","","","65","","",""
"revaluation","190","846927","0.0-5.0-2.0-0.33","spark_pilot_norest","9998","8","21","Male","","false","","","","","","[651,258.0000000001164]","./assets/img/canyon/memory/32.jpg","[""ArrowUp"",""ArrowLeft""]","value training","canyon","26","{""ArrowUp,ArrowLeft"":26,""ArrowUp,ArrowRight"":10,""ArrowDown,ArrowLeft"":5,""ArrowDown,ArrowRight"":17}","true","ArrowUp,ArrowLeft","false","revaluation","1","66","","",""
"html-keyboard-response","191","847429","0.0-5.0-2.0-1.33","spark_pilot_norest","9998","8","21","Male","","","","","","","","null","<div style=""font-size:60px;"">+</div>","null","fixation","","","","","","","","","67","","",""
"revaluation","192","853435","0.0-5.0-2.0-0.34","spark_pilot_norest","9998","8","21","Male","","false","","","","","","[423,251.99999999988358]","./assets/img/canyon/memory/38.jpg","[""ArrowUp"",""ArrowLeft""]","value training","canyon","26","{""ArrowUp,ArrowLeft"":26,""ArrowUp,ArrowRight"":10,""ArrowDown,ArrowLeft"":5,""ArrowDown,ArrowRight"":17}","true","ArrowUp,ArrowLeft","false","revaluation","1","68","","",""
"html-keyboard-response","193","853937","0.0-5.0-2.0-1.34","spark_pilot_norest","9998","8","21","Male","","","","","","","","null","<div style=""font-size:60px;"">+</div>","null","fixation","","","","","","","","","69","","",""
"revaluation","194","859942","0.0-5.0-2.0-0.35","spark_pilot_norest","9998","8","21","Male","","false","","","","","","[473,274]","./assets/img/canyon/memory/17.jpg","[""ArrowUp"",""ArrowLeft""]","value training","canyon","26","{""ArrowUp,ArrowLeft"":26,""ArrowUp,ArrowRight"":10,""ArrowDown,ArrowLeft"":5,""ArrowDown,ArrowRight"":17}","true","ArrowUp,ArrowLeft","false","revaluation","1","70","","",""
"html-keyboard-response","195","860444","0.0-5.0-2.0-1.35","spark_pilot_norest","9998","8","21","Male","","","","","","","","null","<div style=""font-size:60px;"">+</div>","null","fixation","","","","","","","","","71","","",""
"revaluation","196","866450","0.0-5.0-2.0-0.36","spark_pilot_norest","9998","8","21","Male","","false","","","","","","[512,399]","./assets/img/canyon/memory/15.jpg","[""ArrowUp"",""ArrowLeft""]","value training","canyon","26","{""ArrowUp,ArrowLeft"":26,""ArrowUp,ArrowRight"":10,""ArrowDown,ArrowLeft"":5,""ArrowDown,ArrowRight"":17}","true","ArrowUp,ArrowLeft","false","revaluation","1","72","","",""
"html-keyboard-response","197","866952","0.0-5.0-2.0-1.36","spark_pilot_norest","9998","8","21","Male","","","","","","","","null","<div style=""font-size:60px;"">+</div>","null","fixation","","","","","","","","","73","","",""
"revaluation","198","872959","0.0-5.0-2.0-0.37","spark_pilot_norest","9998","8","21","Male","","false","","","","","","[374,291]","./assets/img/canyon/memory/39.jpg","[""ArrowUp"",""ArrowLeft""]","value training","canyon","26","{""ArrowUp,ArrowLeft"":26,""ArrowUp,ArrowRight"":10,""ArrowDown,ArrowLeft"":5,""ArrowDown,ArrowRight"":17}","true","ArrowUp,ArrowLeft","false","revaluation","1","74","","",""
"html-keyboard-response","199","873460","0.0-5.0-2.0-1.37","spark_pilot_norest","9998","8","21","Male","","","","","","","","null","<div style=""font-size:60px;"">+</div>","null","fixation","","","","","","","","","75","","",""
"revaluation","200","877464","0.0-5.0-2.0-0.38","spark_pilot_norest","9998","8","21","Male","","false","","","","","","[641]","./assets/img/canyon/catch/3.jpg","[""spaceBar""]","value training","canyon","0","{""ArrowUp,ArrowLeft"":26,""ArrowUp,ArrowRight"":10,""ArrowDown,ArrowLeft"":5,""ArrowDown,ArrowRight"":17}","true","spaceBar","true","revaluation","1","76","","",""
"html-keyboard-response","201","877967","0.0-5.0-2.0-1.38","spark_pilot_norest","9998","8","21","Male","","","","","","","","null","<div style=""font-size:60px;"">+</div>","null","fixation","","","","","","","","","77","","",""
"revaluation","202","881972","0.0-5.0-2.0-0.39","spark_pilot_norest","9998","8","21","Male","","false","","","","","","[642]","./assets/img/canyon/catch/7.jpg","[""spaceBar""]","value training","canyon","0","{""ArrowUp,ArrowLeft"":26,""ArrowUp,ArrowRight"":10,""ArrowDown,ArrowLeft"":5,""ArrowDown,ArrowRight"":17}","true","spaceBar","true","revaluation","1","78","","",""
"html-keyboard-response","203","882474","0.0-5.0-2.0-1.39","spark_pilot_norest","9998","8","21","Male","","","","","","","","null","<div style=""font-size:60px;"">+</div>","null","fixation","","","","","","","","","79","","",""
"revaluation","204","888479","0.0-5.0-2.0-0.40","spark_pilot_norest","9998","8","21","Male","","false","","","","","","[590,254]","./assets/img/canyon/memory/31.jpg","[""ArrowUp"",""ArrowLeft""]","value training","canyon","26","{""ArrowUp,ArrowLeft"":26,""ArrowUp,ArrowRight"":10,""ArrowDown,ArrowLeft"":5,""ArrowDown,ArrowRight"":17}","true","ArrowUp,ArrowLeft","false","revaluation","1","80","","",""
"html-keyboard-response","205","888980","0.0-5.0-2.0-1.40","spark_pilot_norest","9998","8","21","Male","","","","","","","","null","<div style=""font-size:60px;"">+</div>","null","fixation","","","","","","","","","81","","",""
"revaluation","206","894985","0.0-5.0-2.0-0.41","spark_pilot_norest","9998","8","21","Male","","false","","","","","","[626,307]","./assets/img/canyon/memory/35.jpg","[""ArrowUp"",""ArrowLeft""]","value training","canyon","26","{""ArrowUp,ArrowLeft"":26,""ArrowUp,ArrowRight"":10,""ArrowDown,ArrowLeft"":5,""ArrowDown,ArrowRight"":17}","true","ArrowUp,ArrowLeft","false","revaluation","1","82","","",""
"html-keyboard-response","207","895487","0.0-5.0-2.0-1.41","spark_pilot_norest","9998","8","21","Male","","","","","","","","null","<div style=""font-size:60px;"">+</div>","null","fixation","","","","","","","","","83","","",""
"revaluation","208","901492","0.0-5.0-2.0-0.42","spark_pilot_norest","9998","8","21","Male","","false","","","","","","[889,349.9999999998836]","./assets/img/canyon/memory/17.jpg","[""ArrowUp"",""ArrowLeft""]","value training","canyon","26","{""ArrowUp,ArrowLeft"":26,""ArrowUp,ArrowRight"":10,""ArrowDown,ArrowLeft"":5,""ArrowDown,ArrowRight"":17}","true","ArrowUp,ArrowLeft","false","revaluation","1","84","","",""
"html-keyboard-response","209","901994","0.0-5.0-2.0-1.42","spark_pilot_norest","9998","8","21","Male","","","","","","","","null","<div style=""font-size:60px;"">+</div>","null","fixation","","","","","","","","","85","","",""
"revaluation","210","907999","0.0-5.0-2.0-0.43","spark_pilot_norest","9998","8","21","Male","","false","","","","","","[810,298]","./assets/img/canyon/memory/18.jpg","[""ArrowUp"",""ArrowLeft""]","value training","canyon","26","{""ArrowUp,ArrowLeft"":26,""ArrowUp,ArrowRight"":10,""ArrowDown,ArrowLeft"":5,""ArrowDown,ArrowRight"":17}","true","ArrowUp,ArrowLeft","false","revaluation","1","86","","",""
"html-keyboard-response","211","908501","0.0-5.0-2.0-1.43","spark_pilot_norest","9998","8","21","Male","","","","","","","","null","<div style=""font-size:60px;"">+</div>","null","fixation","","","","","","","","","87","","",""
"revaluation","212","914506","0.0-5.0-2.0-0.44","spark_pilot_norest","9998","8","21","Male","","false","","","","","","[443,305.9999999998836]","./assets/img/canyon/memory/36.jpg","[""ArrowUp"",""ArrowLeft""]","value training","canyon","26","{""ArrowUp,ArrowLeft"":26,""ArrowUp,ArrowRight"":10,""ArrowDown,ArrowLeft"":5,""ArrowDown,ArrowRight"":17}","true","ArrowUp,ArrowLeft","false","revaluation","1","88","","",""
"html-keyboard-response","213","915008","0.0-5.0-2.0-1.44","spark_pilot_norest","9998","8","21","Male","","","","","","","","null","<div style=""font-size:60px;"">+</div>","null","fixation","","","","","","","","","89","","",""
"revaluation","214","921014","0.0-5.0-2.0-0.45","spark_pilot_norest","9998","8","21","Male","","false","","","","","","[444,265]","./assets/img/canyon/memory/13.jpg","[""ArrowUp"",""ArrowLeft""]","value training","canyon","26","{""ArrowUp,ArrowLeft"":26,""ArrowUp,ArrowRight"":10,""ArrowDown,ArrowLeft"":5,""ArrowDown,ArrowRight"":17}","true","ArrowUp,ArrowLeft","false","revaluation","1","90","","",""
"html-keyboard-response","215","921516","0.0-5.0-2.0-1.45","spark_pilot_norest","9998","8","21","Male","","","","","","","","null","<div style=""font-size:60px;"">+</div>","null","fixation","","","","","","","","","91","","",""
"revaluation","216","927522","0.0-5.0-2.0-0.46","spark_pilot_norest","9998","8","21","Male","","false","","","","","","[458.9999999998836,405]","./assets/img/canyon/memory/37.jpg","[""ArrowUp"",""ArrowLeft""]","value training","canyon","26","{""ArrowUp,ArrowLeft"":26,""ArrowUp,ArrowRight"":10,""ArrowDown,ArrowLeft"":5,""ArrowDown,ArrowRight"":17}","true","ArrowUp,ArrowLeft","false","revaluation","1","92","","",""
"html-keyboard-response","217","928023","0.0-5.0-2.0-1.46","spark_pilot_norest","9998","8","21","Male","","","","","","","","null","<div style=""font-size:60px;"">+</div>","null","fixation","","","","","","","","","93","","",""
"revaluation","218","934026","0.0-5.0-2.0-0.47","spark_pilot_norest","9998","8","21","Male","","false","","","","","","[513,304]","./assets/img/canyon/memory/39.jpg","[""ArrowUp"",""ArrowLeft""]","value training","canyon","26","{""ArrowUp,ArrowLeft"":26,""ArrowUp,ArrowRight"":10,""ArrowDown,ArrowLeft"":5,""ArrowDown,ArrowRight"":17}","true","ArrowUp,ArrowLeft","false","revaluation","1","94","","",""
"html-keyboard-response","219","934528","0.0-5.0-2.0-1.47","spark_pilot_norest","9998","8","21","Male","","","","","","","","null","<div style=""font-size:60px;"">+</div>","null","fixation","","","","","","","","","95","","",""
"revaluation","220","940531","0.0-5.0-2.0-0.48","spark_pilot_norest","9998","8","21","Male","","false","","","","","","[920,348.0000000001164]","./assets/img/canyon/memory/36.jpg","[""ArrowUp"",""ArrowLeft""]","value training","canyon","26","{""ArrowUp,ArrowLeft"":26,""ArrowUp,ArrowRight"":10,""ArrowDown,ArrowLeft"":5,""ArrowDown,ArrowRight"":17}","true","ArrowUp,ArrowLeft","false","revaluation","1","96","","",""
"html-keyboard-response","221","941033","0.0-5.0-2.0-1.48","spark_pilot_norest","9998","8","21","Male","","","","","","","","null","<div style=""font-size:60px;"">+</div>","null","fixation","","","","","","","","","97","","",""
"revaluation","222","945038","0.0-5.0-2.0-0.49","spark_pilot_norest","9998","8","21","Male","","false","","","","","","[751.0000000001164]","./assets/img/canyon/catch/2.jpg","[""spaceBar""]","value training","canyon","0","{""ArrowUp,ArrowLeft"":26,""ArrowUp,ArrowRight"":10,""ArrowDown,ArrowLeft"":5,""ArrowDown,ArrowRight"":17}","true","spaceBar","true","revaluation","1","98","","",""
"html-keyboard-response","223","945540","0.0-5.0-2.0-1.49","spark_pilot_norest","9998","8","21","Male","","","","","","","","null","<div style=""font-size:60px;"">+</div>","null","fixation","","","","","","","","","99","","",""
"learning-instructions","224","1116859","0.0-5.0-3.0-0.0","spark_pilot_norest","9998","8","21","Male","","","","","","","","158441","<p> Now, you will travel with a friend who will choose whether you go up or down first. </p>
            <p> On these turns, you will just see the animal that they found. You will still get to choose which chest to search for treasure.</p>","","instructions","","","","","","","","","","","",""
"revaluation","225","1120863","0.0-5.0-4.0-0.0","spark_pilot_norest","9998","8","21","Male","","false","","","","","","[1453]","./assets/img/canyon/animals/giraffe.jpg","[""ArrowLeft""]","revaluation","canyon","2","{""ArrowUp,ArrowLeft"":2,""ArrowUp,ArrowRight"":11,""ArrowDown,ArrowLeft"":8,""ArrowDown,ArrowRight"":27}","false","ArrowUp,ArrowLeft","","revaluation","1","0","","",""
"html-keyboard-response","226","1121365","0.0-5.0-4.0-1.0","spark_pilot_norest","9998","8","21","Male","","","","","","","","null","<div style=""font-size:60px;"">+</div>","null","fixation","","","","","","","","","1","","",""
"revaluation","227","1125369","0.0-5.0-4.0-0.1","spark_pilot_norest","9998","8","21","Male","","false","","","","","","[949.9999999997672]","./assets/img/canyon/animals/lion.jpg","[""ArrowLeft""]","revaluation","canyon","8","{""ArrowUp,ArrowLeft"":2,""ArrowUp,ArrowRight"":11,""ArrowDown,ArrowLeft"":8,""ArrowDown,ArrowRight"":27}","false","ArrowDown,ArrowLeft","","revaluation","1","2","","",""
"html-keyboard-response","228","1125872","0.0-5.0-4.0-1.1","spark_pilot_norest","9998","8","21","Male","","","","","","","","null","<div style=""font-size:60px;"">+</div>","null","fixation","","","","","","","","","3","","",""
"revaluation","229","1129876","0.0-5.0-4.0-0.2","spark_pilot_norest","9998","8","21","Male","","false","","","","","","[409]","./assets/img/canyon/animals/giraffe.jpg","[""ArrowRight""]","revaluation","canyon","11","{""ArrowUp,ArrowLeft"":2,""ArrowUp,ArrowRight"":11,""ArrowDown,ArrowLeft"":8,""ArrowDown,ArrowRight"":27}","true","ArrowUp,ArrowRight","","revaluation","1","4","","",""
"html-keyboard-response","230","1130378","0.0-5.0-4.0-1.2","spark_pilot_norest","9998","8","21","Male","","","","","","","","null","<div style=""font-size:60px;"">+</div>","null","fixation","","","","","","","","","5","","",""
"revaluation","231","1134383","0.0-5.0-4.0-0.3","spark_pilot_norest","9998","8","21","Male","","false","","","","","","[413]","./assets/img/canyon/animals/lion.jpg","[""ArrowRight""]","revaluation","canyon","27","{""ArrowUp,ArrowLeft"":2,""ArrowUp,ArrowRight"":11,""ArrowDown,ArrowLeft"":8,""ArrowDown,ArrowRight"":27}","true","ArrowDown,ArrowRight","","revaluation","1","6","","",""
"html-keyboard-response","232","1134885","0.0-5.0-4.0-1.3","spark_pilot_norest","9998","8","21","Male","","","","","","","","null","<div style=""font-size:60px;"">+</div>","null","fixation","","","","","","","","","7","","",""
"revaluation","233","1138889","0.0-5.0-4.0-0.4","spark_pilot_norest","9998","8","21","Male","","false","","","","","","[433]","./assets/img/canyon/animals/lion.jpg","[""ArrowRight""]","revaluation","canyon","27","{""ArrowUp,ArrowLeft"":2,""ArrowUp,ArrowRight"":11,""ArrowDown,ArrowLeft"":8,""ArrowDown,ArrowRight"":27}","true","ArrowDown,ArrowRight","","revaluation","1","8","","",""
"html-keyboard-response","234","1139392","0.0-5.0-4.0-1.4","spark_pilot_norest","9998","8","21","Male","","","","","","","","null","<div style=""font-size:60px;"">+</div>","null","fixation","","","","","","","","","9","","",""
"revaluation","235","1143396","0.0-5.0-4.0-0.5","spark_pilot_norest","9998","8","21","Male","","false","","","","","","[454.00000000023283]","./assets/img/canyon/animals/giraffe.jpg","[""ArrowRight""]","revaluation","canyon","11","{""ArrowUp,ArrowLeft"":2,""ArrowUp,ArrowRight"":11,""ArrowDown,ArrowLeft"":8,""ArrowDown,ArrowRight"":27}","true","ArrowUp,ArrowRight","","revaluation","1","10","","",""
"html-keyboard-response","236","1143898","0.0-5.0-4.0-1.5","spark_pilot_norest","9998","8","21","Male","","","","","","","","null","<div style=""font-size:60px;"">+</div>","null","fixation","","","","","","","","","11","","",""
"revaluation","237","1147903","0.0-5.0-4.0-0.6","spark_pilot_norest","9998","8","21","Male","","false","","","","","","[1436]","./assets/img/canyon/animals/giraffe.jpg","[""ArrowRight""]","revaluation","canyon","11","{""ArrowUp,ArrowLeft"":2,""ArrowUp,ArrowRight"":11,""ArrowDown,ArrowLeft"":8,""ArrowDown,ArrowRight"":27}","true","ArrowUp,ArrowRight","","revaluation","1","12","","",""
"html-keyboard-response","238","1148405","0.0-5.0-4.0-1.6","spark_pilot_norest","9998","8","21","Male","","","","","","","","null","<div style=""font-size:60px;"">+</div>","null","fixation","","","","","","","","","13","","",""
"revaluation","239","1152409","0.0-5.0-4.0-0.7","spark_pilot_norest","9998","8","21","Male","","false","","","","","","[312]","./assets/img/canyon/animals/giraffe.jpg","[""ArrowRight""]","revaluation","canyon","11","{""ArrowUp,ArrowLeft"":2,""ArrowUp,ArrowRight"":11,""ArrowDown,ArrowLeft"":8,""ArrowDown,ArrowRight"":27}","true","ArrowUp,ArrowRight","","revaluation","1","14","","",""
"html-keyboard-response","240","1152912","0.0-5.0-4.0-1.7","spark_pilot_norest","9998","8","21","Male","","","","","","","","null","<div style=""font-size:60px;"">+</div>","null","fixation","","","","","","","","","15","","",""
"revaluation","241","1156915","0.0-5.0-4.0-0.8","spark_pilot_norest","9998","8","21","Male","","false","","","","","","[1195]","./assets/img/canyon/animals/lion.jpg","[""ArrowRight""]","revaluation","canyon","27","{""ArrowUp,ArrowLeft"":2,""ArrowUp,ArrowRight"":11,""ArrowDown,ArrowLeft"":8,""ArrowDown,ArrowRight"":27}","true","ArrowDown,ArrowRight","","revaluation","1","16","","",""
"html-keyboard-response","242","1157417","0.0-5.0-4.0-1.8","spark_pilot_norest","9998","8","21","Male","","","","","","","","null","<div style=""font-size:60px;"">+</div>","null","fixation","","","","","","","","","17","","",""
"revaluation","243","1161421","0.0-5.0-4.0-0.9","spark_pilot_norest","9998","8","21","Male","","false","","","","","","[500]","./assets/img/canyon/animals/giraffe.jpg","[""ArrowRight""]","revaluation","canyon","11","{""ArrowUp,ArrowLeft"":2,""ArrowUp,ArrowRight"":11,""ArrowDown,ArrowLeft"":8,""ArrowDown,ArrowRight"":27}","true","ArrowUp,ArrowRight","","revaluation","1","18","","",""
"html-keyboard-response","244","1161923","0.0-5.0-4.0-1.9","spark_pilot_norest","9998","8","21","Male","","","","","","","","null","<div style=""font-size:60px;"">+</div>","null","fixation","","","","","","","","","19","","",""
"revaluation","245","1165927","0.0-5.0-4.0-0.10","spark_pilot_norest","9998","8","21","Male","","false","","","","","","[397.99999999976717]","./assets/img/canyon/animals/lion.jpg","[""ArrowRight""]","revaluation","canyon","27","{""ArrowUp,ArrowLeft"":2,""ArrowUp,ArrowRight"":11,""ArrowDown,ArrowLeft"":8,""ArrowDown,ArrowRight"":27}","true","ArrowDown,ArrowRight","","revaluation","1","20","","",""
"html-keyboard-response","246","1166429","0.0-5.0-4.0-1.10","spark_pilot_norest","9998","8","21","Male","","","","","","","","null","<div style=""font-size:60px;"">+</div>","null","fixation","","","","","","","","","21","","",""
"revaluation","247","1170432","0.0-5.0-4.0-0.11","spark_pilot_norest","9998","8","21","Male","","false","","","","","","[403]","./assets/img/canyon/animals/lion.jpg","[""ArrowRight""]","revaluation","canyon","27","{""ArrowUp,ArrowLeft"":2,""ArrowUp,ArrowRight"":11,""ArrowDown,ArrowLeft"":8,""ArrowDown,ArrowRight"":27}","true","ArrowDown,ArrowRight","","revaluation","1","22","","",""
"html-keyboard-response","248","1170933","0.0-5.0-4.0-1.11","spark_pilot_norest","9998","8","21","Male","","","","","","","","null","<div style=""font-size:60px;"">+</div>","null","fixation","","","","","","","","","23","","",""
"revaluation","249","1174936","0.0-5.0-4.0-0.12","spark_pilot_norest","9998","8","21","Male","","false","","","","","","[382]","./assets/img/canyon/animals/giraffe.jpg","[""ArrowRight""]","revaluation","canyon","11","{""ArrowUp,ArrowLeft"":2,""ArrowUp,ArrowRight"":11,""ArrowDown,ArrowLeft"":8,""ArrowDown,ArrowRight"":27}","true","ArrowUp,ArrowRight","","revaluation","1","24","","",""
"html-keyboard-response","250","1175439","0.0-5.0-4.0-1.12","spark_pilot_norest","9998","8","21","Male","","","","","","","","null","<div style=""font-size:60px;"">+</div>","null","fixation","","","","","","","","","25","","",""
"revaluation","251","1179443","0.0-5.0-4.0-0.13","spark_pilot_norest","9998","8","21","Male","","false","","","","","","[1773]","./assets/img/canyon/animals/lion.jpg","[""ArrowRight""]","revaluation","canyon","27","{""ArrowUp,ArrowLeft"":2,""ArrowUp,ArrowRight"":11,""ArrowDown,ArrowLeft"":8,""ArrowDown,ArrowRight"":27}","true","ArrowDown,ArrowRight","","revaluation","1","26","","",""
"html-keyboard-response","252","1179945","0.0-5.0-4.0-1.13","spark_pilot_norest","9998","8","21","Male","","","","","","","","null","<div style=""font-size:60px;"">+</div>","null","fixation","","","","","","","","","27","","",""
"revaluation","253","1183950","0.0-5.0-4.0-0.14","spark_pilot_norest","9998","8","21","Male","","false","","","","","","[466]","./assets/img/canyon/animals/lion.jpg","[""ArrowRight""]","revaluation","canyon","27","{""ArrowUp,ArrowLeft"":2,""ArrowUp,ArrowRight"":11,""ArrowDown,ArrowLeft"":8,""ArrowDown,ArrowRight"":27}","true","ArrowDown,ArrowRight","","revaluation","1","28","","",""
"html-keyboard-response","254","1184452","0.0-5.0-4.0-1.14","spark_pilot_norest","9998","8","21","Male","","","","","","","","null","<div style=""font-size:60px;"">+</div>","null","fixation","","","","","","","","","29","","",""
"revaluation","255","1188456","0.0-5.0-4.0-0.15","spark_pilot_norest","9998","8","21","Male","","false","","","","","","[1339]","./assets/img/canyon/animals/giraffe.jpg","[""ArrowRight""]","revaluation","canyon","11","{""ArrowUp,ArrowLeft"":2,""ArrowUp,ArrowRight"":11,""ArrowDown,ArrowLeft"":8,""ArrowDown,ArrowRight"":27}","true","ArrowUp,ArrowRight","","revaluation","1","30","","",""
"html-keyboard-response","256","1188957","0.0-5.0-4.0-1.15","spark_pilot_norest","9998","8","21","Male","","","","","","","","null","<div style=""font-size:60px;"">+</div>","null","fixation","","","","","","","","","31","","",""
"revaluation","257","1192962","0.0-5.0-4.0-0.16","spark_pilot_norest","9998","8","21","Male","","false","","","","","","[1589.0000000002328]","./assets/img/canyon/animals/giraffe.jpg","[""ArrowRight""]","revaluation","canyon","11","{""ArrowUp,ArrowLeft"":2,""ArrowUp,ArrowRight"":11,""ArrowDown,ArrowLeft"":8,""ArrowDown,ArrowRight"":27}","true","ArrowUp,ArrowRight","","revaluation","1","32","","",""
"html-keyboard-response","258","1193464","0.0-5.0-4.0-1.16","spark_pilot_norest","9998","8","21","Male","","","","","","","","null","<div style=""font-size:60px;"">+</div>","null","fixation","","","","","","","","","33","","",""
"revaluation","259","1197469","0.0-5.0-4.0-0.17","spark_pilot_norest","9998","8","21","Male","","true","","","","","","[]","./assets/img/canyon/animals/lion.jpg","[]","revaluation","canyon","-5","{""ArrowUp,ArrowLeft"":2,""ArrowUp,ArrowRight"":11,""ArrowDown,ArrowLeft"":8,""ArrowDown,ArrowRight"":27}","false","ArrowDown","","revaluation","1","34","","",""
"html-keyboard-response","260","1197971","0.0-5.0-4.0-1.17","spark_pilot_norest","9998","8","21","Male","","","","","","","","null","<div style=""font-size:60px;"">+</div>","null","fixation","","","","","","","","","35","","",""
"learning-instructions","261","1206072","0.0-5.0-5.0-0.0","spark_pilot_norest","9998","8","21","Male","","","","","","","","null","<p> You have almost finished this part of the game! </p>
            <p> We are going to ask you to make a few more choices. </p>","","instructions","","","","","","","","","","","",""
"learning-instructions","262","1222044","0.0-5.0-5.0-0.1","spark_pilot_norest","9998","8","21","Male","","","","","","","","null","<p> First, you need to decide whether to go up or down. When you see each picture, use the arrow keys to make your choice. </p>
            <p><b>You will not see which animal you found, but try to get to the one that will give you the most treasure.</b></p>","","instructions","","","","","","","","","","","",""
"html-keyboard-response","263","1223047","0.0-5.0-6.0-0.0","spark_pilot_norest","9998","8","21","Male","","","","","","","","null","<div style=""font-size:100px;color:red;"">Starting in...</div>","null","","","","","","","","","","","","",""
"html-keyboard-response","264","1224050","0.0-5.0-6.0-1.0","spark_pilot_norest","9998","8","21","Male","","","","","","","","null","<div style=""font-size:200px;color:red;"">3</div>","null","","","","","","","","","","","","",""
"html-keyboard-response","265","1225051","0.0-5.0-6.0-2.0","spark_pilot_norest","9998","8","21","Male","","","","","","","","null","<div style=""font-size:200px;color:red;"">2</div>","null","","","","","","","","","","","","",""
"html-keyboard-response","266","1226053","0.0-5.0-6.0-3.0","spark_pilot_norest","9998","8","21","Male","","","","","","","","null","<div style=""font-size:200px;color:red;"">1</div>","null","","","","","","","","","","","","",""
"revaluation","267","1227042","0.0-5.0-7.0-0.0","spark_pilot_norest","9998","8","21","Male","","false","","","","","","[987]","./assets/img/canyon/test/2.jpg","[""ArrowUp""]","first stage test","canyon","0","{""ArrowUp,ArrowLeft"":2,""ArrowUp,ArrowRight"":11,""ArrowDown,ArrowLeft"":8,""ArrowDown,ArrowRight"":27}","false","ArrowUp","false","revaluation","1","","","",""
"html-keyboard-response","268","1227544","0.0-5.0-7.0-1.0","spark_pilot_norest","9998","8","21","Male","","","","","","","","null","<div style=""font-size:60px;"">+</div>","null","fixation","","","","","","","","","","","",""
"revaluation","269","1228643","0.0-5.0-7.0-0.1","spark_pilot_norest","9998","8","21","Male","","false","","","","","","[1097]","./assets/img/canyon/test/1.jpg","[""ArrowDown""]","first stage test","canyon","0","{""ArrowUp,ArrowLeft"":2,""ArrowUp,ArrowRight"":11,""ArrowDown,ArrowLeft"":8,""ArrowDown,ArrowRight"":27}","true","ArrowDown","false","revaluation","1","","","",""
"html-keyboard-response","270","1229144","0.0-5.0-7.0-1.1","spark_pilot_norest","9998","8","21","Male","","","","","","","","null","<div style=""font-size:60px;"">+</div>","null","fixation","","","","","","","","","","","",""
"revaluation","271","1230096","0.0-5.0-7.0-0.2","spark_pilot_norest","9998","8","21","Male","","false","","","","","","[950.0000000002328]","./assets/img/canyon/test/0.jpg","[""ArrowDown""]","first stage test","canyon","0","{""ArrowUp,ArrowLeft"":2,""ArrowUp,ArrowRight"":11,""ArrowDown,ArrowLeft"":8,""ArrowDown,ArrowRight"":27}","true","ArrowDown","false","revaluation","1","","","",""
"html-keyboard-response","272","1230598","0.0-5.0-7.0-1.2","spark_pilot_norest","9998","8","21","Male","","","","","","","","null","<div style=""font-size:60px;"">+</div>","null","fixation","","","","","","","","","","","",""
"revaluation","273","1231223","0.0-5.0-7.0-0.3","spark_pilot_norest","9998","8","21","Male","","false","","","","","","[624]","./assets/img/canyon/test/3.jpg","[""ArrowUp""]","first stage test","canyon","0","{""ArrowUp,ArrowLeft"":2,""ArrowUp,ArrowRight"":11,""ArrowDown,ArrowLeft"":8,""ArrowDown,ArrowRight"":27}","false","ArrowUp","false","revaluation","1","","","",""
"html-keyboard-response","274","1231725","0.0-5.0-7.0-1.3","spark_pilot_norest","9998","8","21","Male","","","","","","","","null","<div style=""font-size:60px;"">+</div>","null","fixation","","","","","","","","","","","",""
"learning-instructions","275","1245067","0.0-5.0-8.0-0.0","spark_pilot_norest","9998","8","21","Male","","","","","","","","null","<p> Now you will see the animals again and can search their chests for treasure. </p>
            <p> This time, you will not see how much treasure you earned, but you will earn more bonus money for making better choices. </p>","","instructions","","","","","","","","","","","",""
"html-keyboard-response","276","1246069","0.0-5.0-9.0-0.0","spark_pilot_norest","9998","8","21","Male","","","","","","","","null","<div style=""font-size:100px;color:red;"">Starting in...</div>","null","","","","","","","","","","","","",""
"html-keyboard-response","277","1247072","0.0-5.0-9.0-1.0","spark_pilot_norest","9998","8","21","Male","","","","","","","","null","<div style=""font-size:200px;color:red;"">3</div>","null","","","","","","","","","","","","",""
"html-keyboard-response","278","1248074","0.0-5.0-9.0-2.0","spark_pilot_norest","9998","8","21","Male","","","","","","","","null","<div style=""font-size:200px;color:red;"">2</div>","null","","","","","","","","","","","","",""
"html-keyboard-response","279","1249076","0.0-5.0-9.0-3.0","spark_pilot_norest","9998","8","21","Male","","","","","","","","null","<div style=""font-size:200px;color:red;"">1</div>","null","","","","","","","","","","","","",""
"revaluation","280","1249712","0.0-5.0-10.0-0.0","spark_pilot_norest","9998","8","21","Male","","false","","","","","","[634]","./assets/img/canyon/animals/giraffe.jpg","[""ArrowRight""]","second stage test","canyon","0","{""ArrowUp,ArrowLeft"":2,""ArrowUp,ArrowRight"":11,""ArrowDown,ArrowLeft"":8,""ArrowDown,ArrowRight"":27}","true","ArrowUp,ArrowRight","","revaluation","1","","","",""
"html-keyboard-response","281","1250214","0.0-5.0-10.0-1.0","spark_pilot_norest","9998","8","21","Male","","","","","","","","null","<div style=""font-size:60px;"">+</div>","null","fixation","","","","","","","","","","","",""
"revaluation","282","1251107","0.0-5.0-10.0-0.1","spark_pilot_norest","9998","8","21","Male","","false","","","","","","[892]","./assets/img/canyon/animals/giraffe.jpg","[""ArrowRight""]","second stage test","canyon","0","{""ArrowUp,ArrowLeft"":2,""ArrowUp,ArrowRight"":11,""ArrowDown,ArrowLeft"":8,""ArrowDown,ArrowRight"":27}","true","ArrowUp,ArrowRight","","revaluation","1","","","",""
"html-keyboard-response","283","1251609","0.0-5.0-10.0-1.1","spark_pilot_norest","9998","8","21","Male","","","","","","","","null","<div style=""font-size:60px;"">+</div>","null","fixation","","","","","","","","","","","",""
"revaluation","284","1252450","0.0-5.0-10.0-0.2","spark_pilot_norest","9998","8","21","Male","","false","","","","","","[839]","./assets/img/canyon/animals/giraffe.jpg","[""ArrowRight""]","second stage test","canyon","0","{""ArrowUp,ArrowLeft"":2,""ArrowUp,ArrowRight"":11,""ArrowDown,ArrowLeft"":8,""ArrowDown,ArrowRight"":27}","true","ArrowUp,ArrowRight","","revaluation","1","","","",""
"html-keyboard-response","285","1252952","0.0-5.0-10.0-1.2","spark_pilot_norest","9998","8","21","Male","","","","","","","","null","<div style=""font-size:60px;"">+</div>","null","fixation","","","","","","","","","","","",""
"revaluation","286","1253282","0.0-5.0-10.0-0.3","spark_pilot_norest","9998","8","21","Male","","false","","","","","","[328]","./assets/img/canyon/animals/giraffe.jpg","[""ArrowRight""]","second stage test","canyon","0","{""ArrowUp,ArrowLeft"":2,""ArrowUp,ArrowRight"":11,""ArrowDown,ArrowLeft"":8,""ArrowDown,ArrowRight"":27}","true","ArrowUp,ArrowRight","","revaluation","1","","","",""
"html-keyboard-response","287","1253784","0.0-5.0-10.0-1.3","spark_pilot_norest","9998","8","21","Male","","","","","","","","null","<div style=""font-size:60px;"">+</div>","null","fixation","","","","","","","","","","","",""
"revaluation","288","1254553","0.0-5.0-10.0-0.4","spark_pilot_norest","9998","8","21","Male","","false","","","","","","[767]","./assets/img/canyon/animals/lion.jpg","[""ArrowRight""]","second stage test","canyon","0","{""ArrowUp,ArrowLeft"":2,""ArrowUp,ArrowRight"":11,""ArrowDown,ArrowLeft"":8,""ArrowDown,ArrowRight"":27}","true","ArrowDown,ArrowRight","","revaluation","1","","","",""
"html-keyboard-response","289","1255055","0.0-5.0-10.0-1.4","spark_pilot_norest","9998","8","21","Male","","","","","","","","null","<div style=""font-size:60px;"">+</div>","null","fixation","","","","","","","","","","","",""
"revaluation","290","1255332","0.0-5.0-10.0-0.5","spark_pilot_norest","9998","8","21","Male","","false","","","","","","[275.99999999976717]","./assets/img/canyon/animals/lion.jpg","[""ArrowRight""]","second stage test","canyon","0","{""ArrowUp,ArrowLeft"":2,""ArrowUp,ArrowRight"":11,""ArrowDown,ArrowLeft"":8,""ArrowDown,ArrowRight"":27}","true","ArrowDown,ArrowRight","","revaluation","1","","","",""
"html-keyboard-response","291","1255834","0.0-5.0-10.0-1.5","spark_pilot_norest","9998","8","21","Male","","","","","","","","null","<div style=""font-size:60px;"">+</div>","null","fixation","","","","","","","","","","","",""
"revaluation","292","1255959","0.0-5.0-10.0-0.6","spark_pilot_norest","9998","8","21","Male","","false","","","","","","[123]","./assets/img/canyon/animals/lion.jpg","[""ArrowRight""]","second stage test","canyon","0","{""ArrowUp,ArrowLeft"":2,""ArrowUp,ArrowRight"":11,""ArrowDown,ArrowLeft"":8,""ArrowDown,ArrowRight"":27}","true","ArrowDown,ArrowRight","","revaluation","1","","","",""
"html-keyboard-response","293","1256461","0.0-5.0-10.0-1.6","spark_pilot_norest","9998","8","21","Male","","","","","","","","null","<div style=""font-size:60px;"">+</div>","null","fixation","","","","","","","","","","","",""
"revaluation","294","1256722","0.0-5.0-10.0-0.7","spark_pilot_norest","9998","8","21","Male","","false","","","","","","[259]","./assets/img/canyon/animals/lion.jpg","[""ArrowRight""]","second stage test","canyon","0","{""ArrowUp,ArrowLeft"":2,""ArrowUp,ArrowRight"":11,""ArrowDown,ArrowLeft"":8,""ArrowDown,ArrowRight"":27}","true","ArrowDown,ArrowRight","","revaluation","1","","","",""
"html-keyboard-response","295","1257224","0.0-5.0-10.0-1.7","spark_pilot_norest","9998","8","21","Male","","","","","","","","null","<div style=""font-size:60px;"">+</div>","null","fixation","","","","","","","","","","","",""
"learning-instructions","296","1261538","0.0-5.0-0.1-0.2","spark_pilot_norest","9998","8","21","Male","","","","","","","","1620","<p> This time you are searching for treasure in the <b>ocean</b>.</p>","","instructions","","","","","","","","","","","",""
"learning-instructions","297","1279700","0.0-5.0-0.1-0.3","spark_pilot_norest","9998","8","21","Male","","","","","","","","910.0000000002328","<p><b>New</b> animals with <b>new</b> treasure chests live here. You need to explore to discover where the animal with the best treasure chest is.</p>
                    <p> Like before, once you figure out which animal has the chest with the most treasure, you should try to get to that animal and select that chest! </p>","","instructions","","","","","","","","","","","",""
"learning-instructions","298","1295383","0.0-5.0-1.1-0.1","spark_pilot_norest","9998","8","21","Male","","","","","","","","952.9999999997672","<p> Remember, when you see a picture of the place, use the up and down keys to <b>find an animal</b>.</p>
            <p> When you encounter an animal, you should use the left and right keys to <b>select a treasure chest</b>.</p>
            <p> Don't forget to look out for the robber! </p>","","instructions","","","","","","","","","","","",""
"revaluation","299","1301389","0.0-5.0-2.1-0.50","spark_pilot_norest","9998","8","21","Male","","false","","","","","","[1061,346]","./assets/img/ocean/memory/35.jpg","[""ArrowUp"",""ArrowRight""]","value training","ocean","10","{""ArrowUp,ArrowLeft"":23,""ArrowUp,ArrowRight"":10,""ArrowDown,ArrowLeft"":8,""ArrowDown,ArrowRight"":30}","false","ArrowUp,ArrowRight","false","original","2","0","","",""
"html-keyboard-response","300","1301891","0.0-5.0-2.1-1.50","spark_pilot_norest","9998","8","21","Male","","","","","","","","null","<div style=""font-size:60px;"">+</div>","null","fixation","","","","","","","","","1","","",""
"revaluation","301","1307897","0.0-5.0-2.1-0.51","spark_pilot_norest","9998","8","21","Male","","false","","","","","","[441.00000000023283,447]","./assets/img/ocean/memory/6.jpg","[""ArrowUp"",""ArrowLeft""]","value training","ocean","23","{""ArrowUp,ArrowLeft"":23,""ArrowUp,ArrowRight"":10,""ArrowDown,ArrowLeft"":8,""ArrowDown,ArrowRight"":30}","false","ArrowUp,ArrowLeft","false","original","2","2","","",""
"html-keyboard-response","302","1308398","0.0-5.0-2.1-1.51","spark_pilot_norest","9998","8","21","Male","","","","","","","","null","<div style=""font-size:60px;"">+</div>","null","fixation","","","","","","","","","3","","",""
"revaluation","303","1314403","0.0-5.0-2.1-0.52","spark_pilot_norest","9998","8","21","Male","","false","","","","","","[547,405.99999999976717]","./assets/img/ocean/memory/22.jpg","[""ArrowDown"",""ArrowLeft""]","value training","ocean","8","{""ArrowUp,ArrowLeft"":23,""ArrowUp,ArrowRight"":10,""ArrowDown,ArrowLeft"":8,""ArrowDown,ArrowRight"":30}","false","ArrowDown,ArrowLeft","false","original","2","4","","",""
"html-keyboard-response","304","1314906","0.0-5.0-2.1-1.52","spark_pilot_norest","9998","8","21","Male","","","","","","","","null","<div style=""font-size:60px;"">+</div>","null","fixation","","","","","","","","","5","","",""
"revaluation","305","1320911","0.0-5.0-2.1-0.53","spark_pilot_norest","9998","8","21","Male","","false","","","","","","[255,324]","./assets/img/ocean/memory/18.jpg","[""ArrowDown"",""ArrowRight""]","value training","ocean","30","{""ArrowUp,ArrowLeft"":23,""ArrowUp,ArrowRight"":10,""ArrowDown,ArrowLeft"":8,""ArrowDown,ArrowRight"":30}","true","ArrowDown,ArrowRight","false","original","2","6","","",""
"html-keyboard-response","306","1321414","0.0-5.0-2.1-1.53","spark_pilot_norest","9998","8","21","Male","","","","","","","","null","<div style=""font-size:60px;"">+</div>","null","fixation","","","","","","","","","7","","",""
"revaluation","307","1327418","0.0-5.0-2.1-0.54","spark_pilot_norest","9998","8","21","Male","","false","","","","","","[566,408]","./assets/img/ocean/memory/15.jpg","[""ArrowDown"",""ArrowRight""]","value training","ocean","30","{""ArrowUp,ArrowLeft"":23,""ArrowUp,ArrowRight"":10,""ArrowDown,ArrowLeft"":8,""ArrowDown,ArrowRight"":30}","true","ArrowDown,ArrowRight","false","original","2","8","","",""
"html-keyboard-response","308","1327920","0.0-5.0-2.1-1.54","spark_pilot_norest","9998","8","21","Male","","","","","","","","null","<div style=""font-size:60px;"">+</div>","null","fixation","","","","","","","","","9","","",""
"revaluation","309","1331925","0.0-5.0-2.1-0.55","spark_pilot_norest","9998","8","21","Male","","true","","","","","","[]","./assets/img/ocean/memory/32.jpg","[]","value training","ocean","-5","{""ArrowUp,ArrowLeft"":23,""ArrowUp,ArrowRight"":10,""ArrowDown,ArrowLeft"":8,""ArrowDown,ArrowRight"":30}","false","","false","original","2","10","","",""
"html-keyboard-response","310","1332427","0.0-5.0-2.1-1.55","spark_pilot_norest","9998","8","21","Male","","","","","","","","null","<div style=""font-size:60px;"">+</div>","null","fixation","","","","","","","","","11","","",""
"revaluation","311","1338431","0.0-5.0-2.1-0.56","spark_pilot_norest","9998","8","21","Male","","false","","","","","","[348,318.99999999976717]","./assets/img/ocean/memory/25.jpg","[""ArrowDown"",""ArrowRight""]","value training","ocean","30","{""ArrowUp,ArrowLeft"":23,""ArrowUp,ArrowRight"":10,""ArrowDown,ArrowLeft"":8,""ArrowDown,ArrowRight"":30}","true","ArrowDown,ArrowRight","false","original","2","12","","",""
"html-keyboard-response","312","1338934","0.0-5.0-2.1-1.56","spark_pilot_norest","9998","8","21","Male","","","","","","","","null","<div style=""font-size:60px;"">+</div>","null","fixation","","","","","","","","","13","","",""
"revaluation","313","1344940","0.0-5.0-2.1-0.57","spark_pilot_norest","9998","8","21","Male","","false","","","","","","[892,313]","./assets/img/ocean/memory/6.jpg","[""ArrowDown"",""ArrowRight""]","value training","ocean","30","{""ArrowUp,ArrowLeft"":23,""ArrowUp,ArrowRight"":10,""ArrowDown,ArrowLeft"":8,""ArrowDown,ArrowRight"":30}","true","ArrowDown,ArrowRight","false","original","2","14","","",""
"html-keyboard-response","314","1345441","0.0-5.0-2.1-1.57","spark_pilot_norest","9998","8","21","Male","","","","","","","","null","<div style=""font-size:60px;"">+</div>","null","fixation","","","","","","","","","15","","",""
"revaluation","315","1351446","0.0-5.0-2.1-0.58","spark_pilot_norest","9998","8","21","Male","","false","","","","","","[841,386]","./assets/img/ocean/memory/16.jpg","[""ArrowDown"",""ArrowRight""]","value training","ocean","30","{""ArrowUp,ArrowLeft"":23,""ArrowUp,ArrowRight"":10,""ArrowDown,ArrowLeft"":8,""ArrowDown,ArrowRight"":30}","true","ArrowDown,ArrowRight","false","original","2","16","","",""
"html-keyboard-response","316","1351947","0.0-5.0-2.1-1.58","spark_pilot_norest","9998","8","21","Male","","","","","","","","null","<div style=""font-size:60px;"">+</div>","null","fixation","","","","","","","","","17","","",""
