"trial_type","trial_index","time_elapsed","internal_node_id","task_version","subject_id","assigned_condition","age","gender","success","timeout","failed_images","failed_audio","failed_video","browser_interaction","rt","stimulus","response","task_part","environment","score","rewardMap","correct","fullState","isCatch","condition","order","trial_num","key_press","ground_truth","bonus"
"pavlovia","0","1068","0.0-0.0","spark_pilot_norest","12223","6","7","Female","","","","","","","","","","","","","","","","","","","","","",""
"preload","1","12188","0.0-1.0","spark_pilot_norest","12223","6","7","Female","true","false","[]","[]","[]","[{""event"":""fullscreenenter"",""trial"":2,""time"":15935}]","","","","","","","","","","","","","","","",""
"fullscreen","2","16908","0.0-2.0","spark_pilot_norest","12223","6","7","Female","true","","","","","","","","","","","","","","","","","","","","",""
"audio-button-response","3","21579","0.0-3.0-0.0-0.0","spark_pilot_norest","12223","6","7","Female","","","","","","","3491","./assets/audio/audiotest/turtle.mp3","4","audio_test","","","","","","","","","","","",""
"audio-button-response","4","24572","0.0-3.0-0.1-0.1","spark_pilot_norest","12223","6","7","Female","","","","","","","1989","./assets/audio/audiotest/turtle.mp3","2","audio_test","","","","","","","","","","","",""
"learning-instructions","5","34994","0.0-3.0-1.0-0.0","spark_pilot_norest","12223","6","7","Female","","","","","","","2456","<p> Welcome! Please remember to stay in fullscreen mode and don't click away from the experiment. </p>","","instructions","","","","","","","","","","","",""
"learning-instructions","6","46859","0.0-3.0-1.0-0.1","spark_pilot_norest","12223","6","7","Female","","","","","","","3449","<p> Today you will be playing a game to earn treasure. </p>
            <p> At the end of the experiment, you will earn a bonus based on how much treasure you find. </p>
            <img src='./assets/img/instructions/treasure.jpg' class='instructions-image'>","","instructions","","","","","","","","","","","",""
"learning-instructions","7","57111","0.0-3.0-1.0-0.2","spark_pilot_norest","12223","6","7","Female","","","","","","","2002.3999999761581","<p> Animals have hidden treasure in treasure chests. </p>
            <p> You need to first find an animal and then choose which of their treasure chests to search. </p>
            <img src='./assets/img/space/animals/cat.jpg' class='instructions-image'>","","instructions","","","","","","","","","","","",""
"learning-instructions","8","71544","0.0-3.0-1.0-0.3","spark_pilot_norest","12223","6","7","Female","","","","","","","1286.300000011921","<p> In each round, you will search for treasure in a different place. In the real game, there will be two rounds. </p>
            <p> You will begin with a separate, practice round where you will search for treasure in outer space. </p>
            <img src='./assets/img/space/0.jpg' class='instructions-image'>","","instructions","","","","","","","","","","","",""
"learning-instructions","9","84173","0.0-3.0-1.0-0.4","spark_pilot_norest","12223","6","7","Female","","","","","","","1224.800000011921","<p> On every turn, you will see a picture of the place that you are in, but the specific image may be different each time. </p>
            <p> For example, both of these images mean you are in outer space. </p>
            <img src='./assets/img/instructions/outerspace.jpg' class='instructions-image'>","","instructions","","","","","","","","","","","",""
"learning-instructions","10","93089","0.0-3.0-1.0-0.5","spark_pilot_norest","12223","6","7","Female","","","","","","","1089.5999999642372","<p> You need to decide which direction to travel in. </p>
            <p> You can choose between going <b>up or down</b> by using the arrow keys. </p>
            <img src='./assets/img/instructions/updown.jpg' class='instructions-image'>","","instructions","","","","","","","","","","","",""
"learning-instructions","11","103903","0.0-3.0-1.0-0.6","spark_pilot_norest","12223","6","7","Female","","","","","","","2003.699999988079","<p> You will have <b>2 seconds</b> to make your choice. </p>
            <p> If you do not make a choice within 2 seconds, you will not find an animal or earn treasure. </p>
            <img src='./assets/img/instructions/2seconds.jpg' class='instructions-image'>","","instructions","","","","","","","","","","","",""
"learning-instructions","12","112890","0.0-3.0-1.0-0.7","spark_pilot_norest","12223","6","7","Female","","","","","","","1961.5","<p> Let’s try practicing that now! </p>
            <p> When you see a picture of the place you are in, press the <b>up</b> key to travel up. </p>
            <img src='./assets/img/instructions/pressUp.jpg' class='instructions-image'>","","instructions","","","","","","","","","","","",""
"revaluation","13","116926","0.0-3.0-2.0-0.0","spark_pilot_norest","12223","6","7","Female","","false","","","","","[644.3000000119209]","./assets/img/space/0.jpg","[""ArrowUp""]","first stage practice","space","0","null","null","ArrowUp","false","","","","","",""
"html-keyboard-response","14","117433","0.0-3.0-2.0-1.0","spark_pilot_norest","12223","6","7","Female","","","","","","","null","<div style=""font-size:60px;"">+</div>","null","fixation","","","","","","","","","","","",""
"revaluation","15","121461","0.0-3.0-2.0-0.1","spark_pilot_norest","12223","6","7","Female","","true","","","","","[]","./assets/img/space/1.jpg","[]","first stage practice","space","-5","null","null","","false","","","","","",""
"html-keyboard-response","16","121976","0.0-3.0-2.0-1.1","spark_pilot_norest","12223","6","7","Female","","","","","","","null","<div style=""font-size:60px;"">+</div>","null","fixation","","","","","","","","","","","",""
"revaluation","17","126000","0.0-3.0-2.0-0.2","spark_pilot_norest","12223","6","7","Female","","true","","","","","[]","./assets/img/space/2.jpg","[]","first stage practice","space","-5","null","null","","false","","","","","",""
"html-keyboard-response","18","126513","0.0-3.0-2.0-1.2","spark_pilot_norest","12223","6","7","Female","","","","","","","null","<div style=""font-size:60px;"">+</div>","null","fixation","","","","","","","","","","","",""
"learning-instructions","19","133629","0.0-3.0-3.0-0.0","spark_pilot_norest","12223","6","7","Female","","","","","","","2420.899999976158","<p> Great job! Now try pressing the <b>down</b> key to travel down. </p>
            <img src='./assets/img/instructions/pressDown.jpg' class='instructions-image'>","","instructions","","","","","","","","","","","",""
"revaluation","20","137652","0.0-3.0-4.0-0.0","spark_pilot_norest","12223","6","7","Female","","false","","","","","[376.89999997615814]","./assets/img/space/3.jpg","[""ArrowDown""]","first stage practice","space","0","null","null","ArrowDown","false","","","","","",""
"html-keyboard-response","21","138169","0.0-3.0-4.0-1.0","spark_pilot_norest","12223","6","7","Female","","","","","","","null","<div style=""font-size:60px;"">+</div>","null","fixation","","","","","","","","","","","",""
"revaluation","22","142194","0.0-3.0-4.0-0.1","spark_pilot_norest","12223","6","7","Female","","false","","","","","[937.1000000238419]","./assets/img/space/4.jpg","[""ArrowDown""]","first stage practice","space","0","null","null","ArrowDown","false","","","","","",""
"html-keyboard-response","23","142711","0.0-3.0-4.0-1.1","spark_pilot_norest","12223","6","7","Female","","","","","","","null","<div style=""font-size:60px;"">+</div>","null","fixation","","","","","","","","","","","",""
"revaluation","24","146725","0.0-3.0-4.0-0.2","spark_pilot_norest","12223","6","7","Female","","true","","","","","[]","./assets/img/space/5.jpg","[]","first stage practice","space","-5","null","null","","false","","","","","",""
"html-keyboard-response","25","147239","0.0-3.0-4.0-1.2","spark_pilot_norest","12223","6","7","Female","","","","","","","null","<div style=""font-size:60px;"">+</div>","null","fixation","","","","","","","","","","","",""
"learning-instructions","26","159571","0.0-3.0-5.0-0.0","spark_pilot_norest","12223","6","7","Female","","","","","","","2441.600000023842","<p> The animals don’t move, so the animal in the upper part of a place will stay in the upper part of a place, and the animal in the lower part of a place will stay in the lower part of a place. </p>","","instructions","","","","","","","","","","","",""
"learning-instructions","27","170350","0.0-3.0-5.0-0.1","spark_pilot_norest","12223","6","7","Female","","","","","","","1653","<p> Each animal has two treasure chests for you to choose from. </p>
            <p> The amount of treasure in each chest can range from <b> 0 to 40 pieces.</b></p>","","instructions","","","","","","","","","","","",""
"learning-instructions","28","196121","0.0-3.0-5.0-0.2","spark_pilot_norest","12223","6","7","Female","","","","","","","14581.099999964237","<p> You should decide which chest to search for treasure by using the <b>left</b> and <b>right</b> arrow keys. </p>
            <p><b> Pay attention to which animal is on the screen, as the animals have different treasure chests. </b></p>
            <img src='./assets/img/instructions/leftright.jpg' class='instructions-image'>","","instructions","","","","","","","","","","","",""
"learning-instructions","29","208188","0.0-3.0-5.0-0.3","spark_pilot_norest","12223","6","7","Female","","","","","","","5700.699999988079","<p> Let’s try practicing that now. </p>
            <p> When you see an animal, choose which chest to search for treasure. </p>
            <img src='./assets/img/instructions/chooseChest.jpg' class='instructions-image'>","","instructions","","","","","","","","","","","",""
"revaluation","30","212212","0.0-3.0-6.0-0.0","spark_pilot_norest","12223","6","7","Female","","true","","","","","[]","./assets/img/space/animals/cat.jpg","[]","second stage practice","space","-5","{""ArrowUp,ArrowLeft"":3,""ArrowUp,ArrowRight"":36,""ArrowDown,ArrowLeft"":15,""ArrowDown,ArrowRight"":23}","false","ArrowUp","","","","","","",""
"html-keyboard-response","31","212720","0.0-3.0-6.0-1.0","spark_pilot_norest","12223","6","7","Female","","","","","","","null","<div style=""font-size:60px;"">+</div>","null","fixation","","","","","","","","","","","",""
"revaluation","32","216745","0.0-3.0-6.0-0.1","spark_pilot_norest","12223","6","7","Female","","false","","","","","[557.3000000119209]","./assets/img/space/animals/rabbit.jpg","[""ArrowRight""]","second stage practice","space","23","{""ArrowUp,ArrowLeft"":3,""ArrowUp,ArrowRight"":36,""ArrowDown,ArrowLeft"":15,""ArrowDown,ArrowRight"":23}","true","ArrowDown,ArrowRight","","","","","","",""
"html-keyboard-response","33","217252","0.0-3.0-6.0-1.1","spark_pilot_norest","12223","6","7","Female","","","","","","","null","<div style=""font-size:60px;"">+</div>","null","fixation","","","","","","","","","","","",""
"revaluation","34","221285","0.0-3.0-6.0-0.2","spark_pilot_norest","12223","6","7","Female","","true","","","","","[]","./assets/img/space/animals/rabbit.jpg","[]","second stage practice","space","-5","{""ArrowUp,ArrowLeft"":3,""ArrowUp,ArrowRight"":36,""ArrowDown,ArrowLeft"":15,""ArrowDown,ArrowRight"":23}","false","ArrowDown","","","","","","",""
"html-keyboard-response","35","221796","0.0-3.0-6.0-1.2","spark_pilot_norest","12223","6","7","Female","","","","","","","null","<div style=""font-size:60px;"">+</div>","null","fixation","","","","","","","","","","","",""
"revaluation","36","225824","0.0-3.0-6.0-0.3","spark_pilot_norest","12223","6","7","Female","","false","","","","","[771.6999999880791]","./assets/img/space/animals/cat.jpg","[""ArrowLeft""]","second stage practice","space","3","{""ArrowUp,ArrowLeft"":3,""ArrowUp,ArrowRight"":36,""ArrowDown,ArrowLeft"":15,""ArrowDown,ArrowRight"":23}","false","ArrowUp,ArrowLeft","","","","","","",""
"html-keyboard-response","37","226328","0.0-3.0-6.0-1.3","spark_pilot_norest","12223","6","7","Female","","","","","","","null","<div style=""font-size:60px;"">+</div>","null","fixation","","","","","","","","","","","",""
"learning-instructions","38","245433","0.0-3.0-7.0-0.0","spark_pilot_norest","12223","6","7","Female","","","","","","","2265.5","<p> Great job. Now let’s try putting it together. </p>
            <p> On each turn, you will first see a picture to remind you of the place you are in, and you need to choose whether to go up or down. </p>
            <p> Then you will see an animal and choose which of its chests to search for treasure. </p>","","instructions","","","","","","","","","","","",""
"learning-instructions","39","254633","0.0-3.0-7.0-0.1","spark_pilot_norest","12223","6","7","Female","","","","","","","934.6999999880791","<p> When you choose whether to go up or down, try to go to the animal with the chest with the most treasure. </p>
            <p> Try practicing that now! </p>","","instructions","","","","","","","","","","","",""
"revaluation","40","260656","0.0-3.0-8.0-0.0","spark_pilot_norest","12223","6","7","Female","","false","","","","","[889.5999999642372,1349.300000011921]","./assets/img/space/6.jpg","[""ArrowUp"",""ArrowRight""]","full practice","space","36","{""ArrowUp,ArrowLeft"":3,""ArrowUp,ArrowRight"":36,""ArrowDown,ArrowLeft"":15,""ArrowDown,ArrowRight"":23}","true","ArrowUp,ArrowRight","false","","","","","",""
"html-keyboard-response","41","261158","0.0-3.0-8.0-1.0","spark_pilot_norest","12223","6","7","Female","","","","","","","null","<div style=""font-size:60px;"">+</div>","null","fixation","","","","","","","","","","","",""
"revaluation","42","267178","0.0-3.0-8.0-0.1","spark_pilot_norest","12223","6","7","Female","","false","","","","","[708.8999999761581,545.9000000357628]","./assets/img/space/7.jpg","[""ArrowUp"",""ArrowRight""]","full practice","space","36","{""ArrowUp,ArrowLeft"":3,""ArrowUp,ArrowRight"":36,""ArrowDown,ArrowLeft"":15,""ArrowDown,ArrowRight"":23}","true","ArrowUp,ArrowRight","false","","","","","",""
"html-keyboard-response","43","267691","0.0-3.0-8.0-1.1","spark_pilot_norest","12223","6","7","Female","","","","","","","null","<div style=""font-size:60px;"">+</div>","null","fixation","","","","","","","","","","","",""
"revaluation","44","273713","0.0-3.0-8.0-0.2","spark_pilot_norest","12223","6","7","Female","","false","","","","","[605.1000000238419,424.60000002384186]","./assets/img/space/8.jpg","[""ArrowUp"",""ArrowRight""]","full practice","space","36","{""ArrowUp,ArrowLeft"":3,""ArrowUp,ArrowRight"":36,""ArrowDown,ArrowLeft"":15,""ArrowDown,ArrowRight"":23}","true","ArrowUp,ArrowRight","false","","","","","",""
"html-keyboard-response","45","274218","0.0-3.0-8.0-1.2","spark_pilot_norest","12223","6","7","Female","","","","","","","null","<div style=""font-size:60px;"">+</div>","null","fixation","","","","","","","","","","","",""
"revaluation","46","280242","0.0-3.0-8.0-0.3","spark_pilot_norest","12223","6","7","Female","","false","","","","","[674.5,469.39999997615814]","./assets/img/space/9.jpg","[""ArrowUp"",""ArrowRight""]","full practice","space","36","{""ArrowUp,ArrowLeft"":3,""ArrowUp,ArrowRight"":36,""ArrowDown,ArrowLeft"":15,""ArrowDown,ArrowRight"":23}","true","ArrowUp,ArrowRight","false","","","","","",""
"html-keyboard-response","47","280759","0.0-3.0-8.0-1.3","spark_pilot_norest","12223","6","7","Female","","","","","","","null","<div style=""font-size:60px;"">+</div>","null","fixation","","","","","","","","","","","",""
"revaluation","48","286771","0.0-3.0-8.0-0.4","spark_pilot_norest","12223","6","7","Female","","false","","","","","[605.1000000238419,479.60000002384186]","./assets/img/space/10.jpg","[""ArrowUp"",""ArrowRight""]","full practice","space","36","{""ArrowUp,ArrowLeft"":3,""ArrowUp,ArrowRight"":36,""ArrowDown,ArrowLeft"":15,""ArrowDown,ArrowRight"":23}","true","ArrowUp,ArrowRight","false","","","","","",""
"html-keyboard-response","49","287273","0.0-3.0-8.0-1.4","spark_pilot_norest","12223","6","7","Female","","","","","","","null","<div style=""font-size:60px;"">+</div>","null","fixation","","","","","","","","","","","",""
"learning-instructions","50","300255","0.0-3.0-9.0-0.0","spark_pilot_norest","12223","6","7","Female","","","","","","","1287.5","<p> One last thing: sometimes, you will see a robber. The robber can be anywhere in the picture. </p>
            <p> If you do not stop them, you will lose treasure. </p>
            <img src='./assets/img/instructions/robber.jpg' class='instructions-image'>","","instructions","","","","","","","","","","","",""
"learning-instructions","51","310096","0.0-3.0-9.0-0.1","spark_pilot_norest","12223","6","7","Female","","","","","","","1736.7000000476837","<p> If you see the robber, you should <b>press the space bar</b> rather than using the arrow keys. </p>
            <p> Try practicing that now! </p>","","instructions","","","","","","","","","","","",""
"revaluation","52","314115","0.0-3.0-10.0-0.0","spark_pilot_norest","12223","6","7","Female","","false","","","","","[1600.8999999761581]","./assets/img/space/catch/0.jpg","[""spaceBar""]","catch practice","space","0","{""ArrowUp,ArrowLeft"":3,""ArrowUp,ArrowRight"":36,""ArrowDown,ArrowLeft"":15,""ArrowDown,ArrowRight"":23}","true","spaceBar","true","","","","","",""
"html-keyboard-response","53","314627","0.0-3.0-10.0-1.0","spark_pilot_norest","12223","6","7","Female","","","","","","","null","<div style=""font-size:60px;"">+</div>","null","fixation","","","","","","","","","","","",""
"revaluation","54","318649","0.0-3.0-10.0-0.1","spark_pilot_norest","12223","6","7","Female","","false","","","","","[1269.2999999523163]","./assets/img/space/catch/1.jpg","[""spaceBar""]","catch practice","space","0","{""ArrowUp,ArrowLeft"":3,""ArrowUp,ArrowRight"":36,""ArrowDown,ArrowLeft"":15,""ArrowDown,ArrowRight"":23}","true","spaceBar","true","","","","","",""
"html-keyboard-response","55","319164","0.0-3.0-10.0-1.1","spark_pilot_norest","12223","6","7","Female","","","","","","","null","<div style=""font-size:60px;"">+</div>","null","fixation","","","","","","","","","","","",""
"revaluation","56","323185","0.0-3.0-10.0-0.2","spark_pilot_norest","12223","6","7","Female","","false","","","","","[732.5]","./assets/img/space/catch/2.jpg","[""spaceBar""]","catch practice","space","0","{""ArrowUp,ArrowLeft"":3,""ArrowUp,ArrowRight"":36,""ArrowDown,ArrowLeft"":15,""ArrowDown,ArrowRight"":23}","true","spaceBar","true","","","","","",""
"html-keyboard-response","57","323688","0.0-3.0-10.0-1.2","spark_pilot_norest","12223","6","7","Female","","","","","","","null","<div style=""font-size:60px;"">+</div>","null","fixation","","","","","","","","","","","",""
"learning-instructions","58","336448","0.0-3.0-11.0-0.0-0.0","spark_pilot_norest","12223","6","7","Female","","","","","","","7478.899999976158","<p> Now, you will practice a shortened version of the game to get a sense of how it all fits together. </p>","","instructions","","","","","","","","","","","",""
"learning-instructions","59","340965","0.0-3.0-11.0-0.0-0.1","spark_pilot_norest","12223","6","7","Female","","","","","","","1337.1000000238419","<p>This time you are searching for treasure in outer space.</p>","","instructions","","","","","","","","","","","",""
"learning-instructions","60","363057","0.0-3.0-11.0-1.0-0.0","spark_pilot_norest","12223","6","7","Female","","","","","","","7326.899999976158","<p> Remember, when you see a picture of the place, use the up and down keys to <b>find an animal</b>.</p>
            <p> When you encounter an animal, you should use the left and right keys to <b>select a treasure chest</b>.</p>
            <p> Don't forget to look out for the robber! </p>","","instructions","","","","","","","","","","","",""
"revaluation","61","367088","0.0-3.0-11.0-2.0-0.0","spark_pilot_norest","12223","6","7","Female","","true","","","","","[]","./assets/img/space/11.jpg","[]","practice block","space","-5","{""ArrowUp,ArrowLeft"":3,""ArrowUp,ArrowRight"":36,""ArrowDown,ArrowLeft"":15,""ArrowDown,ArrowRight"":23}","false","","false","","","","","",""
"html-keyboard-response","62","367603","0.0-3.0-11.0-2.0-1.0","spark_pilot_norest","12223","6","7","Female","","","","","","","null","<div style=""font-size:60px;"">+</div>","null","fixation","","","","","","","","","","","",""
"revaluation","63","373639","0.0-3.0-11.0-2.0-0.1","spark_pilot_norest","12223","6","7","Female","","false","","","","","[539.8000000119209,707.7000000476837]","./assets/img/space/12.jpg","[""ArrowUp"",""ArrowRight""]","practice block","space","36","{""ArrowUp,ArrowLeft"":3,""ArrowUp,ArrowRight"":36,""ArrowDown,ArrowLeft"":15,""ArrowDown,ArrowRight"":23}","true","ArrowUp,ArrowRight","false","","","","","",""
"html-keyboard-response","64","374152","0.0-3.0-11.0-2.0-1.1","spark_pilot_norest","12223","6","7","Female","","","","","","","null","<div style=""font-size:60px;"">+</div>","null","fixation","","","","","","","","","","","",""
"revaluation","65","380191","0.0-3.0-11.0-2.0-0.2","spark_pilot_norest","12223","6","7","Female","","true","","","","","[934.8000000119209]","./assets/img/space/13.jpg","[""ArrowUp""]","practice block","space","-5","{""ArrowUp,ArrowLeft"":3,""ArrowUp,ArrowRight"":36,""ArrowDown,ArrowLeft"":15,""ArrowDown,ArrowRight"":23}","false","ArrowUp","false","","","","","",""
"html-keyboard-response","66","380708","0.0-3.0-11.0-2.0-1.2","spark_pilot_norest","12223","6","7","Female","","","","","","","null","<div style=""font-size:60px;"">+</div>","null","fixation","","","","","","","","","","","",""
"revaluation","67","386733","0.0-3.0-11.0-2.0-0.3","spark_pilot_norest","12223","6","7","Female","","false","","","","","[543.1999999880791,591.8999999761581]","./assets/img/space/14.jpg","[""ArrowDown"",""ArrowRight""]","practice block","space","23","{""ArrowUp,ArrowLeft"":3,""ArrowUp,ArrowRight"":36,""ArrowDown,ArrowLeft"":15,""ArrowDown,ArrowRight"":23}","false","ArrowDown,ArrowRight","false","","","","","",""
"html-keyboard-response","68","387235","0.0-3.0-11.0-2.0-1.3","spark_pilot_norest","12223","6","7","Female","","","","","","","null","<div style=""font-size:60px;"">+</div>","null","fixation","","","","","","","","","","","",""
"revaluation","69","393243","0.0-3.0-11.0-2.0-0.4","spark_pilot_norest","12223","6","7","Female","","false","","","","","[1103.9000000357628,338.39999997615814]","./assets/img/space/11.jpg","[""ArrowDown"",""ArrowLeft""]","practice block","space","15","{""ArrowUp,ArrowLeft"":3,""ArrowUp,ArrowRight"":36,""ArrowDown,ArrowLeft"":15,""ArrowDown,ArrowRight"":23}","false","ArrowDown,ArrowLeft","false","","","","","",""
"html-keyboard-response","70","393745","0.0-3.0-11.0-2.0-1.4","spark_pilot_norest","12223","6","7","Female","","","","","","","null","<div style=""font-size:60px;"">+</div>","null","fixation","","","","","","","","","","","",""
"revaluation","71","399754","0.0-3.0-11.0-2.0-0.5","spark_pilot_norest","12223","6","7","Female","","false","","","","","[1390.5999999642372,563]","./assets/img/space/12.jpg","[""ArrowUp"",""ArrowRight""]","practice block","space","36","{""ArrowUp,ArrowLeft"":3,""ArrowUp,ArrowRight"":36,""ArrowDown,ArrowLeft"":15,""ArrowDown,ArrowRight"":23}","true","ArrowUp,ArrowRight","false","","","","","",""
"html-keyboard-response","72","400256","0.0-3.0-11.0-2.0-1.5","spark_pilot_norest","12223","6","7","Female","","","","","","","null","<div style=""font-size:60px;"">+</div>","null","fixation","","","","","","","","","","","",""
"revaluation","73","406266","0.0-3.0-11.0-2.0-0.6","spark_pilot_norest","12223","6","7","Female","","false","","","","","[656.3000000119209,1195.5]","./assets/img/space/13.jpg","[""ArrowUp"",""ArrowRight""]","practice block","space","36","{""ArrowUp,ArrowLeft"":3,""ArrowUp,ArrowRight"":36,""ArrowDown,ArrowLeft"":15,""ArrowDown,ArrowRight"":23}","true","ArrowUp,ArrowRight","false","","","","","",""
"html-keyboard-response","74","406768","0.0-3.0-11.0-2.0-1.6","spark_pilot_norest","12223","6","7","Female","","","","","","","null","<div style=""font-size:60px;"">+</div>","null","fixation","","","","","","","","","","","",""
"revaluation","75","412777","0.0-3.0-11.0-2.0-0.7","spark_pilot_norest","12223","6","7","Female","","false","","","","","[1035,580.3000000119209]","./assets/img/space/14.jpg","[""ArrowUp"",""ArrowLeft""]","practice block","space","3","{""ArrowUp,ArrowLeft"":3,""ArrowUp,ArrowRight"":36,""ArrowDown,ArrowLeft"":15,""ArrowDown,ArrowRight"":23}","false","ArrowUp,ArrowLeft","false","","","","","",""
"html-keyboard-response","76","413279","0.0-3.0-11.0-2.0-1.7","spark_pilot_norest","12223","6","7","Female","","","","","","","null","<div style=""font-size:60px;"">+</div>","null","fixation","","","","","","","","","","","",""
"revaluation","77","417286","0.0-3.0-11.0-2.0-0.8","spark_pilot_norest","12223","6","7","Female","","false","","","","","[652.3999999761581]","./assets/img/space/catch/3.jpg","[""ArrowUp""]","practice block","space","-10","{""ArrowUp,ArrowLeft"":3,""ArrowUp,ArrowRight"":36,""ArrowDown,ArrowLeft"":15,""ArrowDown,ArrowRight"":23}","false","ArrowUp","true","","","","","",""
"html-keyboard-response","78","417789","0.0-3.0-11.0-2.0-1.8","spark_pilot_norest","12223","6","7","Female","","","","","","","null","<div style=""font-size:60px;"">+</div>","null","fixation","","","","","","","","","","","",""
"learning-instructions","79","436883","0.0-3.0-11.0-3.0-0.0","spark_pilot_norest","12223","6","7","Female","","","","","","","4986.800000011921","<p> Now, you will travel with a friend who will choose whether you go up or down first. </p>
            <p> On these turns, you will just see the animal that they found. You will still get to choose which chest to search for treasure.</p>","","instructions","","","","","","","","","","","",""
"revaluation","80","440910","0.0-3.0-11.0-4.0-0.0","spark_pilot_norest","12223","6","7","Female","","false","","","","","[1009.8999999761581]","./assets/img/space/animals/rabbit.jpg","[""ArrowRight""]","practice block","space","23","{""ArrowUp,ArrowLeft"":3,""ArrowUp,ArrowRight"":36,""ArrowDown,ArrowLeft"":15,""ArrowDown,ArrowRight"":23}","true","ArrowDown,ArrowRight","","","","","","",""
"html-keyboard-response","81","441426","0.0-3.0-11.0-4.0-1.0","spark_pilot_norest","12223","6","7","Female","","","","","","","null","<div style=""font-size:60px;"">+</div>","null","fixation","","","","","","","","","","","",""
"revaluation","82","445460","0.0-3.0-11.0-4.0-0.1","spark_pilot_norest","12223","6","7","Female","","false","","","","","[1046.5]","./assets/img/space/animals/cat.jpg","[""ArrowRight""]","practice block","space","36","{""ArrowUp,ArrowLeft"":3,""ArrowUp,ArrowRight"":36,""ArrowDown,ArrowLeft"":15,""ArrowDown,ArrowRight"":23}","true","ArrowUp,ArrowRight","","","","","","",""
"html-keyboard-response","83","445962","0.0-3.0-11.0-4.0-1.1","spark_pilot_norest","12223","6","7","Female","","","","","","","null","<div style=""font-size:60px;"">+</div>","null","fixation","","","","","","","","","","","",""
"revaluation","84","449981","0.0-3.0-11.0-4.0-0.2","spark_pilot_norest","12223","6","7","Female","","false","","","","","[637.7999999523163]","./assets/img/space/animals/rabbit.jpg","[""ArrowRight""]","practice block","space","23","{""ArrowUp,ArrowLeft"":3,""ArrowUp,ArrowRight"":36,""ArrowDown,ArrowLeft"":15,""ArrowDown,ArrowRight"":23}","true","ArrowDown,ArrowRight","","","","","","",""
"html-keyboard-response","85","450495","0.0-3.0-11.0-4.0-1.2","spark_pilot_norest","12223","6","7","Female","","","","","","","null","<div style=""font-size:60px;"">+</div>","null","fixation","","","","","","","","","","","",""
"revaluation","86","454515","0.0-3.0-11.0-4.0-0.3","spark_pilot_norest","12223","6","7","Female","","false","","","","","[579.6000000238419]","./assets/img/space/animals/cat.jpg","[""ArrowLeft""]","practice block","space","3","{""ArrowUp,ArrowLeft"":3,""ArrowUp,ArrowRight"":36,""ArrowDown,ArrowLeft"":15,""ArrowDown,ArrowRight"":23}","false","ArrowUp,ArrowLeft","","","","","","",""
"html-keyboard-response","87","455028","0.0-3.0-11.0-4.0-1.3","spark_pilot_norest","12223","6","7","Female","","","","","","","null","<div style=""font-size:60px;"">+</div>","null","fixation","","","","","","","","","","","",""
"learning-instructions","88","464086","0.0-3.0-11.0-5.0-0.0","spark_pilot_norest","12223","6","7","Female","","","","","","","null","<p> You have almost finished this part of the game! </p>
            <p> We are going to ask you to make a few more choices. </p>","","instructions","","","","","","","","","","","",""
"learning-instructions","89","480121","0.0-3.0-11.0-5.0-0.1","spark_pilot_norest","12223","6","7","Female","","","","","","","null","<p> First, you need to decide whether to go up or down. When you see each picture, use the arrow keys to make your choice. </p>
            <p><b>You will not see which animal you found, but try to get to the one that will give you the most treasure.</b></p>","","instructions","","","","","","","","","","","",""
"html-keyboard-response","90","481136","0.0-3.0-11.0-6.0-0.0","spark_pilot_norest","12223","6","7","Female","","","","","","","null","<div style=""font-size:100px;color:red;"">Starting in...</div>","null","","","","","","","","","","","","",""
"html-keyboard-response","91","482152","0.0-3.0-11.0-6.0-1.0","spark_pilot_norest","12223","6","7","Female","","","","","","","null","<div style=""font-size:200px;color:red;"">3</div>","null","","","","","","","","","","","","",""
"html-keyboard-response","92","483167","0.0-3.0-11.0-6.0-2.0","spark_pilot_norest","12223","6","7","Female","","","","","","","null","<div style=""font-size:200px;color:red;"">2</div>","null","","","","","","","","","","","","",""
"html-keyboard-response","93","484181","0.0-3.0-11.0-6.0-3.0","spark_pilot_norest","12223","6","7","Female","","","","","","","null","<div style=""font-size:200px;color:red;"">1</div>","null","","","","","","","","","","","","",""
"revaluation","94","485792","0.0-3.0-11.0-7.0","spark_pilot_norest","12223","6","7","Female","","false","","","","","[1603.8999999761581]","./assets/img/space/15.jpg","[""ArrowUp""]","practice block","space","0","{""ArrowUp,ArrowLeft"":3,""ArrowUp,ArrowRight"":36,""ArrowDown,ArrowLeft"":15,""ArrowDown,ArrowRight"":23}","true","ArrowUp","false","","","","","",""
"html-keyboard-response","95","486306","0.0-3.0-11.0-8.0","spark_pilot_norest","12223","6","7","Female","","","","","","","null","<div style=""font-size:60px;"">+</div>","null","fixation","","","","","","","","","","","",""
"learning-instructions","96","499724","0.0-3.0-11.0-9.0-0.0","spark_pilot_norest","12223","6","7","Female","","","","","","","null","<p> Now you will see the animals again and can search their chests for treasure. </p>
            <p> This time, you will not see how much treasure you earned, but you will earn more bonus money for making better choices. </p>","","instructions","","","","","","","","","","","",""
"html-keyboard-response","97","500734","0.0-3.0-11.0-10.0-0.0","spark_pilot_norest","12223","6","7","Female","","","","","","","null","<div style=""font-size:100px;color:red;"">Starting in...</div>","null","","","","","","","","","","","","",""
"html-keyboard-response","98","501745","0.0-3.0-11.0-10.0-1.0","spark_pilot_norest","12223","6","7","Female","","","","","","","null","<div style=""font-size:200px;color:red;"">3</div>","null","","","","","","","","","","","","",""
"html-keyboard-response","99","502761","0.0-3.0-11.0-10.0-2.0","spark_pilot_norest","12223","6","7","Female","","","","","","","null","<div style=""font-size:200px;color:red;"">2</div>","null","","","","","","","","","","","","",""
"html-keyboard-response","100","503774","0.0-3.0-11.0-10.0-3.0","spark_pilot_norest","12223","6","7","Female","","","","","","","null","<div style=""font-size:200px;color:red;"">1</div>","null","","","","","","","","","","","","",""
"revaluation","101","506670","0.0-3.0-11.0-11.0-0.0","spark_pilot_norest","12223","6","7","Female","","false","","","","","[2888.800000011921]","./assets/img/space/animals/cat.jpg","[""ArrowRight""]","practice block","space","0","{""ArrowUp,ArrowLeft"":3,""ArrowUp,ArrowRight"":36,""ArrowDown,ArrowLeft"":15,""ArrowDown,ArrowRight"":23}","true","ArrowUp,ArrowRight","","","","","","",""
"html-keyboard-response","102","507186","0.0-3.0-11.0-11.0-1.0","spark_pilot_norest","12223","6","7","Female","","","","","","","null","<div style=""font-size:60px;"">+</div>","null","fixation","","","","","","","","","","","",""
"revaluation","103","508166","0.0-3.0-11.0-11.0-0.1","spark_pilot_norest","12223","6","7","Female","","false","","","","","[976.3000000119209]","./assets/img/space/animals/rabbit.jpg","[""ArrowRight""]","practice block","space","0","{""ArrowUp,ArrowLeft"":3,""ArrowUp,ArrowRight"":36,""ArrowDown,ArrowLeft"":15,""ArrowDown,ArrowRight"":23}","true","ArrowDown,ArrowRight","","","","","","",""
"html-keyboard-response","104","508685","0.0-3.0-11.0-11.0-1.1","spark_pilot_norest","12223","6","7","Female","","","","","","","null","<div style=""font-size:60px;"">+</div>","null","fixation","","","","","","","","","","","",""
"learning-instructions","105","519005","0.0-3.0-12.0-0.0","spark_pilot_norest","12223","6","7","Female","","","","","","","5719.800000011921","<p> Before you start, we're going to ask you a few questions about how the game works. </p>","","instructions","","","","","","","","","","","",""
"comp-q","106","527026","0.0-3.0-13.0-0.0-0.0","spark_pilot_norest","12223","6","7","Female","","","","","","","2420.7999999523163","<p> <b> True or False? </b> </p>
            <p> There can be 50 pieces of treasure in a given animal's chest. </p>","1","comp_question","","","","true","","","","","","","",""
"comp-q","107","535514","0.0-3.0-13.0-0.0-1.0","spark_pilot_norest","12223","6","7","Female","","","","","","","1829.2999999523163","<p> <b> That's right! </b> The amount of treasure in each chest can range from 0 to 40 pieces. </p>","0","comp_answer","","","","","","","","","","","",""
"comp-q","108","543795","0.0-3.0-13.0-0.1-0.1","spark_pilot_norest","12223","6","7","Female","","","","","","","1161.7000000476837","<p> <b> True or False? </b> </p><p> In this game, all animals have the same amount of treasure in their left and right chests. </p>","1","comp_question","","","","true","","","","","","","",""
"comp-q","109","550356","0.0-3.0-13.0-0.1-1.1","spark_pilot_norest","12223","6","7","Female","","","","","","","1330.300000011921","<p> <b> That's right! </b> Animals have different amounts of treasure in their treasure chests. </p>","0","comp_answer","","","","","","","","","","","",""
"comp-q","110","558882","0.0-3.0-13.0-0.2-0.2","spark_pilot_norest","12223","6","7","Female","","","","","","","2685.600000023842","<p> <b> True or False? </b> </p><p> The same animal will always be there if you go up in the same place. </p>","1","comp_question","","","","false","","","","","","","",""
"comp-q","111","567046","0.0-3.0-13.0-0.2-1.2","spark_pilot_norest","12223","6","7","Female","","","","","","","1871.9000000357628","<p> <b>Incorrect.</b> One animal lives in the upper part and one lives in the lower part of every place. </p>","0","comp_answer","","","","","","","","","","","",""
"comp-q","112","576294","0.0-3.0-13.0-0.3-0.3","spark_pilot_norest","12223","6","7","Female","","","","","","","3419.099999964237","<p> <b> True or False? </b> </p><p> The same animal will always be there if you go up in the same place. </p>","0","comp_question","","","","true","","","","","","","",""
"comp-q","113","584051","0.0-3.0-13.0-0.3-1.3","spark_pilot_norest","12223","6","7","Female","","","","","","","1306.8999999761581","<p> <b> That's right! </b> One animal lives in the upper part and one lives in the lower part of every place. </p>","0","comp_answer","","","","","","","","","","","",""
"comp-q","114","591097","0.0-3.0-13.0-0.4-0.4","spark_pilot_norest","12223","6","7","Female","","","","","","","1532","<p> <b> True or False? </b> </p><p> If you see a different picture, it means you are in a new place. </p>","0","comp_question","","","","false","","","","","","","",""
"comp-q","115","604193","0.0-3.0-13.0-0.4-1.4","spark_pilot_norest","12223","6","7","Female","","","","","","","1999","<p> <b>Incorrect.</b> Lots of different images may show the same place. For example,  you may see three different images that all remind you that you are in outer space. </p>","0","comp_answer","","","","","","","","","","","",""
"comp-q","116","613741","0.0-3.0-13.0-0.5-0.5","spark_pilot_norest","12223","6","7","Female","","","","","","","4036.2999999523163","<p> <b> True or False? </b> </p><p> If you see a different picture, it means you are in a new place. </p>","1","comp_question","","","","true","","","","","","","",""
"comp-q","117","626213","0.0-3.0-13.0-0.5-1.5","spark_pilot_norest","12223","6","7","Female","","","","","","","1247.3999999761581","<p> <b> That's right! </b> Lots of different images may show the same place. For example,  you may see three different images that all remind you that you are in outer space. </p>","0","comp_answer","","","","","","","","","","","",""
"learning-instructions","118","687508","0.0-3.0-14.0-0.0","spark_pilot_norest","12223","6","7","Female","","","","","","","51442.69999998808","<p> Good job. Remember to do your best because the amount of treasure you earn will be converted into bonus money. </p>
            <p> It’s time to start the real game! </p>","","instructions","","","","","","","","","","","",""
"learning-instructions","119","694270","0.0-4.0-0.0-0.0","spark_pilot_norest","12223","6","7","Female","","","","","","","2804.2000000476837","<p> This time you are searching for treasure in the <b>canyon</b>.</p>","","instructions","","","","","","","","","","","",""
"learning-instructions","120","712387","0.0-4.0-0.0-0.1","spark_pilot_norest","12223","6","7","Female","","","","","","","820.6000000238419","<p><b>New</b> animals with <b>new</b> treasure chests live here. You need to explore to discover where the animal with the best treasure chest is.</p>
                    <p> Like before, once you figure out which animal has the chest with the most treasure, you should try to get to that animal and select that chest! </p>","","instructions","","","","","","","","","","","",""
"learning-instructions","121","732999","0.0-4.0-1.0-0.0","spark_pilot_norest","12223","6","7","Female","","","","","","","5874.400000035763","<p> Remember, when you see a picture of the place, use the up and down keys to <b>find an animal</b>.</p>
            <p> When you encounter an animal, you should use the left and right keys to <b>select a treasure chest</b>.</p>
            <p> Don't forget to look out for the robber! </p>","","instructions","","","","","","","","","","","",""
"revaluation","122","739036","0.0-4.0-2.0-0.0","spark_pilot_norest","12223","6","7","Female","","false","","","","","[1314.5999999642372,972.0999999642372]","./assets/img/canyon/memory/7.jpg","[""ArrowUp"",""ArrowRight""]","value training","canyon","10","{""ArrowUp,ArrowLeft"":23,""ArrowUp,ArrowRight"":10,""ArrowDown,ArrowLeft"":8,""ArrowDown,ArrowRight"":30}","false","ArrowUp,ArrowRight","false","revaluation","1","0","","",""
"html-keyboard-response","123","739550","0.0-4.0-2.0-1.0","spark_pilot_norest","12223","6","7","Female","","","","","","","null","<div style=""font-size:60px;"">+</div>","null","fixation","","","","","","","","","1","","",""
"revaluation","124","743569","0.0-4.0-2.0-0.1","spark_pilot_norest","12223","6","7","Female","","true","","","","","[]","./assets/img/canyon/memory/38.jpg","[]","value training","canyon","-5","{""ArrowUp,ArrowLeft"":23,""ArrowUp,ArrowRight"":10,""ArrowDown,ArrowLeft"":8,""ArrowDown,ArrowRight"":30}","false","","false","revaluation","1","2","","",""
"html-keyboard-response","125","744085","0.0-4.0-2.0-1.1","spark_pilot_norest","12223","6","7","Female","","","","","","","null","<div style=""font-size:60px;"">+</div>","null","fixation","","","","","","","","","3","","",""
"revaluation","126","750119","0.0-4.0-2.0-0.2","spark_pilot_norest","12223","6","7","Female","","false","","","","","[1426.4000000357628,595.3999999761581]","./assets/img/canyon/memory/34.jpg","[""ArrowUp"",""ArrowLeft""]","value training","canyon","23","{""ArrowUp,ArrowLeft"":23,""ArrowUp,ArrowRight"":10,""ArrowDown,ArrowLeft"":8,""ArrowDown,ArrowRight"":30}","false","ArrowUp,ArrowLeft","false","revaluation","1","4","","",""
"html-keyboard-response","127","750631","0.0-4.0-2.0-1.2","spark_pilot_norest","12223","6","7","Female","","","","","","","null","<div style=""font-size:60px;"">+</div>","null","fixation","","","","","","","","","5","","",""
"revaluation","128","756655","0.0-4.0-2.0-0.3","spark_pilot_norest","12223","6","7","Female","","false","","","","","[1479.9000000357628,37.59999996423721]","./assets/img/canyon/memory/40.jpg","[""ArrowDown"",""ArrowLeft""]","value training","canyon","8","{""ArrowUp,ArrowLeft"":23,""ArrowUp,ArrowRight"":10,""ArrowDown,ArrowLeft"":8,""ArrowDown,ArrowRight"":30}","false","ArrowDown,ArrowLeft","false","revaluation","1","6","","",""
"html-keyboard-response","129","757165","0.0-4.0-2.0-1.3","spark_pilot_norest","12223","6","7","Female","","","","","","","null","<div style=""font-size:60px;"">+</div>","null","fixation","","","","","","","","","7","","",""
"revaluation","130","763174","0.0-4.0-2.0-0.4","spark_pilot_norest","12223","6","7","Female","","false","","","","","[1907.3999999761581,800.7000000476837]","./assets/img/canyon/memory/33.jpg","[""ArrowUp"",""ArrowLeft""]","value training","canyon","23","{""ArrowUp,ArrowLeft"":23,""ArrowUp,ArrowRight"":10,""ArrowDown,ArrowLeft"":8,""ArrowDown,ArrowRight"":30}","false","ArrowUp,ArrowLeft","false","revaluation","1","8","","",""
"html-keyboard-response","131","763676","0.0-4.0-2.0-1.4","spark_pilot_norest","12223","6","7","Female","","","","","","","null","<div style=""font-size:60px;"">+</div>","null","fixation","","","","","","","","","9","","",""
"revaluation","132","769683","0.0-4.0-2.0-0.5","spark_pilot_norest","12223","6","7","Female","","false","","","","","[1323.6000000238419,945.6000000238419]","./assets/img/canyon/memory/6.jpg","[""ArrowUp"",""ArrowLeft""]","value training","canyon","23","{""ArrowUp,ArrowLeft"":23,""ArrowUp,ArrowRight"":10,""ArrowDown,ArrowLeft"":8,""ArrowDown,ArrowRight"":30}","false","ArrowUp,ArrowLeft","false","revaluation","1","10","","",""
"html-keyboard-response","133","770186","0.0-4.0-2.0-1.5","spark_pilot_norest","12223","6","7","Female","","","","","","","null","<div style=""font-size:60px;"">+</div>","null","fixation","","","","","","","","","11","","",""
"revaluation","134","774195","0.0-4.0-2.0-0.6","spark_pilot_norest","12223","6","7","Female","","false","","","","","[839.5]","./assets/img/canyon/catch/1.jpg","[""ArrowUp""]","value training","canyon","-10","{""ArrowUp,ArrowLeft"":23,""ArrowUp,ArrowRight"":10,""ArrowDown,ArrowLeft"":8,""ArrowDown,ArrowRight"":30}","false","ArrowUp","true","revaluation","1","12","","",""
"html-keyboard-response","135","774697","0.0-4.0-2.0-1.6","spark_pilot_norest","12223","6","7","Female","","","","","","","null","<div style=""font-size:60px;"">+</div>","null","fixation","","","","","","","","","13","","",""
"revaluation","136","778703","0.0-4.0-2.0-0.7","spark_pilot_norest","12223","6","7","Female","","false","","","","","[1953.800000011921]","./assets/img/canyon/catch/0.jpg","[""spaceBar""]","value training","canyon","0","{""ArrowUp,ArrowLeft"":23,""ArrowUp,ArrowRight"":10,""ArrowDown,ArrowLeft"":8,""ArrowDown,ArrowRight"":30}","true","spaceBar","true","revaluation","1","14","","",""
"html-keyboard-response","137","779207","0.0-4.0-2.0-1.7","spark_pilot_norest","12223","6","7","Female","","","","","","","null","<div style=""font-size:60px;"">+</div>","null","fixation","","","","","","","","","15","","",""
"revaluation","138","783215","0.0-4.0-2.0-0.8","spark_pilot_norest","12223","6","7","Female","","false","","","","","[1020.5]","./assets/img/canyon/catch/6.jpg","[""spaceBar""]","value training","canyon","0","{""ArrowUp,ArrowLeft"":23,""ArrowUp,ArrowRight"":10,""ArrowDown,ArrowLeft"":8,""ArrowDown,ArrowRight"":30}","true","spaceBar","true","revaluation","1","16","","",""
"html-keyboard-response","139","783716","0.0-4.0-2.0-1.8","spark_pilot_norest","12223","6","7","Female","","","","","","","null","<div style=""font-size:60px;"">+</div>","null","fixation","","","","","","","","","17","","",""
"revaluation","140","789726","0.0-4.0-2.0-0.9","spark_pilot_norest","12223","6","7","Female","","false","","","","","[734.7000000476837,750]","./assets/img/canyon/memory/6.jpg","[""ArrowUp"",""ArrowLeft""]","value training","canyon","23","{""ArrowUp,ArrowLeft"":23,""ArrowUp,ArrowRight"":10,""ArrowDown,ArrowLeft"":8,""ArrowDown,ArrowRight"":30}","false","ArrowUp,ArrowLeft","false","revaluation","1","18","","",""
"html-keyboard-response","141","790228","0.0-4.0-2.0-1.9","spark_pilot_norest","12223","6","7","Female","","","","","","","null","<div style=""font-size:60px;"">+</div>","null","fixation","","","","","","","","","19","","",""
"revaluation","142","796236","0.0-4.0-2.0-0.10","spark_pilot_norest","12223","6","7","Female","","false","","","","","[794.5,542.8999999761581]","./assets/img/canyon/memory/13.jpg","[""ArrowDown"",""ArrowLeft""]","value training","canyon","8","{""ArrowUp,ArrowLeft"":23,""ArrowUp,ArrowRight"":10,""ArrowDown,ArrowLeft"":8,""ArrowDown,ArrowRight"":30}","false","ArrowDown,ArrowLeft","false","revaluation","1","20","","",""
"html-keyboard-response","143","796737","0.0-4.0-2.0-1.10","spark_pilot_norest","12223","6","7","Female","","","","","","","null","<div style=""font-size:60px;"">+</div>","null","fixation","","","","","","","","","21","","",""
"revaluation","144","800743","0.0-4.0-2.0-0.11","spark_pilot_norest","12223","6","7","Female","","false","","","","","[551.2000000476837]","./assets/img/canyon/catch/4.jpg","[""ArrowUp""]","value training","canyon","-10","{""ArrowUp,ArrowLeft"":23,""ArrowUp,ArrowRight"":10,""ArrowDown,ArrowLeft"":8,""ArrowDown,ArrowRight"":30}","false","ArrowUp","true","revaluation","1","22","","",""
"html-keyboard-response","145","801246","0.0-4.0-2.0-1.11","spark_pilot_norest","12223","6","7","Female","","","","","","","null","<div style=""font-size:60px;"">+</div>","null","fixation","","","","","","","","","23","","",""
"revaluation","146","807255","0.0-4.0-2.0-0.12","spark_pilot_norest","12223","6","7","Female","","false","","","","","[1498.199999988079,600.8999999761581]","./assets/img/canyon/memory/9.jpg","[""ArrowUp"",""ArrowLeft""]","value training","canyon","23","{""ArrowUp,ArrowLeft"":23,""ArrowUp,ArrowRight"":10,""ArrowDown,ArrowLeft"":8,""ArrowDown,ArrowRight"":30}","false","ArrowUp,ArrowLeft","false","revaluation","1","24","","",""
"html-keyboard-response","147","807757","0.0-4.0-2.0-1.12","spark_pilot_norest","12223","6","7","Female","","","","","","","null","<div style=""font-size:60px;"">+</div>","null","fixation","","","","","","","","","25","","",""
"revaluation","148","813768","0.0-4.0-2.0-0.13","spark_pilot_norest","12223","6","7","Female","","false","","","","","[1052.5,506.39999997615814]","./assets/img/canyon/memory/12.jpg","[""ArrowUp"",""ArrowLeft""]","value training","canyon","23","{""ArrowUp,ArrowLeft"":23,""ArrowUp,ArrowRight"":10,""ArrowDown,ArrowLeft"":8,""ArrowDown,ArrowRight"":30}","false","ArrowUp,ArrowLeft","false","revaluation","1","26","","",""
"html-keyboard-response","149","814269","0.0-4.0-2.0-1.13","spark_pilot_norest","12223","6","7","Female","","","","","","","null","<div style=""font-size:60px;"">+</div>","null","fixation","","","","","","","","","27","","",""
"revaluation","150","820278","0.0-4.0-2.0-0.14","spark_pilot_norest","12223","6","7","Female","","false","","","","","[1422.199999988079,569.2999999523163]","./assets/img/canyon/memory/27.jpg","[""ArrowDown"",""ArrowRight""]","value training","canyon","30","{""ArrowUp,ArrowLeft"":23,""ArrowUp,ArrowRight"":10,""ArrowDown,ArrowLeft"":8,""ArrowDown,ArrowRight"":30}","true","ArrowDown,ArrowRight","false","revaluation","1","28","","",""
"html-keyboard-response","151","820781","0.0-4.0-2.0-1.14","spark_pilot_norest","12223","6","7","Female","","","","","","","null","<div style=""font-size:60px;"">+</div>","null","fixation","","","","","","","","","29","","",""
"revaluation","152","824790","0.0-4.0-2.0-0.15","spark_pilot_norest","12223","6","7","Female","","false","","","","","[738.8999999761581]","./assets/img/canyon/catch/2.jpg","[""spaceBar""]","value training","canyon","0","{""ArrowUp,ArrowLeft"":23,""ArrowUp,ArrowRight"":10,""ArrowDown,ArrowLeft"":8,""ArrowDown,ArrowRight"":30}","true","spaceBar","true","revaluation","1","30","","",""
"html-keyboard-response","153","825292","0.0-4.0-2.0-1.15","spark_pilot_norest","12223","6","7","Female","","","","","","","null","<div style=""font-size:60px;"">+</div>","null","fixation","","","","","","","","","31","","",""
"revaluation","154","831300","0.0-4.0-2.0-0.16","spark_pilot_norest","12223","6","7","Female","","false","","","","","[1883.300000011921,392]","./assets/img/canyon/memory/28.jpg","[""ArrowDown"",""ArrowRight""]","value training","canyon","30","{""ArrowUp,ArrowLeft"":23,""ArrowUp,ArrowRight"":10,""ArrowDown,ArrowLeft"":8,""ArrowDown,ArrowRight"":30}","true","ArrowDown,ArrowRight","false","revaluation","1","32","","",""
"html-keyboard-response","155","831803","0.0-4.0-2.0-1.16","spark_pilot_norest","12223","6","7","Female","","","","","","","null","<div style=""font-size:60px;"">+</div>","null","fixation","","","","","","","","","33","","",""
"revaluation","156","837812","0.0-4.0-2.0-0.17","spark_pilot_norest","12223","6","7","Female","","false","","","","","[1428.6000000238419,1558.9000000357628]","./assets/img/canyon/memory/10.jpg","[""ArrowDown"",""ArrowRight""]","value training","canyon","30","{""ArrowUp,ArrowLeft"":23,""ArrowUp,ArrowRight"":10,""ArrowDown,ArrowLeft"":8,""ArrowDown,ArrowRight"":30}","true","ArrowDown,ArrowRight","false","revaluation","1","34","","",""
"html-keyboard-response","157","838313","0.0-4.0-2.0-1.17","spark_pilot_norest","12223","6","7","Female","","","","","","","null","<div style=""font-size:60px;"">+</div>","null","fixation","","","","","","","","","35","","",""
"revaluation","158","844324","0.0-4.0-2.0-0.18","spark_pilot_norest","12223","6","7","Female","","false","","","","","[1278.7000000476837,555.4000000357628]","./assets/img/canyon/memory/37.jpg","[""ArrowDown"",""ArrowRight""]","value training","canyon","30","{""ArrowUp,ArrowLeft"":23,""ArrowUp,ArrowRight"":10,""ArrowDown,ArrowLeft"":8,""ArrowDown,ArrowRight"":30}","true","ArrowDown,ArrowRight","false","revaluation","1","36","","",""
"html-keyboard-response","159","844826","0.0-4.0-2.0-1.18","spark_pilot_norest","12223","6","7","Female","","","","","","","null","<div style=""font-size:60px;"">+</div>","null","fixation","","","","","","","","","37","","",""
"revaluation","160","850835","0.0-4.0-2.0-0.19","spark_pilot_norest","12223","6","7","Female","","false","","","","","[737.5,1782.300000011921]","./assets/img/canyon/memory/34.jpg","[""ArrowDown"",""ArrowRight""]","value training","canyon","30","{""ArrowUp,ArrowLeft"":23,""ArrowUp,ArrowRight"":10,""ArrowDown,ArrowLeft"":8,""ArrowDown,ArrowRight"":30}","true","ArrowDown,ArrowRight","false","revaluation","1","38","","",""
"html-keyboard-response","161","851337","0.0-4.0-2.0-1.19","spark_pilot_norest","12223","6","7","Female","","","","","","","null","<div style=""font-size:60px;"">+</div>","null","fixation","","","","","","","","","39","","",""
"revaluation","162","857345","0.0-4.0-2.0-0.20","spark_pilot_norest","12223","6","7","Female","","false","","","","","[1029.9000000357628,479.89999997615814]","./assets/img/canyon/memory/33.jpg","[""ArrowDown"",""ArrowRight""]","value training","canyon","30","{""ArrowUp,ArrowLeft"":23,""ArrowUp,ArrowRight"":10,""ArrowDown,ArrowLeft"":8,""ArrowDown,ArrowRight"":30}","true","ArrowDown,ArrowRight","false","revaluation","1","40","","",""
"html-keyboard-response","163","857848","0.0-4.0-2.0-1.20","spark_pilot_norest","12223","6","7","Female","","","","","","","null","<div style=""font-size:60px;"">+</div>","null","fixation","","","","","","","","","41","","",""
"revaluation","164","863856","0.0-4.0-2.0-0.21","spark_pilot_norest","12223","6","7","Female","","false","","","","","[815,470.80000001192093]","./assets/img/canyon/memory/5.jpg","[""ArrowDown"",""ArrowRight""]","value training","canyon","30","{""ArrowUp,ArrowLeft"":23,""ArrowUp,ArrowRight"":10,""ArrowDown,ArrowLeft"":8,""ArrowDown,ArrowRight"":30}","true","ArrowDown,ArrowRight","false","revaluation","1","42","","",""
"html-keyboard-response","165","864358","0.0-4.0-2.0-1.21","spark_pilot_norest","12223","6","7","Female","","","","","","","null","<div style=""font-size:60px;"">+</div>","null","fixation","","","","","","","","","43","","",""
"revaluation","166","870368","0.0-4.0-2.0-0.22","spark_pilot_norest","12223","6","7","Female","","false","","","","","[886.6999999880791,54.59999996423721]","./assets/img/canyon/memory/39.jpg","[""ArrowDown"",""ArrowRight""]","value training","canyon","30","{""ArrowUp,ArrowLeft"":23,""ArrowUp,ArrowRight"":10,""ArrowDown,ArrowLeft"":8,""ArrowDown,ArrowRight"":30}","true","ArrowDown,ArrowRight","false","revaluation","1","44","","",""
"html-keyboard-response","167","870870","0.0-4.0-2.0-1.22","spark_pilot_norest","12223","6","7","Female","","","","","","","null","<div style=""font-size:60px;"">+</div>","null","fixation","","","","","","","","","45","","",""
"revaluation","168","876879","0.0-4.0-2.0-0.23","spark_pilot_norest","12223","6","7","Female","","true","","","","","[1089.6000000238419]","./assets/img/canyon/memory/36.jpg","[""ArrowDown""]","value training","canyon","-5","{""ArrowUp,ArrowLeft"":23,""ArrowUp,ArrowRight"":10,""ArrowDown,ArrowLeft"":8,""ArrowDown,ArrowRight"":30}","false","ArrowDown","false","revaluation","1","46","","",""
"html-keyboard-response","169","877381","0.0-4.0-2.0-1.23","spark_pilot_norest","12223","6","7","Female","","","","","","","null","<div style=""font-size:60px;"">+</div>","null","fixation","","","","","","","","","47","","",""
"revaluation","170","883389","0.0-4.0-2.0-0.24","spark_pilot_norest","12223","6","7","Female","","false","","","","","[1184.7999999523163,1709.5]","./assets/img/canyon/memory/41.jpg","[""ArrowDown"",""ArrowRight""]","value training","canyon","30","{""ArrowUp,ArrowLeft"":23,""ArrowUp,ArrowRight"":10,""ArrowDown,ArrowLeft"":8,""ArrowDown,ArrowRight"":30}","true","ArrowDown,ArrowRight","false","revaluation","1","48","","",""
"html-keyboard-response","171","883892","0.0-4.0-2.0-1.24","spark_pilot_norest","12223","6","7","Female","","","","","","","null","<div style=""font-size:60px;"">+</div>","null","fixation","","","","","","","","","49","","",""
"revaluation","172","889902","0.0-4.0-2.0-0.25","spark_pilot_norest","12223","6","7","Female","","false","","","","","[1232.5,1121.300000011921]","./assets/img/canyon/memory/18.jpg","[""ArrowDown"",""ArrowRight""]","value training","canyon","30","{""ArrowUp,ArrowLeft"":23,""ArrowUp,ArrowRight"":10,""ArrowDown,ArrowLeft"":8,""ArrowDown,ArrowRight"":30}","true","ArrowDown,ArrowRight","false","revaluation","1","50","","",""
"html-keyboard-response","173","890404","0.0-4.0-2.0-1.25","spark_pilot_norest","12223","6","7","Female","","","","","","","null","<div style=""font-size:60px;"">+</div>","null","fixation","","","","","","","","","51","","",""
"revaluation","174","896413","0.0-4.0-2.0-0.26","spark_pilot_norest","12223","6","7","Female","","false","","","","","[1508.1000000238419,583.3000000119209]","./assets/img/canyon/memory/5.jpg","[""ArrowDown"",""ArrowRight""]","value training","canyon","30","{""ArrowUp,ArrowLeft"":23,""ArrowUp,ArrowRight"":10,""ArrowDown,ArrowLeft"":8,""ArrowDown,ArrowRight"":30}","true","ArrowDown,ArrowRight","false","revaluation","1","52","","",""
"html-keyboard-response","175","896915","0.0-4.0-2.0-1.26","spark_pilot_norest","12223","6","7","Female","","","","","","","null","<div style=""font-size:60px;"">+</div>","null","fixation","","","","","","","","","53","","",""
"revaluation","176","902923","0.0-4.0-2.0-0.27","spark_pilot_norest","12223","6","7","Female","","false","","","","","[1207.199999988079,433.9000000357628]","./assets/img/canyon/memory/13.jpg","[""ArrowDown"",""ArrowRight""]","value training","canyon","30","{""ArrowUp,ArrowLeft"":23,""ArrowUp,ArrowRight"":10,""ArrowDown,ArrowLeft"":8,""ArrowDown,ArrowRight"":30}","true","ArrowDown,ArrowRight","false","revaluation","1","54","","",""
"html-keyboard-response","177","903424","0.0-4.0-2.0-1.27","spark_pilot_norest","12223","6","7","Female","","","","","","","null","<div style=""font-size:60px;"">+</div>","null","fixation","","","","","","","","","55","","",""
"revaluation","178","909443","0.0-4.0-2.0-0.28","spark_pilot_norest","12223","6","7","Female","","false","","","","","[899.1999999880791,533.7000000476837]","./assets/img/canyon/memory/25.jpg","[""ArrowDown"",""ArrowRight""]","value training","canyon","30","{""ArrowUp,ArrowLeft"":23,""ArrowUp,ArrowRight"":10,""ArrowDown,ArrowLeft"":8,""ArrowDown,ArrowRight"":30}","true","ArrowDown,ArrowRight","false","revaluation","1","56","","",""
"html-keyboard-response","179","909945","0.0-4.0-2.0-1.28","spark_pilot_norest","12223","6","7","Female","","","","","","","null","<div style=""font-size:60px;"">+</div>","null","fixation","","","","","","","","","57","","",""
"revaluation","180","915952","0.0-4.0-2.0-0.29","spark_pilot_norest","12223","6","7","Female","","false","","","","","[1054.300000011921,232.80000001192093]","./assets/img/canyon/memory/10.jpg","[""ArrowDown"",""ArrowRight""]","value training","canyon","30","{""ArrowUp,ArrowLeft"":23,""ArrowUp,ArrowRight"":10,""ArrowDown,ArrowLeft"":8,""ArrowDown,ArrowRight"":30}","true","ArrowDown,ArrowRight","false","revaluation","1","58","","",""
"html-keyboard-response","181","916455","0.0-4.0-2.0-1.29","spark_pilot_norest","12223","6","7","Female","","","","","","","null","<div style=""font-size:60px;"">+</div>","null","fixation","","","","","","","","","59","","",""
"revaluation","182","922465","0.0-4.0-2.0-0.30","spark_pilot_norest","12223","6","7","Female","","false","","","","","[102.89999997615814,462.69999998807907]","./assets/img/canyon/memory/27.jpg","[""ArrowDown"",""ArrowRight""]","value training","canyon","30","{""ArrowUp,ArrowLeft"":23,""ArrowUp,ArrowRight"":10,""ArrowDown,ArrowLeft"":8,""ArrowDown,ArrowRight"":30}","true","ArrowDown,ArrowRight","false","revaluation","1","60","","",""
"html-keyboard-response","183","922967","0.0-4.0-2.0-1.30","spark_pilot_norest","12223","6","7","Female","","","","","","","null","<div style=""font-size:60px;"">+</div>","null","fixation","","","","","","","","","61","","",""
"revaluation","184","928975","0.0-4.0-2.0-0.31","spark_pilot_norest","12223","6","7","Female","","false","","","","","[1114.8999999761581,578.4000000357628]","./assets/img/canyon/memory/7.jpg","[""ArrowDown"",""ArrowRight""]","value training","canyon","30","{""ArrowUp,ArrowLeft"":23,""ArrowUp,ArrowRight"":10,""ArrowDown,ArrowLeft"":8,""ArrowDown,ArrowRight"":30}","true","ArrowDown,ArrowRight","false","revaluation","1","62","","",""
"html-keyboard-response","185","929491","0.0-4.0-2.0-1.31","spark_pilot_norest","12223","6","7","Female","","","","","","","null","<div style=""font-size:60px;"">+</div>","null","fixation","","","","","","","","","63","","",""
"revaluation","186","935500","0.0-4.0-2.0-0.32","spark_pilot_norest","12223","6","7","Female","","false","","","","","[1167.300000011921,332.19999998807907]","./assets/img/canyon/memory/23.jpg","[""ArrowDown"",""ArrowRight""]","value training","canyon","30","{""ArrowUp,ArrowLeft"":23,""ArrowUp,ArrowRight"":10,""ArrowDown,ArrowLeft"":8,""ArrowDown,ArrowRight"":30}","true","ArrowDown,ArrowRight","false","revaluation","1","64","","",""
"html-keyboard-response","187","936003","0.0-4.0-2.0-1.32","spark_pilot_norest","12223","6","7","Female","","","","","","","null","<div style=""font-size:60px;"">+</div>","null","fixation","","","","","","","","","65","","",""
"revaluation","188","942013","0.0-4.0-2.0-0.33","spark_pilot_norest","12223","6","7","Female","","false","","","","","[712.9000000357628,787.1999999880791]","./assets/img/canyon/memory/41.jpg","[""ArrowDown"",""ArrowRight""]","value training","canyon","30","{""ArrowUp,ArrowLeft"":23,""ArrowUp,ArrowRight"":10,""ArrowDown,ArrowLeft"":8,""ArrowDown,ArrowRight"":30}","true","ArrowDown,ArrowRight","false","revaluation","1","66","","",""
"html-keyboard-response","189","942515","0.0-4.0-2.0-1.33","spark_pilot_norest","12223","6","7","Female","","","","","","","null","<div style=""font-size:60px;"">+</div>","null","fixation","","","","","","","","","67","","",""
"revaluation","190","948526","0.0-4.0-2.0-0.34","spark_pilot_norest","12223","6","7","Female","","false","","","","","[1140,1394.2000000476837]","./assets/img/canyon/memory/38.jpg","[""ArrowDown"",""ArrowRight""]","value training","canyon","30","{""ArrowUp,ArrowLeft"":23,""ArrowUp,ArrowRight"":10,""ArrowDown,ArrowLeft"":8,""ArrowDown,ArrowRight"":30}","true","ArrowDown,ArrowRight","false","revaluation","1","68","","",""
"html-keyboard-response","191","949027","0.0-4.0-2.0-1.34","spark_pilot_norest","12223","6","7","Female","","","","","","","null","<div style=""font-size:60px;"">+</div>","null","fixation","","","","","","","","","69","","",""
"revaluation","192","953037","0.0-4.0-2.0-0.35","spark_pilot_norest","12223","6","7","Female","","true","","","","","[]","./assets/img/canyon/memory/9.jpg","[]","value training","canyon","-5","{""ArrowUp,ArrowLeft"":23,""ArrowUp,ArrowRight"":10,""ArrowDown,ArrowLeft"":8,""ArrowDown,ArrowRight"":30}","false","","false","revaluation","1","70","","",""
"html-keyboard-response","193","953539","0.0-4.0-2.0-1.35","spark_pilot_norest","12223","6","7","Female","","","","","","","null","<div style=""font-size:60px;"">+</div>","null","fixation","","","","","","","","","71","","",""
"revaluation","194","959549","0.0-4.0-2.0-0.36","spark_pilot_norest","12223","6","7","Female","","false","","","","","[446.89999997615814,382.39999997615814]","./assets/img/canyon/memory/37.jpg","[""ArrowDown"",""ArrowRight""]","value training","canyon","30","{""ArrowUp,ArrowLeft"":23,""ArrowUp,ArrowRight"":10,""ArrowDown,ArrowLeft"":8,""ArrowDown,ArrowRight"":30}","true","ArrowDown,ArrowRight","false","revaluation","1","72","","",""
"html-keyboard-response","195","960051","0.0-4.0-2.0-1.36","spark_pilot_norest","12223","6","7","Female","","","","","","","null","<div style=""font-size:60px;"">+</div>","null","fixation","","","","","","","","","73","","",""
"revaluation","196","964058","0.0-4.0-2.0-0.37","spark_pilot_norest","12223","6","7","Female","","false","","","","","[490.60000002384186]","./assets/img/canyon/catch/3.jpg","[""spaceBar""]","value training","canyon","0","{""ArrowUp,ArrowLeft"":23,""ArrowUp,ArrowRight"":10,""ArrowDown,ArrowLeft"":8,""ArrowDown,ArrowRight"":30}","true","spaceBar","true","revaluation","1","74","","",""
"html-keyboard-response","197","964560","0.0-4.0-2.0-1.37","spark_pilot_norest","12223","6","7","Female","","","","","","","null","<div style=""font-size:60px;"">+</div>","null","fixation","","","","","","","","","75","","",""
"revaluation","198","970572","0.0-4.0-2.0-0.38","spark_pilot_norest","12223","6","7","Female","","false","","","","","[1081.4000000357628,825.5999999642372]","./assets/img/canyon/memory/25.jpg","[""ArrowDown"",""ArrowRight""]","value training","canyon","30","{""ArrowUp,ArrowLeft"":23,""ArrowUp,ArrowRight"":10,""ArrowDown,ArrowLeft"":8,""ArrowDown,ArrowRight"":30}","true","ArrowDown,ArrowRight","false","revaluation","1","76","","",""
"html-keyboard-response","199","971076","0.0-4.0-2.0-1.38","spark_pilot_norest","12223","6","7","Female","","","","","","","null","<div style=""font-size:60px;"">+</div>","null","fixation","","","","","","","","","77","","",""
"revaluation","200","977085","0.0-4.0-2.0-0.39","spark_pilot_norest","12223","6","7","Female","","false","","","","","[867.5999999642372,708.6000000238419]","./assets/img/canyon/memory/36.jpg","[""ArrowDown"",""ArrowRight""]","value training","canyon","30","{""ArrowUp,ArrowLeft"":23,""ArrowUp,ArrowRight"":10,""ArrowDown,ArrowLeft"":8,""ArrowDown,ArrowRight"":30}","true","ArrowDown,ArrowRight","false","revaluation","1","78","","",""
"html-keyboard-response","201","977587","0.0-4.0-2.0-1.39","spark_pilot_norest","12223","6","7","Female","","","","","","","null","<div style=""font-size:60px;"">+</div>","null","fixation","","","","","","","","","79","","",""
"revaluation","202","983596","0.0-4.0-2.0-0.40","spark_pilot_norest","12223","6","7","Female","","false","","","","","[1104.9000000357628,669.0999999642372]","./assets/img/canyon/memory/26.jpg","[""ArrowDown"",""ArrowRight""]","value training","canyon","30","{""ArrowUp,ArrowLeft"":23,""ArrowUp,ArrowRight"":10,""ArrowDown,ArrowLeft"":8,""ArrowDown,ArrowRight"":30}","true","ArrowDown,ArrowRight","false","revaluation","1","80","","",""
"html-keyboard-response","203","984099","0.0-4.0-2.0-1.40","spark_pilot_norest","12223","6","7","Female","","","","","","","null","<div style=""font-size:60px;"">+</div>","null","fixation","","","","","","","","","81","","",""
"revaluation","204","990108","0.0-4.0-2.0-0.41","spark_pilot_norest","12223","6","7","Female","","false","","","","","[1309.199999988079,680.0999999642372]","./assets/img/canyon/memory/18.jpg","[""ArrowDown"",""ArrowRight""]","value training","canyon","30","{""ArrowUp,ArrowLeft"":23,""ArrowUp,ArrowRight"":10,""ArrowDown,ArrowLeft"":8,""ArrowDown,ArrowRight"":30}","true","ArrowDown,ArrowRight","false","revaluation","1","82","","",""
"html-keyboard-response","205","990610","0.0-4.0-2.0-1.41","spark_pilot_norest","12223","6","7","Female","","","","","","","null","<div style=""font-size:60px;"">+</div>","null","fixation","","","","","","","","","83","","",""
"revaluation","206","996618","0.0-4.0-2.0-0.42","spark_pilot_norest","12223","6","7","Female","","false","","","","","[866.0999999642372,477]","./assets/img/canyon/memory/23.jpg","[""ArrowDown"",""ArrowRight""]","value training","canyon","30","{""ArrowUp,ArrowLeft"":23,""ArrowUp,ArrowRight"":10,""ArrowDown,ArrowLeft"":8,""ArrowDown,ArrowRight"":30}","true","ArrowDown,ArrowRight","false","revaluation","1","84","","",""
"html-keyboard-response","207","997120","0.0-4.0-2.0-1.42","spark_pilot_norest","12223","6","7","Female","","","","","","","null","<div style=""font-size:60px;"">+</div>","null","fixation","","","","","","","","","85","","",""
"revaluation","208","1001129","0.0-4.0-2.0-0.43","spark_pilot_norest","12223","6","7","Female","","false","","","","","[559]","./assets/img/canyon/catch/5.jpg","[""spaceBar""]","value training","canyon","0","{""ArrowUp,ArrowLeft"":23,""ArrowUp,ArrowRight"":10,""ArrowDown,ArrowLeft"":8,""ArrowDown,ArrowRight"":30}","true","spaceBar","true","revaluation","1","86","","",""
"html-keyboard-response","209","1001632","0.0-4.0-2.0-1.43","spark_pilot_norest","12223","6","7","Female","","","","","","","null","<div style=""font-size:60px;"">+</div>","null","fixation","","","","","","","","","87","","",""
"revaluation","210","1005639","0.0-4.0-2.0-0.44","spark_pilot_norest","12223","6","7","Female","","false","","","","","[547.8000000119209]","./assets/img/canyon/catch/7.jpg","[""spaceBar""]","value training","canyon","0","{""ArrowUp,ArrowLeft"":23,""ArrowUp,ArrowRight"":10,""ArrowDown,ArrowLeft"":8,""ArrowDown,ArrowRight"":30}","true","spaceBar","true","revaluation","1","88","","",""
"html-keyboard-response","211","1006148","0.0-4.0-2.0-1.44","spark_pilot_norest","12223","6","7","Female","","","","","","","null","<div style=""font-size:60px;"">+</div>","null","fixation","","","","","","","","","89","","",""
"revaluation","212","1012155","0.0-4.0-2.0-0.45","spark_pilot_norest","12223","6","7","Female","","false","","","","","[1397.699999988079,855.5999999642372]","./assets/img/canyon/memory/28.jpg","[""ArrowDown"",""ArrowRight""]","value training","canyon","30","{""ArrowUp,ArrowLeft"":23,""ArrowUp,ArrowRight"":10,""ArrowDown,ArrowLeft"":8,""ArrowDown,ArrowRight"":30}","true","ArrowDown,ArrowRight","false","revaluation","1","90","","",""
"html-keyboard-response","213","1012657","0.0-4.0-2.0-1.45","spark_pilot_norest","12223","6","7","Female","","","","","","","null","<div style=""font-size:60px;"">+</div>","null","fixation","","","","","","","","","91","","",""
"revaluation","214","1018665","0.0-4.0-2.0-0.46","spark_pilot_norest","12223","6","7","Female","","false","","","","","[842.8999999761581,401.4000000357628]","./assets/img/canyon/memory/40.jpg","[""ArrowDown"",""ArrowRight""]","value training","canyon","30","{""ArrowUp,ArrowLeft"":23,""ArrowUp,ArrowRight"":10,""ArrowDown,ArrowLeft"":8,""ArrowDown,ArrowRight"":30}","true","ArrowDown,ArrowRight","false","revaluation","1","92","","",""
"html-keyboard-response","215","1019168","0.0-4.0-2.0-1.46","spark_pilot_norest","12223","6","7","Female","","","","","","","null","<div style=""font-size:60px;"">+</div>","null","fixation","","","","","","","","","93","","",""
"revaluation","216","1025178","0.0-4.0-2.0-0.47","spark_pilot_norest","12223","6","7","Female","","false","","","","","[819.7999999523163,357.5999999642372]","./assets/img/canyon/memory/39.jpg","[""ArrowDown"",""ArrowRight""]","value training","canyon","30","{""ArrowUp,ArrowLeft"":23,""ArrowUp,ArrowRight"":10,""ArrowDown,ArrowLeft"":8,""ArrowDown,ArrowRight"":30}","true","ArrowDown,ArrowRight","false","revaluation","1","94","","",""
"html-keyboard-response","217","1025680","0.0-4.0-2.0-1.47","spark_pilot_norest","12223","6","7","Female","","","","","","","null","<div style=""font-size:60px;"">+</div>","null","fixation","","","","","","","","","95","","",""
"revaluation","218","1031689","0.0-4.0-2.0-0.48","spark_pilot_norest","12223","6","7","Female","","false","","","","","[846.6999999880791,498.7000000476837]","./assets/img/canyon/memory/12.jpg","[""ArrowDown"",""ArrowRight""]","value training","canyon","30","{""ArrowUp,ArrowLeft"":23,""ArrowUp,ArrowRight"":10,""ArrowDown,ArrowLeft"":8,""ArrowDown,ArrowRight"":30}","true","ArrowDown,ArrowRight","false","revaluation","1","96","","",""
"html-keyboard-response","219","1032191","0.0-4.0-2.0-1.48","spark_pilot_norest","12223","6","7","Female","","","","","","","null","<div style=""font-size:60px;"">+</div>","null","fixation","","","","","","","","","97","","",""
"revaluation","220","1038203","0.0-4.0-2.0-0.49","spark_pilot_norest","12223","6","7","Female","","false","","","","","[980.1999999880791,708.4000000357628]","./assets/img/canyon/memory/26.jpg","[""ArrowDown"",""ArrowRight""]","value training","canyon","30","{""ArrowUp,ArrowLeft"":23,""ArrowUp,ArrowRight"":10,""ArrowDown,ArrowLeft"":8,""ArrowDown,ArrowRight"":30}","true","ArrowDown,ArrowRight","false","revaluation","1","98","","",""
"html-keyboard-response","221","1038704","0.0-4.0-2.0-1.49","spark_pilot_norest","12223","6","7","Female","","","","","","","null","<div style=""font-size:60px;"">+</div>","null","fixation","","","","","","","","","99","","",""
"learning-instructions","222","1054746","0.0-4.0-3.0-0.0","spark_pilot_norest","12223","6","7","Female","","","","","","","2002.9000000357628","<p> Now, you will travel with a friend who will choose whether you go up or down first. </p>
            <p> On these turns, you will just see the animal that they found. You will still get to choose which chest to search for treasure.</p>","","instructions","","","","","","","","","","","",""
"revaluation","223","1058755","0.0-4.0-4.0-0.0","spark_pilot_norest","12223","6","7","Female","","false","","","","","[1286.0999999642372]","./assets/img/canyon/animals/giraffe.jpg","[""ArrowRight""]","revaluation","canyon","15","{""ArrowUp,ArrowLeft"":27,""ArrowUp,ArrowRight"":15,""ArrowDown,ArrowLeft"":21,""ArrowDown,ArrowRight"":7}","false","ArrowUp,ArrowRight","","revaluation","1","0","","",""
"html-keyboard-response","224","1059279","0.0-4.0-4.0-1.0","spark_pilot_norest","12223","6","7","Female","","","","","","","null","<div style=""font-size:60px;"">+</div>","null","fixation","","","","","","","","","1","","",""
"revaluation","225","1063298","0.0-4.0-4.0-0.1","spark_pilot_norest","12223","6","7","Female","","false","","","","","[1653.800000011921]","./assets/img/canyon/animals/giraffe.jpg","[""ArrowLeft""]","revaluation","canyon","27","{""ArrowUp,ArrowLeft"":27,""ArrowUp,ArrowRight"":15,""ArrowDown,ArrowLeft"":21,""ArrowDown,ArrowRight"":7}","true","ArrowUp,ArrowLeft","","revaluation","1","2","","",""
"html-keyboard-response","226","1063805","0.0-4.0-4.0-1.1","spark_pilot_norest","12223","6","7","Female","","","","","","","null","<div style=""font-size:60px;"">+</div>","null","fixation","","","","","","","","","3","","",""
"revaluation","227","1067825","0.0-4.0-4.0-0.2","spark_pilot_norest","12223","6","7","Female","","false","","","","","[612]","./assets/img/canyon/animals/giraffe.jpg","[""ArrowLeft""]","revaluation","canyon","27","{""ArrowUp,ArrowLeft"":27,""ArrowUp,ArrowRight"":15,""ArrowDown,ArrowLeft"":21,""ArrowDown,ArrowRight"":7}","true","ArrowUp,ArrowLeft","","revaluation","1","4","","",""
"html-keyboard-response","228","1068332","0.0-4.0-4.0-1.2","spark_pilot_norest","12223","6","7","Female","","","","","","","null","<div style=""font-size:60px;"">+</div>","null","fixation","","","","","","","","","5","","",""
"revaluation","229","1072355","0.0-4.0-4.0-0.3","spark_pilot_norest","12223","6","7","Female","","false","","","","","[604.6000000238419]","./assets/img/canyon/animals/lion.jpg","[""ArrowRight""]","revaluation","canyon","7","{""ArrowUp,ArrowLeft"":27,""ArrowUp,ArrowRight"":15,""ArrowDown,ArrowLeft"":21,""ArrowDown,ArrowRight"":7}","false","ArrowDown,ArrowRight","","revaluation","1","6","","",""
"html-keyboard-response","230","1072864","0.0-4.0-4.0-1.3","spark_pilot_norest","12223","6","7","Female","","","","","","","null","<div style=""font-size:60px;"">+</div>","null","fixation","","","","","","","","","7","","",""
"revaluation","231","1076887","0.0-4.0-4.0-0.4","spark_pilot_norest","12223","6","7","Female","","false","","","","","[786.3999999761581]","./assets/img/canyon/animals/giraffe.jpg","[""ArrowLeft""]","revaluation","canyon","27","{""ArrowUp,ArrowLeft"":27,""ArrowUp,ArrowRight"":15,""ArrowDown,ArrowLeft"":21,""ArrowDown,ArrowRight"":7}","true","ArrowUp,ArrowLeft","","revaluation","1","8","","",""
"html-keyboard-response","232","1077402","0.0-4.0-4.0-1.4","spark_pilot_norest","12223","6","7","Female","","","","","","","null","<div style=""font-size:60px;"">+</div>","null","fixation","","","","","","","","","9","","",""
"revaluation","233","1081425","0.0-4.0-4.0-0.5","spark_pilot_norest","12223","6","7","Female","","false","","","","","[641.5999999642372]","./assets/img/canyon/animals/giraffe.jpg","[""ArrowLeft""]","revaluation","canyon","27","{""ArrowUp,ArrowLeft"":27,""ArrowUp,ArrowRight"":15,""ArrowDown,ArrowLeft"":21,""ArrowDown,ArrowRight"":7}","true","ArrowUp,ArrowLeft","","revaluation","1","10","","",""
"html-keyboard-response","234","1081939","0.0-4.0-4.0-1.5","spark_pilot_norest","12223","6","7","Female","","","","","","","null","<div style=""font-size:60px;"">+</div>","null","fixation","","","","","","","","","11","","",""
"revaluation","235","1085948","0.0-4.0-4.0-0.6","spark_pilot_norest","12223","6","7","Female","","false","","","","","[897.1999999880791]","./assets/img/canyon/animals/lion.jpg","[""ArrowLeft""]","revaluation","canyon","21","{""ArrowUp,ArrowLeft"":27,""ArrowUp,ArrowRight"":15,""ArrowDown,ArrowLeft"":21,""ArrowDown,ArrowRight"":7}","true","ArrowDown,ArrowLeft","","revaluation","1","12","","",""
"html-keyboard-response","236","1086450","0.0-4.0-4.0-1.6","spark_pilot_norest","12223","6","7","Female","","","","","","","null","<div style=""font-size:60px;"">+</div>","null","fixation","","","","","","","","","13","","",""
"revaluation","237","1090466","0.0-4.0-4.0-0.7","spark_pilot_norest","12223","6","7","Female","","false","","","","","[829]","./assets/img/canyon/animals/lion.jpg","[""ArrowLeft""]","revaluation","canyon","21","{""ArrowUp,ArrowLeft"":27,""ArrowUp,ArrowRight"":15,""ArrowDown,ArrowLeft"":21,""ArrowDown,ArrowRight"":7}","true","ArrowDown,ArrowLeft","","revaluation","1","14","","",""
"html-keyboard-response","238","1090968","0.0-4.0-4.0-1.7","spark_pilot_norest","12223","6","7","Female","","","","","","","null","<div style=""font-size:60px;"">+</div>","null","fixation","","","","","","","","","15","","",""
"revaluation","239","1094974","0.0-4.0-4.0-0.8","spark_pilot_norest","12223","6","7","Female","","false","","","","","[975.6000000238419]","./assets/img/canyon/animals/lion.jpg","[""ArrowLeft""]","revaluation","canyon","21","{""ArrowUp,ArrowLeft"":27,""ArrowUp,ArrowRight"":15,""ArrowDown,ArrowLeft"":21,""ArrowDown,ArrowRight"":7}","true","ArrowDown,ArrowLeft","","revaluation","1","16","","",""
"html-keyboard-response","240","1095476","0.0-4.0-4.0-1.8","spark_pilot_norest","12223","6","7","Female","","","","","","","null","<div style=""font-size:60px;"">+</div>","null","fixation","","","","","","","","","17","","",""
"revaluation","241","1099484","0.0-4.0-4.0-0.9","spark_pilot_norest","12223","6","7","Female","","false","","","","","[561.0999999642372]","./assets/img/canyon/animals/lion.jpg","[""ArrowLeft""]","revaluation","canyon","21","{""ArrowUp,ArrowLeft"":27,""ArrowUp,ArrowRight"":15,""ArrowDown,ArrowLeft"":21,""ArrowDown,ArrowRight"":7}","true","ArrowDown,ArrowLeft","","revaluation","1","18","","",""
"html-keyboard-response","242","1099986","0.0-4.0-4.0-1.9","spark_pilot_norest","12223","6","7","Female","","","","","","","null","<div style=""font-size:60px;"">+</div>","null","fixation","","","","","","","","","19","","",""
"revaluation","243","1103993","0.0-4.0-4.0-0.10","spark_pilot_norest","12223","6","7","Female","","false","","","","","[637.3000000119209]","./assets/img/canyon/animals/lion.jpg","[""ArrowLeft""]","revaluation","canyon","21","{""ArrowUp,ArrowLeft"":27,""ArrowUp,ArrowRight"":15,""ArrowDown,ArrowLeft"":21,""ArrowDown,ArrowRight"":7}","true","ArrowDown,ArrowLeft","","revaluation","1","20","","",""
"html-keyboard-response","244","1104496","0.0-4.0-4.0-1.10","spark_pilot_norest","12223","6","7","Female","","","","","","","null","<div style=""font-size:60px;"">+</div>","null","fixation","","","","","","","","","21","","",""
"revaluation","245","1108503","0.0-4.0-4.0-0.11","spark_pilot_norest","12223","6","7","Female","","false","","","","","[506.89999997615814]","./assets/img/canyon/animals/giraffe.jpg","[""ArrowLeft""]","revaluation","canyon","27","{""ArrowUp,ArrowLeft"":27,""ArrowUp,ArrowRight"":15,""ArrowDown,ArrowLeft"":21,""ArrowDown,ArrowRight"":7}","true","ArrowUp,ArrowLeft","","revaluation","1","22","","",""
"html-keyboard-response","246","1109006","0.0-4.0-4.0-1.11","spark_pilot_norest","12223","6","7","Female","","","","","","","null","<div style=""font-size:60px;"">+</div>","null","fixation","","","","","","","","","23","","",""
"revaluation","247","1113013","0.0-4.0-4.0-0.12","spark_pilot_norest","12223","6","7","Female","","false","","","","","[606.6000000238419]","./assets/img/canyon/animals/lion.jpg","[""ArrowLeft""]","revaluation","canyon","21","{""ArrowUp,ArrowLeft"":27,""ArrowUp,ArrowRight"":15,""ArrowDown,ArrowLeft"":21,""ArrowDown,ArrowRight"":7}","true","ArrowDown,ArrowLeft","","revaluation","1","24","","",""
"html-keyboard-response","248","1113516","0.0-4.0-4.0-1.12","spark_pilot_norest","12223","6","7","Female","","","","","","","null","<div style=""font-size:60px;"">+</div>","null","fixation","","","","","","","","","25","","",""
"revaluation","249","1117525","0.0-4.0-4.0-0.13","spark_pilot_norest","12223","6","7","Female","","false","","","","","[860.7999999523163]","./assets/img/canyon/animals/lion.jpg","[""ArrowLeft""]","revaluation","canyon","21","{""ArrowUp,ArrowLeft"":27,""ArrowUp,ArrowRight"":15,""ArrowDown,ArrowLeft"":21,""ArrowDown,ArrowRight"":7}","true","ArrowDown,ArrowLeft","","revaluation","1","26","","",""
"html-keyboard-response","250","1118027","0.0-4.0-4.0-1.13","spark_pilot_norest","12223","6","7","Female","","","","","","","null","<div style=""font-size:60px;"">+</div>","null","fixation","","","","","","","","","27","","",""
"revaluation","251","1122035","0.0-4.0-4.0-0.14","spark_pilot_norest","12223","6","7","Female","","false","","","","","[985.2000000476837]","./assets/img/canyon/animals/giraffe.jpg","[""ArrowLeft""]","revaluation","canyon","27","{""ArrowUp,ArrowLeft"":27,""ArrowUp,ArrowRight"":15,""ArrowDown,ArrowLeft"":21,""ArrowDown,ArrowRight"":7}","true","ArrowUp,ArrowLeft","","revaluation","1","28","","",""
"html-keyboard-response","252","1122537","0.0-4.0-4.0-1.14","spark_pilot_norest","12223","6","7","Female","","","","","","","null","<div style=""font-size:60px;"">+</div>","null","fixation","","","","","","","","","29","","",""
"revaluation","253","1126544","0.0-4.0-4.0-0.15","spark_pilot_norest","12223","6","7","Female","","false","","","","","[533.8000000119209]","./assets/img/canyon/animals/giraffe.jpg","[""ArrowLeft""]","revaluation","canyon","27","{""ArrowUp,ArrowLeft"":27,""ArrowUp,ArrowRight"":15,""ArrowDown,ArrowLeft"":21,""ArrowDown,ArrowRight"":7}","true","ArrowUp,ArrowLeft","","revaluation","1","30","","",""
"html-keyboard-response","254","1127046","0.0-4.0-4.0-1.15","spark_pilot_norest","12223","6","7","Female","","","","","","","null","<div style=""font-size:60px;"">+</div>","null","fixation","","","","","","","","","31","","",""
"revaluation","255","1131053","0.0-4.0-4.0-0.16","spark_pilot_norest","12223","6","7","Female","","false","","","","","[879]","./assets/img/canyon/animals/lion.jpg","[""ArrowLeft""]","revaluation","canyon","21","{""ArrowUp,ArrowLeft"":27,""ArrowUp,ArrowRight"":15,""ArrowDown,ArrowLeft"":21,""ArrowDown,ArrowRight"":7}","true","ArrowDown,ArrowLeft","","revaluation","1","32","","",""
"html-keyboard-response","256","1131555","0.0-4.0-4.0-1.16","spark_pilot_norest","12223","6","7","Female","","","","","","","null","<div style=""font-size:60px;"">+</div>","null","fixation","","","","","","","","","33","","",""
"revaluation","257","1135563","0.0-4.0-4.0-0.17","spark_pilot_norest","12223","6","7","Female","","false","","","","","[552.3000000119209]","./assets/img/canyon/animals/giraffe.jpg","[""ArrowLeft""]","revaluation","canyon","27","{""ArrowUp,ArrowLeft"":27,""ArrowUp,ArrowRight"":15,""ArrowDown,ArrowLeft"":21,""ArrowDown,ArrowRight"":7}","true","ArrowUp,ArrowLeft","","revaluation","1","34","","",""
"html-keyboard-response","258","1136065","0.0-4.0-4.0-1.17","spark_pilot_norest","12223","6","7","Female","","","","","","","null","<div style=""font-size:60px;"">+</div>","null","fixation","","","","","","","","","35","","",""
"learning-instructions","259","1145347","0.0-4.0-5.0-0.0","spark_pilot_norest","12223","6","7","Female","","","","","","","null","<p> You have almost finished this part of the game! </p>
            <p> We are going to ask you to make a few more choices. </p>","","instructions","","","","","","","","","","","",""
"learning-instructions","260","1161322","0.0-4.0-5.0-0.1","spark_pilot_norest","12223","6","7","Female","","","","","","","null","<p> First, you need to decide whether to go up or down. When you see each picture, use the arrow keys to make your choice. </p>
            <p><b>You will not see which animal you found, but try to get to the one that will give you the most treasure.</b></p>","","instructions","","","","","","","","","","","",""
"html-keyboard-response","261","1162329","0.0-4.0-6.0-0.0","spark_pilot_norest","12223","6","7","Female","","","","","","","null","<div style=""font-size:100px;color:red;"">Starting in...</div>","null","","","","","","","","","","","","",""
"html-keyboard-response","262","1163341","0.0-4.0-6.0-1.0","spark_pilot_norest","12223","6","7","Female","","","","","","","null","<div style=""font-size:200px;color:red;"">3</div>","null","","","","","","","","","","","","",""
"html-keyboard-response","263","1164355","0.0-4.0-6.0-2.0","spark_pilot_norest","12223","6","7","Female","","","","","","","null","<div style=""font-size:200px;color:red;"">2</div>","null","","","","","","","","","","","","",""
"html-keyboard-response","264","1165359","0.0-4.0-6.0-3.0","spark_pilot_norest","12223","6","7","Female","","","","","","","null","<div style=""font-size:200px;color:red;"">1</div>","null","","","","","","","","","","","","",""
"revaluation","265","1166143","0.0-4.0-7.0-0.0","spark_pilot_norest","12223","6","7","Female","","false","","","","","[776]","./assets/img/canyon/test/3.jpg","[""ArrowUp""]","first stage test","canyon","0","{""ArrowUp,ArrowLeft"":27,""ArrowUp,ArrowRight"":15,""ArrowDown,ArrowLeft"":21,""ArrowDown,ArrowRight"":7}","true","ArrowUp","false","revaluation","1","","","",""
"html-keyboard-response","266","1166658","0.0-4.0-7.0-1.0","spark_pilot_norest","12223","6","7","Female","","","","","","","null","<div style=""font-size:60px;"">+</div>","null","fixation","","","","","","","","","","","",""
"revaluation","267","1168150","0.0-4.0-7.0-0.1","spark_pilot_norest","12223","6","7","Female","","false","","","","","[1489.300000011921]","./assets/img/canyon/test/1.jpg","[""ArrowUp""]","first stage test","canyon","0","{""ArrowUp,ArrowLeft"":27,""ArrowUp,ArrowRight"":15,""ArrowDown,ArrowLeft"":21,""ArrowDown,ArrowRight"":7}","true","ArrowUp","false","revaluation","1","","","",""
"html-keyboard-response","268","1168658","0.0-4.0-7.0-1.1","spark_pilot_norest","12223","6","7","Female","","","","","","","null","<div style=""font-size:60px;"">+</div>","null","fixation","","","","","","","","","","","",""
"revaluation","269","1169365","0.0-4.0-7.0-0.2","spark_pilot_norest","12223","6","7","Female","","false","","","","","[701]","./assets/img/canyon/test/2.jpg","[""ArrowDown""]","first stage test","canyon","0","{""ArrowUp,ArrowLeft"":27,""ArrowUp,ArrowRight"":15,""ArrowDown,ArrowLeft"":21,""ArrowDown,ArrowRight"":7}","false","ArrowDown","false","revaluation","1","","","",""
"html-keyboard-response","270","1169872","0.0-4.0-7.0-1.2","spark_pilot_norest","12223","6","7","Female","","","","","","","null","<div style=""font-size:60px;"">+</div>","null","fixation","","","","","","","","","","","",""
"revaluation","271","1170661","0.0-4.0-7.0-0.3","spark_pilot_norest","12223","6","7","Female","","false","","","","","[782.5]","./assets/img/canyon/test/0.jpg","[""ArrowDown""]","first stage test","canyon","0","{""ArrowUp,ArrowLeft"":27,""ArrowUp,ArrowRight"":15,""ArrowDown,ArrowLeft"":21,""ArrowDown,ArrowRight"":7}","false","ArrowDown","false","revaluation","1","","","",""
"html-keyboard-response","272","1171166","0.0-4.0-7.0-1.3","spark_pilot_norest","12223","6","7","Female","","","","","","","null","<div style=""font-size:60px;"">+</div>","null","fixation","","","","","","","","","","","",""
"learning-instructions","273","1184526","0.0-4.0-8.0-0.0","spark_pilot_norest","12223","6","7","Female","","","","","","","null","<p> Now you will see the animals again and can search their chests for treasure. </p>
            <p> This time, you will not see how much treasure you earned, but you will earn more bonus money for making better choices. </p>","","instructions","","","","","","","","","","","",""
"html-keyboard-response","274","1185539","0.0-4.0-9.0-0.0","spark_pilot_norest","12223","6","7","Female","","","","","","","null","<div style=""font-size:100px;color:red;"">Starting in...</div>","null","","","","","","","","","","","","",""
"html-keyboard-response","275","1186556","0.0-4.0-9.0-1.0","spark_pilot_norest","12223","6","7","Female","","","","","","","null","<div style=""font-size:200px;color:red;"">3</div>","null","","","","","","","","","","","","",""
"html-keyboard-response","276","1187570","0.0-4.0-9.0-2.0","spark_pilot_norest","12223","6","7","Female","","","","","","","null","<div style=""font-size:200px;color:red;"">2</div>","null","","","","","","","","","","","","",""
"html-keyboard-response","277","1188585","0.0-4.0-9.0-3.0","spark_pilot_norest","12223","6","7","Female","","","","","","","null","<div style=""font-size:200px;color:red;"">1</div>","null","","","","","","","","","","","","",""
"revaluation","278","1190777","0.0-4.0-10.0-0.0","spark_pilot_norest","12223","6","7","Female","","false","","","","","[2186]","./assets/img/canyon/animals/giraffe.jpg","[""ArrowRight""]","second stage test","canyon","0","{""ArrowUp,ArrowLeft"":27,""ArrowUp,ArrowRight"":15,""ArrowDown,ArrowLeft"":21,""ArrowDown,ArrowRight"":7}","false","ArrowUp,ArrowRight","","revaluation","1","","","",""
"html-keyboard-response","279","1191283","0.0-4.0-10.0-1.0","spark_pilot_norest","12223","6","7","Female","","","","","","","null","<div style=""font-size:60px;"">+</div>","null","fixation","","","","","","","","","","","",""
"revaluation","280","1192680","0.0-4.0-10.0-0.1","spark_pilot_norest","12223","6","7","Female","","false","","","","","[1390]","./assets/img/canyon/animals/giraffe.jpg","[""ArrowLeft""]","second stage test","canyon","0","{""ArrowUp,ArrowLeft"":27,""ArrowUp,ArrowRight"":15,""ArrowDown,ArrowLeft"":21,""ArrowDown,ArrowRight"":7}","true","ArrowUp,ArrowLeft","","revaluation","1","","","",""
"html-keyboard-response","281","1193182","0.0-4.0-10.0-1.1","spark_pilot_norest","12223","6","7","Female","","","","","","","null","<div style=""font-size:60px;"">+</div>","null","fixation","","","","","","","","","","","",""
"revaluation","282","1197044","0.0-4.0-10.0-0.2","spark_pilot_norest","12223","6","7","Female","","false","","","","","[3858.7000000476837]","./assets/img/canyon/animals/giraffe.jpg","[""ArrowLeft""]","second stage test","canyon","0","{""ArrowUp,ArrowLeft"":27,""ArrowUp,ArrowRight"":15,""ArrowDown,ArrowLeft"":21,""ArrowDown,ArrowRight"":7}","true","ArrowUp,ArrowLeft","","revaluation","1","","","",""
"html-keyboard-response","283","1197552","0.0-4.0-10.0-1.2","spark_pilot_norest","12223","6","7","Female","","","","","","","null","<div style=""font-size:60px;"">+</div>","null","fixation","","","","","","","","","","","",""
"revaluation","284","1198264","0.0-4.0-10.0-0.3","spark_pilot_norest","12223","6","7","Female","","false","","","","","[705.5]","./assets/img/canyon/animals/giraffe.jpg","[""ArrowLeft""]","second stage test","canyon","0","{""ArrowUp,ArrowLeft"":27,""ArrowUp,ArrowRight"":15,""ArrowDown,ArrowLeft"":21,""ArrowDown,ArrowRight"":7}","true","ArrowUp,ArrowLeft","","revaluation","1","","","",""
"html-keyboard-response","285","1198771","0.0-4.0-10.0-1.3","spark_pilot_norest","12223","6","7","Female","","","","","","","null","<div style=""font-size:60px;"">+</div>","null","fixation","","","","","","","","","","","",""
"revaluation","286","1201798","0.0-4.0-10.0-0.4","spark_pilot_norest","12223","6","7","Female","","false","","","","","[3021.599999964237]","./assets/img/canyon/animals/lion.jpg","[""ArrowRight""]","second stage test","canyon","0","{""ArrowUp,ArrowLeft"":27,""ArrowUp,ArrowRight"":15,""ArrowDown,ArrowLeft"":21,""ArrowDown,ArrowRight"":7}","false","ArrowDown,ArrowRight","","revaluation","1","","","",""
"html-keyboard-response","287","1202311","0.0-4.0-10.0-1.4","spark_pilot_norest","12223","6","7","Female","","","","","","","null","<div style=""font-size:60px;"">+</div>","null","fixation","","","","","","","","","","","",""
"revaluation","288","1203492","0.0-4.0-10.0-0.5","spark_pilot_norest","12223","6","7","Female","","false","","","","","[1174.5]","./assets/img/canyon/animals/lion.jpg","[""ArrowLeft""]","second stage test","canyon","0","{""ArrowUp,ArrowLeft"":27,""ArrowUp,ArrowRight"":15,""ArrowDown,ArrowLeft"":21,""ArrowDown,ArrowRight"":7}","true","ArrowDown,ArrowLeft","","revaluation","1","","","",""
"html-keyboard-response","289","1204005","0.0-4.0-10.0-1.5","spark_pilot_norest","12223","6","7","Female","","","","","","","null","<div style=""font-size:60px;"">+</div>","null","fixation","","","","","","","","","","","",""
"revaluation","290","1204642","0.0-4.0-10.0-0.6","spark_pilot_norest","12223","6","7","Female","","false","","","","","[631.8999999761581]","./assets/img/canyon/animals/lion.jpg","[""ArrowLeft""]","second stage test","canyon","0","{""ArrowUp,ArrowLeft"":27,""ArrowUp,ArrowRight"":15,""ArrowDown,ArrowLeft"":21,""ArrowDown,ArrowRight"":7}","true","ArrowDown,ArrowLeft","","revaluation","1","","","",""
"html-keyboard-response","291","1205148","0.0-4.0-10.0-1.6","spark_pilot_norest","12223","6","7","Female","","","","","","","null","<div style=""font-size:60px;"">+</div>","null","fixation","","","","","","","","","","","",""
"revaluation","292","1205669","0.0-4.0-10.0-0.7","spark_pilot_norest","12223","6","7","Female","","false","","","","","[516.1999999880791]","./assets/img/canyon/animals/lion.jpg","[""ArrowLeft""]","second stage test","canyon","0","{""ArrowUp,ArrowLeft"":27,""ArrowUp,ArrowRight"":15,""ArrowDown,ArrowLeft"":21,""ArrowDown,ArrowRight"":7}","true","ArrowDown,ArrowLeft","","revaluation","1","","","",""
"html-keyboard-response","293","1206178","0.0-4.0-10.0-1.7","spark_pilot_norest","12223","6","7","Female","","","","","","","null","<div style=""font-size:60px;"">+</div>","null","fixation","","","","","","","","","","","",""
"learning-instructions","294","1212097","0.0-4.0-0.1-0.2","spark_pilot_norest","12223","6","7","Female","","","","","","","3210.899999976158","<p> This time you are searching for treasure in the <b>ocean</b>.</p>","","instructions","","","","","","","","","","","",""
"learning-instructions","295","1231115","0.0-4.0-0.1-0.3","spark_pilot_norest","12223","6","7","Female","","","","","","","1769.699999988079","<p><b>New</b> animals with <b>new</b> treasure chests live here. You need to explore to discover where the animal with the best treasure chest is.</p>
                    <p> Like before, once you figure out which animal has the chest with the most treasure, you should try to get to that animal and select that chest! </p>","","instructions","","","","","","","","","","","",""
"learning-instructions","296","1249651","0.0-4.0-1.1-0.1","spark_pilot_norest","12223","6","7","Female","","","","","","","3805.699999988079","<p> Remember, when you see a picture of the place, use the up and down keys to <b>find an animal</b>.</p>
            <p> When you encounter an animal, you should use the left and right keys to <b>select a treasure chest</b>.</p>
            <p> Don't forget to look out for the robber! </p>","","instructions","","","","","","","","","","","",""
"revaluation","297","1253675","0.0-4.0-2.1-0.50","spark_pilot_norest","12223","6","7","Female","","false","","","","","[938.5]","./assets/img/ocean/catch/7.jpg","[""spaceBar""]","value training","ocean","0","{""ArrowUp,ArrowLeft"":26,""ArrowUp,ArrowRight"":10,""ArrowDown,ArrowLeft"":5,""ArrowDown,ArrowRight"":17}","true","spaceBar","true","original","2","0","","",""
"html-keyboard-response","298","1254186","0.0-4.0-2.1-1.50","spark_pilot_norest","12223","6","7","Female","","","","","","","null","<div style=""font-size:60px;"">+</div>","null","fixation","","","","","","","","","1","","",""
"revaluation","299","1260226","0.0-4.0-2.1-0.51","spark_pilot_norest","12223","6","7","Female","","false","","","","","[1341.5,664.6999999880791]","./assets/img/ocean/memory/27.jpg","[""ArrowUp"",""ArrowRight""]","value training","ocean","10","{""ArrowUp,ArrowLeft"":26,""ArrowUp,ArrowRight"":10,""ArrowDown,ArrowLeft"":5,""ArrowDown,ArrowRight"":17}","false","ArrowUp,ArrowRight","false","original","2","2","","",""
"html-keyboard-response","300","1260737","0.0-4.0-2.1-1.51","spark_pilot_norest","12223","6","7","Female","","","","","","","null","<div style=""font-size:60px;"">+</div>","null","fixation","","","","","","","","","3","","",""
"revaluation","301","1266772","0.0-4.0-2.1-0.52","spark_pilot_norest","12223","6","7","Female","","false","","","","","[922.6999999880791,686.8000000119209]","./assets/img/ocean/memory/9.jpg","[""ArrowUp"",""ArrowLeft""]","value training","ocean","26","{""ArrowUp,ArrowLeft"":26,""ArrowUp,ArrowRight"":10,""ArrowDown,ArrowLeft"":5,""ArrowDown,ArrowRight"":17}","true","ArrowUp,ArrowLeft","false","original","2","4","","",""
"html-keyboard-response","302","1267285","0.0-4.0-2.1-1.52","spark_pilot_norest","12223","6","7","Female","","","","","","","null","<div style=""font-size:60px;"">+</div>","null","fixation","","","","","","","","","5","","",""
"revaluation","303","1271305","0.0-4.0-2.1-0.53","spark_pilot_norest","12223","6","7","Female","","true","","","","","[]","./assets/img/ocean/memory/26.jpg","[]","value training","ocean","-5","{""ArrowUp,ArrowLeft"":26,""ArrowUp,ArrowRight"":10,""ArrowDown,ArrowLeft"":5,""ArrowDown,ArrowRight"":17}","false","","false","original","2","6","","",""
"html-keyboard-response","304","1271818","0.0-4.0-2.1-1.53","spark_pilot_norest","12223","6","7","Female","","","","","","","null","<div style=""font-size:60px;"">+</div>","null","fixation","","","","","","","","","7","","",""
"revaluation","305","1277846","0.0-4.0-2.1-0.54","spark_pilot_norest","12223","6","7","Female","","false","","","","","[658.6000000238419,808.5]","./assets/img/ocean/memory/37.jpg","[""ArrowDown"",""ArrowLeft""]","value training","ocean","5","{""ArrowUp,ArrowLeft"":26,""ArrowUp,ArrowRight"":10,""ArrowDown,ArrowLeft"":5,""ArrowDown,ArrowRight"":17}","false","ArrowDown,ArrowLeft","false","original","2","8","","",""
"html-keyboard-response","306","1278348","0.0-4.0-2.1-1.54","spark_pilot_norest","12223","6","7","Female","","","","","","","null","<div style=""font-size:60px;"">+</div>","null","fixation","","","","","","","","","9","","",""
"revaluation","307","1284356","0.0-4.0-2.1-0.55","spark_pilot_norest","12223","6","7","Female","","false","","","","","[677.1999999880791,877.8999999761581]","./assets/img/ocean/memory/25.jpg","[""ArrowDown"",""ArrowRight""]","value training","ocean","17","{""ArrowUp,ArrowLeft"":26,""ArrowUp,ArrowRight"":10,""ArrowDown,ArrowLeft"":5,""ArrowDown,ArrowRight"":17}","false","ArrowDown,ArrowRight","false","original","2","10","","",""
"html-keyboard-response","308","1284858","0.0-4.0-2.1-1.55","spark_pilot_norest","12223","6","7","Female","","","","","","","null","<div style=""font-size:60px;"">+</div>","null","fixation","","","","","","","","","11","","",""
"revaluation","309","1290866","0.0-4.0-2.1-0.56","spark_pilot_norest","12223","6","7","Female","","false","","","","","[904,496.10000002384186]","./assets/img/ocean/memory/23.jpg","[""ArrowUp"",""ArrowLeft""]","value training","ocean","26","{""ArrowUp,ArrowLeft"":26,""ArrowUp,ArrowRight"":10,""ArrowDown,ArrowLeft"":5,""ArrowDown,ArrowRight"":17}","true","ArrowUp,ArrowLeft","false","original","2","12","","",""
"html-keyboard-response","310","1291368","0.0-4.0-2.1-1.56","spark_pilot_norest","12223","6","7","Female","","","","","","","null","<div style=""font-size:60px;"">+</div>","null","fixation","","","","","","","","","13","","",""
"revaluation","311","1295375","0.0-4.0-2.1-0.57","spark_pilot_norest","12223","6","7","Female","","false","","","","","[570.8000000119209]","./assets/img/ocean/catch/6.jpg","[""spaceBar""]","value training","ocean","0","{""ArrowUp,ArrowLeft"":26,""ArrowUp,ArrowRight"":10,""ArrowDown,ArrowLeft"":5,""ArrowDown,ArrowRight"":17}","true","spaceBar","true","original","2","14","","",""
"html-keyboard-response","312","1295877","0.0-4.0-2.1-1.57","spark_pilot_norest","12223","6","7","Female","","","","","","","null","<div style=""font-size:60px;"">+</div>","null","fixation","","","","","","","","","15","","",""
