"trial_type","trial_index","time_elapsed","internal_node_id","task_version","subject_id","assigned_condition","age","gender","browser_interaction","success","timeout","failed_images","failed_audio","failed_video","rt","stimulus","response","task_part","environment","score","rewardMap","correct","fullState","isCatch","condition","order","trial_num","key_press","ground_truth","bonus"
"pavlovia","0","1504","0.0-0.0","spark_pilot_norest","8775","6","22","Female","[{""event"":""blur"",""trial"":1,""time"":11636},{""event"":""focus"",""trial"":1,""time"":16051},{""event"":""fullscreenenter"",""trial"":2,""time"":50762}]","","","","","","","","","","","","","","","","","","","","",""
"preload","1","48611","0.0-1.0","spark_pilot_norest","8775","6","22","Female","[{""event"":""blur"",""trial"":1,""time"":11636},{""event"":""focus"",""trial"":1,""time"":16051},{""event"":""fullscreenenter"",""trial"":2,""time"":50762}]","true","false","[]","[]","[]","","","","","","","","","","","","","","","",""
"fullscreen","2","51638","0.0-2.0","spark_pilot_norest","8775","6","22","Female","","true","","","","","","","","","","","","","","","","","","","",""
"audio-button-response","3","55157","0.0-3.0-0.0-0.0","spark_pilot_norest","8775","6","22","Female","","","","","","","3056","./assets/audio/audiotest/turtle.mp3","4","audio_test","","","","","","","","","","","",""
"audio-button-response","4","57141","0.0-3.0-0.1-0.1","spark_pilot_norest","8775","6","22","Female","","","","","","","981","./assets/audio/audiotest/turtle.mp3","2","audio_test","","","","","","","","","","","",""
"learning-instructions","5","67390","0.0-3.0-1.0-0.0","spark_pilot_norest","8775","6","22","Female","","","","","","","3206.800000190735","<p> Welcome! Please remember to stay in fullscreen mode and don't click away from the experiment. </p>","","instructions","","","","","","","","","","","",""
"learning-instructions","6","78002","0.0-3.0-1.0-0.1","spark_pilot_norest","8775","6","22","Female","","","","","","","2195.699999809265","<p> Today you will be playing a game to earn treasure. </p>
            <p> At the end of the experiment, you will earn a bonus based on how much treasure you find. </p>
            <img src='./assets/img/instructions/treasure.jpg' class='instructions-image'>","","instructions","","","","","","","","","","","",""
"learning-instructions","7","88214","0.0-3.0-1.0-0.2","spark_pilot_norest","8775","6","22","Female","","","","","","","1933.1999998092651","<p> Animals have hidden treasure in treasure chests. </p>
            <p> You need to first find an animal and then choose which of their treasure chests to search. </p>
            <img src='./assets/img/space/animals/cat.jpg' class='instructions-image'>","","instructions","","","","","","","","","","","",""
"learning-instructions","8","102812","0.0-3.0-1.0-0.3","spark_pilot_norest","8775","6","22","Female","","","","","","","1443.3000001907349","<p> In each round, you will search for treasure in a different place. In the real game, there will be two rounds. </p>
            <p> You will begin with a separate, practice round where you will search for treasure in outer space. </p>
            <img src='./assets/img/space/0.jpg' class='instructions-image'>","","instructions","","","","","","","","","","","",""
"learning-instructions","9","116448","0.0-3.0-1.0-0.4","spark_pilot_norest","8775","6","22","Female","","","","","","","2214.300000190735","<p> On every turn, you will see a picture of the place that you are in, but the specific image may be different each time. </p>
            <p> For example, both of these images mean you are in outer space. </p>
            <img src='./assets/img/instructions/outerspace.jpg' class='instructions-image'>","","instructions","","","","","","","","","","","",""
"learning-instructions","10","124967","0.0-3.0-1.0-0.5","spark_pilot_norest","8775","6","22","Female","","","","","","","685.1000003814697","<p> You need to decide which direction to travel in. </p>
            <p> You can choose between going <b>up or down</b> by using the arrow keys. </p>
            <img src='./assets/img/instructions/updown.jpg' class='instructions-image'>","","instructions","","","","","","","","","","","",""
"learning-instructions","11","136110","0.0-3.0-1.0-0.6","spark_pilot_norest","8775","6","22","Female","","","","","","","2325.2999997138977","<p> You will have <b>2 seconds</b> to make your choice. </p>
            <p> If you do not make a choice within 2 seconds, you will not find an animal or earn treasure. </p>
            <img src='./assets/img/instructions/2seconds.jpg' class='instructions-image'>","","instructions","","","","","","","","","","","",""
"learning-instructions","12","144585","0.0-3.0-1.0-0.7","spark_pilot_norest","8775","6","22","Female","","","","","","","1428.6999998092651","<p> Let’s try practicing that now! </p>
            <p> When you see a picture of the place you are in, press the <b>up</b> key to travel up. </p>
            <img src='./assets/img/instructions/pressUp.jpg' class='instructions-image'>","","instructions","","","","","","","","","","","",""
"revaluation","13","148599","0.0-3.0-2.0-0.0","spark_pilot_norest","8775","6","22","Female","","","false","","","","[581.0999999046326]","./assets/img/space/0.jpg","[""ArrowUp""]","first stage practice","space","0","null","null","ArrowUp","false","","","","","",""
"html-keyboard-response","14","149103","0.0-3.0-2.0-1.0","spark_pilot_norest","8775","6","22","Female","","","","","","","null","<div style=""font-size:60px;"">+</div>","null","fixation","","","","","","","","","","","",""
"revaluation","15","153111","0.0-3.0-2.0-0.1","spark_pilot_norest","8775","6","22","Female","","","false","","","","[605.6999998092651]","./assets/img/space/1.jpg","[""ArrowUp""]","first stage practice","space","0","null","null","ArrowUp","false","","","","","",""
"html-keyboard-response","16","153616","0.0-3.0-2.0-1.1","spark_pilot_norest","8775","6","22","Female","","","","","","","null","<div style=""font-size:60px;"">+</div>","null","fixation","","","","","","","","","","","",""
"revaluation","17","157625","0.0-3.0-2.0-0.2","spark_pilot_norest","8775","6","22","Female","","","false","","","","[366.80000019073486]","./assets/img/space/2.jpg","[""ArrowUp""]","first stage practice","space","0","null","null","ArrowUp","false","","","","","",""
"html-keyboard-response","18","158129","0.0-3.0-2.0-1.2","spark_pilot_norest","8775","6","22","Female","","","","","","","null","<div style=""font-size:60px;"">+</div>","null","fixation","","","","","","","","","","","",""
"learning-instructions","19","163998","0.0-3.0-3.0-0.0","spark_pilot_norest","8775","6","22","Female","","","","","","","1163","<p> Great job! Now try pressing the <b>down</b> key to travel down. </p>
            <img src='./assets/img/instructions/pressDown.jpg' class='instructions-image'>","","instructions","","","","","","","","","","","",""
"revaluation","20","168005","0.0-3.0-4.0-0.0","spark_pilot_norest","8775","6","22","Female","","","false","","","","[545]","./assets/img/space/3.jpg","[""ArrowDown""]","first stage practice","space","0","null","null","ArrowDown","false","","","","","",""
"html-keyboard-response","21","168508","0.0-3.0-4.0-1.0","spark_pilot_norest","8775","6","22","Female","","","","","","","null","<div style=""font-size:60px;"">+</div>","null","fixation","","","","","","","","","","","",""
"revaluation","22","172518","0.0-3.0-4.0-0.1","spark_pilot_norest","8775","6","22","Female","","","false","","","","[475.90000009536743]","./assets/img/space/4.jpg","[""ArrowDown""]","first stage practice","space","0","null","null","ArrowDown","false","","","","","",""
"html-keyboard-response","23","173019","0.0-3.0-4.0-1.1","spark_pilot_norest","8775","6","22","Female","","","","","","","null","<div style=""font-size:60px;"">+</div>","null","fixation","","","","","","","","","","","",""
"revaluation","24","177025","0.0-3.0-4.0-0.2","spark_pilot_norest","8775","6","22","Female","","","false","","","","[595.3000001907349]","./assets/img/space/5.jpg","[""ArrowDown""]","first stage practice","space","0","null","null","ArrowDown","false","","","","","",""
"html-keyboard-response","25","177530","0.0-3.0-4.0-1.2","spark_pilot_norest","8775","6","22","Female","","","","","","","null","<div style=""font-size:60px;"">+</div>","null","fixation","","","","","","","","","","","",""
"learning-instructions","26","191542","0.0-3.0-5.0-0.0","spark_pilot_norest","8775","6","22","Female","","","","","","","4152.799999713898","<p> The animals don’t move, so the animal in the upper part of a place will stay in the upper part of a place, and the animal in the lower part of a place will stay in the lower part of a place. </p>","","instructions","","","","","","","","","","","",""
"learning-instructions","27","202218","0.0-3.0-5.0-0.1","spark_pilot_norest","8775","6","22","Female","","","","","","","1538.3000001907349","<p> Each animal has two treasure chests for you to choose from. </p>
            <p> The amount of treasure in each chest can range from <b> 0 to 40 pieces.</b></p>","","instructions","","","","","","","","","","","",""
"learning-instructions","28","215573","0.0-3.0-5.0-0.2","spark_pilot_norest","8775","6","22","Female","","","","","","","2162.7000002861023","<p> You should decide which chest to search for treasure by using the <b>left</b> and <b>right</b> arrow keys. </p>
            <p><b> Pay attention to which animal is on the screen, as the animals have different treasure chests. </b></p>
            <img src='./assets/img/instructions/leftright.jpg' class='instructions-image'>","","instructions","","","","","","","","","","","",""
"learning-instructions","29","222908","0.0-3.0-5.0-0.3","spark_pilot_norest","8775","6","22","Female","","","","","","","964.3999996185303","<p> Let’s try practicing that now. </p>
            <p> When you see an animal, choose which chest to search for treasure. </p>
            <img src='./assets/img/instructions/chooseChest.jpg' class='instructions-image'>","","instructions","","","","","","","","","","","",""
"revaluation","30","226911","0.0-3.0-6.0-0.0","spark_pilot_norest","8775","6","22","Female","","","false","","","","[543.5999999046326]","./assets/img/space/animals/cat.jpg","[""ArrowLeft""]","second stage practice","space","3","{""ArrowUp,ArrowLeft"":3,""ArrowUp,ArrowRight"":36,""ArrowDown,ArrowLeft"":15,""ArrowDown,ArrowRight"":23}","false","ArrowUp,ArrowLeft","","","","","","",""
"html-keyboard-response","31","227413","0.0-3.0-6.0-1.0","spark_pilot_norest","8775","6","22","Female","","","","","","","null","<div style=""font-size:60px;"">+</div>","null","fixation","","","","","","","","","","","",""
"revaluation","32","231423","0.0-3.0-6.0-0.1","spark_pilot_norest","8775","6","22","Female","","","false","","","","[1021.7000002861023]","./assets/img/space/animals/rabbit.jpg","[""ArrowRight""]","second stage practice","space","23","{""ArrowUp,ArrowLeft"":3,""ArrowUp,ArrowRight"":36,""ArrowDown,ArrowLeft"":15,""ArrowDown,ArrowRight"":23}","true","ArrowDown,ArrowRight","","","","","","",""
"html-keyboard-response","33","231926","0.0-3.0-6.0-1.1","spark_pilot_norest","8775","6","22","Female","","","","","","","null","<div style=""font-size:60px;"">+</div>","null","fixation","","","","","","","","","","","",""
"revaluation","34","235934","0.0-3.0-6.0-0.2","spark_pilot_norest","8775","6","22","Female","","","false","","","","[443.69999980926514]","./assets/img/space/animals/cat.jpg","[""ArrowRight""]","second stage practice","space","36","{""ArrowUp,ArrowLeft"":3,""ArrowUp,ArrowRight"":36,""ArrowDown,ArrowLeft"":15,""ArrowDown,ArrowRight"":23}","true","ArrowUp,ArrowRight","","","","","","",""
"html-keyboard-response","35","236438","0.0-3.0-6.0-1.2","spark_pilot_norest","8775","6","22","Female","","","","","","","null","<div style=""font-size:60px;"">+</div>","null","fixation","","","","","","","","","","","",""
"revaluation","36","240443","0.0-3.0-6.0-0.3","spark_pilot_norest","8775","6","22","Female","","","false","","","","[462.5]","./assets/img/space/animals/rabbit.jpg","[""ArrowRight""]","second stage practice","space","23","{""ArrowUp,ArrowLeft"":3,""ArrowUp,ArrowRight"":36,""ArrowDown,ArrowLeft"":15,""ArrowDown,ArrowRight"":23}","true","ArrowDown,ArrowRight","","","","","","",""
"html-keyboard-response","37","240950","0.0-3.0-6.0-1.3","spark_pilot_norest","8775","6","22","Female","","","","","","","null","<div style=""font-size:60px;"">+</div>","null","fixation","","","","","","","","","","","",""
"learning-instructions","38","259024","0.0-3.0-7.0-0.0","spark_pilot_norest","8775","6","22","Female","","","","","","","1251.4000000953674","<p> Great job. Now let’s try putting it together. </p>
            <p> On each turn, you will first see a picture to remind you of the place you are in, and you need to choose whether to go up or down. </p>
            <p> Then you will see an animal and choose which of its chests to search for treasure. </p>","","instructions","","","","","","","","","","","",""
"learning-instructions","39","268321","0.0-3.0-7.0-0.1","spark_pilot_norest","8775","6","22","Female","","","","","","","1028.5","<p> When you choose whether to go up or down, try to go to the animal with the chest with the most treasure. </p>
            <p> Try practicing that now! </p>","","instructions","","","","","","","","","","","",""
"revaluation","40","274332","0.0-3.0-8.0-0.0","spark_pilot_norest","8775","6","22","Female","","","false","","","","[657,618.8000001907349]","./assets/img/space/6.jpg","[""ArrowUp"",""ArrowRight""]","full practice","space","36","{""ArrowUp,ArrowLeft"":3,""ArrowUp,ArrowRight"":36,""ArrowDown,ArrowLeft"":15,""ArrowDown,ArrowRight"":23}","true","ArrowUp,ArrowRight","false","","","","","",""
"html-keyboard-response","41","274835","0.0-3.0-8.0-1.0","spark_pilot_norest","8775","6","22","Female","","","","","","","null","<div style=""font-size:60px;"">+</div>","null","fixation","","","","","","","","","","","",""
"revaluation","42","280844","0.0-3.0-8.0-0.1","spark_pilot_norest","8775","6","22","Female","","","false","","","","[727.1999998092651,393.80000019073486]","./assets/img/space/7.jpg","[""ArrowUp"",""ArrowRight""]","full practice","space","36","{""ArrowUp,ArrowLeft"":3,""ArrowUp,ArrowRight"":36,""ArrowDown,ArrowLeft"":15,""ArrowDown,ArrowRight"":23}","true","ArrowUp,ArrowRight","false","","","","","",""
"html-keyboard-response","43","281349","0.0-3.0-8.0-1.1","spark_pilot_norest","8775","6","22","Female","","","","","","","null","<div style=""font-size:60px;"">+</div>","null","fixation","","","","","","","","","","","",""
"revaluation","44","287358","0.0-3.0-8.0-0.2","spark_pilot_norest","8775","6","22","Female","","","false","","","","[643.4000000953674,368]","./assets/img/space/8.jpg","[""ArrowUp"",""ArrowLeft""]","full practice","space","3","{""ArrowUp,ArrowLeft"":3,""ArrowUp,ArrowRight"":36,""ArrowDown,ArrowLeft"":15,""ArrowDown,ArrowRight"":23}","false","ArrowUp,ArrowLeft","false","","","","","",""
"html-keyboard-response","45","287860","0.0-3.0-8.0-1.2","spark_pilot_norest","8775","6","22","Female","","","","","","","null","<div style=""font-size:60px;"">+</div>","null","fixation","","","","","","","","","","","",""
"revaluation","46","293866","0.0-3.0-8.0-0.3","spark_pilot_norest","8775","6","22","Female","","","false","","","","[302.09999990463257,321]","./assets/img/space/9.jpg","[""ArrowDown"",""ArrowLeft""]","full practice","space","15","{""ArrowUp,ArrowLeft"":3,""ArrowUp,ArrowRight"":36,""ArrowDown,ArrowLeft"":15,""ArrowDown,ArrowRight"":23}","false","ArrowDown,ArrowLeft","false","","","","","",""
"html-keyboard-response","47","294375","0.0-3.0-8.0-1.3","spark_pilot_norest","8775","6","22","Female","","","","","","","null","<div style=""font-size:60px;"">+</div>","null","fixation","","","","","","","","","","","",""
"revaluation","48","300382","0.0-3.0-8.0-0.4","spark_pilot_norest","8775","6","22","Female","","","false","","","","[409.5,345.69999980926514]","./assets/img/space/10.jpg","[""ArrowUp"",""ArrowRight""]","full practice","space","36","{""ArrowUp,ArrowLeft"":3,""ArrowUp,ArrowRight"":36,""ArrowDown,ArrowLeft"":15,""ArrowDown,ArrowRight"":23}","true","ArrowUp,ArrowRight","false","","","","","",""
"html-keyboard-response","49","300889","0.0-3.0-8.0-1.4","spark_pilot_norest","8775","6","22","Female","","","","","","","null","<div style=""font-size:60px;"">+</div>","null","fixation","","","","","","","","","","","",""
"learning-instructions","50","313418","0.0-3.0-9.0-0.0","spark_pilot_norest","8775","6","22","Female","","","","","","","2136.0999999046326","<p> One last thing: sometimes, you will see a robber. The robber can be anywhere in the picture. </p>
            <p> If you do not stop them, you will lose treasure. </p>
            <img src='./assets/img/instructions/robber.jpg' class='instructions-image'>","","instructions","","","","","","","","","","","",""
"learning-instructions","51","321591","0.0-3.0-9.0-0.1","spark_pilot_norest","8775","6","22","Female","","","","","","","1003.5999999046326","<p> If you see the robber, you should <b>press the space bar</b> rather than using the arrow keys. </p>
            <p> Try practicing that now! </p>","","instructions","","","","","","","","","","","",""
"revaluation","52","325602","0.0-3.0-10.0-0.0","spark_pilot_norest","8775","6","22","Female","","","false","","","","[1108.3000001907349]","./assets/img/space/catch/0.jpg","[""ArrowUp""]","catch practice","space","-10","{""ArrowUp,ArrowLeft"":3,""ArrowUp,ArrowRight"":36,""ArrowDown,ArrowLeft"":15,""ArrowDown,ArrowRight"":23}","false","ArrowUp","true","","","","","",""
"html-keyboard-response","53","326105","0.0-3.0-10.0-1.0","spark_pilot_norest","8775","6","22","Female","","","","","","","null","<div style=""font-size:60px;"">+</div>","null","fixation","","","","","","","","","","","",""
"revaluation","54","330109","0.0-3.0-10.0-0.1","spark_pilot_norest","8775","6","22","Female","","","false","","","","[921]","./assets/img/space/catch/1.jpg","[""spaceBar""]","catch practice","space","0","{""ArrowUp,ArrowLeft"":3,""ArrowUp,ArrowRight"":36,""ArrowDown,ArrowLeft"":15,""ArrowDown,ArrowRight"":23}","true","spaceBar","true","","","","","",""
"html-keyboard-response","55","330610","0.0-3.0-10.0-1.1","spark_pilot_norest","8775","6","22","Female","","","","","","","null","<div style=""font-size:60px;"">+</div>","null","fixation","","","","","","","","","","","",""
"revaluation","56","334614","0.0-3.0-10.0-0.2","spark_pilot_norest","8775","6","22","Female","","","false","","","","[614.7999997138977]","./assets/img/space/catch/2.jpg","[""spaceBar""]","catch practice","space","0","{""ArrowUp,ArrowLeft"":3,""ArrowUp,ArrowRight"":36,""ArrowDown,ArrowLeft"":15,""ArrowDown,ArrowRight"":23}","true","spaceBar","true","","","","","",""
"html-keyboard-response","57","335115","0.0-3.0-10.0-1.2","spark_pilot_norest","8775","6","22","Female","","","","","","","null","<div style=""font-size:60px;"">+</div>","null","fixation","","","","","","","","","","","",""
"learning-instructions","58","341216","0.0-3.0-11.0-0.0-0.0","spark_pilot_norest","8775","6","22","Female","","","","","","","842","<p> Now, you will practice a shortened version of the game to get a sense of how it all fits together. </p>","","instructions","","","","","","","","","","","",""
"learning-instructions","59","344936","0.0-3.0-11.0-0.0-0.1","spark_pilot_norest","8775","6","22","Female","","","","","","","525","<p>This time you are searching for treasure in outer space.</p>","","instructions","","","","","","","","","","","",""
"learning-instructions","60","364385","0.0-3.0-11.0-1.0-0.0","spark_pilot_norest","8775","6","22","Female","","","","","","","4667.200000286102","<p> Remember, when you see a picture of the place, use the up and down keys to <b>find an animal</b>.</p>
            <p> When you encounter an animal, you should use the left and right keys to <b>select a treasure chest</b>.</p>
            <p> Don't forget to look out for the robber! </p>","","instructions","","","","","","","","","","","",""
"revaluation","61","370391","0.0-3.0-11.0-2.0-0.0","spark_pilot_norest","8775","6","22","Female","","","false","","","","[756,399.59999990463257]","./assets/img/space/11.jpg","[""ArrowUp"",""ArrowLeft""]","practice block","space","3","{""ArrowUp,ArrowLeft"":3,""ArrowUp,ArrowRight"":36,""ArrowDown,ArrowLeft"":15,""ArrowDown,ArrowRight"":23}","false","ArrowUp,ArrowLeft","false","","","","","",""
"html-keyboard-response","62","370896","0.0-3.0-11.0-2.0-1.0","spark_pilot_norest","8775","6","22","Female","","","","","","","null","<div style=""font-size:60px;"">+</div>","null","fixation","","","","","","","","","","","",""
"revaluation","63","376907","0.0-3.0-11.0-2.0-0.1","spark_pilot_norest","8775","6","22","Female","","","false","","","","[743.5999999046326,336.30000019073486]","./assets/img/space/12.jpg","[""ArrowUp"",""ArrowRight""]","practice block","space","36","{""ArrowUp,ArrowLeft"":3,""ArrowUp,ArrowRight"":36,""ArrowDown,ArrowLeft"":15,""ArrowDown,ArrowRight"":23}","true","ArrowUp,ArrowRight","false","","","","","",""
"html-keyboard-response","64","377410","0.0-3.0-11.0-2.0-1.1","spark_pilot_norest","8775","6","22","Female","","","","","","","null","<div style=""font-size:60px;"">+</div>","null","fixation","","","","","","","","","","","",""
"revaluation","65","383414","0.0-3.0-11.0-2.0-0.2","spark_pilot_norest","8775","6","22","Female","","","false","","","","[735.4000000953674,488.2999997138977]","./assets/img/space/13.jpg","[""ArrowUp"",""ArrowRight""]","practice block","space","36","{""ArrowUp,ArrowLeft"":3,""ArrowUp,ArrowRight"":36,""ArrowDown,ArrowLeft"":15,""ArrowDown,ArrowRight"":23}","true","ArrowUp,ArrowRight","false","","","","","",""
"html-keyboard-response","66","383916","0.0-3.0-11.0-2.0-1.2","spark_pilot_norest","8775","6","22","Female","","","","","","","null","<div style=""font-size:60px;"">+</div>","null","fixation","","","","","","","","","","","",""
"revaluation","67","389928","0.0-3.0-11.0-2.0-0.3","spark_pilot_norest","8775","6","22","Female","","","false","","","","[787.8000001907349,490.80000019073486]","./assets/img/space/14.jpg","[""ArrowUp"",""ArrowRight""]","practice block","space","36","{""ArrowUp,ArrowLeft"":3,""ArrowUp,ArrowRight"":36,""ArrowDown,ArrowLeft"":15,""ArrowDown,ArrowRight"":23}","true","ArrowUp,ArrowRight","false","","","","","",""
"html-keyboard-response","68","390432","0.0-3.0-11.0-2.0-1.3","spark_pilot_norest","8775","6","22","Female","","","","","","","null","<div style=""font-size:60px;"">+</div>","null","fixation","","","","","","","","","","","",""
"revaluation","69","396443","0.0-3.0-11.0-2.0-0.4","spark_pilot_norest","8775","6","22","Female","","","false","","","","[806.8000001907349,457.69999980926514]","./assets/img/space/11.jpg","[""ArrowUp"",""ArrowRight""]","practice block","space","36","{""ArrowUp,ArrowLeft"":3,""ArrowUp,ArrowRight"":36,""ArrowDown,ArrowLeft"":15,""ArrowDown,ArrowRight"":23}","true","ArrowUp,ArrowRight","false","","","","","",""
"html-keyboard-response","70","396944","0.0-3.0-11.0-2.0-1.4","spark_pilot_norest","8775","6","22","Female","","","","","","","null","<div style=""font-size:60px;"">+</div>","null","fixation","","","","","","","","","","","",""
"revaluation","71","402956","0.0-3.0-11.0-2.0-0.5","spark_pilot_norest","8775","6","22","Female","","","false","","","","[1259.5,443]","./assets/img/space/12.jpg","[""ArrowUp"",""ArrowRight""]","practice block","space","36","{""ArrowUp,ArrowLeft"":3,""ArrowUp,ArrowRight"":36,""ArrowDown,ArrowLeft"":15,""ArrowDown,ArrowRight"":23}","true","ArrowUp,ArrowRight","false","","","","","",""
"html-keyboard-response","72","403459","0.0-3.0-11.0-2.0-1.5","spark_pilot_norest","8775","6","22","Female","","","","","","","null","<div style=""font-size:60px;"">+</div>","null","fixation","","","","","","","","","","","",""
"revaluation","73","409468","0.0-3.0-11.0-2.0-0.6","spark_pilot_norest","8775","6","22","Female","","","false","","","","[1053.5999999046326,347]","./assets/img/space/13.jpg","[""ArrowUp"",""ArrowRight""]","practice block","space","36","{""ArrowUp,ArrowLeft"":3,""ArrowUp,ArrowRight"":36,""ArrowDown,ArrowLeft"":15,""ArrowDown,ArrowRight"":23}","true","ArrowUp,ArrowRight","false","","","","","",""
"html-keyboard-response","74","409971","0.0-3.0-11.0-2.0-1.6","spark_pilot_norest","8775","6","22","Female","","","","","","","null","<div style=""font-size:60px;"">+</div>","null","fixation","","","","","","","","","","","",""
"revaluation","75","415980","0.0-3.0-11.0-2.0-0.7","spark_pilot_norest","8775","6","22","Female","","","false","","","","[995.4000000953674,378.59999990463257]","./assets/img/space/14.jpg","[""ArrowUp"",""ArrowRight""]","practice block","space","36","{""ArrowUp,ArrowLeft"":3,""ArrowUp,ArrowRight"":36,""ArrowDown,ArrowLeft"":15,""ArrowDown,ArrowRight"":23}","true","ArrowUp,ArrowRight","false","","","","","",""
"html-keyboard-response","76","416481","0.0-3.0-11.0-2.0-1.7","spark_pilot_norest","8775","6","22","Female","","","","","","","null","<div style=""font-size:60px;"">+</div>","null","fixation","","","","","","","","","","","",""
"revaluation","77","420488","0.0-3.0-11.0-2.0-0.8","spark_pilot_norest","8775","6","22","Female","","","false","","","","[616.3999996185303]","./assets/img/space/catch/3.jpg","[""spaceBar""]","practice block","space","0","{""ArrowUp,ArrowLeft"":3,""ArrowUp,ArrowRight"":36,""ArrowDown,ArrowLeft"":15,""ArrowDown,ArrowRight"":23}","true","spaceBar","true","","","","","",""
"html-keyboard-response","78","420993","0.0-3.0-11.0-2.0-1.8","spark_pilot_norest","8775","6","22","Female","","","","","","","null","<div style=""font-size:60px;"">+</div>","null","fixation","","","","","","","","","","","",""
"learning-instructions","79","434975","0.0-3.0-11.0-3.0-0.0","spark_pilot_norest","8775","6","22","Female","","","","","","","999.3000001907349","<p> Now, you will travel with a friend who will choose whether you go up or down first. </p>
            <p> On these turns, you will just see the animal that they found. You will still get to choose which chest to search for treasure.</p>","","instructions","","","","","","","","","","","",""
"revaluation","80","438979","0.0-3.0-11.0-4.0-0.0","spark_pilot_norest","8775","6","22","Female","","","false","","","","[659.4000000953674]","./assets/img/space/animals/cat.jpg","[""ArrowRight""]","practice block","space","36","{""ArrowUp,ArrowLeft"":3,""ArrowUp,ArrowRight"":36,""ArrowDown,ArrowLeft"":15,""ArrowDown,ArrowRight"":23}","true","ArrowUp,ArrowRight","","","","","","",""
"html-keyboard-response","81","439484","0.0-3.0-11.0-4.0-1.0","spark_pilot_norest","8775","6","22","Female","","","","","","","null","<div style=""font-size:60px;"">+</div>","null","fixation","","","","","","","","","","","",""
"revaluation","82","443492","0.0-3.0-11.0-4.0-0.1","spark_pilot_norest","8775","6","22","Female","","","false","","","","[1086.6999998092651]","./assets/img/space/animals/rabbit.jpg","[""ArrowRight""]","practice block","space","23","{""ArrowUp,ArrowLeft"":3,""ArrowUp,ArrowRight"":36,""ArrowDown,ArrowLeft"":15,""ArrowDown,ArrowRight"":23}","true","ArrowDown,ArrowRight","","","","","","",""
"html-keyboard-response","83","443993","0.0-3.0-11.0-4.0-1.1","spark_pilot_norest","8775","6","22","Female","","","","","","","null","<div style=""font-size:60px;"">+</div>","null","fixation","","","","","","","","","","","",""
"revaluation","84","447997","0.0-3.0-11.0-4.0-0.2","spark_pilot_norest","8775","6","22","Female","","","false","","","","[537.5999999046326]","./assets/img/space/animals/rabbit.jpg","[""ArrowLeft""]","practice block","space","15","{""ArrowUp,ArrowLeft"":3,""ArrowUp,ArrowRight"":36,""ArrowDown,ArrowLeft"":15,""ArrowDown,ArrowRight"":23}","false","ArrowDown,ArrowLeft","","","","","","",""
"html-keyboard-response","85","448499","0.0-3.0-11.0-4.0-1.2","spark_pilot_norest","8775","6","22","Female","","","","","","","null","<div style=""font-size:60px;"">+</div>","null","fixation","","","","","","","","","","","",""
"revaluation","86","452507","0.0-3.0-11.0-4.0-0.3","spark_pilot_norest","8775","6","22","Female","","","false","","","","[453.19999980926514]","./assets/img/space/animals/cat.jpg","[""ArrowLeft""]","practice block","space","3","{""ArrowUp,ArrowLeft"":3,""ArrowUp,ArrowRight"":36,""ArrowDown,ArrowLeft"":15,""ArrowDown,ArrowRight"":23}","false","ArrowUp,ArrowLeft","","","","","","",""
"html-keyboard-response","87","453008","0.0-3.0-11.0-4.0-1.3","spark_pilot_norest","8775","6","22","Female","","","","","","","null","<div style=""font-size:60px;"">+</div>","null","fixation","","","","","","","","","","","",""
"learning-instructions","88","461142","0.0-3.0-11.0-5.0-0.0","spark_pilot_norest","8775","6","22","Female","","","","","","","null","<p> You have almost finished this part of the game! </p>
            <p> We are going to ask you to make a few more choices. </p>","","instructions","","","","","","","","","","","",""
"learning-instructions","89","477161","0.0-3.0-11.0-5.0-0.1","spark_pilot_norest","8775","6","22","Female","","","","","","","null","<p> First, you need to decide whether to go up or down. When you see each picture, use the arrow keys to make your choice. </p>
            <p><b>You will not see which animal you found, but try to get to the one that will give you the most treasure.</b></p>","","instructions","","","","","","","","","","","",""
"html-keyboard-response","90","478164","0.0-3.0-11.0-6.0-0.0","spark_pilot_norest","8775","6","22","Female","","","","","","","null","<div style=""font-size:100px;color:red;"">Starting in...</div>","null","","","","","","","","","","","","",""
"html-keyboard-response","91","479166","0.0-3.0-11.0-6.0-1.0","spark_pilot_norest","8775","6","22","Female","","","","","","","null","<div style=""font-size:200px;color:red;"">3</div>","null","","","","","","","","","","","","",""
"html-keyboard-response","92","480169","0.0-3.0-11.0-6.0-2.0","spark_pilot_norest","8775","6","22","Female","","","","","","","null","<div style=""font-size:200px;color:red;"">2</div>","null","","","","","","","","","","","","",""
"html-keyboard-response","93","481169","0.0-3.0-11.0-6.0-3.0","spark_pilot_norest","8775","6","22","Female","","","","","","","null","<div style=""font-size:200px;color:red;"">1</div>","null","","","","","","","","","","","","",""
"revaluation","94","481679","0.0-3.0-11.0-7.0","spark_pilot_norest","8775","6","22","Female","","","false","","","","[507.30000019073486]","./assets/img/space/15.jpg","[""ArrowUp""]","practice block","space","0","{""ArrowUp,ArrowLeft"":3,""ArrowUp,ArrowRight"":36,""ArrowDown,ArrowLeft"":15,""ArrowDown,ArrowRight"":23}","true","ArrowUp","false","","","","","",""
"html-keyboard-response","95","482180","0.0-3.0-11.0-8.0","spark_pilot_norest","8775","6","22","Female","","","","","","","null","<div style=""font-size:60px;"">+</div>","null","fixation","","","","","","","","","","","",""
"learning-instructions","96","495566","0.0-3.0-11.0-9.0-0.0","spark_pilot_norest","8775","6","22","Female","","","","","","","null","<p> Now you will see the animals again and can search their chests for treasure. </p>
            <p> This time, you will not see how much treasure you earned, but you will earn more bonus money for making better choices. </p>","","instructions","","","","","","","","","","","",""
"html-keyboard-response","97","496571","0.0-3.0-11.0-10.0-0.0","spark_pilot_norest","8775","6","22","Female","","","","","","","null","<div style=""font-size:100px;color:red;"">Starting in...</div>","null","","","","","","","","","","","","",""
"html-keyboard-response","98","497572","0.0-3.0-11.0-10.0-1.0","spark_pilot_norest","8775","6","22","Female","","","","","","","null","<div style=""font-size:200px;color:red;"">3</div>","null","","","","","","","","","","","","",""
"html-keyboard-response","99","498577","0.0-3.0-11.0-10.0-2.0","spark_pilot_norest","8775","6","22","Female","","","","","","","null","<div style=""font-size:200px;color:red;"">2</div>","null","","","","","","","","","","","","",""
"html-keyboard-response","100","499579","0.0-3.0-11.0-10.0-3.0","spark_pilot_norest","8775","6","22","Female","","","","","","","null","<div style=""font-size:200px;color:red;"">1</div>","null","","","","","","","","","","","","",""
"revaluation","101","500119","0.0-3.0-11.0-11.0-0.0","spark_pilot_norest","8775","6","22","Female","","","false","","","","[533.1999998092651]","./assets/img/space/animals/cat.jpg","[""ArrowRight""]","practice block","space","0","{""ArrowUp,ArrowLeft"":3,""ArrowUp,ArrowRight"":36,""ArrowDown,ArrowLeft"":15,""ArrowDown,ArrowRight"":23}","true","ArrowUp,ArrowRight","","","","","","",""
"html-keyboard-response","102","500623","0.0-3.0-11.0-11.0-1.0","spark_pilot_norest","8775","6","22","Female","","","","","","","null","<div style=""font-size:60px;"">+</div>","null","fixation","","","","","","","","","","","",""
"revaluation","103","501155","0.0-3.0-11.0-11.0-0.1","spark_pilot_norest","8775","6","22","Female","","","false","","","","[530.0999999046326]","./assets/img/space/animals/rabbit.jpg","[""ArrowRight""]","practice block","space","0","{""ArrowUp,ArrowLeft"":3,""ArrowUp,ArrowRight"":36,""ArrowDown,ArrowLeft"":15,""ArrowDown,ArrowRight"":23}","true","ArrowDown,ArrowRight","","","","","","",""
"html-keyboard-response","104","501658","0.0-3.0-11.0-11.0-1.1","spark_pilot_norest","8775","6","22","Female","","","","","","","null","<div style=""font-size:60px;"">+</div>","null","fixation","","","","","","","","","","","",""
"learning-instructions","105","507866","0.0-3.0-12.0-0.0","spark_pilot_norest","8775","6","22","Female","","","","","","","1619.5","<p> Before you start, we're going to ask you a few questions about how the game works. </p>","","instructions","","","","","","","","","","","",""
"comp-q","106","515013","0.0-3.0-13.0-0.0-0.0","spark_pilot_norest","8775","6","22","Female","","","","","","","1543.7000002861023","<p> <b> True or False? </b> </p>
            <p> There can be 50 pieces of treasure in a given animal's chest. </p>","1","comp_question","","","","true","","","","","","","",""
"comp-q","107","523672","0.0-3.0-13.0-0.0-1.0","spark_pilot_norest","8775","6","22","Female","","","","","","","1990.9000000953674","<p> <b> That's right! </b> The amount of treasure in each chest can range from 0 to 40 pieces. </p>","0","comp_answer","","","","","","","","","","","",""
"comp-q","108","531941","0.0-3.0-13.0-0.1-0.1","spark_pilot_norest","8775","6","22","Female","","","","","","","1145.3999996185303","<p> <b> True or False? </b> </p><p> In this game, all animals have the same amount of treasure in their left and right chests. </p>","1","comp_question","","","","true","","","","","","","",""
"comp-q","109","538634","0.0-3.0-13.0-0.1-1.1","spark_pilot_norest","8775","6","22","Female","","","","","","","1460.1000003814697","<p> <b> That's right! </b> Animals have different amounts of treasure in their treasure chests. </p>","0","comp_answer","","","","","","","","","","","",""
"comp-q","110","545393","0.0-3.0-13.0-0.2-0.2","spark_pilot_norest","8775","6","22","Female","","","","","","","912.5","<p> <b> True or False? </b> </p><p> The same animal will always be there if you go up in the same place. </p>","0","comp_question","","","","true","","","","","","","",""
"comp-q","111","553436","0.0-3.0-13.0-0.2-1.2","spark_pilot_norest","8775","6","22","Female","","","","","","","1595.5999999046326","<p> <b> That's right! </b> One animal lives in the upper part and one lives in the lower part of every place. </p>","0","comp_answer","","","","","","","","","","","",""
"comp-q","112","559802","0.0-3.0-13.0-0.3-0.3","spark_pilot_norest","8775","6","22","Female","","","","","","","835.7999997138977","<p> <b> True or False? </b> </p><p> If you see a different picture, it means you are in a new place. </p>","0","comp_question","","","","false","","","","","","","",""
"comp-q","113","572580","0.0-3.0-13.0-0.3-1.3","spark_pilot_norest","8775","6","22","Female","","","","","","","1678.6999998092651","<p> <b>Incorrect.</b> Lots of different images may show the same place. For example,  you may see three different images that all remind you that you are in outer space. </p>","0","comp_answer","","","","","","","","","","","",""
"comp-q","114","578832","0.0-3.0-13.0-0.4-0.4","spark_pilot_norest","8775","6","22","Female","","","","","","","751.0999999046326","<p> <b> True or False? </b> </p><p> If you see a different picture, it means you are in a new place. </p>","1","comp_question","","","","true","","","","","","","",""
"comp-q","115","591485","0.0-3.0-13.0-0.4-1.4","spark_pilot_norest","8775","6","22","Female","","","","","","","1415","<p> <b> That's right! </b> Lots of different images may show the same place. For example,  you may see three different images that all remind you that you are in outer space. </p>","0","comp_answer","","","","","","","","","","","",""
"learning-instructions","116","603452","0.0-3.0-14.0-0.0","spark_pilot_norest","8775","6","22","Female","","","","","","","2081.0999999046326","<p> Good job. Remember to do your best because the amount of treasure you earn will be converted into bonus money. </p>
            <p> It’s time to start the real game! </p>","","instructions","","","","","","","","","","","",""
"learning-instructions","117","608117","0.0-4.0-0.0-0.0","spark_pilot_norest","8775","6","22","Female","","","","","","","1898.7999997138977","<p> This time you are searching for treasure in the <b>canyon</b>.</p>","","instructions","","","","","","","","","","","",""
"learning-instructions","118","626108","0.0-4.0-0.0-0.1","spark_pilot_norest","8775","6","22","Female","","","","","","","694.6999998092651","<p><b>New</b> animals with <b>new</b> treasure chests live here. You need to explore to discover where the animal with the best treasure chest is.</p>
                    <p> Like before, once you figure out which animal has the chest with the most treasure, you should try to get to that animal and select that chest! </p>","","instructions","","","","","","","","","","","",""
"learning-instructions","119","641265","0.0-4.0-1.0-0.0","spark_pilot_norest","8775","6","22","Female","","","","","","","428.1000003814697","<p> Remember, when you see a picture of the place, use the up and down keys to <b>find an animal</b>.</p>
            <p> When you encounter an animal, you should use the left and right keys to <b>select a treasure chest</b>.</p>
            <p> Don't forget to look out for the robber! </p>","","instructions","","","","","","","","","","","",""
"revaluation","120","647270","0.0-4.0-2.0-0.0","spark_pilot_norest","8775","6","22","Female","","","false","","","","[665.4000000953674,531.6999998092651]","./assets/img/canyon/memory/40.jpg","[""ArrowUp"",""ArrowLeft""]","value training","canyon","23","{""ArrowUp,ArrowLeft"":23,""ArrowUp,ArrowRight"":10,""ArrowDown,ArrowLeft"":8,""ArrowDown,ArrowRight"":30}","false","ArrowUp,ArrowLeft","false","revaluation","1","0","","",""
"html-keyboard-response","121","647780","0.0-4.0-2.0-1.0","spark_pilot_norest","8775","6","22","Female","","","","","","","null","<div style=""font-size:60px;"">+</div>","null","fixation","","","","","","","","","1","","",""
"revaluation","122","653791","0.0-4.0-2.0-0.1","spark_pilot_norest","8775","6","22","Female","","","false","","","","[1358.8000001907349,468.69999980926514]","./assets/img/canyon/memory/41.jpg","[""ArrowUp"",""ArrowRight""]","value training","canyon","10","{""ArrowUp,ArrowLeft"":23,""ArrowUp,ArrowRight"":10,""ArrowDown,ArrowLeft"":8,""ArrowDown,ArrowRight"":30}","false","ArrowUp,ArrowRight","false","revaluation","1","2","","",""
"html-keyboard-response","123","654293","0.0-4.0-2.0-1.1","spark_pilot_norest","8775","6","22","Female","","","","","","","null","<div style=""font-size:60px;"">+</div>","null","fixation","","","","","","","","","3","","",""
"revaluation","124","660302","0.0-4.0-2.0-0.2","spark_pilot_norest","8775","6","22","Female","","","false","","","","[938,732.3999996185303]","./assets/img/canyon/memory/32.jpg","[""ArrowDown"",""ArrowLeft""]","value training","canyon","8","{""ArrowUp,ArrowLeft"":23,""ArrowUp,ArrowRight"":10,""ArrowDown,ArrowLeft"":8,""ArrowDown,ArrowRight"":30}","false","ArrowDown,ArrowLeft","false","revaluation","1","4","","",""
"html-keyboard-response","125","660803","0.0-4.0-2.0-1.2","spark_pilot_norest","8775","6","22","Female","","","","","","","null","<div style=""font-size:60px;"">+</div>","null","fixation","","","","","","","","","5","","",""
"revaluation","126","666815","0.0-4.0-2.0-0.3","spark_pilot_norest","8775","6","22","Female","","","false","","","","[906.9000000953674,527.3999996185303]","./assets/img/canyon/memory/16.jpg","[""ArrowDown"",""ArrowRight""]","value training","canyon","30","{""ArrowUp,ArrowLeft"":23,""ArrowUp,ArrowRight"":10,""ArrowDown,ArrowLeft"":8,""ArrowDown,ArrowRight"":30}","true","ArrowDown,ArrowRight","false","revaluation","1","6","","",""
"html-keyboard-response","127","667317","0.0-4.0-2.0-1.3","spark_pilot_norest","8775","6","22","Female","","","","","","","null","<div style=""font-size:60px;"">+</div>","null","fixation","","","","","","","","","7","","",""
"revaluation","128","673327","0.0-4.0-2.0-0.4","spark_pilot_norest","8775","6","22","Female","","","false","","","","[697.9000000953674,351.30000019073486]","./assets/img/canyon/memory/39.jpg","[""ArrowDown"",""ArrowRight""]","value training","canyon","30","{""ArrowUp,ArrowLeft"":23,""ArrowUp,ArrowRight"":10,""ArrowDown,ArrowLeft"":8,""ArrowDown,ArrowRight"":30}","true","ArrowDown,ArrowRight","false","revaluation","1","8","","",""
"html-keyboard-response","129","673829","0.0-4.0-2.0-1.4","spark_pilot_norest","8775","6","22","Female","","","","","","","null","<div style=""font-size:60px;"">+</div>","null","fixation","","","","","","","","","9","","",""
"revaluation","130","679840","0.0-4.0-2.0-0.5","spark_pilot_norest","8775","6","22","Female","","","false","","","","[958.3000001907349,524.4000000953674]","./assets/img/canyon/memory/12.jpg","[""ArrowDown"",""ArrowRight""]","value training","canyon","30","{""ArrowUp,ArrowLeft"":23,""ArrowUp,ArrowRight"":10,""ArrowDown,ArrowLeft"":8,""ArrowDown,ArrowRight"":30}","true","ArrowDown,ArrowRight","false","revaluation","1","10","","",""
"html-keyboard-response","131","680341","0.0-4.0-2.0-1.5","spark_pilot_norest","8775","6","22","Female","","","","","","","null","<div style=""font-size:60px;"">+</div>","null","fixation","","","","","","","","","11","","",""
"revaluation","132","686354","0.0-4.0-2.0-0.6","spark_pilot_norest","8775","6","22","Female","","","false","","","","[1117.1999998092651,465.5]","./assets/img/canyon/memory/34.jpg","[""ArrowDown"",""ArrowRight""]","value training","canyon","30","{""ArrowUp,ArrowLeft"":23,""ArrowUp,ArrowRight"":10,""ArrowDown,ArrowLeft"":8,""ArrowDown,ArrowRight"":30}","true","ArrowDown,ArrowRight","false","revaluation","1","12","","",""
"html-keyboard-response","133","686858","0.0-4.0-2.0-1.6","spark_pilot_norest","8775","6","22","Female","","","","","","","null","<div style=""font-size:60px;"">+</div>","null","fixation","","","","","","","","","13","","",""
"revaluation","134","692870","0.0-4.0-2.0-0.7","spark_pilot_norest","8775","6","22","Female","","","false","","","","[790.8000001907349,435.09999990463257]","./assets/img/canyon/memory/0.jpg","[""ArrowDown"",""ArrowRight""]","value training","canyon","30","{""ArrowUp,ArrowLeft"":23,""ArrowUp,ArrowRight"":10,""ArrowDown,ArrowLeft"":8,""ArrowDown,ArrowRight"":30}","true","ArrowDown,ArrowRight","false","revaluation","1","14","","",""
"html-keyboard-response","135","693375","0.0-4.0-2.0-1.7","spark_pilot_norest","8775","6","22","Female","","","","","","","null","<div style=""font-size:60px;"">+</div>","null","fixation","","","","","","","","","15","","",""
"revaluation","136","699386","0.0-4.0-2.0-0.8","spark_pilot_norest","8775","6","22","Female","","","false","","","","[882.3999996185303,522.0999999046326]","./assets/img/canyon/memory/30.jpg","[""ArrowDown"",""ArrowRight""]","value training","canyon","30","{""ArrowUp,ArrowLeft"":23,""ArrowUp,ArrowRight"":10,""ArrowDown,ArrowLeft"":8,""ArrowDown,ArrowRight"":30}","true","ArrowDown,ArrowRight","false","revaluation","1","16","","",""
"html-keyboard-response","137","699889","0.0-4.0-2.0-1.8","spark_pilot_norest","8775","6","22","Female","","","","","","","null","<div style=""font-size:60px;"">+</div>","null","fixation","","","","","","","","","17","","",""
"revaluation","138","705900","0.0-4.0-2.0-0.9","spark_pilot_norest","8775","6","22","Female","","","false","","","","[721.3000001907349,341.09999990463257]","./assets/img/canyon/memory/16.jpg","[""ArrowDown"",""ArrowRight""]","value training","canyon","30","{""ArrowUp,ArrowLeft"":23,""ArrowUp,ArrowRight"":10,""ArrowDown,ArrowLeft"":8,""ArrowDown,ArrowRight"":30}","true","ArrowDown,ArrowRight","false","revaluation","1","18","","",""
"html-keyboard-response","139","706405","0.0-4.0-2.0-1.9","spark_pilot_norest","8775","6","22","Female","","","","","","","null","<div style=""font-size:60px;"">+</div>","null","fixation","","","","","","","","","19","","",""
"revaluation","140","710412","0.0-4.0-2.0-0.10","spark_pilot_norest","8775","6","22","Female","","","false","","","","[1287.1999998092651]","./assets/img/canyon/catch/0.jpg","[""spaceBar""]","value training","canyon","0","{""ArrowUp,ArrowLeft"":23,""ArrowUp,ArrowRight"":10,""ArrowDown,ArrowLeft"":8,""ArrowDown,ArrowRight"":30}","true","spaceBar","true","revaluation","1","20","","",""
"html-keyboard-response","141","710917","0.0-4.0-2.0-1.10","spark_pilot_norest","8775","6","22","Female","","","","","","","null","<div style=""font-size:60px;"">+</div>","null","fixation","","","","","","","","","21","","",""
"revaluation","142","714928","0.0-4.0-2.0-0.11","spark_pilot_norest","8775","6","22","Female","","","false","","","","[785.0999999046326]","./assets/img/canyon/catch/7.jpg","[""spaceBar""]","value training","canyon","0","{""ArrowUp,ArrowLeft"":23,""ArrowUp,ArrowRight"":10,""ArrowDown,ArrowLeft"":8,""ArrowDown,ArrowRight"":30}","true","spaceBar","true","revaluation","1","22","","",""
"html-keyboard-response","143","715432","0.0-4.0-2.0-1.11","spark_pilot_norest","8775","6","22","Female","","","","","","","null","<div style=""font-size:60px;"">+</div>","null","fixation","","","","","","","","","23","","",""
"revaluation","144","721446","0.0-4.0-2.0-0.12","spark_pilot_norest","8775","6","22","Female","","","false","","","","[879.9000000953674,448.2999997138977]","./assets/img/canyon/memory/39.jpg","[""ArrowDown"",""ArrowRight""]","value training","canyon","30","{""ArrowUp,ArrowLeft"":23,""ArrowUp,ArrowRight"":10,""ArrowDown,ArrowLeft"":8,""ArrowDown,ArrowRight"":30}","true","ArrowDown,ArrowRight","false","revaluation","1","24","","",""
"html-keyboard-response","145","721952","0.0-4.0-2.0-1.12","spark_pilot_norest","8775","6","22","Female","","","","","","","null","<div style=""font-size:60px;"">+</div>","null","fixation","","","","","","","","","25","","",""
"revaluation","146","727964","0.0-4.0-2.0-0.13","spark_pilot_norest","8775","6","22","Female","","","false","","","","[553.3000001907349,468.09999990463257]","./assets/img/canyon/memory/17.jpg","[""ArrowDown"",""ArrowRight""]","value training","canyon","30","{""ArrowUp,ArrowLeft"":23,""ArrowUp,ArrowRight"":10,""ArrowDown,ArrowLeft"":8,""ArrowDown,ArrowRight"":30}","true","ArrowDown,ArrowRight","false","revaluation","1","26","","",""
"html-keyboard-response","147","728469","0.0-4.0-2.0-1.13","spark_pilot_norest","8775","6","22","Female","","","","","","","null","<div style=""font-size:60px;"">+</div>","null","fixation","","","","","","","","","27","","",""
"revaluation","148","732480","0.0-4.0-2.0-0.14","spark_pilot_norest","8775","6","22","Female","","","false","","","","[716.8000001907349]","./assets/img/canyon/catch/2.jpg","[""spaceBar""]","value training","canyon","0","{""ArrowUp,ArrowLeft"":23,""ArrowUp,ArrowRight"":10,""ArrowDown,ArrowLeft"":8,""ArrowDown,ArrowRight"":30}","true","spaceBar","true","revaluation","1","28","","",""
"html-keyboard-response","149","732982","0.0-4.0-2.0-1.14","spark_pilot_norest","8775","6","22","Female","","","","","","","null","<div style=""font-size:60px;"">+</div>","null","fixation","","","","","","","","","29","","",""
"revaluation","150","738992","0.0-4.0-2.0-0.15","spark_pilot_norest","8775","6","22","Female","","","false","","","","[1115.5999999046326,389.59999990463257]","./assets/img/canyon/memory/31.jpg","[""ArrowDown"",""ArrowRight""]","value training","canyon","30","{""ArrowUp,ArrowLeft"":23,""ArrowUp,ArrowRight"":10,""ArrowDown,ArrowLeft"":8,""ArrowDown,ArrowRight"":30}","true","ArrowDown,ArrowRight","false","revaluation","1","30","","",""
"html-keyboard-response","151","739494","0.0-4.0-2.0-1.15","spark_pilot_norest","8775","6","22","Female","","","","","","","null","<div style=""font-size:60px;"">+</div>","null","fixation","","","","","","","","","31","","",""
"revaluation","152","743510","0.0-4.0-2.0-0.16","spark_pilot_norest","8775","6","22","Female","","","false","","","","[605.3000001907349]","./assets/img/canyon/catch/6.jpg","[""spaceBar""]","value training","canyon","0","{""ArrowUp,ArrowLeft"":23,""ArrowUp,ArrowRight"":10,""ArrowDown,ArrowLeft"":8,""ArrowDown,ArrowRight"":30}","true","spaceBar","true","revaluation","1","32","","",""
"html-keyboard-response","153","744013","0.0-4.0-2.0-1.16","spark_pilot_norest","8775","6","22","Female","","","","","","","null","<div style=""font-size:60px;"">+</div>","null","fixation","","","","","","","","","33","","",""
"revaluation","154","750024","0.0-4.0-2.0-0.17","spark_pilot_norest","8775","6","22","Female","","","false","","","","[629.5,715.9000000953674]","./assets/img/canyon/memory/21.jpg","[""ArrowDown"",""ArrowRight""]","value training","canyon","30","{""ArrowUp,ArrowLeft"":23,""ArrowUp,ArrowRight"":10,""ArrowDown,ArrowLeft"":8,""ArrowDown,ArrowRight"":30}","true","ArrowDown,ArrowRight","false","revaluation","1","34","","",""
"html-keyboard-response","155","750530","0.0-4.0-2.0-1.17","spark_pilot_norest","8775","6","22","Female","","","","","","","null","<div style=""font-size:60px;"">+</div>","null","fixation","","","","","","","","","35","","",""
"revaluation","156","756545","0.0-4.0-2.0-0.18","spark_pilot_norest","8775","6","22","Female","","","false","","","","[1001.6999998092651,525.9000000953674]","./assets/img/canyon/memory/8.jpg","[""ArrowDown"",""ArrowRight""]","value training","canyon","30","{""ArrowUp,ArrowLeft"":23,""ArrowUp,ArrowRight"":10,""ArrowDown,ArrowLeft"":8,""ArrowDown,ArrowRight"":30}","true","ArrowDown,ArrowRight","false","revaluation","1","36","","",""
"html-keyboard-response","157","757051","0.0-4.0-2.0-1.18","spark_pilot_norest","8775","6","22","Female","","","","","","","null","<div style=""font-size:60px;"">+</div>","null","fixation","","","","","","","","","37","","",""
"revaluation","158","763066","0.0-4.0-2.0-0.19","spark_pilot_norest","8775","6","22","Female","","","false","","","","[1521.4000000953674,770.0999999046326]","./assets/img/canyon/memory/21.jpg","[""ArrowDown"",""ArrowRight""]","value training","canyon","30","{""ArrowUp,ArrowLeft"":23,""ArrowUp,ArrowRight"":10,""ArrowDown,ArrowLeft"":8,""ArrowDown,ArrowRight"":30}","true","ArrowDown,ArrowRight","false","revaluation","1","38","","",""
"html-keyboard-response","159","763569","0.0-4.0-2.0-1.19","spark_pilot_norest","8775","6","22","Female","","","","","","","null","<div style=""font-size:60px;"">+</div>","null","fixation","","","","","","","","","39","","",""
"revaluation","160","769584","0.0-4.0-2.0-0.20","spark_pilot_norest","8775","6","22","Female","","","false","","","","[902.5999999046326,428.80000019073486]","./assets/img/canyon/memory/8.jpg","[""ArrowDown"",""ArrowRight""]","value training","canyon","30","{""ArrowUp,ArrowLeft"":23,""ArrowUp,ArrowRight"":10,""ArrowDown,ArrowLeft"":8,""ArrowDown,ArrowRight"":30}","true","ArrowDown,ArrowRight","false","revaluation","1","40","","",""
"html-keyboard-response","161","770086","0.0-4.0-2.0-1.20","spark_pilot_norest","8775","6","22","Female","","","","","","","null","<div style=""font-size:60px;"">+</div>","null","fixation","","","","","","","","","41","","",""
"revaluation","162","776097","0.0-4.0-2.0-0.21","spark_pilot_norest","8775","6","22","Female","","","false","","","","[1214.1999998092651,408.3999996185303]","./assets/img/canyon/memory/1.jpg","[""ArrowDown"",""ArrowRight""]","value training","canyon","30","{""ArrowUp,ArrowLeft"":23,""ArrowUp,ArrowRight"":10,""ArrowDown,ArrowLeft"":8,""ArrowDown,ArrowRight"":30}","true","ArrowDown,ArrowRight","false","revaluation","1","42","","",""
"html-keyboard-response","163","776598","0.0-4.0-2.0-1.21","spark_pilot_norest","8775","6","22","Female","","","","","","","null","<div style=""font-size:60px;"">+</div>","null","fixation","","","","","","","","","43","","",""
"revaluation","164","782609","0.0-4.0-2.0-0.22","spark_pilot_norest","8775","6","22","Female","","","false","","","","[1034.6999998092651,390.80000019073486]","./assets/img/canyon/memory/7.jpg","[""ArrowDown"",""ArrowRight""]","value training","canyon","30","{""ArrowUp,ArrowLeft"":23,""ArrowUp,ArrowRight"":10,""ArrowDown,ArrowLeft"":8,""ArrowDown,ArrowRight"":30}","true","ArrowDown,ArrowRight","false","revaluation","1","44","","",""
"html-keyboard-response","165","783110","0.0-4.0-2.0-1.22","spark_pilot_norest","8775","6","22","Female","","","","","","","null","<div style=""font-size:60px;"">+</div>","null","fixation","","","","","","","","","45","","",""
"revaluation","166","789122","0.0-4.0-2.0-0.23","spark_pilot_norest","8775","6","22","Female","","","false","","","","[1461.5999999046326,457.30000019073486]","./assets/img/canyon/memory/15.jpg","[""ArrowDown"",""ArrowRight""]","value training","canyon","30","{""ArrowUp,ArrowLeft"":23,""ArrowUp,ArrowRight"":10,""ArrowDown,ArrowLeft"":8,""ArrowDown,ArrowRight"":30}","true","ArrowDown,ArrowRight","false","revaluation","1","46","","",""
"html-keyboard-response","167","789627","0.0-4.0-2.0-1.23","spark_pilot_norest","8775","6","22","Female","","","","","","","null","<div style=""font-size:60px;"">+</div>","null","fixation","","","","","","","","","47","","",""
"revaluation","168","795640","0.0-4.0-2.0-0.24","spark_pilot_norest","8775","6","22","Female","","","false","","","","[1374.5999999046326,412.19999980926514]","./assets/img/canyon/memory/36.jpg","[""ArrowDown"",""ArrowRight""]","value training","canyon","30","{""ArrowUp,ArrowLeft"":23,""ArrowUp,ArrowRight"":10,""ArrowDown,ArrowLeft"":8,""ArrowDown,ArrowRight"":30}","true","ArrowDown,ArrowRight","false","revaluation","1","48","","",""
"html-keyboard-response","169","796145","0.0-4.0-2.0-1.24","spark_pilot_norest","8775","6","22","Female","","","","","","","null","<div style=""font-size:60px;"">+</div>","null","fixation","","","","","","","","","49","","",""
"revaluation","170","800151","0.0-4.0-2.0-0.25","spark_pilot_norest","8775","6","22","Female","","","false","","","","[770.6000003814697]","./assets/img/canyon/catch/1.jpg","[""spaceBar""]","value training","canyon","0","{""ArrowUp,ArrowLeft"":23,""ArrowUp,ArrowRight"":10,""ArrowDown,ArrowLeft"":8,""ArrowDown,ArrowRight"":30}","true","spaceBar","true","revaluation","1","50","","",""
"html-keyboard-response","171","800652","0.0-4.0-2.0-1.25","spark_pilot_norest","8775","6","22","Female","","","","","","","null","<div style=""font-size:60px;"">+</div>","null","fixation","","","","","","","","","51","","",""
"revaluation","172","806666","0.0-4.0-2.0-0.26","spark_pilot_norest","8775","6","22","Female","","","false","","","","[855.5,378.80000019073486]","./assets/img/canyon/memory/7.jpg","[""ArrowDown"",""ArrowRight""]","value training","canyon","30","{""ArrowUp,ArrowLeft"":23,""ArrowUp,ArrowRight"":10,""ArrowDown,ArrowLeft"":8,""ArrowDown,ArrowRight"":30}","true","ArrowDown,ArrowRight","false","revaluation","1","52","","",""
"html-keyboard-response","173","807170","0.0-4.0-2.0-1.26","spark_pilot_norest","8775","6","22","Female","","","","","","","null","<div style=""font-size:60px;"">+</div>","null","fixation","","","","","","","","","53","","",""
"revaluation","174","813180","0.0-4.0-2.0-0.27","spark_pilot_norest","8775","6","22","Female","","","false","","","","[972.1000003814697,418.59999990463257]","./assets/img/canyon/memory/14.jpg","[""ArrowDown"",""ArrowRight""]","value training","canyon","30","{""ArrowUp,ArrowLeft"":23,""ArrowUp,ArrowRight"":10,""ArrowDown,ArrowLeft"":8,""ArrowDown,ArrowRight"":30}","true","ArrowDown,ArrowRight","false","revaluation","1","54","","",""
"html-keyboard-response","175","813681","0.0-4.0-2.0-1.27","spark_pilot_norest","8775","6","22","Female","","","","","","","null","<div style=""font-size:60px;"">+</div>","null","fixation","","","","","","","","","55","","",""
"revaluation","176","817688","0.0-4.0-2.0-0.28","spark_pilot_norest","8775","6","22","Female","","","false","","","","[590.5]","./assets/img/canyon/catch/5.jpg","[""spaceBar""]","value training","canyon","0","{""ArrowUp,ArrowLeft"":23,""ArrowUp,ArrowRight"":10,""ArrowDown,ArrowLeft"":8,""ArrowDown,ArrowRight"":30}","true","spaceBar","true","revaluation","1","56","","",""
"html-keyboard-response","177","818193","0.0-4.0-2.0-1.28","spark_pilot_norest","8775","6","22","Female","","","","","","","null","<div style=""font-size:60px;"">+</div>","null","fixation","","","","","","","","","57","","",""
"revaluation","178","824204","0.0-4.0-2.0-0.29","spark_pilot_norest","8775","6","22","Female","","","false","","","","[983.1999998092651,450.09999990463257]","./assets/img/canyon/memory/30.jpg","[""ArrowDown"",""ArrowRight""]","value training","canyon","30","{""ArrowUp,ArrowLeft"":23,""ArrowUp,ArrowRight"":10,""ArrowDown,ArrowLeft"":8,""ArrowDown,ArrowRight"":30}","true","ArrowDown,ArrowRight","false","revaluation","1","58","","",""
"html-keyboard-response","179","824705","0.0-4.0-2.0-1.29","spark_pilot_norest","8775","6","22","Female","","","","","","","null","<div style=""font-size:60px;"">+</div>","null","fixation","","","","","","","","","59","","",""
"revaluation","180","830716","0.0-4.0-2.0-0.30","spark_pilot_norest","8775","6","22","Female","","","false","","","","[1392.0999999046326,511.40000009536743]","./assets/img/canyon/memory/1.jpg","[""ArrowDown"",""ArrowRight""]","value training","canyon","30","{""ArrowUp,ArrowLeft"":23,""ArrowUp,ArrowRight"":10,""ArrowDown,ArrowLeft"":8,""ArrowDown,ArrowRight"":30}","true","ArrowDown,ArrowRight","false","revaluation","1","60","","",""
"html-keyboard-response","181","831217","0.0-4.0-2.0-1.30","spark_pilot_norest","8775","6","22","Female","","","","","","","null","<div style=""font-size:60px;"">+</div>","null","fixation","","","","","","","","","61","","",""
"revaluation","182","837230","0.0-4.0-2.0-0.31","spark_pilot_norest","8775","6","22","Female","","","false","","","","[1127.9000000953674,507.69999980926514]","./assets/img/canyon/memory/15.jpg","[""ArrowDown"",""ArrowRight""]","value training","canyon","30","{""ArrowUp,ArrowLeft"":23,""ArrowUp,ArrowRight"":10,""ArrowDown,ArrowLeft"":8,""ArrowDown,ArrowRight"":30}","true","ArrowDown,ArrowRight","false","revaluation","1","62","","",""
"html-keyboard-response","183","837735","0.0-4.0-2.0-1.31","spark_pilot_norest","8775","6","22","Female","","","","","","","null","<div style=""font-size:60px;"">+</div>","null","fixation","","","","","","","","","63","","",""
"revaluation","184","843748","0.0-4.0-2.0-0.32","spark_pilot_norest","8775","6","22","Female","","","false","","","","[1092.1999998092651,514.6999998092651]","./assets/img/canyon/memory/0.jpg","[""ArrowDown"",""ArrowRight""]","value training","canyon","30","{""ArrowUp,ArrowLeft"":23,""ArrowUp,ArrowRight"":10,""ArrowDown,ArrowLeft"":8,""ArrowDown,ArrowRight"":30}","true","ArrowDown,ArrowRight","false","revaluation","1","64","","",""
"html-keyboard-response","185","844252","0.0-4.0-2.0-1.32","spark_pilot_norest","8775","6","22","Female","","","","","","","null","<div style=""font-size:60px;"">+</div>","null","fixation","","","","","","","","","65","","",""
"revaluation","186","850264","0.0-4.0-2.0-0.33","spark_pilot_norest","8775","6","22","Female","","","false","","","","[967.7000002861023,504]","./assets/img/canyon/memory/40.jpg","[""ArrowDown"",""ArrowRight""]","value training","canyon","30","{""ArrowUp,ArrowLeft"":23,""ArrowUp,ArrowRight"":10,""ArrowDown,ArrowLeft"":8,""ArrowDown,ArrowRight"":30}","true","ArrowDown,ArrowRight","false","revaluation","1","66","","",""
"html-keyboard-response","187","850769","0.0-4.0-2.0-1.33","spark_pilot_norest","8775","6","22","Female","","","","","","","null","<div style=""font-size:60px;"">+</div>","null","fixation","","","","","","","","","67","","",""
"revaluation","188","856777","0.0-4.0-2.0-0.34","spark_pilot_norest","8775","6","22","Female","","","false","","","","[1494.5999999046326,438.40000009536743]","./assets/img/canyon/memory/37.jpg","[""ArrowDown"",""ArrowRight""]","value training","canyon","30","{""ArrowUp,ArrowLeft"":23,""ArrowUp,ArrowRight"":10,""ArrowDown,ArrowLeft"":8,""ArrowDown,ArrowRight"":30}","true","ArrowDown,ArrowRight","false","revaluation","1","68","","",""
"html-keyboard-response","189","857282","0.0-4.0-2.0-1.34","spark_pilot_norest","8775","6","22","Female","","","","","","","null","<div style=""font-size:60px;"">+</div>","null","fixation","","","","","","","","","69","","",""
"revaluation","190","863293","0.0-4.0-2.0-0.35","spark_pilot_norest","8775","6","22","Female","","","false","","","","[1391.6000003814697,536.7000002861023]","./assets/img/canyon/memory/32.jpg","[""ArrowDown"",""ArrowRight""]","value training","canyon","30","{""ArrowUp,ArrowLeft"":23,""ArrowUp,ArrowRight"":10,""ArrowDown,ArrowLeft"":8,""ArrowDown,ArrowRight"":30}","true","ArrowDown,ArrowRight","false","revaluation","1","70","","",""
"html-keyboard-response","191","863798","0.0-4.0-2.0-1.35","spark_pilot_norest","8775","6","22","Female","","","","","","","null","<div style=""font-size:60px;"">+</div>","null","fixation","","","","","","","","","71","","",""
"revaluation","192","869813","0.0-4.0-2.0-0.36","spark_pilot_norest","8775","6","22","Female","","","true","","","","[1230.3000001907349]","./assets/img/canyon/memory/36.jpg","[""ArrowDown""]","value training","canyon","-5","{""ArrowUp,ArrowLeft"":23,""ArrowUp,ArrowRight"":10,""ArrowDown,ArrowLeft"":8,""ArrowDown,ArrowRight"":30}","false","ArrowDown","false","revaluation","1","72","","",""
"html-keyboard-response","193","870316","0.0-4.0-2.0-1.36","spark_pilot_norest","8775","6","22","Female","","","","","","","null","<div style=""font-size:60px;"">+</div>","null","fixation","","","","","","","","","73","","",""
"revaluation","194","874324","0.0-4.0-2.0-0.37","spark_pilot_norest","8775","6","22","Female","","","false","","","","[704]","./assets/img/canyon/catch/4.jpg","[""spaceBar""]","value training","canyon","0","{""ArrowUp,ArrowLeft"":23,""ArrowUp,ArrowRight"":10,""ArrowDown,ArrowLeft"":8,""ArrowDown,ArrowRight"":30}","true","spaceBar","true","revaluation","1","74","","",""
"html-keyboard-response","195","874828","0.0-4.0-2.0-1.37","spark_pilot_norest","8775","6","22","Female","","","","","","","null","<div style=""font-size:60px;"">+</div>","null","fixation","","","","","","","","","75","","",""
"revaluation","196","880839","0.0-4.0-2.0-0.38","spark_pilot_norest","8775","6","22","Female","","","false","","","","[1104.5,529.4000000953674]","./assets/img/canyon/memory/34.jpg","[""ArrowDown"",""ArrowRight""]","value training","canyon","30","{""ArrowUp,ArrowLeft"":23,""ArrowUp,ArrowRight"":10,""ArrowDown,ArrowLeft"":8,""ArrowDown,ArrowRight"":30}","true","ArrowDown,ArrowRight","false","revaluation","1","76","","",""
"html-keyboard-response","197","881343","0.0-4.0-2.0-1.38","spark_pilot_norest","8775","6","22","Female","","","","","","","null","<div style=""font-size:60px;"">+</div>","null","fixation","","","","","","","","","77","","",""
"revaluation","198","887359","0.0-4.0-2.0-0.39","spark_pilot_norest","8775","6","22","Female","","","false","","","","[693.4000000953674,418.09999990463257]","./assets/img/canyon/memory/20.jpg","[""ArrowDown"",""ArrowRight""]","value training","canyon","30","{""ArrowUp,ArrowLeft"":23,""ArrowUp,ArrowRight"":10,""ArrowDown,ArrowLeft"":8,""ArrowDown,ArrowRight"":30}","true","ArrowDown,ArrowRight","false","revaluation","1","78","","",""
"html-keyboard-response","199","887863","0.0-4.0-2.0-1.39","spark_pilot_norest","8775","6","22","Female","","","","","","","null","<div style=""font-size:60px;"">+</div>","null","fixation","","","","","","","","","79","","",""
"revaluation","200","893877","0.0-4.0-2.0-0.40","spark_pilot_norest","8775","6","22","Female","","","false","","","","[1073.6999998092651,367.59999990463257]","./assets/img/canyon/memory/10.jpg","[""ArrowDown"",""ArrowRight""]","value training","canyon","30","{""ArrowUp,ArrowLeft"":23,""ArrowUp,ArrowRight"":10,""ArrowDown,ArrowLeft"":8,""ArrowDown,ArrowRight"":30}","true","ArrowDown,ArrowRight","false","revaluation","1","80","","",""
"html-keyboard-response","201","894381","0.0-4.0-2.0-1.40","spark_pilot_norest","8775","6","22","Female","","","","","","","null","<div style=""font-size:60px;"">+</div>","null","fixation","","","","","","","","","81","","",""
"revaluation","202","900393","0.0-4.0-2.0-0.41","spark_pilot_norest","8775","6","22","Female","","","false","","","","[857.2999997138977,388.6000003814697]","./assets/img/canyon/memory/41.jpg","[""ArrowDown"",""ArrowRight""]","value training","canyon","30","{""ArrowUp,ArrowLeft"":23,""ArrowUp,ArrowRight"":10,""ArrowDown,ArrowLeft"":8,""ArrowDown,ArrowRight"":30}","true","ArrowDown,ArrowRight","false","revaluation","1","82","","",""
"html-keyboard-response","203","900899","0.0-4.0-2.0-1.41","spark_pilot_norest","8775","6","22","Female","","","","","","","null","<div style=""font-size:60px;"">+</div>","null","fixation","","","","","","","","","83","","",""
"revaluation","204","906910","0.0-4.0-2.0-0.42","spark_pilot_norest","8775","6","22","Female","","","false","","","","[761.3000001907349,437.5]","./assets/img/canyon/memory/31.jpg","[""ArrowDown"",""ArrowRight""]","value training","canyon","30","{""ArrowUp,ArrowLeft"":23,""ArrowUp,ArrowRight"":10,""ArrowDown,ArrowLeft"":8,""ArrowDown,ArrowRight"":30}","true","ArrowDown,ArrowRight","false","revaluation","1","84","","",""
"html-keyboard-response","205","907415","0.0-4.0-2.0-1.42","spark_pilot_norest","8775","6","22","Female","","","","","","","null","<div style=""font-size:60px;"">+</div>","null","fixation","","","","","","","","","85","","",""
"revaluation","206","913429","0.0-4.0-2.0-0.43","spark_pilot_norest","8775","6","22","Female","","","false","","","","[753.5999999046326,389.19999980926514]","./assets/img/canyon/memory/20.jpg","[""ArrowDown"",""ArrowRight""]","value training","canyon","30","{""ArrowUp,ArrowLeft"":23,""ArrowUp,ArrowRight"":10,""ArrowDown,ArrowLeft"":8,""ArrowDown,ArrowRight"":30}","true","ArrowDown,ArrowRight","false","revaluation","1","86","","",""
"html-keyboard-response","207","913933","0.0-4.0-2.0-1.43","spark_pilot_norest","8775","6","22","Female","","","","","","","null","<div style=""font-size:60px;"">+</div>","null","fixation","","","","","","","","","87","","",""
"revaluation","208","919943","0.0-4.0-2.0-0.44","spark_pilot_norest","8775","6","22","Female","","","false","","","","[1022.5,419.69999980926514]","./assets/img/canyon/memory/12.jpg","[""ArrowDown"",""ArrowRight""]","value training","canyon","30","{""ArrowUp,ArrowLeft"":23,""ArrowUp,ArrowRight"":10,""ArrowDown,ArrowLeft"":8,""ArrowDown,ArrowRight"":30}","true","ArrowDown,ArrowRight","false","revaluation","1","88","","",""
"html-keyboard-response","209","920445","0.0-4.0-2.0-1.44","spark_pilot_norest","8775","6","22","Female","","","","","","","null","<div style=""font-size:60px;"">+</div>","null","fixation","","","","","","","","","89","","",""
"revaluation","210","924454","0.0-4.0-2.0-0.45","spark_pilot_norest","8775","6","22","Female","","","false","","","","[565.6000003814697]","./assets/img/canyon/catch/3.jpg","[""spaceBar""]","value training","canyon","0","{""ArrowUp,ArrowLeft"":23,""ArrowUp,ArrowRight"":10,""ArrowDown,ArrowLeft"":8,""ArrowDown,ArrowRight"":30}","true","spaceBar","true","revaluation","1","90","","",""
"html-keyboard-response","211","924959","0.0-4.0-2.0-1.45","spark_pilot_norest","8775","6","22","Female","","","","","","","null","<div style=""font-size:60px;"">+</div>","null","fixation","","","","","","","","","91","","",""
"revaluation","212","930968","0.0-4.0-2.0-0.46","spark_pilot_norest","8775","6","22","Female","","","false","","","","[748.8000001907349,405.3999996185303]","./assets/img/canyon/memory/17.jpg","[""ArrowDown"",""ArrowRight""]","value training","canyon","30","{""ArrowUp,ArrowLeft"":23,""ArrowUp,ArrowRight"":10,""ArrowDown,ArrowLeft"":8,""ArrowDown,ArrowRight"":30}","true","ArrowDown,ArrowRight","false","revaluation","1","92","","",""
"html-keyboard-response","213","931472","0.0-4.0-2.0-1.46","spark_pilot_norest","8775","6","22","Female","","","","","","","null","<div style=""font-size:60px;"">+</div>","null","fixation","","","","","","","","","93","","",""
"revaluation","214","937485","0.0-4.0-2.0-0.47","spark_pilot_norest","8775","6","22","Female","","","false","","","","[1023.1999998092651,343.19999980926514]","./assets/img/canyon/memory/37.jpg","[""ArrowDown"",""ArrowRight""]","value training","canyon","30","{""ArrowUp,ArrowLeft"":23,""ArrowUp,ArrowRight"":10,""ArrowDown,ArrowLeft"":8,""ArrowDown,ArrowRight"":30}","true","ArrowDown,ArrowRight","false","revaluation","1","94","","",""
"html-keyboard-response","215","937989","0.0-4.0-2.0-1.47","spark_pilot_norest","8775","6","22","Female","","","","","","","null","<div style=""font-size:60px;"">+</div>","null","fixation","","","","","","","","","95","","",""
"revaluation","216","943998","0.0-4.0-2.0-0.48","spark_pilot_norest","8775","6","22","Female","","","false","","","","[702.4000000953674,553.7999997138977]","./assets/img/canyon/memory/14.jpg","[""ArrowDown"",""ArrowRight""]","value training","canyon","30","{""ArrowUp,ArrowLeft"":23,""ArrowUp,ArrowRight"":10,""ArrowDown,ArrowLeft"":8,""ArrowDown,ArrowRight"":30}","true","ArrowDown,ArrowRight","false","revaluation","1","96","","",""
"html-keyboard-response","217","944499","0.0-4.0-2.0-1.48","spark_pilot_norest","8775","6","22","Female","","","","","","","null","<div style=""font-size:60px;"">+</div>","null","fixation","","","","","","","","","97","","",""
"revaluation","218","950509","0.0-4.0-2.0-0.49","spark_pilot_norest","8775","6","22","Female","","","false","","","","[881.1999998092651,695.8000001907349]","./assets/img/canyon/memory/10.jpg","[""ArrowDown"",""ArrowRight""]","value training","canyon","30","{""ArrowUp,ArrowLeft"":23,""ArrowUp,ArrowRight"":10,""ArrowDown,ArrowLeft"":8,""ArrowDown,ArrowRight"":30}","true","ArrowDown,ArrowRight","false","revaluation","1","98","","",""
"html-keyboard-response","219","951011","0.0-4.0-2.0-1.49","spark_pilot_norest","8775","6","22","Female","","","","","","","null","<div style=""font-size:60px;"">+</div>","null","fixation","","","","","","","","","99","","",""
"learning-instructions","220","964581","0.0-4.0-3.0-0.0","spark_pilot_norest","8775","6","22","Female","","","","","","","565.3000001907349","<p> Now, you will travel with a friend who will choose whether you go up or down first. </p>
            <p> On these turns, you will just see the animal that they found. You will still get to choose which chest to search for treasure.</p>","","instructions","","","","","","","","","","","",""
"revaluation","221","968589","0.0-4.0-4.0-0.0","spark_pilot_norest","8775","6","22","Female","","","false","","","","[740.6999998092651]","./assets/img/canyon/animals/lion.jpg","[""ArrowLeft""]","revaluation","canyon","27","{""ArrowUp,ArrowLeft"":27,""ArrowUp,ArrowRight"":15,""ArrowDown,ArrowLeft"":21,""ArrowDown,ArrowRight"":7}","true","ArrowUp,ArrowLeft","","revaluation","1","0","","",""
"html-keyboard-response","222","969096","0.0-4.0-4.0-1.0","spark_pilot_norest","8775","6","22","Female","","","","","","","null","<div style=""font-size:60px;"">+</div>","null","fixation","","","","","","","","","1","","",""
"revaluation","223","973101","0.0-4.0-4.0-0.1","spark_pilot_norest","8775","6","22","Female","","","false","","","","[625.6999998092651]","./assets/img/canyon/animals/lion.jpg","[""ArrowLeft""]","revaluation","canyon","27","{""ArrowUp,ArrowLeft"":27,""ArrowUp,ArrowRight"":15,""ArrowDown,ArrowLeft"":21,""ArrowDown,ArrowRight"":7}","true","ArrowUp,ArrowLeft","","revaluation","1","2","","",""
"html-keyboard-response","224","973604","0.0-4.0-4.0-1.1","spark_pilot_norest","8775","6","22","Female","","","","","","","null","<div style=""font-size:60px;"">+</div>","null","fixation","","","","","","","","","3","","",""
"revaluation","225","977610","0.0-4.0-4.0-0.2","spark_pilot_norest","8775","6","22","Female","","","false","","","","[789.4000000953674]","./assets/img/canyon/animals/giraffe.jpg","[""ArrowRight""]","revaluation","canyon","7","{""ArrowUp,ArrowLeft"":27,""ArrowUp,ArrowRight"":15,""ArrowDown,ArrowLeft"":21,""ArrowDown,ArrowRight"":7}","false","ArrowDown,ArrowRight","","revaluation","1","4","","",""
"html-keyboard-response","226","978112","0.0-4.0-4.0-1.2","spark_pilot_norest","8775","6","22","Female","","","","","","","null","<div style=""font-size:60px;"">+</div>","null","fixation","","","","","","","","","5","","",""
"revaluation","227","982117","0.0-4.0-4.0-0.3","spark_pilot_norest","8775","6","22","Female","","","false","","","","[839.8999996185303]","./assets/img/canyon/animals/giraffe.jpg","[""ArrowLeft""]","revaluation","canyon","21","{""ArrowUp,ArrowLeft"":27,""ArrowUp,ArrowRight"":15,""ArrowDown,ArrowLeft"":21,""ArrowDown,ArrowRight"":7}","true","ArrowDown,ArrowLeft","","revaluation","1","6","","",""
"html-keyboard-response","228","982628","0.0-4.0-4.0-1.3","spark_pilot_norest","8775","6","22","Female","","","","","","","null","<div style=""font-size:60px;"">+</div>","null","fixation","","","","","","","","","7","","",""
"revaluation","229","986633","0.0-4.0-4.0-0.4","spark_pilot_norest","8775","6","22","Female","","","false","","","","[530.0999999046326]","./assets/img/canyon/animals/lion.jpg","[""ArrowRight""]","revaluation","canyon","15","{""ArrowUp,ArrowLeft"":27,""ArrowUp,ArrowRight"":15,""ArrowDown,ArrowLeft"":21,""ArrowDown,ArrowRight"":7}","false","ArrowUp,ArrowRight","","revaluation","1","8","","",""
"html-keyboard-response","230","987136","0.0-4.0-4.0-1.4","spark_pilot_norest","8775","6","22","Female","","","","","","","null","<div style=""font-size:60px;"">+</div>","null","fixation","","","","","","","","","9","","",""
"revaluation","231","991140","0.0-4.0-4.0-0.5","spark_pilot_norest","8775","6","22","Female","","","false","","","","[460.80000019073486]","./assets/img/canyon/animals/lion.jpg","[""ArrowLeft""]","revaluation","canyon","27","{""ArrowUp,ArrowLeft"":27,""ArrowUp,ArrowRight"":15,""ArrowDown,ArrowLeft"":21,""ArrowDown,ArrowRight"":7}","true","ArrowUp,ArrowLeft","","revaluation","1","10","","",""
"html-keyboard-response","232","991642","0.0-4.0-4.0-1.5","spark_pilot_norest","8775","6","22","Female","","","","","","","null","<div style=""font-size:60px;"">+</div>","null","fixation","","","","","","","","","11","","",""
"revaluation","233","995646","0.0-4.0-4.0-0.6","spark_pilot_norest","8775","6","22","Female","","","false","","","","[355.90000009536743]","./assets/img/canyon/animals/lion.jpg","[""ArrowLeft""]","revaluation","canyon","27","{""ArrowUp,ArrowLeft"":27,""ArrowUp,ArrowRight"":15,""ArrowDown,ArrowLeft"":21,""ArrowDown,ArrowRight"":7}","true","ArrowUp,ArrowLeft","","revaluation","1","12","","",""
"html-keyboard-response","234","996147","0.0-4.0-4.0-1.6","spark_pilot_norest","8775","6","22","Female","","","","","","","null","<div style=""font-size:60px;"">+</div>","null","fixation","","","","","","","","","13","","",""
"revaluation","235","1000153","0.0-4.0-4.0-0.7","spark_pilot_norest","8775","6","22","Female","","","false","","","","[386.30000019073486]","./assets/img/canyon/animals/giraffe.jpg","[""ArrowLeft""]","revaluation","canyon","21","{""ArrowUp,ArrowLeft"":27,""ArrowUp,ArrowRight"":15,""ArrowDown,ArrowLeft"":21,""ArrowDown,ArrowRight"":7}","true","ArrowDown,ArrowLeft","","revaluation","1","14","","",""
"html-keyboard-response","236","1000655","0.0-4.0-4.0-1.7","spark_pilot_norest","8775","6","22","Female","","","","","","","null","<div style=""font-size:60px;"">+</div>","null","fixation","","","","","","","","","15","","",""
"revaluation","237","1004659","0.0-4.0-4.0-0.8","spark_pilot_norest","8775","6","22","Female","","","false","","","","[439.59999990463257]","./assets/img/canyon/animals/giraffe.jpg","[""ArrowLeft""]","revaluation","canyon","21","{""ArrowUp,ArrowLeft"":27,""ArrowUp,ArrowRight"":15,""ArrowDown,ArrowLeft"":21,""ArrowDown,ArrowRight"":7}","true","ArrowDown,ArrowLeft","","revaluation","1","16","","",""
"html-keyboard-response","238","1005162","0.0-4.0-4.0-1.8","spark_pilot_norest","8775","6","22","Female","","","","","","","null","<div style=""font-size:60px;"">+</div>","null","fixation","","","","","","","","","17","","",""
"revaluation","239","1009171","0.0-4.0-4.0-0.9","spark_pilot_norest","8775","6","22","Female","","","false","","","","[494.40000009536743]","./assets/img/canyon/animals/giraffe.jpg","[""ArrowLeft""]","revaluation","canyon","21","{""ArrowUp,ArrowLeft"":27,""ArrowUp,ArrowRight"":15,""ArrowDown,ArrowLeft"":21,""ArrowDown,ArrowRight"":7}","true","ArrowDown,ArrowLeft","","revaluation","1","18","","",""
"html-keyboard-response","240","1009674","0.0-4.0-4.0-1.9","spark_pilot_norest","8775","6","22","Female","","","","","","","null","<div style=""font-size:60px;"">+</div>","null","fixation","","","","","","","","","19","","",""
"revaluation","241","1013683","0.0-4.0-4.0-0.10","spark_pilot_norest","8775","6","22","Female","","","false","","","","[502]","./assets/img/canyon/animals/giraffe.jpg","[""ArrowLeft""]","revaluation","canyon","21","{""ArrowUp,ArrowLeft"":27,""ArrowUp,ArrowRight"":15,""ArrowDown,ArrowLeft"":21,""ArrowDown,ArrowRight"":7}","true","ArrowDown,ArrowLeft","","revaluation","1","20","","",""
"html-keyboard-response","242","1014185","0.0-4.0-4.0-1.10","spark_pilot_norest","8775","6","22","Female","","","","","","","null","<div style=""font-size:60px;"">+</div>","null","fixation","","","","","","","","","21","","",""
"revaluation","243","1018192","0.0-4.0-4.0-0.11","spark_pilot_norest","8775","6","22","Female","","","false","","","","[480.59999990463257]","./assets/img/canyon/animals/lion.jpg","[""ArrowLeft""]","revaluation","canyon","27","{""ArrowUp,ArrowLeft"":27,""ArrowUp,ArrowRight"":15,""ArrowDown,ArrowLeft"":21,""ArrowDown,ArrowRight"":7}","true","ArrowUp,ArrowLeft","","revaluation","1","22","","",""
"html-keyboard-response","244","1018696","0.0-4.0-4.0-1.11","spark_pilot_norest","8775","6","22","Female","","","","","","","null","<div style=""font-size:60px;"">+</div>","null","fixation","","","","","","","","","23","","",""
"revaluation","245","1022707","0.0-4.0-4.0-0.12","spark_pilot_norest","8775","6","22","Female","","","false","","","","[354.69999980926514]","./assets/img/canyon/animals/lion.jpg","[""ArrowLeft""]","revaluation","canyon","27","{""ArrowUp,ArrowLeft"":27,""ArrowUp,ArrowRight"":15,""ArrowDown,ArrowLeft"":21,""ArrowDown,ArrowRight"":7}","true","ArrowUp,ArrowLeft","","revaluation","1","24","","",""
"html-keyboard-response","246","1023210","0.0-4.0-4.0-1.12","spark_pilot_norest","8775","6","22","Female","","","","","","","null","<div style=""font-size:60px;"">+</div>","null","fixation","","","","","","","","","25","","",""
"revaluation","247","1027216","0.0-4.0-4.0-0.13","spark_pilot_norest","8775","6","22","Female","","","false","","","","[385.19999980926514]","./assets/img/canyon/animals/lion.jpg","[""ArrowLeft""]","revaluation","canyon","27","{""ArrowUp,ArrowLeft"":27,""ArrowUp,ArrowRight"":15,""ArrowDown,ArrowLeft"":21,""ArrowDown,ArrowRight"":7}","true","ArrowUp,ArrowLeft","","revaluation","1","26","","",""
"html-keyboard-response","248","1027721","0.0-4.0-4.0-1.13","spark_pilot_norest","8775","6","22","Female","","","","","","","null","<div style=""font-size:60px;"">+</div>","null","fixation","","","","","","","","","27","","",""
"revaluation","249","1031731","0.0-4.0-4.0-0.14","spark_pilot_norest","8775","6","22","Female","","","false","","","","[620.5999999046326]","./assets/img/canyon/animals/giraffe.jpg","[""ArrowLeft""]","revaluation","canyon","21","{""ArrowUp,ArrowLeft"":27,""ArrowUp,ArrowRight"":15,""ArrowDown,ArrowLeft"":21,""ArrowDown,ArrowRight"":7}","true","ArrowDown,ArrowLeft","","revaluation","1","28","","",""
"html-keyboard-response","250","1032232","0.0-4.0-4.0-1.14","spark_pilot_norest","8775","6","22","Female","","","","","","","null","<div style=""font-size:60px;"">+</div>","null","fixation","","","","","","","","","29","","",""
"revaluation","251","1036245","0.0-4.0-4.0-0.15","spark_pilot_norest","8775","6","22","Female","","","false","","","","[851.0999999046326]","./assets/img/canyon/animals/lion.jpg","[""ArrowLeft""]","revaluation","canyon","27","{""ArrowUp,ArrowLeft"":27,""ArrowUp,ArrowRight"":15,""ArrowDown,ArrowLeft"":21,""ArrowDown,ArrowRight"":7}","true","ArrowUp,ArrowLeft","","revaluation","1","30","","",""
"html-keyboard-response","252","1036750","0.0-4.0-4.0-1.15","spark_pilot_norest","8775","6","22","Female","","","","","","","null","<div style=""font-size:60px;"">+</div>","null","fixation","","","","","","","","","31","","",""
"revaluation","253","1040760","0.0-4.0-4.0-0.16","spark_pilot_norest","8775","6","22","Female","","","false","","","","[984.8000001907349]","./assets/img/canyon/animals/giraffe.jpg","[""ArrowRight""]","revaluation","canyon","7","{""ArrowUp,ArrowLeft"":27,""ArrowUp,ArrowRight"":15,""ArrowDown,ArrowLeft"":21,""ArrowDown,ArrowRight"":7}","false","ArrowDown,ArrowRight","","revaluation","1","32","","",""
"html-keyboard-response","254","1041264","0.0-4.0-4.0-1.16","spark_pilot_norest","8775","6","22","Female","","","","","","","null","<div style=""font-size:60px;"">+</div>","null","fixation","","","","","","","","","33","","",""
"revaluation","255","1045269","0.0-4.0-4.0-0.17","spark_pilot_norest","8775","6","22","Female","","","false","","","","[442.8999996185303]","./assets/img/canyon/animals/giraffe.jpg","[""ArrowLeft""]","revaluation","canyon","21","{""ArrowUp,ArrowLeft"":27,""ArrowUp,ArrowRight"":15,""ArrowDown,ArrowLeft"":21,""ArrowDown,ArrowRight"":7}","true","ArrowDown,ArrowLeft","","revaluation","1","34","","",""
"html-keyboard-response","256","1045774","0.0-4.0-4.0-1.17","spark_pilot_norest","8775","6","22","Female","","","","","","","null","<div style=""font-size:60px;"">+</div>","null","fixation","","","","","","","","","35","","",""
"learning-instructions","257","1053932","0.0-4.0-5.0-0.0","spark_pilot_norest","8775","6","22","Female","","","","","","","null","<p> You have almost finished this part of the game! </p>
            <p> We are going to ask you to make a few more choices. </p>","","instructions","","","","","","","","","","","",""
"learning-instructions","258","1069904","0.0-4.0-5.0-0.1","spark_pilot_norest","8775","6","22","Female","","","","","","","null","<p> First, you need to decide whether to go up or down. When you see each picture, use the arrow keys to make your choice. </p>
            <p><b>You will not see which animal you found, but try to get to the one that will give you the most treasure.</b></p>","","instructions","","","","","","","","","","","",""
"html-keyboard-response","259","1070908","0.0-4.0-6.0-0.0","spark_pilot_norest","8775","6","22","Female","","","","","","","null","<div style=""font-size:100px;color:red;"">Starting in...</div>","null","","","","","","","","","","","","",""
"html-keyboard-response","260","1071912","0.0-4.0-6.0-1.0","spark_pilot_norest","8775","6","22","Female","","","","","","","null","<div style=""font-size:200px;color:red;"">3</div>","null","","","","","","","","","","","","",""
"html-keyboard-response","261","1072916","0.0-4.0-6.0-2.0","spark_pilot_norest","8775","6","22","Female","","","","","","","null","<div style=""font-size:200px;color:red;"">2</div>","null","","","","","","","","","","","","",""
"html-keyboard-response","262","1073920","0.0-4.0-6.0-3.0","spark_pilot_norest","8775","6","22","Female","","","","","","","null","<div style=""font-size:200px;color:red;"">1</div>","null","","","","","","","","","","","","",""
"revaluation","263","1074505","0.0-4.0-7.0-0.0","spark_pilot_norest","8775","6","22","Female","","","false","","","","[581.7999997138977]","./assets/img/canyon/test/1.jpg","[""ArrowUp""]","first stage test","canyon","0","{""ArrowUp,ArrowLeft"":27,""ArrowUp,ArrowRight"":15,""ArrowDown,ArrowLeft"":21,""ArrowDown,ArrowRight"":7}","true","ArrowUp","false","revaluation","1","","","",""
"html-keyboard-response","264","1075006","0.0-4.0-7.0-1.0","spark_pilot_norest","8775","6","22","Female","","","","","","","null","<div style=""font-size:60px;"">+</div>","null","fixation","","","","","","","","","","","",""
"revaluation","265","1075934","0.0-4.0-7.0-0.1","spark_pilot_norest","8775","6","22","Female","","","false","","","","[925.6999998092651]","./assets/img/canyon/test/2.jpg","[""ArrowUp""]","first stage test","canyon","0","{""ArrowUp,ArrowLeft"":27,""ArrowUp,ArrowRight"":15,""ArrowDown,ArrowLeft"":21,""ArrowDown,ArrowRight"":7}","true","ArrowUp","false","revaluation","1","","","",""
"html-keyboard-response","266","1076435","0.0-4.0-7.0-1.1","spark_pilot_norest","8775","6","22","Female","","","","","","","null","<div style=""font-size:60px;"">+</div>","null","fixation","","","","","","","","","","","",""
"revaluation","267","1077313","0.0-4.0-7.0-0.2","spark_pilot_norest","8775","6","22","Female","","","false","","","","[876.1999998092651]","./assets/img/canyon/test/3.jpg","[""ArrowUp""]","first stage test","canyon","0","{""ArrowUp,ArrowLeft"":27,""ArrowUp,ArrowRight"":15,""ArrowDown,ArrowLeft"":21,""ArrowDown,ArrowRight"":7}","true","ArrowUp","false","revaluation","1","","","",""
"html-keyboard-response","268","1077814","0.0-4.0-7.0-1.2","spark_pilot_norest","8775","6","22","Female","","","","","","","null","<div style=""font-size:60px;"">+</div>","null","fixation","","","","","","","","","","","",""
"revaluation","269","1078827","0.0-4.0-7.0-0.3","spark_pilot_norest","8775","6","22","Female","","","false","","","","[1010.0999999046326]","./assets/img/canyon/test/0.jpg","[""ArrowUp""]","first stage test","canyon","0","{""ArrowUp,ArrowLeft"":27,""ArrowUp,ArrowRight"":15,""ArrowDown,ArrowLeft"":21,""ArrowDown,ArrowRight"":7}","true","ArrowUp","false","revaluation","1","","","",""
"html-keyboard-response","270","1079331","0.0-4.0-7.0-1.3","spark_pilot_norest","8775","6","22","Female","","","","","","","null","<div style=""font-size:60px;"">+</div>","null","fixation","","","","","","","","","","","",""
"learning-instructions","271","1092678","0.0-4.0-8.0-0.0","spark_pilot_norest","8775","6","22","Female","","","","","","","null","<p> Now you will see the animals again and can search their chests for treasure. </p>
            <p> This time, you will not see how much treasure you earned, but you will earn more bonus money for making better choices. </p>","","instructions","","","","","","","","","","","",""
"html-keyboard-response","272","1093679","0.0-4.0-9.0-0.0","spark_pilot_norest","8775","6","22","Female","","","","","","","null","<div style=""font-size:100px;color:red;"">Starting in...</div>","null","","","","","","","","","","","","",""
"html-keyboard-response","273","1094682","0.0-4.0-9.0-1.0","spark_pilot_norest","8775","6","22","Female","","","","","","","null","<div style=""font-size:200px;color:red;"">3</div>","null","","","","","","","","","","","","",""
"html-keyboard-response","274","1095683","0.0-4.0-9.0-2.0","spark_pilot_norest","8775","6","22","Female","","","","","","","null","<div style=""font-size:200px;color:red;"">2</div>","null","","","","","","","","","","","","",""
"html-keyboard-response","275","1096684","0.0-4.0-9.0-3.0","spark_pilot_norest","8775","6","22","Female","","","","","","","null","<div style=""font-size:200px;color:red;"">1</div>","null","","","","","","","","","","","","",""
"revaluation","276","1097292","0.0-4.0-10.0-0.0","spark_pilot_norest","8775","6","22","Female","","","false","","","","[606]","./assets/img/canyon/animals/lion.jpg","[""ArrowLeft""]","second stage test","canyon","0","{""ArrowUp,ArrowLeft"":27,""ArrowUp,ArrowRight"":15,""ArrowDown,ArrowLeft"":21,""ArrowDown,ArrowRight"":7}","true","ArrowUp,ArrowLeft","","revaluation","1","","","",""
"html-keyboard-response","277","1097795","0.0-4.0-10.0-1.0","spark_pilot_norest","8775","6","22","Female","","","","","","","null","<div style=""font-size:60px;"">+</div>","null","fixation","","","","","","","","","","","",""
"revaluation","278","1098212","0.0-4.0-10.0-0.1","spark_pilot_norest","8775","6","22","Female","","","false","","","","[415]","./assets/img/canyon/animals/lion.jpg","[""ArrowLeft""]","second stage test","canyon","0","{""ArrowUp,ArrowLeft"":27,""ArrowUp,ArrowRight"":15,""ArrowDown,ArrowLeft"":21,""ArrowDown,ArrowRight"":7}","true","ArrowUp,ArrowLeft","","revaluation","1","","","",""
"html-keyboard-response","279","1098714","0.0-4.0-10.0-1.1","spark_pilot_norest","8775","6","22","Female","","","","","","","null","<div style=""font-size:60px;"">+</div>","null","fixation","","","","","","","","","","","",""
"revaluation","280","1099091","0.0-4.0-10.0-0.2","spark_pilot_norest","8775","6","22","Female","","","false","","","","[375.2000002861023]","./assets/img/canyon/animals/lion.jpg","[""ArrowLeft""]","second stage test","canyon","0","{""ArrowUp,ArrowLeft"":27,""ArrowUp,ArrowRight"":15,""ArrowDown,ArrowLeft"":21,""ArrowDown,ArrowRight"":7}","true","ArrowUp,ArrowLeft","","revaluation","1","","","",""
"html-keyboard-response","281","1099594","0.0-4.0-10.0-1.2","spark_pilot_norest","8775","6","22","Female","","","","","","","null","<div style=""font-size:60px;"">+</div>","null","fixation","","","","","","","","","","","",""
"revaluation","282","1099953","0.0-4.0-10.0-0.3","spark_pilot_norest","8775","6","22","Female","","","false","","","","[356.90000009536743]","./assets/img/canyon/animals/lion.jpg","[""ArrowLeft""]","second stage test","canyon","0","{""ArrowUp,ArrowLeft"":27,""ArrowUp,ArrowRight"":15,""ArrowDown,ArrowLeft"":21,""ArrowDown,ArrowRight"":7}","true","ArrowUp,ArrowLeft","","revaluation","1","","","",""
"html-keyboard-response","283","1100453","0.0-4.0-10.0-1.3","spark_pilot_norest","8775","6","22","Female","","","","","","","null","<div style=""font-size:60px;"">+</div>","null","fixation","","","","","","","","","","","",""
"revaluation","284","1100979","0.0-4.0-10.0-0.4","spark_pilot_norest","8775","6","22","Female","","","false","","","","[523.9000000953674]","./assets/img/canyon/animals/giraffe.jpg","[""ArrowLeft""]","second stage test","canyon","0","{""ArrowUp,ArrowLeft"":27,""ArrowUp,ArrowRight"":15,""ArrowDown,ArrowLeft"":21,""ArrowDown,ArrowRight"":7}","true","ArrowDown,ArrowLeft","","revaluation","1","","","",""
"html-keyboard-response","285","1101480","0.0-4.0-10.0-1.4","spark_pilot_norest","8775","6","22","Female","","","","","","","null","<div style=""font-size:60px;"">+</div>","null","fixation","","","","","","","","","","","",""
"revaluation","286","1101808","0.0-4.0-10.0-0.5","spark_pilot_norest","8775","6","22","Female","","","false","","","","[325.80000019073486]","./assets/img/canyon/animals/giraffe.jpg","[""ArrowLeft""]","second stage test","canyon","0","{""ArrowUp,ArrowLeft"":27,""ArrowUp,ArrowRight"":15,""ArrowDown,ArrowLeft"":21,""ArrowDown,ArrowRight"":7}","true","ArrowDown,ArrowLeft","","revaluation","1","","","",""
"html-keyboard-response","287","1102310","0.0-4.0-10.0-1.5","spark_pilot_norest","8775","6","22","Female","","","","","","","null","<div style=""font-size:60px;"">+</div>","null","fixation","","","","","","","","","","","",""
"revaluation","288","1102644","0.0-4.0-10.0-0.6","spark_pilot_norest","8775","6","22","Female","","","false","","","","[331.5]","./assets/img/canyon/animals/giraffe.jpg","[""ArrowLeft""]","second stage test","canyon","0","{""ArrowUp,ArrowLeft"":27,""ArrowUp,ArrowRight"":15,""ArrowDown,ArrowLeft"":21,""ArrowDown,ArrowRight"":7}","true","ArrowDown,ArrowLeft","","revaluation","1","","","",""
"html-keyboard-response","289","1103145","0.0-4.0-10.0-1.6","spark_pilot_norest","8775","6","22","Female","","","","","","","null","<div style=""font-size:60px;"">+</div>","null","fixation","","","","","","","","","","","",""
"revaluation","290","1103464","0.0-4.0-10.0-0.7","spark_pilot_norest","8775","6","22","Female","","","false","","","","[317.5]","./assets/img/canyon/animals/giraffe.jpg","[""ArrowLeft""]","second stage test","canyon","0","{""ArrowUp,ArrowLeft"":27,""ArrowUp,ArrowRight"":15,""ArrowDown,ArrowLeft"":21,""ArrowDown,ArrowRight"":7}","true","ArrowDown,ArrowLeft","","revaluation","1","","","",""
"html-keyboard-response","291","1103968","0.0-4.0-10.0-1.7","spark_pilot_norest","8775","6","22","Female","","","","","","","null","<div style=""font-size:60px;"">+</div>","null","fixation","","","","","","","","","","","",""
"learning-instructions","292","1107651","0.0-4.0-0.1-0.2","spark_pilot_norest","8775","6","22","Female","","","","","","","970.5","<p> This time you are searching for treasure in the <b>ocean</b>.</p>","","instructions","","","","","","","","","","","",""
"learning-instructions","293","1125784","0.0-4.0-0.1-0.3","spark_pilot_norest","8775","6","22","Female","","","","","","","879.1999998092651","<p><b>New</b> animals with <b>new</b> treasure chests live here. You need to explore to discover where the animal with the best treasure chest is.</p>
                    <p> Like before, once you figure out which animal has the chest with the most treasure, you should try to get to that animal and select that chest! </p>","","instructions","","","","","","","","","","","",""
"learning-instructions","294","1152609","0.0-4.0-1.1-0.1","spark_pilot_norest","8775","6","22","Female","","","","","","","12094.299999713898","<p> Remember, when you see a picture of the place, use the up and down keys to <b>find an animal</b>.</p>
            <p> When you encounter an animal, you should use the left and right keys to <b>select a treasure chest</b>.</p>
            <p> Don't forget to look out for the robber! </p>","","instructions","","","","","","","","","","","",""
"revaluation","295","1158618","0.0-4.0-2.1-0.50","spark_pilot_norest","8775","6","22","Female","","","false","","","","[1278.2999997138977,815.3000001907349]","./assets/img/ocean/memory/40.jpg","[""ArrowUp"",""ArrowLeft""]","value training","ocean","26","{""ArrowUp,ArrowLeft"":26,""ArrowUp,ArrowRight"":10,""ArrowDown,ArrowLeft"":5,""ArrowDown,ArrowRight"":17}","true","ArrowUp,ArrowLeft","false","original","2","0","","",""
"html-keyboard-response","296","1159120","0.0-4.0-2.1-1.50","spark_pilot_norest","8775","6","22","Female","","","","","","","null","<div style=""font-size:60px;"">+</div>","null","fixation","","","","","","","","","1","","",""
"revaluation","297","1165129","0.0-4.0-2.1-0.51","spark_pilot_norest","8775","6","22","Female","","","false","","","","[635.2000002861023,345]","./assets/img/ocean/memory/15.jpg","[""ArrowUp"",""ArrowRight""]","value training","ocean","10","{""ArrowUp,ArrowLeft"":26,""ArrowUp,ArrowRight"":10,""ArrowDown,ArrowLeft"":5,""ArrowDown,ArrowRight"":17}","false","ArrowUp,ArrowRight","false","original","2","2","","",""
"html-keyboard-response","298","1165631","0.0-4.0-2.1-1.51","spark_pilot_norest","8775","6","22","Female","","","","","","","null","<div style=""font-size:60px;"">+</div>","null","fixation","","","","","","","","","3","","",""
"revaluation","299","1171635","0.0-4.0-2.1-0.52","spark_pilot_norest","8775","6","22","Female","","","false","","","","[1199.8000001907349,458.09999990463257]","./assets/img/ocean/memory/21.jpg","[""ArrowDown"",""ArrowLeft""]","value training","ocean","5","{""ArrowUp,ArrowLeft"":26,""ArrowUp,ArrowRight"":10,""ArrowDown,ArrowLeft"":5,""ArrowDown,ArrowRight"":17}","false","ArrowDown,ArrowLeft","false","original","2","4","","",""
"html-keyboard-response","300","1172138","0.0-4.0-2.1-1.52","spark_pilot_norest","8775","6","22","Female","","","","","","","null","<div style=""font-size:60px;"">+</div>","null","fixation","","","","","","","","","5","","",""
"revaluation","301","1178149","0.0-4.0-2.1-0.53","spark_pilot_norest","8775","6","22","Female","","","false","","","","[745.5999999046326,445.5]","./assets/img/ocean/memory/15.jpg","[""ArrowDown"",""ArrowRight""]","value training","ocean","17","{""ArrowUp,ArrowLeft"":26,""ArrowUp,ArrowRight"":10,""ArrowDown,ArrowLeft"":5,""ArrowDown,ArrowRight"":17}","false","ArrowDown,ArrowRight","false","original","2","6","","",""
"html-keyboard-response","302","1178653","0.0-4.0-2.1-1.53","spark_pilot_norest","8775","6","22","Female","","","","","","","null","<div style=""font-size:60px;"">+</div>","null","fixation","","","","","","","","","7","","",""
"revaluation","303","1184666","0.0-4.0-2.1-0.54","spark_pilot_norest","8775","6","22","Female","","","false","","","","[1111.5,737.2000002861023]","./assets/img/ocean/memory/16.jpg","[""ArrowUp"",""ArrowLeft""]","value training","ocean","26","{""ArrowUp,ArrowLeft"":26,""ArrowUp,ArrowRight"":10,""ArrowDown,ArrowLeft"":5,""ArrowDown,ArrowRight"":17}","true","ArrowUp,ArrowLeft","false","original","2","8","","",""
"html-keyboard-response","304","1185170","0.0-4.0-2.1-1.54","spark_pilot_norest","8775","6","22","Female","","","","","","","null","<div style=""font-size:60px;"">+</div>","null","fixation","","","","","","","","","9","","",""
"revaluation","305","1191182","0.0-4.0-2.1-0.55","spark_pilot_norest","8775","6","22","Female","","","false","","","","[674.7000002861023,457.90000009536743]","./assets/img/ocean/memory/37.jpg","[""ArrowUp"",""ArrowLeft""]","value training","ocean","26","{""ArrowUp,ArrowLeft"":26,""ArrowUp,ArrowRight"":10,""ArrowDown,ArrowLeft"":5,""ArrowDown,ArrowRight"":17}","true","ArrowUp,ArrowLeft","false","original","2","10","","",""
"html-keyboard-response","306","1191683","0.0-4.0-2.1-1.55","spark_pilot_norest","8775","6","22","Female","","","","","","","null","<div style=""font-size:60px;"">+</div>","null","fixation","","","","","","","","","11","","",""
"revaluation","307","1195689","0.0-4.0-2.1-0.56","spark_pilot_norest","8775","6","22","Female","","","false","","","","[628.7000002861023]","./assets/img/ocean/catch/1.jpg","[""spaceBar""]","value training","ocean","0","{""ArrowUp,ArrowLeft"":26,""ArrowUp,ArrowRight"":10,""ArrowDown,ArrowLeft"":5,""ArrowDown,ArrowRight"":17}","true","spaceBar","true","original","2","12","","",""
"html-keyboard-response","308","1196195","0.0-4.0-2.1-1.56","spark_pilot_norest","8775","6","22","Female","","","","","","","null","<div style=""font-size:60px;"">+</div>","null","fixation","","","","","","","","","13","","",""
"revaluation","309","1202206","0.0-4.0-2.1-0.57","spark_pilot_norest","8775","6","22","Female","","","false","","","","[740.9000000953674,468.69999980926514]","./assets/img/ocean/memory/1.jpg","[""ArrowUp"",""ArrowLeft""]","value training","ocean","26","{""ArrowUp,ArrowLeft"":26,""ArrowUp,ArrowRight"":10,""ArrowDown,ArrowLeft"":5,""ArrowDown,ArrowRight"":17}","true","ArrowUp,ArrowLeft","false","original","2","14","","",""
