"trial_type","trial_index","time_elapsed","internal_node_id","task_version","subject_id","assigned_condition","age","gender","success","timeout","failed_images","failed_audio","failed_video","browser_interaction","rt","stimulus","response","task_part","environment","score","rewardMap","correct","fullState","isCatch","condition","order","trial_num","key_press","ground_truth","bonus"
"pavlovia","0","1490","0.0-0.0","spark_pilot_norest","8469","3","20","Male","","","","","","","","","","","","","","","","","","","","","",""
"preload","1","38189","0.0-1.0","spark_pilot_norest","8469","3","20","Male","true","false","[]","[]","[]","[{""event"":""fullscreenenter"",""trial"":2,""time"":77711}]","","","","","","","","","","","","","","","",""
"fullscreen","2","78693","0.0-2.0","spark_pilot_norest","8469","3","20","Male","true","","","","","","","","","","","","","","","","","","","","",""
"audio-button-response","3","80408","0.0-3.0-0.0-0.0","spark_pilot_norest","8469","3","20","Male","","","","","","","1480","./assets/audio/audiotest/turtle.mp3","2","audio_test","","","","","","","","","","","",""
"learning-instructions","4","90195","0.0-3.0-1.0-0.0","spark_pilot_norest","8469","3","20","Male","","","","","","","2787","<p> Welcome! Please remember to stay in fullscreen mode and don't click away from the experiment. </p>","","instructions","","","","","","","","","","","",""
"learning-instructions","5","100399","0.0-3.0-1.0-0.1","spark_pilot_norest","8469","3","20","Male","","","","","","","1781.9000000953674","<p> Today you will be playing a game to earn treasure. </p>
            <p> At the end of the experiment, you will earn a bonus based on how much treasure you find. </p>
            <img src='./assets/img/instructions/treasure.jpg' class='instructions-image'>","","instructions","","","","","","","","","","","",""
"learning-instructions","6","118624","0.0-3.0-1.0-0.2","spark_pilot_norest","8469","3","20","Male","","","","","","","9956.099999904633","<p> Animals have hidden treasure in treasure chests. </p>
            <p> You need to first find an animal and then choose which of their treasure chests to search. </p>
            <img src='./assets/img/space/animals/cat.jpg' class='instructions-image'>","","instructions","","","","","","","","","","","",""
"learning-instructions","7","133681","0.0-3.0-1.0-0.3","spark_pilot_norest","8469","3","20","Male","","","","","","","1904","<p> In each round, you will search for treasure in a different place. In the real game, there will be two rounds. </p>
            <p> You will begin with a separate, practice round where you will search for treasure in outer space. </p>
            <img src='./assets/img/space/0.jpg' class='instructions-image'>","","instructions","","","","","","","","","","","",""
"learning-instructions","8","146120","0.0-3.0-1.0-0.4","spark_pilot_norest","8469","3","20","Male","","","","","","","1011.9000000953674","<p> On every turn, you will see a picture of the place that you are in, but the specific image may be different each time. </p>
            <p> For example, both of these images mean you are in outer space. </p>
            <img src='./assets/img/instructions/outerspace.jpg' class='instructions-image'>","","instructions","","","","","","","","","","","",""
"learning-instructions","9","155128","0.0-3.0-1.0-0.5","spark_pilot_norest","8469","3","20","Male","","","","","","","1191.1999998092651","<p> You need to decide which direction to travel in. </p>
            <p> You can choose between going <b>up or down</b> by using the arrow keys. </p>
            <img src='./assets/img/instructions/updown.jpg' class='instructions-image'>","","instructions","","","","","","","","","","","",""
"learning-instructions","10","165048","0.0-3.0-1.0-0.6","spark_pilot_norest","8469","3","20","Male","","","","","","","1101.7999997138977","<p> You will have <b>2 seconds</b> to make your choice. </p>
            <p> If you do not make a choice within 2 seconds, you will not find an animal or earn treasure. </p>
            <img src='./assets/img/instructions/2seconds.jpg' class='instructions-image'>","","instructions","","","","","","","","","","","",""
"learning-instructions","11","174128","0.0-3.0-1.0-0.7","spark_pilot_norest","8469","3","20","Male","","","","","","","2028.9000000953674","<p> Let’s try practicing that now! </p>
            <p> When you see a picture of the place you are in, press the <b>up</b> key to travel up. </p>
            <img src='./assets/img/instructions/pressUp.jpg' class='instructions-image'>","","instructions","","","","","","","","","","","",""
"revaluation","12","178172","0.0-3.0-2.0-0.0","spark_pilot_norest","8469","3","20","Male","","false","","","","","[1429.4000000953674]","./assets/img/space/0.jpg","[""ArrowUp""]","first stage practice","space","0","null","null","ArrowUp","false","","","","","",""
"html-keyboard-response","13","178686","0.0-3.0-2.0-1.0","spark_pilot_norest","8469","3","20","Male","","","","","","","null","<div style=""font-size:60px;"">+</div>","null","fixation","","","","","","","","","","","",""
"revaluation","14","182713","0.0-3.0-2.0-0.1","spark_pilot_norest","8469","3","20","Male","","false","","","","","[829]","./assets/img/space/1.jpg","[""ArrowUp""]","first stage practice","space","0","null","null","ArrowUp","false","","","","","",""
"html-keyboard-response","15","183226","0.0-3.0-2.0-1.1","spark_pilot_norest","8469","3","20","Male","","","","","","","null","<div style=""font-size:60px;"">+</div>","null","fixation","","","","","","","","","","","",""
"revaluation","16","187246","0.0-3.0-2.0-0.2","spark_pilot_norest","8469","3","20","Male","","false","","","","","[808.5999999046326]","./assets/img/space/2.jpg","[""ArrowUp""]","first stage practice","space","0","null","null","ArrowUp","false","","","","","",""
"html-keyboard-response","17","187752","0.0-3.0-2.0-1.2","spark_pilot_norest","8469","3","20","Male","","","","","","","null","<div style=""font-size:60px;"">+</div>","null","fixation","","","","","","","","","","","",""
"learning-instructions","18","192884","0.0-3.0-3.0-0.0","spark_pilot_norest","8469","3","20","Male","","","","","","","397.59999990463257","<p> Great job! Now try pressing the <b>down</b> key to travel down. </p>
            <img src='./assets/img/instructions/pressDown.jpg' class='instructions-image'>","","instructions","","","","","","","","","","","",""
"revaluation","19","196899","0.0-3.0-4.0-0.0","spark_pilot_norest","8469","3","20","Male","","false","","","","","[1119.9000000953674]","./assets/img/space/3.jpg","[""ArrowDown""]","first stage practice","space","0","null","null","ArrowDown","false","","","","","",""
"html-keyboard-response","20","197412","0.0-3.0-4.0-1.0","spark_pilot_norest","8469","3","20","Male","","","","","","","null","<div style=""font-size:60px;"">+</div>","null","fixation","","","","","","","","","","","",""
"revaluation","21","201436","0.0-3.0-4.0-0.1","spark_pilot_norest","8469","3","20","Male","","false","","","","","[691.0999999046326]","./assets/img/space/4.jpg","[""ArrowDown""]","first stage practice","space","0","null","null","ArrowDown","false","","","","","",""
"html-keyboard-response","22","201951","0.0-3.0-4.0-1.1","spark_pilot_norest","8469","3","20","Male","","","","","","","null","<div style=""font-size:60px;"">+</div>","null","fixation","","","","","","","","","","","",""
"revaluation","23","205978","0.0-3.0-4.0-0.2","spark_pilot_norest","8469","3","20","Male","","false","","","","","[553.7000002861023]","./assets/img/space/5.jpg","[""ArrowDown""]","first stage practice","space","0","null","null","ArrowDown","false","","","","","",""
"html-keyboard-response","24","206491","0.0-3.0-4.0-1.2","spark_pilot_norest","8469","3","20","Male","","","","","","","null","<div style=""font-size:60px;"">+</div>","null","fixation","","","","","","","","","","","",""
"learning-instructions","25","217144","0.0-3.0-5.0-0.0","spark_pilot_norest","8469","3","20","Male","","","","","","","757.5","<p> The animals don’t move, so the animal in the upper part of a place will stay in the upper part of a place, and the animal in the lower part of a place will stay in the lower part of a place. </p>","","instructions","","","","","","","","","","","",""
"learning-instructions","26","227000","0.0-3.0-5.0-0.1","spark_pilot_norest","8469","3","20","Male","","","","","","","732.0999999046326","<p> Each animal has two treasure chests for you to choose from. </p>
            <p> The amount of treasure in each chest can range from <b> 0 to 40 pieces.</b></p>","","instructions","","","","","","","","","","","",""
"learning-instructions","27","238753","0.0-3.0-5.0-0.2","spark_pilot_norest","8469","3","20","Male","","","","","","","564.3999996185303","<p> You should decide which chest to search for treasure by using the <b>left</b> and <b>right</b> arrow keys. </p>
            <p><b> Pay attention to which animal is on the screen, as the animals have different treasure chests. </b></p>
            <img src='./assets/img/instructions/leftright.jpg' class='instructions-image'>","","instructions","","","","","","","","","","","",""
"learning-instructions","28","245976","0.0-3.0-5.0-0.3","spark_pilot_norest","8469","3","20","Male","","","","","","","858.5","<p> Let’s try practicing that now. </p>
            <p> When you see an animal, choose which chest to search for treasure. </p>
            <img src='./assets/img/instructions/chooseChest.jpg' class='instructions-image'>","","instructions","","","","","","","","","","","",""
"revaluation","29","249994","0.0-3.0-6.0-0.0","spark_pilot_norest","8469","3","20","Male","","false","","","","","[1420.3000001907349]","./assets/img/space/animals/cat.jpg","[""ArrowLeft""]","second stage practice","space","3","{""ArrowUp,ArrowLeft"":3,""ArrowUp,ArrowRight"":36,""ArrowDown,ArrowLeft"":15,""ArrowDown,ArrowRight"":23}","false","ArrowUp,ArrowLeft","","","","","","",""
"html-keyboard-response","30","250509","0.0-3.0-6.0-1.0","spark_pilot_norest","8469","3","20","Male","","","","","","","null","<div style=""font-size:60px;"">+</div>","null","fixation","","","","","","","","","","","",""
"revaluation","31","254534","0.0-3.0-6.0-0.1","spark_pilot_norest","8469","3","20","Male","","false","","","","","[893.6999998092651]","./assets/img/space/animals/rabbit.jpg","[""ArrowLeft""]","second stage practice","space","15","{""ArrowUp,ArrowLeft"":3,""ArrowUp,ArrowRight"":36,""ArrowDown,ArrowLeft"":15,""ArrowDown,ArrowRight"":23}","false","ArrowDown,ArrowLeft","","","","","","",""
"html-keyboard-response","32","255046","0.0-3.0-6.0-1.1","spark_pilot_norest","8469","3","20","Male","","","","","","","null","<div style=""font-size:60px;"">+</div>","null","fixation","","","","","","","","","","","",""
"revaluation","33","259072","0.0-3.0-6.0-0.2","spark_pilot_norest","8469","3","20","Male","","false","","","","","[1011.5999999046326]","./assets/img/space/animals/cat.jpg","[""ArrowRight""]","second stage practice","space","36","{""ArrowUp,ArrowLeft"":3,""ArrowUp,ArrowRight"":36,""ArrowDown,ArrowLeft"":15,""ArrowDown,ArrowRight"":23}","true","ArrowUp,ArrowRight","","","","","","",""
"html-keyboard-response","34","259586","0.0-3.0-6.0-1.2","spark_pilot_norest","8469","3","20","Male","","","","","","","null","<div style=""font-size:60px;"">+</div>","null","fixation","","","","","","","","","","","",""
"revaluation","35","263608","0.0-3.0-6.0-0.3","spark_pilot_norest","8469","3","20","Male","","false","","","","","[1073.7999997138977]","./assets/img/space/animals/rabbit.jpg","[""ArrowLeft""]","second stage practice","space","15","{""ArrowUp,ArrowLeft"":3,""ArrowUp,ArrowRight"":36,""ArrowDown,ArrowLeft"":15,""ArrowDown,ArrowRight"":23}","false","ArrowDown,ArrowLeft","","","","","","",""
"html-keyboard-response","36","264122","0.0-3.0-6.0-1.3","spark_pilot_norest","8469","3","20","Male","","","","","","","null","<div style=""font-size:60px;"">+</div>","null","fixation","","","","","","","","","","","",""
"learning-instructions","37","285784","0.0-3.0-7.0-0.0","spark_pilot_norest","8469","3","20","Male","","","","","","","4847.099999904633","<p> Great job. Now let’s try putting it together. </p>
            <p> On each turn, you will first see a picture to remind you of the place you are in, and you need to choose whether to go up or down. </p>
            <p> Then you will see an animal and choose which of its chests to search for treasure. </p>","","instructions","","","","","","","","","","","",""
"learning-instructions","38","295449","0.0-3.0-7.0-0.1","spark_pilot_norest","8469","3","20","Male","","","","","","","1412.0999999046326","<p> When you choose whether to go up or down, try to go to the animal with the chest with the most treasure. </p>
            <p> Try practicing that now! </p>","","instructions","","","","","","","","","","","",""
"revaluation","39","301479","0.0-3.0-8.0-0.0","spark_pilot_norest","8469","3","20","Male","","false","","","","","[1127.5999999046326,577.1999998092651]","./assets/img/space/6.jpg","[""ArrowUp"",""ArrowLeft""]","full practice","space","3","{""ArrowUp,ArrowLeft"":3,""ArrowUp,ArrowRight"":36,""ArrowDown,ArrowLeft"":15,""ArrowDown,ArrowRight"":23}","false","ArrowUp,ArrowLeft","false","","","","","",""
"html-keyboard-response","40","301995","0.0-3.0-8.0-1.0","spark_pilot_norest","8469","3","20","Male","","","","","","","null","<div style=""font-size:60px;"">+</div>","null","fixation","","","","","","","","","","","",""
"revaluation","41","308033","0.0-3.0-8.0-0.1","spark_pilot_norest","8469","3","20","Male","","false","","","","","[632.5,511.5]","./assets/img/space/7.jpg","[""ArrowUp"",""ArrowRight""]","full practice","space","36","{""ArrowUp,ArrowLeft"":3,""ArrowUp,ArrowRight"":36,""ArrowDown,ArrowLeft"":15,""ArrowDown,ArrowRight"":23}","true","ArrowUp,ArrowRight","false","","","","","",""
"html-keyboard-response","42","308546","0.0-3.0-8.0-1.1","spark_pilot_norest","8469","3","20","Male","","","","","","","null","<div style=""font-size:60px;"">+</div>","null","fixation","","","","","","","","","","","",""
"revaluation","43","314573","0.0-3.0-8.0-0.2","spark_pilot_norest","8469","3","20","Male","","false","","","","","[747.0999999046326,357.8999996185303]","./assets/img/space/8.jpg","[""ArrowUp"",""ArrowRight""]","full practice","space","36","{""ArrowUp,ArrowLeft"":3,""ArrowUp,ArrowRight"":36,""ArrowDown,ArrowLeft"":15,""ArrowDown,ArrowRight"":23}","true","ArrowUp,ArrowRight","false","","","","","",""
"html-keyboard-response","44","315085","0.0-3.0-8.0-1.2","spark_pilot_norest","8469","3","20","Male","","","","","","","null","<div style=""font-size:60px;"">+</div>","null","fixation","","","","","","","","","","","",""
"revaluation","45","321114","0.0-3.0-8.0-0.3","spark_pilot_norest","8469","3","20","Male","","false","","","","","[550.8000001907349,335.40000009536743]","./assets/img/space/9.jpg","[""ArrowDown"",""ArrowRight""]","full practice","space","23","{""ArrowUp,ArrowLeft"":3,""ArrowUp,ArrowRight"":36,""ArrowDown,ArrowLeft"":15,""ArrowDown,ArrowRight"":23}","false","ArrowDown,ArrowRight","false","","","","","",""
"html-keyboard-response","46","321624","0.0-3.0-8.0-1.3","spark_pilot_norest","8469","3","20","Male","","","","","","","null","<div style=""font-size:60px;"">+</div>","null","fixation","","","","","","","","","","","",""
"revaluation","47","327641","0.0-3.0-8.0-0.4","spark_pilot_norest","8469","3","20","Male","","false","","","","","[279.2999997138977,339.8999996185303]","./assets/img/space/10.jpg","[""ArrowDown"",""ArrowLeft""]","full practice","space","15","{""ArrowUp,ArrowLeft"":3,""ArrowUp,ArrowRight"":36,""ArrowDown,ArrowLeft"":15,""ArrowDown,ArrowRight"":23}","false","ArrowDown,ArrowLeft","false","","","","","",""
"html-keyboard-response","48","328144","0.0-3.0-8.0-1.4","spark_pilot_norest","8469","3","20","Male","","","","","","","null","<div style=""font-size:60px;"">+</div>","null","fixation","","","","","","","","","","","",""
"learning-instructions","49","339777","0.0-3.0-9.0-0.0","spark_pilot_norest","8469","3","20","Male","","","","","","","1315.5999999046326","<p> One last thing: sometimes, you will see a robber. The robber can be anywhere in the picture. </p>
            <p> If you do not stop them, you will lose treasure. </p>
            <img src='./assets/img/instructions/robber.jpg' class='instructions-image'>","","instructions","","","","","","","","","","","",""
"learning-instructions","50","347456","0.0-3.0-9.0-0.1","spark_pilot_norest","8469","3","20","Male","","","","","","","513.8000001907349","<p> If you see the robber, you should <b>press the space bar</b> rather than using the arrow keys. </p>
            <p> Try practicing that now! </p>","","instructions","","","","","","","","","","","",""
"revaluation","51","351464","0.0-3.0-10.0-0.0","spark_pilot_norest","8469","3","20","Male","","false","","","","","[1207.1999998092651]","./assets/img/space/catch/0.jpg","[""spaceBar""]","catch practice","space","0","{""ArrowUp,ArrowLeft"":3,""ArrowUp,ArrowRight"":36,""ArrowDown,ArrowLeft"":15,""ArrowDown,ArrowRight"":23}","true","spaceBar","true","","","","","",""
"html-keyboard-response","52","351977","0.0-3.0-10.0-1.0","spark_pilot_norest","8469","3","20","Male","","","","","","","null","<div style=""font-size:60px;"">+</div>","null","fixation","","","","","","","","","","","",""
"revaluation","53","356001","0.0-3.0-10.0-0.1","spark_pilot_norest","8469","3","20","Male","","false","","","","","[615.0999999046326]","./assets/img/space/catch/1.jpg","[""spaceBar""]","catch practice","space","0","{""ArrowUp,ArrowLeft"":3,""ArrowUp,ArrowRight"":36,""ArrowDown,ArrowLeft"":15,""ArrowDown,ArrowRight"":23}","true","spaceBar","true","","","","","",""
"html-keyboard-response","54","356516","0.0-3.0-10.0-1.1","spark_pilot_norest","8469","3","20","Male","","","","","","","null","<div style=""font-size:60px;"">+</div>","null","fixation","","","","","","","","","","","",""
"revaluation","55","360537","0.0-3.0-10.0-0.2","spark_pilot_norest","8469","3","20","Male","","false","","","","","[603.2000002861023]","./assets/img/space/catch/2.jpg","[""spaceBar""]","catch practice","space","0","{""ArrowUp,ArrowLeft"":3,""ArrowUp,ArrowRight"":36,""ArrowDown,ArrowLeft"":15,""ArrowDown,ArrowRight"":23}","true","spaceBar","true","","","","","",""
"html-keyboard-response","56","361052","0.0-3.0-10.0-1.2","spark_pilot_norest","8469","3","20","Male","","","","","","","null","<div style=""font-size:60px;"">+</div>","null","fixation","","","","","","","","","","","",""
"learning-instructions","57","367904","0.0-3.0-11.0-0.0-0.0","spark_pilot_norest","8469","3","20","Male","","","","","","","1572.7000002861023","<p> Now, you will practice a shortened version of the game to get a sense of how it all fits together. </p>","","instructions","","","","","","","","","","","",""
"learning-instructions","58","371784","0.0-3.0-11.0-0.0-0.1","spark_pilot_norest","8469","3","20","Male","","","","","","","694.5999999046326","<p>This time you are searching for treasure in outer space.</p>","","instructions","","","","","","","","","","","",""
"learning-instructions","59","388337","0.0-3.0-11.0-1.0-0.0","spark_pilot_norest","8469","3","20","Male","","","","","","","1775.3000001907349","<p> Remember, when you see a picture of the place, use the up and down keys to <b>find an animal</b>.</p>
            <p> When you encounter an animal, you should use the left and right keys to <b>select a treasure chest</b>.</p>
            <p> Don't forget to look out for the robber! </p>","","instructions","","","","","","","","","","","",""
"revaluation","60","394346","0.0-3.0-11.0-2.0-0.0","spark_pilot_norest","8469","3","20","Male","","false","","","","","[943.9000000953674,803.5]","./assets/img/space/11.jpg","[""ArrowUp"",""ArrowRight""]","practice block","space","36","{""ArrowUp,ArrowLeft"":3,""ArrowUp,ArrowRight"":36,""ArrowDown,ArrowLeft"":15,""ArrowDown,ArrowRight"":23}","true","ArrowUp,ArrowRight","false","","","","","",""
"html-keyboard-response","61","394861","0.0-3.0-11.0-2.0-1.0","spark_pilot_norest","8469","3","20","Male","","","","","","","null","<div style=""font-size:60px;"">+</div>","null","fixation","","","","","","","","","","","",""
"revaluation","62","400887","0.0-3.0-11.0-2.0-0.1","spark_pilot_norest","8469","3","20","Male","","false","","","","","[722.5,366.40000009536743]","./assets/img/space/12.jpg","[""ArrowUp"",""ArrowRight""]","practice block","space","36","{""ArrowUp,ArrowLeft"":3,""ArrowUp,ArrowRight"":36,""ArrowDown,ArrowLeft"":15,""ArrowDown,ArrowRight"":23}","true","ArrowUp,ArrowRight","false","","","","","",""
"html-keyboard-response","63","401397","0.0-3.0-11.0-2.0-1.1","spark_pilot_norest","8469","3","20","Male","","","","","","","null","<div style=""font-size:60px;"">+</div>","null","fixation","","","","","","","","","","","",""
"revaluation","64","407436","0.0-3.0-11.0-2.0-0.2","spark_pilot_norest","8469","3","20","Male","","false","","","","","[717.6000003814697,286.90000009536743]","./assets/img/space/13.jpg","[""ArrowUp"",""ArrowRight""]","practice block","space","36","{""ArrowUp,ArrowLeft"":3,""ArrowUp,ArrowRight"":36,""ArrowDown,ArrowLeft"":15,""ArrowDown,ArrowRight"":23}","true","ArrowUp,ArrowRight","false","","","","","",""
"html-keyboard-response","65","407952","0.0-3.0-11.0-2.0-1.2","spark_pilot_norest","8469","3","20","Male","","","","","","","null","<div style=""font-size:60px;"">+</div>","null","fixation","","","","","","","","","","","",""
"revaluation","66","413977","0.0-3.0-11.0-2.0-0.3","spark_pilot_norest","8469","3","20","Male","","false","","","","","[499.5,283.90000009536743]","./assets/img/space/14.jpg","[""ArrowUp"",""ArrowRight""]","practice block","space","36","{""ArrowUp,ArrowLeft"":3,""ArrowUp,ArrowRight"":36,""ArrowDown,ArrowLeft"":15,""ArrowDown,ArrowRight"":23}","true","ArrowUp,ArrowRight","false","","","","","",""
"html-keyboard-response","67","414492","0.0-3.0-11.0-2.0-1.3","spark_pilot_norest","8469","3","20","Male","","","","","","","null","<div style=""font-size:60px;"">+</div>","null","fixation","","","","","","","","","","","",""
"revaluation","68","420503","0.0-3.0-11.0-2.0-0.4","spark_pilot_norest","8469","3","20","Male","","false","","","","","[622.8000001907349,297.80000019073486]","./assets/img/space/11.jpg","[""ArrowUp"",""ArrowRight""]","practice block","space","36","{""ArrowUp,ArrowLeft"":3,""ArrowUp,ArrowRight"":36,""ArrowDown,ArrowLeft"":15,""ArrowDown,ArrowRight"":23}","true","ArrowUp,ArrowRight","false","","","","","",""
"html-keyboard-response","69","421005","0.0-3.0-11.0-2.0-1.4","spark_pilot_norest","8469","3","20","Male","","","","","","","null","<div style=""font-size:60px;"">+</div>","null","fixation","","","","","","","","","","","",""
"revaluation","70","427014","0.0-3.0-11.0-2.0-0.5","spark_pilot_norest","8469","3","20","Male","","false","","","","","[618.7999997138977,278.7999997138977]","./assets/img/space/12.jpg","[""ArrowUp"",""ArrowRight""]","practice block","space","36","{""ArrowUp,ArrowLeft"":3,""ArrowUp,ArrowRight"":36,""ArrowDown,ArrowLeft"":15,""ArrowDown,ArrowRight"":23}","true","ArrowUp,ArrowRight","false","","","","","",""
"html-keyboard-response","71","427516","0.0-3.0-11.0-2.0-1.5","spark_pilot_norest","8469","3","20","Male","","","","","","","null","<div style=""font-size:60px;"">+</div>","null","fixation","","","","","","","","","","","",""
"revaluation","72","433522","0.0-3.0-11.0-2.0-0.6","spark_pilot_norest","8469","3","20","Male","","false","","","","","[524.6999998092651,384.19999980926514]","./assets/img/space/13.jpg","[""ArrowUp"",""ArrowRight""]","practice block","space","36","{""ArrowUp,ArrowLeft"":3,""ArrowUp,ArrowRight"":36,""ArrowDown,ArrowLeft"":15,""ArrowDown,ArrowRight"":23}","true","ArrowUp,ArrowRight","false","","","","","",""
"html-keyboard-response","73","434024","0.0-3.0-11.0-2.0-1.6","spark_pilot_norest","8469","3","20","Male","","","","","","","null","<div style=""font-size:60px;"">+</div>","null","fixation","","","","","","","","","","","",""
"revaluation","74","440030","0.0-3.0-11.0-2.0-0.7","spark_pilot_norest","8469","3","20","Male","","false","","","","","[574.8000001907349,325.80000019073486]","./assets/img/space/14.jpg","[""ArrowUp"",""ArrowRight""]","practice block","space","36","{""ArrowUp,ArrowLeft"":3,""ArrowUp,ArrowRight"":36,""ArrowDown,ArrowLeft"":15,""ArrowDown,ArrowRight"":23}","true","ArrowUp,ArrowRight","false","","","","","",""
"html-keyboard-response","75","440532","0.0-3.0-11.0-2.0-1.7","spark_pilot_norest","8469","3","20","Male","","","","","","","null","<div style=""font-size:60px;"">+</div>","null","fixation","","","","","","","","","","","",""
"revaluation","76","444539","0.0-3.0-11.0-2.0-0.8","spark_pilot_norest","8469","3","20","Male","","false","","","","","[577.5999999046326]","./assets/img/space/catch/3.jpg","[""spaceBar""]","practice block","space","0","{""ArrowUp,ArrowLeft"":3,""ArrowUp,ArrowRight"":36,""ArrowDown,ArrowLeft"":15,""ArrowDown,ArrowRight"":23}","true","spaceBar","true","","","","","",""
"html-keyboard-response","77","445041","0.0-3.0-11.0-2.0-1.8","spark_pilot_norest","8469","3","20","Male","","","","","","","null","<div style=""font-size:60px;"">+</div>","null","fixation","","","","","","","","","","","",""
"learning-instructions","78","458799","0.0-3.0-11.0-3.0-0.0","spark_pilot_norest","8469","3","20","Male","","","","","","","631.8999996185303","<p> Now, you will travel with a friend who will choose whether you go up or down first. </p>
            <p> On these turns, you will just see the animal that they found. You will still get to choose which chest to search for treasure.</p>","","instructions","","","","","","","","","","","",""
"revaluation","79","462829","0.0-3.0-11.0-4.0-0.0","spark_pilot_norest","8469","3","20","Male","","false","","","","","[1181.6999998092651]","./assets/img/space/animals/rabbit.jpg","[""ArrowRight""]","practice block","space","23","{""ArrowUp,ArrowLeft"":3,""ArrowUp,ArrowRight"":36,""ArrowDown,ArrowLeft"":15,""ArrowDown,ArrowRight"":23}","true","ArrowDown,ArrowRight","","","","","","",""
"html-keyboard-response","80","463346","0.0-3.0-11.0-4.0-1.0","spark_pilot_norest","8469","3","20","Male","","","","","","","null","<div style=""font-size:60px;"">+</div>","null","fixation","","","","","","","","","","","",""
"revaluation","81","467362","0.0-3.0-11.0-4.0-0.1","spark_pilot_norest","8469","3","20","Male","","false","","","","","[537.8000001907349]","./assets/img/space/animals/rabbit.jpg","[""ArrowLeft""]","practice block","space","15","{""ArrowUp,ArrowLeft"":3,""ArrowUp,ArrowRight"":36,""ArrowDown,ArrowLeft"":15,""ArrowDown,ArrowRight"":23}","false","ArrowDown,ArrowLeft","","","","","","",""
"html-keyboard-response","82","467877","0.0-3.0-11.0-4.0-1.1","spark_pilot_norest","8469","3","20","Male","","","","","","","null","<div style=""font-size:60px;"">+</div>","null","fixation","","","","","","","","","","","",""
"revaluation","83","471904","0.0-3.0-11.0-4.0-0.2","spark_pilot_norest","8469","3","20","Male","","false","","","","","[464.09999990463257]","./assets/img/space/animals/cat.jpg","[""ArrowRight""]","practice block","space","36","{""ArrowUp,ArrowLeft"":3,""ArrowUp,ArrowRight"":36,""ArrowDown,ArrowLeft"":15,""ArrowDown,ArrowRight"":23}","true","ArrowUp,ArrowRight","","","","","","",""
"html-keyboard-response","84","472407","0.0-3.0-11.0-4.0-1.2","spark_pilot_norest","8469","3","20","Male","","","","","","","null","<div style=""font-size:60px;"">+</div>","null","fixation","","","","","","","","","","","",""
"revaluation","85","476430","0.0-3.0-11.0-4.0-0.3","spark_pilot_norest","8469","3","20","Male","","false","","","","","[256.80000019073486]","./assets/img/space/animals/cat.jpg","[""ArrowRight""]","practice block","space","36","{""ArrowUp,ArrowLeft"":3,""ArrowUp,ArrowRight"":36,""ArrowDown,ArrowLeft"":15,""ArrowDown,ArrowRight"":23}","true","ArrowUp,ArrowRight","","","","","","",""
"html-keyboard-response","86","476945","0.0-3.0-11.0-4.0-1.3","spark_pilot_norest","8469","3","20","Male","","","","","","","null","<div style=""font-size:60px;"">+</div>","null","fixation","","","","","","","","","","","",""
"learning-instructions","87","485081","0.0-3.0-11.0-5.0-0.0","spark_pilot_norest","8469","3","20","Male","","","","","","","null","<p> You have almost finished this part of the game! </p>
            <p> We are going to ask you to make a few more choices. </p>","","instructions","","","","","","","","","","","",""
"learning-instructions","88","501114","0.0-3.0-11.0-5.0-0.1","spark_pilot_norest","8469","3","20","Male","","","","","","","null","<p> First, you need to decide whether to go up or down. When you see each picture, use the arrow keys to make your choice. </p>
            <p><b>You will not see which animal you found, but try to get to the one that will give you the most treasure.</b></p>","","instructions","","","","","","","","","","","",""
"html-keyboard-response","89","502130","0.0-3.0-11.0-6.0-0.0","spark_pilot_norest","8469","3","20","Male","","","","","","","null","<div style=""font-size:100px;color:red;"">Starting in...</div>","null","","","","","","","","","","","","",""
"html-keyboard-response","90","503147","0.0-3.0-11.0-6.0-1.0","spark_pilot_norest","8469","3","20","Male","","","","","","","null","<div style=""font-size:200px;color:red;"">3</div>","null","","","","","","","","","","","","",""
"html-keyboard-response","91","504160","0.0-3.0-11.0-6.0-2.0","spark_pilot_norest","8469","3","20","Male","","","","","","","null","<div style=""font-size:200px;color:red;"">2</div>","null","","","","","","","","","","","","",""
"html-keyboard-response","92","505174","0.0-3.0-11.0-6.0-3.0","spark_pilot_norest","8469","3","20","Male","","","","","","","null","<div style=""font-size:200px;color:red;"">1</div>","null","","","","","","","","","","","","",""
"revaluation","93","505864","0.0-3.0-11.0-7.0","spark_pilot_norest","8469","3","20","Male","","false","","","","","[685.5999999046326]","./assets/img/space/15.jpg","[""ArrowUp""]","practice block","space","0","{""ArrowUp,ArrowLeft"":3,""ArrowUp,ArrowRight"":36,""ArrowDown,ArrowLeft"":15,""ArrowDown,ArrowRight"":23}","true","ArrowUp","false","","","","","",""
"html-keyboard-response","94","506370","0.0-3.0-11.0-8.0","spark_pilot_norest","8469","3","20","Male","","","","","","","null","<div style=""font-size:60px;"">+</div>","null","fixation","","","","","","","","","","","",""
"learning-instructions","95","519764","0.0-3.0-11.0-9.0-0.0","spark_pilot_norest","8469","3","20","Male","","","","","","","null","<p> Now you will see the animals again and can search their chests for treasure. </p>
            <p> This time, you will not see how much treasure you earned, but you will earn more bonus money for making better choices. </p>","","instructions","","","","","","","","","","","",""
"html-keyboard-response","96","520779","0.0-3.0-11.0-10.0-0.0","spark_pilot_norest","8469","3","20","Male","","","","","","","null","<div style=""font-size:100px;color:red;"">Starting in...</div>","null","","","","","","","","","","","","",""
"html-keyboard-response","97","521790","0.0-3.0-11.0-10.0-1.0","spark_pilot_norest","8469","3","20","Male","","","","","","","null","<div style=""font-size:200px;color:red;"">3</div>","null","","","","","","","","","","","","",""
"html-keyboard-response","98","522805","0.0-3.0-11.0-10.0-2.0","spark_pilot_norest","8469","3","20","Male","","","","","","","null","<div style=""font-size:200px;color:red;"">2</div>","null","","","","","","","","","","","","",""
"html-keyboard-response","99","523819","0.0-3.0-11.0-10.0-3.0","spark_pilot_norest","8469","3","20","Male","","","","","","","null","<div style=""font-size:200px;color:red;"">1</div>","null","","","","","","","","","","","","",""
"revaluation","100","524411","0.0-3.0-11.0-11.0-0.0","spark_pilot_norest","8469","3","20","Male","","false","","","","","[586.3000001907349]","./assets/img/space/animals/cat.jpg","[""ArrowRight""]","practice block","space","0","{""ArrowUp,ArrowLeft"":3,""ArrowUp,ArrowRight"":36,""ArrowDown,ArrowLeft"":15,""ArrowDown,ArrowRight"":23}","true","ArrowUp,ArrowRight","","","","","","",""
"html-keyboard-response","101","524914","0.0-3.0-11.0-11.0-1.0","spark_pilot_norest","8469","3","20","Male","","","","","","","null","<div style=""font-size:60px;"">+</div>","null","fixation","","","","","","","","","","","",""
"revaluation","102","525863","0.0-3.0-11.0-11.0-0.1","spark_pilot_norest","8469","3","20","Male","","false","","","","","[945.4000000953674]","./assets/img/space/animals/rabbit.jpg","[""ArrowRight""]","practice block","space","0","{""ArrowUp,ArrowLeft"":3,""ArrowUp,ArrowRight"":36,""ArrowDown,ArrowLeft"":15,""ArrowDown,ArrowRight"":23}","true","ArrowDown,ArrowRight","","","","","","",""
"html-keyboard-response","103","526380","0.0-3.0-11.0-11.0-1.1","spark_pilot_norest","8469","3","20","Male","","","","","","","null","<div style=""font-size:60px;"">+</div>","null","fixation","","","","","","","","","","","",""
"learning-instructions","104","532848","0.0-3.0-12.0-0.0","spark_pilot_norest","8469","3","20","Male","","","","","","","1870.8000001907349","<p> Before you start, we're going to ask you a few questions about how the game works. </p>","","instructions","","","","","","","","","","","",""
"comp-q","105","539192","0.0-3.0-13.0-0.0-0.0","spark_pilot_norest","8469","3","20","Male","","","","","","","757.8000001907349","<p> <b> True or False? </b> </p>
            <p> There can be 50 pieces of treasure in a given animal's chest. </p>","1","comp_question","","","","true","","","","","","","",""
"comp-q","106","547752","0.0-3.0-13.0-0.0-1.0","spark_pilot_norest","8469","3","20","Male","","","","","","","1904.8000001907349","<p> <b> That's right! </b> The amount of treasure in each chest can range from 0 to 40 pieces. </p>","0","comp_answer","","","","","","","","","","","",""
"comp-q","107","555465","0.0-3.0-13.0-0.1-0.1","spark_pilot_norest","8469","3","20","Male","","","","","","","597.4000000953674","<p> <b> True or False? </b> </p><p> In this game, all animals have the same amount of treasure in their left and right chests. </p>","1","comp_question","","","","true","","","","","","","",""
"comp-q","108","561808","0.0-3.0-13.0-0.1-1.1","spark_pilot_norest","8469","3","20","Male","","","","","","","1120.8000001907349","<p> <b> That's right! </b> Animals have different amounts of treasure in their treasure chests. </p>","0","comp_answer","","","","","","","","","","","",""
"comp-q","109","568160","0.0-3.0-13.0-0.2-0.2","spark_pilot_norest","8469","3","20","Male","","","","","","","514.1999998092651","<p> <b> True or False? </b> </p><p> The same animal will always be there if you go up in the same place. </p>","0","comp_question","","","","true","","","","","","","",""
"comp-q","110","575264","0.0-3.0-13.0-0.2-1.2","spark_pilot_norest","8469","3","20","Male","","","","","","","657","<p> <b> That's right! </b> One animal lives in the upper part and one lives in the lower part of every place. </p>","0","comp_answer","","","","","","","","","","","",""
"comp-q","111","581288","0.0-3.0-13.0-0.3-0.3","spark_pilot_norest","8469","3","20","Male","","","","","","","490.80000019073486","<p> <b> True or False? </b> </p><p> If you see a different picture, it means you are in a new place. </p>","1","comp_question","","","","true","","","","","","","",""
"comp-q","112","593057","0.0-3.0-13.0-0.3-1.3","spark_pilot_norest","8469","3","20","Male","","","","","","","538.5","<p> <b> That's right! </b> Lots of different images may show the same place. For example,  you may see three different images that all remind you that you are in outer space. </p>","0","comp_answer","","","","","","","","","","","",""
"learning-instructions","113","604072","0.0-3.0-14.0-0.0","spark_pilot_norest","8469","3","20","Male","","","","","","","1154.5999999046326","<p> Good job. Remember to do your best because the amount of treasure you earn will be converted into bonus money. </p>
            <p> It’s time to start the real game! </p>","","instructions","","","","","","","","","","","",""
"learning-instructions","114","608928","0.0-4.0-0.0-0.0","spark_pilot_norest","8469","3","20","Male","","","","","","","2140.5999999046326","<p> This time you are searching for treasure in the <b>ocean</b>.</p>","","instructions","","","","","","","","","","","",""
"learning-instructions","115","627824","0.0-4.0-0.0-0.1","spark_pilot_norest","8469","3","20","Male","","","","","","","1596.1999998092651","<p><b>New</b> animals with <b>new</b> treasure chests live here. You need to explore to discover where the animal with the best treasure chest is.</p>
                    <p> Like before, once you figure out which animal has the chest with the most treasure, you should try to get to that animal and select that chest! </p>","","instructions","","","","","","","","","","","",""
"learning-instructions","116","643712","0.0-4.0-1.0-0.0","spark_pilot_norest","8469","3","20","Male","","","","","","","1164.7999997138977","<p> Remember, when you see a picture of the place, use the up and down keys to <b>find an animal</b>.</p>
            <p> When you encounter an animal, you should use the left and right keys to <b>select a treasure chest</b>.</p>
            <p> Don't forget to look out for the robber! </p>","","instructions","","","","","","","","","","","",""
"revaluation","117","649745","0.0-4.0-2.0-0.0","spark_pilot_norest","8469","3","20","Male","","false","","","","","[706,589.4000000953674]","./assets/img/ocean/memory/25.jpg","[""ArrowUp"",""ArrowRight""]","value training","ocean","10","{""ArrowUp,ArrowLeft"":23,""ArrowUp,ArrowRight"":10,""ArrowDown,ArrowLeft"":8,""ArrowDown,ArrowRight"":30}","false","ArrowUp,ArrowRight","false","original","1","0","","",""
"html-keyboard-response","118","650263","0.0-4.0-2.0-1.0","spark_pilot_norest","8469","3","20","Male","","","","","","","null","<div style=""font-size:60px;"">+</div>","null","fixation","","","","","","","","","1","","",""
"revaluation","119","656288","0.0-4.0-2.0-0.1","spark_pilot_norest","8469","3","20","Male","","false","","","","","[1005.0999999046326,339.69999980926514]","./assets/img/ocean/memory/17.jpg","[""ArrowUp"",""ArrowLeft""]","value training","ocean","23","{""ArrowUp,ArrowLeft"":23,""ArrowUp,ArrowRight"":10,""ArrowDown,ArrowLeft"":8,""ArrowDown,ArrowRight"":30}","false","ArrowUp,ArrowLeft","false","original","1","2","","",""
"html-keyboard-response","120","656804","0.0-4.0-2.0-1.1","spark_pilot_norest","8469","3","20","Male","","","","","","","null","<div style=""font-size:60px;"">+</div>","null","fixation","","","","","","","","","3","","",""
"revaluation","121","662842","0.0-4.0-2.0-0.2","spark_pilot_norest","8469","3","20","Male","","false","","","","","[613.3999996185303,529.9000000953674]","./assets/img/ocean/memory/35.jpg","[""ArrowDown"",""ArrowRight""]","value training","ocean","30","{""ArrowUp,ArrowLeft"":23,""ArrowUp,ArrowRight"":10,""ArrowDown,ArrowLeft"":8,""ArrowDown,ArrowRight"":30}","true","ArrowDown,ArrowRight","false","original","1","4","","",""
"html-keyboard-response","122","663355","0.0-4.0-2.0-1.2","spark_pilot_norest","8469","3","20","Male","","","","","","","null","<div style=""font-size:60px;"">+</div>","null","fixation","","","","","","","","","5","","",""
"revaluation","123","669397","0.0-4.0-2.0-0.3","spark_pilot_norest","8469","3","20","Male","","false","","","","","[842.8000001907349,271.40000009536743]","./assets/img/ocean/memory/10.jpg","[""ArrowDown"",""ArrowLeft""]","value training","ocean","8","{""ArrowUp,ArrowLeft"":23,""ArrowUp,ArrowRight"":10,""ArrowDown,ArrowLeft"":8,""ArrowDown,ArrowRight"":30}","false","ArrowDown,ArrowLeft","false","original","1","6","","",""
"html-keyboard-response","124","669912","0.0-4.0-2.0-1.3","spark_pilot_norest","8469","3","20","Male","","","","","","","null","<div style=""font-size:60px;"">+</div>","null","fixation","","","","","","","","","7","","",""
"revaluation","125","675933","0.0-4.0-2.0-0.4","spark_pilot_norest","8469","3","20","Male","","false","","","","","[326.19999980926514,438.19999980926514]","./assets/img/ocean/memory/1.jpg","[""ArrowDown"",""ArrowRight""]","value training","ocean","30","{""ArrowUp,ArrowLeft"":23,""ArrowUp,ArrowRight"":10,""ArrowDown,ArrowLeft"":8,""ArrowDown,ArrowRight"":30}","true","ArrowDown,ArrowRight","false","original","1","8","","",""
"html-keyboard-response","126","676435","0.0-4.0-2.0-1.4","spark_pilot_norest","8469","3","20","Male","","","","","","","null","<div style=""font-size:60px;"">+</div>","null","fixation","","","","","","","","","9","","",""
"revaluation","127","682455","0.0-4.0-2.0-0.5","spark_pilot_norest","8469","3","20","Male","","false","","","","","[423,358.1000003814697]","./assets/img/ocean/memory/13.jpg","[""ArrowDown"",""ArrowRight""]","value training","ocean","30","{""ArrowUp,ArrowLeft"":23,""ArrowUp,ArrowRight"":10,""ArrowDown,ArrowLeft"":8,""ArrowDown,ArrowRight"":30}","true","ArrowDown,ArrowRight","false","original","1","10","","",""
"html-keyboard-response","128","682958","0.0-4.0-2.0-1.5","spark_pilot_norest","8469","3","20","Male","","","","","","","null","<div style=""font-size:60px;"">+</div>","null","fixation","","","","","","","","","11","","",""
"revaluation","129","688965","0.0-4.0-2.0-0.6","spark_pilot_norest","8469","3","20","Male","","false","","","","","[535.3000001907349,331.90000009536743]","./assets/img/ocean/memory/35.jpg","[""ArrowDown"",""ArrowRight""]","value training","ocean","30","{""ArrowUp,ArrowLeft"":23,""ArrowUp,ArrowRight"":10,""ArrowDown,ArrowLeft"":8,""ArrowDown,ArrowRight"":30}","true","ArrowDown,ArrowRight","false","original","1","12","","",""
"html-keyboard-response","130","689467","0.0-4.0-2.0-1.6","spark_pilot_norest","8469","3","20","Male","","","","","","","null","<div style=""font-size:60px;"">+</div>","null","fixation","","","","","","","","","13","","",""
"revaluation","131","693481","0.0-4.0-2.0-0.7","spark_pilot_norest","8469","3","20","Male","","false","","","","","[910.6000003814697]","./assets/img/ocean/catch/1.jpg","[""spaceBar""]","value training","ocean","0","{""ArrowUp,ArrowLeft"":23,""ArrowUp,ArrowRight"":10,""ArrowDown,ArrowLeft"":8,""ArrowDown,ArrowRight"":30}","true","spaceBar","true","original","1","14","","",""
"html-keyboard-response","132","693997","0.0-4.0-2.0-1.7","spark_pilot_norest","8469","3","20","Male","","","","","","","null","<div style=""font-size:60px;"">+</div>","null","fixation","","","","","","","","","15","","",""
"revaluation","133","700010","0.0-4.0-2.0-0.8","spark_pilot_norest","8469","3","20","Male","","false","","","","","[548.0999999046326,536.3000001907349]","./assets/img/ocean/memory/15.jpg","[""ArrowDown"",""ArrowRight""]","value training","ocean","30","{""ArrowUp,ArrowLeft"":23,""ArrowUp,ArrowRight"":10,""ArrowDown,ArrowLeft"":8,""ArrowDown,ArrowRight"":30}","true","ArrowDown,ArrowRight","false","original","1","16","","",""
"html-keyboard-response","134","700520","0.0-4.0-2.0-1.8","spark_pilot_norest","8469","3","20","Male","","","","","","","null","<div style=""font-size:60px;"">+</div>","null","fixation","","","","","","","","","17","","",""
"revaluation","135","706527","0.0-4.0-2.0-0.9","spark_pilot_norest","8469","3","20","Male","","false","","","","","[547.1999998092651,312]","./assets/img/ocean/memory/1.jpg","[""ArrowDown"",""ArrowRight""]","value training","ocean","30","{""ArrowUp,ArrowLeft"":23,""ArrowUp,ArrowRight"":10,""ArrowDown,ArrowLeft"":8,""ArrowDown,ArrowRight"":30}","true","ArrowDown,ArrowRight","false","original","1","18","","",""
"html-keyboard-response","136","707040","0.0-4.0-2.0-1.9","spark_pilot_norest","8469","3","20","Male","","","","","","","null","<div style=""font-size:60px;"">+</div>","null","fixation","","","","","","","","","19","","",""
"revaluation","137","713048","0.0-4.0-2.0-0.10","spark_pilot_norest","8469","3","20","Male","","false","","","","","[552.0999999046326,305.2000002861023]","./assets/img/ocean/memory/8.jpg","[""ArrowDown"",""ArrowRight""]","value training","ocean","30","{""ArrowUp,ArrowLeft"":23,""ArrowUp,ArrowRight"":10,""ArrowDown,ArrowLeft"":8,""ArrowDown,ArrowRight"":30}","true","ArrowDown,ArrowRight","false","original","1","20","","",""
"html-keyboard-response","138","713550","0.0-4.0-2.0-1.10","spark_pilot_norest","8469","3","20","Male","","","","","","","null","<div style=""font-size:60px;"">+</div>","null","fixation","","","","","","","","","21","","",""
"revaluation","139","719559","0.0-4.0-2.0-0.11","spark_pilot_norest","8469","3","20","Male","","false","","","","","[661.4000000953674,318.19999980926514]","./assets/img/ocean/memory/20.jpg","[""ArrowDown"",""ArrowRight""]","value training","ocean","30","{""ArrowUp,ArrowLeft"":23,""ArrowUp,ArrowRight"":10,""ArrowDown,ArrowLeft"":8,""ArrowDown,ArrowRight"":30}","true","ArrowDown,ArrowRight","false","original","1","22","","",""
"html-keyboard-response","140","720061","0.0-4.0-2.0-1.11","spark_pilot_norest","8469","3","20","Male","","","","","","","null","<div style=""font-size:60px;"">+</div>","null","fixation","","","","","","","","","23","","",""
"revaluation","141","726069","0.0-4.0-2.0-0.12","spark_pilot_norest","8469","3","20","Male","","false","","","","","[636.4000000953674,532.1999998092651]","./assets/img/ocean/memory/3.jpg","[""ArrowDown"",""ArrowRight""]","value training","ocean","30","{""ArrowUp,ArrowLeft"":23,""ArrowUp,ArrowRight"":10,""ArrowDown,ArrowLeft"":8,""ArrowDown,ArrowRight"":30}","true","ArrowDown,ArrowRight","false","original","1","24","","",""
"html-keyboard-response","142","726582","0.0-4.0-2.0-1.12","spark_pilot_norest","8469","3","20","Male","","","","","","","null","<div style=""font-size:60px;"">+</div>","null","fixation","","","","","","","","","25","","",""
"revaluation","143","732614","0.0-4.0-2.0-0.13","spark_pilot_norest","8469","3","20","Male","","false","","","","","[598.5,320]","./assets/img/ocean/memory/36.jpg","[""ArrowDown"",""ArrowRight""]","value training","ocean","30","{""ArrowUp,ArrowLeft"":23,""ArrowUp,ArrowRight"":10,""ArrowDown,ArrowLeft"":8,""ArrowDown,ArrowRight"":30}","true","ArrowDown,ArrowRight","false","original","1","26","","",""
"html-keyboard-response","144","733129","0.0-4.0-2.0-1.13","spark_pilot_norest","8469","3","20","Male","","","","","","","null","<div style=""font-size:60px;"">+</div>","null","fixation","","","","","","","","","27","","",""
"revaluation","145","737137","0.0-4.0-2.0-0.14","spark_pilot_norest","8469","3","20","Male","","false","","","","","[652]","./assets/img/ocean/catch/3.jpg","[""spaceBar""]","value training","ocean","0","{""ArrowUp,ArrowLeft"":23,""ArrowUp,ArrowRight"":10,""ArrowDown,ArrowLeft"":8,""ArrowDown,ArrowRight"":30}","true","spaceBar","true","original","1","28","","",""
"html-keyboard-response","146","737639","0.0-4.0-2.0-1.14","spark_pilot_norest","8469","3","20","Male","","","","","","","null","<div style=""font-size:60px;"">+</div>","null","fixation","","","","","","","","","29","","",""
"revaluation","147","743648","0.0-4.0-2.0-0.15","spark_pilot_norest","8469","3","20","Male","","false","","","","","[463.69999980926514,455.90000009536743]","./assets/img/ocean/memory/10.jpg","[""ArrowDown"",""ArrowRight""]","value training","ocean","30","{""ArrowUp,ArrowLeft"":23,""ArrowUp,ArrowRight"":10,""ArrowDown,ArrowLeft"":8,""ArrowDown,ArrowRight"":30}","true","ArrowDown,ArrowRight","false","original","1","30","","",""
"html-keyboard-response","148","744150","0.0-4.0-2.0-1.15","spark_pilot_norest","8469","3","20","Male","","","","","","","null","<div style=""font-size:60px;"">+</div>","null","fixation","","","","","","","","","31","","",""
"revaluation","149","748156","0.0-4.0-2.0-0.16","spark_pilot_norest","8469","3","20","Male","","false","","","","","[766.5999999046326]","./assets/img/ocean/catch/7.jpg","[""spaceBar""]","value training","ocean","0","{""ArrowUp,ArrowLeft"":23,""ArrowUp,ArrowRight"":10,""ArrowDown,ArrowLeft"":8,""ArrowDown,ArrowRight"":30}","true","spaceBar","true","original","1","32","","",""
"html-keyboard-response","150","748659","0.0-4.0-2.0-1.16","spark_pilot_norest","8469","3","20","Male","","","","","","","null","<div style=""font-size:60px;"">+</div>","null","fixation","","","","","","","","","33","","",""
"revaluation","151","754667","0.0-4.0-2.0-0.17","spark_pilot_norest","8469","3","20","Male","","false","","","","","[612.3999996185303,380.30000019073486]","./assets/img/ocean/memory/13.jpg","[""ArrowDown"",""ArrowRight""]","value training","ocean","30","{""ArrowUp,ArrowLeft"":23,""ArrowUp,ArrowRight"":10,""ArrowDown,ArrowLeft"":8,""ArrowDown,ArrowRight"":30}","true","ArrowDown,ArrowRight","false","original","1","34","","",""
"html-keyboard-response","152","755174","0.0-4.0-2.0-1.17","spark_pilot_norest","8469","3","20","Male","","","","","","","null","<div style=""font-size:60px;"">+</div>","null","fixation","","","","","","","","","35","","",""
"revaluation","153","761218","0.0-4.0-2.0-0.18","spark_pilot_norest","8469","3","20","Male","","false","","","","","[772.7000002861023,360.09999990463257]","./assets/img/ocean/memory/21.jpg","[""ArrowDown"",""ArrowRight""]","value training","ocean","30","{""ArrowUp,ArrowLeft"":23,""ArrowUp,ArrowRight"":10,""ArrowDown,ArrowLeft"":8,""ArrowDown,ArrowRight"":30}","true","ArrowDown,ArrowRight","false","original","1","36","","",""
"html-keyboard-response","154","761734","0.0-4.0-2.0-1.18","spark_pilot_norest","8469","3","20","Male","","","","","","","null","<div style=""font-size:60px;"">+</div>","null","fixation","","","","","","","","","37","","",""
"revaluation","155","765741","0.0-4.0-2.0-0.19","spark_pilot_norest","8469","3","20","Male","","false","","","","","[752.0999999046326]","./assets/img/ocean/catch/4.jpg","[""spaceBar""]","value training","ocean","0","{""ArrowUp,ArrowLeft"":23,""ArrowUp,ArrowRight"":10,""ArrowDown,ArrowLeft"":8,""ArrowDown,ArrowRight"":30}","true","spaceBar","true","original","1","38","","",""
"html-keyboard-response","156","766243","0.0-4.0-2.0-1.19","spark_pilot_norest","8469","3","20","Male","","","","","","","null","<div style=""font-size:60px;"">+</div>","null","fixation","","","","","","","","","39","","",""
"revaluation","157","772252","0.0-4.0-2.0-0.20","spark_pilot_norest","8469","3","20","Male","","false","","","","","[710.7000002861023,521.2999997138977]","./assets/img/ocean/memory/41.jpg","[""ArrowDown"",""ArrowRight""]","value training","ocean","30","{""ArrowUp,ArrowLeft"":23,""ArrowUp,ArrowRight"":10,""ArrowDown,ArrowLeft"":8,""ArrowDown,ArrowRight"":30}","true","ArrowDown,ArrowRight","false","original","1","40","","",""
"html-keyboard-response","158","772755","0.0-4.0-2.0-1.20","spark_pilot_norest","8469","3","20","Male","","","","","","","null","<div style=""font-size:60px;"">+</div>","null","fixation","","","","","","","","","41","","",""
"revaluation","159","778762","0.0-4.0-2.0-0.21","spark_pilot_norest","8469","3","20","Male","","false","","","","","[775.5999999046326,524.5]","./assets/img/ocean/memory/23.jpg","[""ArrowDown"",""ArrowRight""]","value training","ocean","30","{""ArrowUp,ArrowLeft"":23,""ArrowUp,ArrowRight"":10,""ArrowDown,ArrowLeft"":8,""ArrowDown,ArrowRight"":30}","true","ArrowDown,ArrowRight","false","original","1","42","","",""
"html-keyboard-response","160","779265","0.0-4.0-2.0-1.21","spark_pilot_norest","8469","3","20","Male","","","","","","","null","<div style=""font-size:60px;"">+</div>","null","fixation","","","","","","","","","43","","",""
"revaluation","161","785273","0.0-4.0-2.0-0.22","spark_pilot_norest","8469","3","20","Male","","false","","","","","[855.6999998092651,408.1000003814697]","./assets/img/ocean/memory/12.jpg","[""ArrowDown"",""ArrowRight""]","value training","ocean","30","{""ArrowUp,ArrowLeft"":23,""ArrowUp,ArrowRight"":10,""ArrowDown,ArrowLeft"":8,""ArrowDown,ArrowRight"":30}","true","ArrowDown,ArrowRight","false","original","1","44","","",""
"html-keyboard-response","162","785776","0.0-4.0-2.0-1.22","spark_pilot_norest","8469","3","20","Male","","","","","","","null","<div style=""font-size:60px;"">+</div>","null","fixation","","","","","","","","","45","","",""
"revaluation","163","791802","0.0-4.0-2.0-0.23","spark_pilot_norest","8469","3","20","Male","","false","","","","","[653.6999998092651,371.19999980926514]","./assets/img/ocean/memory/41.jpg","[""ArrowDown"",""ArrowRight""]","value training","ocean","30","{""ArrowUp,ArrowLeft"":23,""ArrowUp,ArrowRight"":10,""ArrowDown,ArrowLeft"":8,""ArrowDown,ArrowRight"":30}","true","ArrowDown,ArrowRight","false","original","1","46","","",""
"html-keyboard-response","164","792305","0.0-4.0-2.0-1.23","spark_pilot_norest","8469","3","20","Male","","","","","","","null","<div style=""font-size:60px;"">+</div>","null","fixation","","","","","","","","","47","","",""
"revaluation","165","798311","0.0-4.0-2.0-0.24","spark_pilot_norest","8469","3","20","Male","","false","","","","","[845.2000002861023,495.80000019073486]","./assets/img/ocean/memory/20.jpg","[""ArrowDown"",""ArrowRight""]","value training","ocean","30","{""ArrowUp,ArrowLeft"":23,""ArrowUp,ArrowRight"":10,""ArrowDown,ArrowLeft"":8,""ArrowDown,ArrowRight"":30}","true","ArrowDown,ArrowRight","false","original","1","48","","",""
"html-keyboard-response","166","798828","0.0-4.0-2.0-1.24","spark_pilot_norest","8469","3","20","Male","","","","","","","null","<div style=""font-size:60px;"">+</div>","null","fixation","","","","","","","","","49","","",""
"revaluation","167","804837","0.0-4.0-2.0-0.25","spark_pilot_norest","8469","3","20","Male","","false","","","","","[813.5999999046326,624.2999997138977]","./assets/img/ocean/memory/36.jpg","[""ArrowDown"",""ArrowRight""]","value training","ocean","30","{""ArrowUp,ArrowLeft"":23,""ArrowUp,ArrowRight"":10,""ArrowDown,ArrowLeft"":8,""ArrowDown,ArrowRight"":30}","true","ArrowDown,ArrowRight","false","original","1","50","","",""
"html-keyboard-response","168","805343","0.0-4.0-2.0-1.25","spark_pilot_norest","8469","3","20","Male","","","","","","","null","<div style=""font-size:60px;"">+</div>","null","fixation","","","","","","","","","51","","",""
"revaluation","169","811358","0.0-4.0-2.0-0.26","spark_pilot_norest","8469","3","20","Male","","false","","","","","[852.2000002861023,622]","./assets/img/ocean/memory/38.jpg","[""ArrowDown"",""ArrowRight""]","value training","ocean","30","{""ArrowUp,ArrowLeft"":23,""ArrowUp,ArrowRight"":10,""ArrowDown,ArrowLeft"":8,""ArrowDown,ArrowRight"":30}","true","ArrowDown,ArrowRight","false","original","1","52","","",""
"html-keyboard-response","170","811874","0.0-4.0-2.0-1.26","spark_pilot_norest","8469","3","20","Male","","","","","","","null","<div style=""font-size:60px;"">+</div>","null","fixation","","","","","","","","","53","","",""
"revaluation","171","817894","0.0-4.0-2.0-0.27","spark_pilot_norest","8469","3","20","Male","","false","","","","","[672.3000001907349,574.2999997138977]","./assets/img/ocean/memory/5.jpg","[""ArrowDown"",""ArrowRight""]","value training","ocean","30","{""ArrowUp,ArrowLeft"":23,""ArrowUp,ArrowRight"":10,""ArrowDown,ArrowLeft"":8,""ArrowDown,ArrowRight"":30}","true","ArrowDown,ArrowRight","false","original","1","54","","",""
"html-keyboard-response","172","818403","0.0-4.0-2.0-1.27","spark_pilot_norest","8469","3","20","Male","","","","","","","null","<div style=""font-size:60px;"">+</div>","null","fixation","","","","","","","","","55","","",""
"revaluation","173","824421","0.0-4.0-2.0-0.28","spark_pilot_norest","8469","3","20","Male","","false","","","","","[841.8000001907349,498.80000019073486]","./assets/img/ocean/memory/0.jpg","[""ArrowDown"",""ArrowRight""]","value training","ocean","30","{""ArrowUp,ArrowLeft"":23,""ArrowUp,ArrowRight"":10,""ArrowDown,ArrowLeft"":8,""ArrowDown,ArrowRight"":30}","true","ArrowDown,ArrowRight","false","original","1","56","","",""
"html-keyboard-response","174","824923","0.0-4.0-2.0-1.28","spark_pilot_norest","8469","3","20","Male","","","","","","","null","<div style=""font-size:60px;"">+</div>","null","fixation","","","","","","","","","57","","",""
"revaluation","175","830938","0.0-4.0-2.0-0.29","spark_pilot_norest","8469","3","20","Male","","false","","","","","[628.9000000953674,555.1999998092651]","./assets/img/ocean/memory/21.jpg","[""ArrowDown"",""ArrowRight""]","value training","ocean","30","{""ArrowUp,ArrowLeft"":23,""ArrowUp,ArrowRight"":10,""ArrowDown,ArrowLeft"":8,""ArrowDown,ArrowRight"":30}","true","ArrowDown,ArrowRight","false","original","1","58","","",""
"html-keyboard-response","176","831441","0.0-4.0-2.0-1.29","spark_pilot_norest","8469","3","20","Male","","","","","","","null","<div style=""font-size:60px;"">+</div>","null","fixation","","","","","","","","","59","","",""
"revaluation","177","835450","0.0-4.0-2.0-0.30","spark_pilot_norest","8469","3","20","Male","","false","","","","","[906.3000001907349]","./assets/img/ocean/catch/5.jpg","[""spaceBar""]","value training","ocean","0","{""ArrowUp,ArrowLeft"":23,""ArrowUp,ArrowRight"":10,""ArrowDown,ArrowLeft"":8,""ArrowDown,ArrowRight"":30}","true","spaceBar","true","original","1","60","","",""
"html-keyboard-response","178","835952","0.0-4.0-2.0-1.30","spark_pilot_norest","8469","3","20","Male","","","","","","","null","<div style=""font-size:60px;"">+</div>","null","fixation","","","","","","","","","61","","",""
"revaluation","179","841960","0.0-4.0-2.0-0.31","spark_pilot_norest","8469","3","20","Male","","false","","","","","[590,335.40000009536743]","./assets/img/ocean/memory/5.jpg","[""ArrowDown"",""ArrowRight""]","value training","ocean","30","{""ArrowUp,ArrowLeft"":23,""ArrowUp,ArrowRight"":10,""ArrowDown,ArrowLeft"":8,""ArrowDown,ArrowRight"":30}","true","ArrowDown,ArrowRight","false","original","1","62","","",""
"html-keyboard-response","180","842462","0.0-4.0-2.0-1.31","spark_pilot_norest","8469","3","20","Male","","","","","","","null","<div style=""font-size:60px;"">+</div>","null","fixation","","","","","","","","","63","","",""
"revaluation","181","848469","0.0-4.0-2.0-0.32","spark_pilot_norest","8469","3","20","Male","","false","","","","","[647.3000001907349,237.7999997138977]","./assets/img/ocean/memory/3.jpg","[""ArrowUp"",""ArrowRight""]","value training","ocean","10","{""ArrowUp,ArrowLeft"":23,""ArrowUp,ArrowRight"":10,""ArrowDown,ArrowLeft"":8,""ArrowDown,ArrowRight"":30}","false","ArrowUp,ArrowRight","false","original","1","64","","",""
"html-keyboard-response","182","848970","0.0-4.0-2.0-1.32","spark_pilot_norest","8469","3","20","Male","","","","","","","null","<div style=""font-size:60px;"">+</div>","null","fixation","","","","","","","","","65","","",""
"revaluation","183","854987","0.0-4.0-2.0-0.33","spark_pilot_norest","8469","3","20","Male","","false","","","","","[661.2000002861023,275.90000009536743]","./assets/img/ocean/memory/11.jpg","[""ArrowUp"",""ArrowRight""]","value training","ocean","10","{""ArrowUp,ArrowLeft"":23,""ArrowUp,ArrowRight"":10,""ArrowDown,ArrowLeft"":8,""ArrowDown,ArrowRight"":30}","false","ArrowUp,ArrowRight","false","original","1","66","","",""
"html-keyboard-response","184","855502","0.0-4.0-2.0-1.33","spark_pilot_norest","8469","3","20","Male","","","","","","","null","<div style=""font-size:60px;"">+</div>","null","fixation","","","","","","","","","67","","",""
"revaluation","185","861510","0.0-4.0-2.0-0.34","spark_pilot_norest","8469","3","20","Male","","false","","","","","[709.1999998092651,787.1999998092651]","./assets/img/ocean/memory/12.jpg","[""ArrowUp"",""ArrowLeft""]","value training","ocean","23","{""ArrowUp,ArrowLeft"":23,""ArrowUp,ArrowRight"":10,""ArrowDown,ArrowLeft"":8,""ArrowDown,ArrowRight"":30}","false","ArrowUp,ArrowLeft","false","original","1","68","","",""
"html-keyboard-response","186","862012","0.0-4.0-2.0-1.34","spark_pilot_norest","8469","3","20","Male","","","","","","","null","<div style=""font-size:60px;"">+</div>","null","fixation","","","","","","","","","69","","",""
"revaluation","187","868019","0.0-4.0-2.0-0.35","spark_pilot_norest","8469","3","20","Male","","false","","","","","[460.7000002861023,342]","./assets/img/ocean/memory/38.jpg","[""ArrowDown"",""ArrowRight""]","value training","ocean","30","{""ArrowUp,ArrowLeft"":23,""ArrowUp,ArrowRight"":10,""ArrowDown,ArrowLeft"":8,""ArrowDown,ArrowRight"":30}","true","ArrowDown,ArrowRight","false","original","1","70","","",""
"html-keyboard-response","188","868522","0.0-4.0-2.0-1.35","spark_pilot_norest","8469","3","20","Male","","","","","","","null","<div style=""font-size:60px;"">+</div>","null","fixation","","","","","","","","","71","","",""
"revaluation","189","872526","0.0-4.0-2.0-0.36","spark_pilot_norest","8469","3","20","Male","","false","","","","","[648.0999999046326]","./assets/img/ocean/catch/6.jpg","[""spaceBar""]","value training","ocean","0","{""ArrowUp,ArrowLeft"":23,""ArrowUp,ArrowRight"":10,""ArrowDown,ArrowLeft"":8,""ArrowDown,ArrowRight"":30}","true","spaceBar","true","original","1","72","","",""
"html-keyboard-response","190","873033","0.0-4.0-2.0-1.36","spark_pilot_norest","8469","3","20","Male","","","","","","","null","<div style=""font-size:60px;"">+</div>","null","fixation","","","","","","","","","73","","",""
"revaluation","191","877041","0.0-4.0-2.0-0.37","spark_pilot_norest","8469","3","20","Male","","false","","","","","[810.9000000953674]","./assets/img/ocean/catch/2.jpg","[""spaceBar""]","value training","ocean","0","{""ArrowUp,ArrowLeft"":23,""ArrowUp,ArrowRight"":10,""ArrowDown,ArrowLeft"":8,""ArrowDown,ArrowRight"":30}","true","spaceBar","true","original","1","74","","",""
"html-keyboard-response","192","877542","0.0-4.0-2.0-1.37","spark_pilot_norest","8469","3","20","Male","","","","","","","null","<div style=""font-size:60px;"">+</div>","null","fixation","","","","","","","","","75","","",""
"revaluation","193","883550","0.0-4.0-2.0-0.38","spark_pilot_norest","8469","3","20","Male","","false","","","","","[624.2999997138977,394]","./assets/img/ocean/memory/28.jpg","[""ArrowDown"",""ArrowRight""]","value training","ocean","30","{""ArrowUp,ArrowLeft"":23,""ArrowUp,ArrowRight"":10,""ArrowDown,ArrowLeft"":8,""ArrowDown,ArrowRight"":30}","true","ArrowDown,ArrowRight","false","original","1","76","","",""
"html-keyboard-response","194","884053","0.0-4.0-2.0-1.38","spark_pilot_norest","8469","3","20","Male","","","","","","","null","<div style=""font-size:60px;"">+</div>","null","fixation","","","","","","","","","77","","",""
"revaluation","195","890062","0.0-4.0-2.0-0.39","spark_pilot_norest","8469","3","20","Male","","false","","","","","[732.5,307]","./assets/img/ocean/memory/15.jpg","[""ArrowDown"",""ArrowRight""]","value training","ocean","30","{""ArrowUp,ArrowLeft"":23,""ArrowUp,ArrowRight"":10,""ArrowDown,ArrowLeft"":8,""ArrowDown,ArrowRight"":30}","true","ArrowDown,ArrowRight","false","original","1","78","","",""
"html-keyboard-response","196","890564","0.0-4.0-2.0-1.39","spark_pilot_norest","8469","3","20","Male","","","","","","","null","<div style=""font-size:60px;"">+</div>","null","fixation","","","","","","","","","79","","",""
"revaluation","197","896576","0.0-4.0-2.0-0.40","spark_pilot_norest","8469","3","20","Male","","false","","","","","[663.6999998092651,337.80000019073486]","./assets/img/ocean/memory/14.jpg","[""ArrowDown"",""ArrowRight""]","value training","ocean","30","{""ArrowUp,ArrowLeft"":23,""ArrowUp,ArrowRight"":10,""ArrowDown,ArrowLeft"":8,""ArrowDown,ArrowRight"":30}","true","ArrowDown,ArrowRight","false","original","1","80","","",""
"html-keyboard-response","198","897078","0.0-4.0-2.0-1.40","spark_pilot_norest","8469","3","20","Male","","","","","","","null","<div style=""font-size:60px;"">+</div>","null","fixation","","","","","","","","","81","","",""
"revaluation","199","901095","0.0-4.0-2.0-0.41","spark_pilot_norest","8469","3","20","Male","","false","","","","","[1061.3000001907349]","./assets/img/ocean/catch/0.jpg","[""spaceBar""]","value training","ocean","0","{""ArrowUp,ArrowLeft"":23,""ArrowUp,ArrowRight"":10,""ArrowDown,ArrowLeft"":8,""ArrowDown,ArrowRight"":30}","true","spaceBar","true","original","1","82","","",""
"html-keyboard-response","200","901597","0.0-4.0-2.0-1.41","spark_pilot_norest","8469","3","20","Male","","","","","","","null","<div style=""font-size:60px;"">+</div>","null","fixation","","","","","","","","","83","","",""
"revaluation","201","907611","0.0-4.0-2.0-0.42","spark_pilot_norest","8469","3","20","Male","","false","","","","","[875.3000001907349,382.7999997138977]","./assets/img/ocean/memory/23.jpg","[""ArrowDown"",""ArrowRight""]","value training","ocean","30","{""ArrowUp,ArrowLeft"":23,""ArrowUp,ArrowRight"":10,""ArrowDown,ArrowLeft"":8,""ArrowDown,ArrowRight"":30}","true","ArrowDown,ArrowRight","false","original","1","84","","",""
"html-keyboard-response","202","908122","0.0-4.0-2.0-1.42","spark_pilot_norest","8469","3","20","Male","","","","","","","null","<div style=""font-size:60px;"">+</div>","null","fixation","","","","","","","","","85","","",""
"revaluation","203","914137","0.0-4.0-2.0-0.43","spark_pilot_norest","8469","3","20","Male","","false","","","","","[712,434.2000002861023]","./assets/img/ocean/memory/14.jpg","[""ArrowDown"",""ArrowRight""]","value training","ocean","30","{""ArrowUp,ArrowLeft"":23,""ArrowUp,ArrowRight"":10,""ArrowDown,ArrowLeft"":8,""ArrowDown,ArrowRight"":30}","true","ArrowDown,ArrowRight","false","original","1","86","","",""
"html-keyboard-response","204","914639","0.0-4.0-2.0-1.43","spark_pilot_norest","8469","3","20","Male","","","","","","","null","<div style=""font-size:60px;"">+</div>","null","fixation","","","","","","","","","87","","",""
"revaluation","205","920647","0.0-4.0-2.0-0.44","spark_pilot_norest","8469","3","20","Male","","false","","","","","[672,431.5]","./assets/img/ocean/memory/25.jpg","[""ArrowDown"",""ArrowRight""]","value training","ocean","30","{""ArrowUp,ArrowLeft"":23,""ArrowUp,ArrowRight"":10,""ArrowDown,ArrowLeft"":8,""ArrowDown,ArrowRight"":30}","true","ArrowDown,ArrowRight","false","original","1","88","","",""
"html-keyboard-response","206","921149","0.0-4.0-2.0-1.44","spark_pilot_norest","8469","3","20","Male","","","","","","","null","<div style=""font-size:60px;"">+</div>","null","fixation","","","","","","","","","89","","",""
"revaluation","207","927159","0.0-4.0-2.0-0.45","spark_pilot_norest","8469","3","20","Male","","false","","","","","[569.4000000953674,465.40000009536743]","./assets/img/ocean/memory/28.jpg","[""ArrowDown"",""ArrowRight""]","value training","ocean","30","{""ArrowUp,ArrowLeft"":23,""ArrowUp,ArrowRight"":10,""ArrowDown,ArrowLeft"":8,""ArrowDown,ArrowRight"":30}","true","ArrowDown,ArrowRight","false","original","1","90","","",""
"html-keyboard-response","208","927662","0.0-4.0-2.0-1.45","spark_pilot_norest","8469","3","20","Male","","","","","","","null","<div style=""font-size:60px;"">+</div>","null","fixation","","","","","","","","","91","","",""
"revaluation","209","933676","0.0-4.0-2.0-0.46","spark_pilot_norest","8469","3","20","Male","","false","","","","","[588,491.40000009536743]","./assets/img/ocean/memory/8.jpg","[""ArrowDown"",""ArrowRight""]","value training","ocean","30","{""ArrowUp,ArrowLeft"":23,""ArrowUp,ArrowRight"":10,""ArrowDown,ArrowLeft"":8,""ArrowDown,ArrowRight"":30}","true","ArrowDown,ArrowRight","false","original","1","92","","",""
"html-keyboard-response","210","934178","0.0-4.0-2.0-1.46","spark_pilot_norest","8469","3","20","Male","","","","","","","null","<div style=""font-size:60px;"">+</div>","null","fixation","","","","","","","","","93","","",""
"revaluation","211","940211","0.0-4.0-2.0-0.47","spark_pilot_norest","8469","3","20","Male","","false","","","","","[508.5,349.2000002861023]","./assets/img/ocean/memory/0.jpg","[""ArrowDown"",""ArrowRight""]","value training","ocean","30","{""ArrowUp,ArrowLeft"":23,""ArrowUp,ArrowRight"":10,""ArrowDown,ArrowLeft"":8,""ArrowDown,ArrowRight"":30}","true","ArrowDown,ArrowRight","false","original","1","94","","",""
"html-keyboard-response","212","940726","0.0-4.0-2.0-1.47","spark_pilot_norest","8469","3","20","Male","","","","","","","null","<div style=""font-size:60px;"">+</div>","null","fixation","","","","","","","","","95","","",""
"revaluation","213","946736","0.0-4.0-2.0-0.48","spark_pilot_norest","8469","3","20","Male","","false","","","","","[569.1999998092651,302.69999980926514]","./assets/img/ocean/memory/11.jpg","[""ArrowDown"",""ArrowRight""]","value training","ocean","30","{""ArrowUp,ArrowLeft"":23,""ArrowUp,ArrowRight"":10,""ArrowDown,ArrowLeft"":8,""ArrowDown,ArrowRight"":30}","true","ArrowDown,ArrowRight","false","original","1","96","","",""
"html-keyboard-response","214","947237","0.0-4.0-2.0-1.48","spark_pilot_norest","8469","3","20","Male","","","","","","","null","<div style=""font-size:60px;"">+</div>","null","fixation","","","","","","","","","97","","",""
"revaluation","215","953254","0.0-4.0-2.0-0.49","spark_pilot_norest","8469","3","20","Male","","false","","","","","[786.2999997138977,511.09999990463257]","./assets/img/ocean/memory/17.jpg","[""ArrowDown"",""ArrowLeft""]","value training","ocean","8","{""ArrowUp,ArrowLeft"":23,""ArrowUp,ArrowRight"":10,""ArrowDown,ArrowLeft"":8,""ArrowDown,ArrowRight"":30}","false","ArrowDown,ArrowLeft","false","original","1","98","","",""
"html-keyboard-response","216","953756","0.0-4.0-2.0-1.49","spark_pilot_norest","8469","3","20","Male","","","","","","","null","<div style=""font-size:60px;"">+</div>","null","fixation","","","","","","","","","99","","",""
"learning-instructions","217","968360","0.0-4.0-3.0-0.0","spark_pilot_norest","8469","3","20","Male","","","","","","","1507.1999998092651","<p> Now, you will travel with a friend who will choose whether you go up or down first. </p>
            <p> On these turns, you will just see the animal that they found. You will still get to choose which chest to search for treasure.</p>","","instructions","","","","","","","","","","","",""
"revaluation","218","972382","0.0-4.0-4.0-0.0","spark_pilot_norest","8469","3","20","Male","","false","","","","","[1871]","./assets/img/ocean/animals/seahorse.jpg","[""ArrowRight""]","revaluation","ocean","10","{""ArrowUp,ArrowLeft"":23,""ArrowUp,ArrowRight"":10,""ArrowDown,ArrowLeft"":8,""ArrowDown,ArrowRight"":30}","false","ArrowUp,ArrowRight","","original","1","0","","",""
"html-keyboard-response","219","972899","0.0-4.0-4.0-1.0","spark_pilot_norest","8469","3","20","Male","","","","","","","null","<div style=""font-size:60px;"">+</div>","null","fixation","","","","","","","","","1","","",""
"revaluation","220","976915","0.0-4.0-4.0-0.1","spark_pilot_norest","8469","3","20","Male","","false","","","","","[692.5999999046326]","./assets/img/ocean/animals/octopus.jpg","[""ArrowRight""]","revaluation","ocean","30","{""ArrowUp,ArrowLeft"":23,""ArrowUp,ArrowRight"":10,""ArrowDown,ArrowLeft"":8,""ArrowDown,ArrowRight"":30}","true","ArrowDown,ArrowRight","","original","1","2","","",""
"html-keyboard-response","221","977431","0.0-4.0-4.0-1.1","spark_pilot_norest","8469","3","20","Male","","","","","","","null","<div style=""font-size:60px;"">+</div>","null","fixation","","","","","","","","","3","","",""
"revaluation","222","981455","0.0-4.0-4.0-0.2","spark_pilot_norest","8469","3","20","Male","","false","","","","","[621.8000001907349]","./assets/img/ocean/animals/octopus.jpg","[""ArrowRight""]","revaluation","ocean","30","{""ArrowUp,ArrowLeft"":23,""ArrowUp,ArrowRight"":10,""ArrowDown,ArrowLeft"":8,""ArrowDown,ArrowRight"":30}","true","ArrowDown,ArrowRight","","original","1","4","","",""
"html-keyboard-response","223","981973","0.0-4.0-4.0-1.2","spark_pilot_norest","8469","3","20","Male","","","","","","","null","<div style=""font-size:60px;"">+</div>","null","fixation","","","","","","","","","5","","",""
"revaluation","224","985997","0.0-4.0-4.0-0.3","spark_pilot_norest","8469","3","20","Male","","false","","","","","[663.6999998092651]","./assets/img/ocean/animals/seahorse.jpg","[""ArrowLeft""]","revaluation","ocean","23","{""ArrowUp,ArrowLeft"":23,""ArrowUp,ArrowRight"":10,""ArrowDown,ArrowLeft"":8,""ArrowDown,ArrowRight"":30}","true","ArrowUp,ArrowLeft","","original","1","6","","",""
"html-keyboard-response","225","986514","0.0-4.0-4.0-1.3","spark_pilot_norest","8469","3","20","Male","","","","","","","null","<div style=""font-size:60px;"">+</div>","null","fixation","","","","","","","","","7","","",""
"revaluation","226","990538","0.0-4.0-4.0-0.4","spark_pilot_norest","8469","3","20","Male","","false","","","","","[1245.5]","./assets/img/ocean/animals/seahorse.jpg","[""ArrowLeft""]","revaluation","ocean","23","{""ArrowUp,ArrowLeft"":23,""ArrowUp,ArrowRight"":10,""ArrowDown,ArrowLeft"":8,""ArrowDown,ArrowRight"":30}","true","ArrowUp,ArrowLeft","","original","1","8","","",""
"html-keyboard-response","227","991055","0.0-4.0-4.0-1.4","spark_pilot_norest","8469","3","20","Male","","","","","","","null","<div style=""font-size:60px;"">+</div>","null","fixation","","","","","","","","","9","","",""
"revaluation","228","995076","0.0-4.0-4.0-0.5","spark_pilot_norest","8469","3","20","Male","","false","","","","","[537.5]","./assets/img/ocean/animals/octopus.jpg","[""ArrowRight""]","revaluation","ocean","30","{""ArrowUp,ArrowLeft"":23,""ArrowUp,ArrowRight"":10,""ArrowDown,ArrowLeft"":8,""ArrowDown,ArrowRight"":30}","true","ArrowDown,ArrowRight","","original","1","10","","",""
"html-keyboard-response","229","995589","0.0-4.0-4.0-1.5","spark_pilot_norest","8469","3","20","Male","","","","","","","null","<div style=""font-size:60px;"">+</div>","null","fixation","","","","","","","","","11","","",""
"revaluation","230","999596","0.0-4.0-4.0-0.6","spark_pilot_norest","8469","3","20","Male","","false","","","","","[542.1000003814697]","./assets/img/ocean/animals/octopus.jpg","[""ArrowRight""]","revaluation","ocean","30","{""ArrowUp,ArrowLeft"":23,""ArrowUp,ArrowRight"":10,""ArrowDown,ArrowLeft"":8,""ArrowDown,ArrowRight"":30}","true","ArrowDown,ArrowRight","","original","1","12","","",""
"html-keyboard-response","231","1000098","0.0-4.0-4.0-1.6","spark_pilot_norest","8469","3","20","Male","","","","","","","null","<div style=""font-size:60px;"">+</div>","null","fixation","","","","","","","","","13","","",""
"revaluation","232","1004106","0.0-4.0-4.0-0.7","spark_pilot_norest","8469","3","20","Male","","false","","","","","[773.4000000953674]","./assets/img/ocean/animals/seahorse.jpg","[""ArrowLeft""]","revaluation","ocean","23","{""ArrowUp,ArrowLeft"":23,""ArrowUp,ArrowRight"":10,""ArrowDown,ArrowLeft"":8,""ArrowDown,ArrowRight"":30}","true","ArrowUp,ArrowLeft","","original","1","14","","",""
"html-keyboard-response","233","1004609","0.0-4.0-4.0-1.7","spark_pilot_norest","8469","3","20","Male","","","","","","","null","<div style=""font-size:60px;"">+</div>","null","fixation","","","","","","","","","15","","",""
"revaluation","234","1008614","0.0-4.0-4.0-0.8","spark_pilot_norest","8469","3","20","Male","","false","","","","","[526.5999999046326]","./assets/img/ocean/animals/octopus.jpg","[""ArrowRight""]","revaluation","ocean","30","{""ArrowUp,ArrowLeft"":23,""ArrowUp,ArrowRight"":10,""ArrowDown,ArrowLeft"":8,""ArrowDown,ArrowRight"":30}","true","ArrowDown,ArrowRight","","original","1","16","","",""
"html-keyboard-response","235","1009115","0.0-4.0-4.0-1.8","spark_pilot_norest","8469","3","20","Male","","","","","","","null","<div style=""font-size:60px;"">+</div>","null","fixation","","","","","","","","","17","","",""
"revaluation","236","1013123","0.0-4.0-4.0-0.9","spark_pilot_norest","8469","3","20","Male","","false","","","","","[573.5999999046326]","./assets/img/ocean/animals/seahorse.jpg","[""ArrowLeft""]","revaluation","ocean","23","{""ArrowUp,ArrowLeft"":23,""ArrowUp,ArrowRight"":10,""ArrowDown,ArrowLeft"":8,""ArrowDown,ArrowRight"":30}","true","ArrowUp,ArrowLeft","","original","1","18","","",""
"html-keyboard-response","237","1013625","0.0-4.0-4.0-1.9","spark_pilot_norest","8469","3","20","Male","","","","","","","null","<div style=""font-size:60px;"">+</div>","null","fixation","","","","","","","","","19","","",""
"revaluation","238","1017632","0.0-4.0-4.0-0.10","spark_pilot_norest","8469","3","20","Male","","false","","","","","[483.80000019073486]","./assets/img/ocean/animals/octopus.jpg","[""ArrowRight""]","revaluation","ocean","30","{""ArrowUp,ArrowLeft"":23,""ArrowUp,ArrowRight"":10,""ArrowDown,ArrowLeft"":8,""ArrowDown,ArrowRight"":30}","true","ArrowDown,ArrowRight","","original","1","20","","",""
"html-keyboard-response","239","1018135","0.0-4.0-4.0-1.10","spark_pilot_norest","8469","3","20","Male","","","","","","","null","<div style=""font-size:60px;"">+</div>","null","fixation","","","","","","","","","21","","",""
"revaluation","240","1022141","0.0-4.0-4.0-0.11","spark_pilot_norest","8469","3","20","Male","","false","","","","","[598.1999998092651]","./assets/img/ocean/animals/octopus.jpg","[""ArrowRight""]","revaluation","ocean","30","{""ArrowUp,ArrowLeft"":23,""ArrowUp,ArrowRight"":10,""ArrowDown,ArrowLeft"":8,""ArrowDown,ArrowRight"":30}","true","ArrowDown,ArrowRight","","original","1","22","","",""
"html-keyboard-response","241","1022644","0.0-4.0-4.0-1.11","spark_pilot_norest","8469","3","20","Male","","","","","","","null","<div style=""font-size:60px;"">+</div>","null","fixation","","","","","","","","","23","","",""
"revaluation","242","1026651","0.0-4.0-4.0-0.12","spark_pilot_norest","8469","3","20","Male","","false","","","","","[511.7000002861023]","./assets/img/ocean/animals/seahorse.jpg","[""ArrowLeft""]","revaluation","ocean","23","{""ArrowUp,ArrowLeft"":23,""ArrowUp,ArrowRight"":10,""ArrowDown,ArrowLeft"":8,""ArrowDown,ArrowRight"":30}","true","ArrowUp,ArrowLeft","","original","1","24","","",""
"html-keyboard-response","243","1027153","0.0-4.0-4.0-1.12","spark_pilot_norest","8469","3","20","Male","","","","","","","null","<div style=""font-size:60px;"">+</div>","null","fixation","","","","","","","","","25","","",""
"revaluation","244","1031161","0.0-4.0-4.0-0.13","spark_pilot_norest","8469","3","20","Male","","false","","","","","[431]","./assets/img/ocean/animals/octopus.jpg","[""ArrowRight""]","revaluation","ocean","30","{""ArrowUp,ArrowLeft"":23,""ArrowUp,ArrowRight"":10,""ArrowDown,ArrowLeft"":8,""ArrowDown,ArrowRight"":30}","true","ArrowDown,ArrowRight","","original","1","26","","",""
"html-keyboard-response","245","1031662","0.0-4.0-4.0-1.13","spark_pilot_norest","8469","3","20","Male","","","","","","","null","<div style=""font-size:60px;"">+</div>","null","fixation","","","","","","","","","27","","",""
"revaluation","246","1035670","0.0-4.0-4.0-0.14","spark_pilot_norest","8469","3","20","Male","","false","","","","","[672.5]","./assets/img/ocean/animals/octopus.jpg","[""ArrowRight""]","revaluation","ocean","30","{""ArrowUp,ArrowLeft"":23,""ArrowUp,ArrowRight"":10,""ArrowDown,ArrowLeft"":8,""ArrowDown,ArrowRight"":30}","true","ArrowDown,ArrowRight","","original","1","28","","",""
"html-keyboard-response","247","1036172","0.0-4.0-4.0-1.14","spark_pilot_norest","8469","3","20","Male","","","","","","","null","<div style=""font-size:60px;"">+</div>","null","fixation","","","","","","","","","29","","",""
"revaluation","248","1040179","0.0-4.0-4.0-0.15","spark_pilot_norest","8469","3","20","Male","","false","","","","","[588.0999999046326]","./assets/img/ocean/animals/seahorse.jpg","[""ArrowLeft""]","revaluation","ocean","23","{""ArrowUp,ArrowLeft"":23,""ArrowUp,ArrowRight"":10,""ArrowDown,ArrowLeft"":8,""ArrowDown,ArrowRight"":30}","true","ArrowUp,ArrowLeft","","original","1","30","","",""
"html-keyboard-response","249","1040681","0.0-4.0-4.0-1.15","spark_pilot_norest","8469","3","20","Male","","","","","","","null","<div style=""font-size:60px;"">+</div>","null","fixation","","","","","","","","","31","","",""
"revaluation","250","1044688","0.0-4.0-4.0-0.16","spark_pilot_norest","8469","3","20","Male","","false","","","","","[779.5]","./assets/img/ocean/animals/seahorse.jpg","[""ArrowLeft""]","revaluation","ocean","23","{""ArrowUp,ArrowLeft"":23,""ArrowUp,ArrowRight"":10,""ArrowDown,ArrowLeft"":8,""ArrowDown,ArrowRight"":30}","true","ArrowUp,ArrowLeft","","original","1","32","","",""
"html-keyboard-response","251","1045190","0.0-4.0-4.0-1.16","spark_pilot_norest","8469","3","20","Male","","","","","","","null","<div style=""font-size:60px;"">+</div>","null","fixation","","","","","","","","","33","","",""
"revaluation","252","1049195","0.0-4.0-4.0-0.17","spark_pilot_norest","8469","3","20","Male","","false","","","","","[586.2000002861023]","./assets/img/ocean/animals/seahorse.jpg","[""ArrowLeft""]","revaluation","ocean","23","{""ArrowUp,ArrowLeft"":23,""ArrowUp,ArrowRight"":10,""ArrowDown,ArrowLeft"":8,""ArrowDown,ArrowRight"":30}","true","ArrowUp,ArrowLeft","","original","1","34","","",""
"html-keyboard-response","253","1049696","0.0-4.0-4.0-1.17","spark_pilot_norest","8469","3","20","Male","","","","","","","null","<div style=""font-size:60px;"">+</div>","null","fixation","","","","","","","","","35","","",""
"learning-instructions","254","1058040","0.0-4.0-5.0-0.0","spark_pilot_norest","8469","3","20","Male","","","","","","","null","<p> You have almost finished this part of the game! </p>
            <p> We are going to ask you to make a few more choices. </p>","","instructions","","","","","","","","","","","",""
"learning-instructions","255","1074022","0.0-4.0-5.0-0.1","spark_pilot_norest","8469","3","20","Male","","","","","","","null","<p> First, you need to decide whether to go up or down. When you see each picture, use the arrow keys to make your choice. </p>
            <p><b>You will not see which animal you found, but try to get to the one that will give you the most treasure.</b></p>","","instructions","","","","","","","","","","","",""
"html-keyboard-response","256","1075035","0.0-4.0-6.0-0.0","spark_pilot_norest","8469","3","20","Male","","","","","","","null","<div style=""font-size:100px;color:red;"">Starting in...</div>","null","","","","","","","","","","","","",""
"html-keyboard-response","257","1076046","0.0-4.0-6.0-1.0","spark_pilot_norest","8469","3","20","Male","","","","","","","null","<div style=""font-size:200px;color:red;"">3</div>","null","","","","","","","","","","","","",""
"html-keyboard-response","258","1077060","0.0-4.0-6.0-2.0","spark_pilot_norest","8469","3","20","Male","","","","","","","null","<div style=""font-size:200px;color:red;"">2</div>","null","","","","","","","","","","","","",""
"html-keyboard-response","259","1078071","0.0-4.0-6.0-3.0","spark_pilot_norest","8469","3","20","Male","","","","","","","null","<div style=""font-size:200px;color:red;"">1</div>","null","","","","","","","","","","","","",""
"revaluation","260","1078909","0.0-4.0-7.0-0.0","spark_pilot_norest","8469","3","20","Male","","false","","","","","[833.3000001907349]","./assets/img/ocean/test/0.jpg","[""ArrowUp""]","first stage test","ocean","0","{""ArrowUp,ArrowLeft"":23,""ArrowUp,ArrowRight"":10,""ArrowDown,ArrowLeft"":8,""ArrowDown,ArrowRight"":30}","false","ArrowUp","false","original","1","","","",""
"html-keyboard-response","261","1079413","0.0-4.0-7.0-1.0","spark_pilot_norest","8469","3","20","Male","","","","","","","null","<div style=""font-size:60px;"">+</div>","null","fixation","","","","","","","","","","","",""
"revaluation","262","1080400","0.0-4.0-7.0-0.1","spark_pilot_norest","8469","3","20","Male","","false","","","","","[982.4000000953674]","./assets/img/ocean/test/3.jpg","[""ArrowUp""]","first stage test","ocean","0","{""ArrowUp,ArrowLeft"":23,""ArrowUp,ArrowRight"":10,""ArrowDown,ArrowLeft"":8,""ArrowDown,ArrowRight"":30}","false","ArrowUp","false","original","1","","","",""
"html-keyboard-response","263","1080911","0.0-4.0-7.0-1.1","spark_pilot_norest","8469","3","20","Male","","","","","","","null","<div style=""font-size:60px;"">+</div>","null","fixation","","","","","","","","","","","",""
"revaluation","264","1082051","0.0-4.0-7.0-0.2","spark_pilot_norest","8469","3","20","Male","","false","","","","","[1134.7999997138977]","./assets/img/ocean/test/2.jpg","[""ArrowUp""]","first stage test","ocean","0","{""ArrowUp,ArrowLeft"":23,""ArrowUp,ArrowRight"":10,""ArrowDown,ArrowLeft"":8,""ArrowDown,ArrowRight"":30}","false","ArrowUp","false","original","1","","","",""
"html-keyboard-response","265","1082565","0.0-4.0-7.0-1.2","spark_pilot_norest","8469","3","20","Male","","","","","","","null","<div style=""font-size:60px;"">+</div>","null","fixation","","","","","","","","","","","",""
"revaluation","266","1083703","0.0-4.0-7.0-0.3","spark_pilot_norest","8469","3","20","Male","","false","","","","","[1133]","./assets/img/ocean/test/1.jpg","[""ArrowDown""]","first stage test","ocean","0","{""ArrowUp,ArrowLeft"":23,""ArrowUp,ArrowRight"":10,""ArrowDown,ArrowLeft"":8,""ArrowDown,ArrowRight"":30}","true","ArrowDown","false","original","1","","","",""
"html-keyboard-response","267","1084208","0.0-4.0-7.0-1.3","spark_pilot_norest","8469","3","20","Male","","","","","","","null","<div style=""font-size:60px;"">+</div>","null","fixation","","","","","","","","","","","",""
"learning-instructions","268","1097566","0.0-4.0-8.0-0.0","spark_pilot_norest","8469","3","20","Male","","","","","","","null","<p> Now you will see the animals again and can search their chests for treasure. </p>
            <p> This time, you will not see how much treasure you earned, but you will earn more bonus money for making better choices. </p>","","instructions","","","","","","","","","","","",""
"html-keyboard-response","269","1098569","0.0-4.0-9.0-0.0","spark_pilot_norest","8469","3","20","Male","","","","","","","null","<div style=""font-size:100px;color:red;"">Starting in...</div>","null","","","","","","","","","","","","",""
"html-keyboard-response","270","1099584","0.0-4.0-9.0-1.0","spark_pilot_norest","8469","3","20","Male","","","","","","","null","<div style=""font-size:200px;color:red;"">3</div>","null","","","","","","","","","","","","",""
"html-keyboard-response","271","1100596","0.0-4.0-9.0-2.0","spark_pilot_norest","8469","3","20","Male","","","","","","","null","<div style=""font-size:200px;color:red;"">2</div>","null","","","","","","","","","","","","",""
"html-keyboard-response","272","1101600","0.0-4.0-9.0-3.0","spark_pilot_norest","8469","3","20","Male","","","","","","","null","<div style=""font-size:200px;color:red;"">1</div>","null","","","","","","","","","","","","",""
"revaluation","273","1102397","0.0-4.0-10.0-0.0","spark_pilot_norest","8469","3","20","Male","","false","","","","","[792]","./assets/img/ocean/animals/seahorse.jpg","[""ArrowLeft""]","second stage test","ocean","0","{""ArrowUp,ArrowLeft"":23,""ArrowUp,ArrowRight"":10,""ArrowDown,ArrowLeft"":8,""ArrowDown,ArrowRight"":30}","true","ArrowUp,ArrowLeft","","original","1","","","",""
"html-keyboard-response","274","1102911","0.0-4.0-10.0-1.0","spark_pilot_norest","8469","3","20","Male","","","","","","","null","<div style=""font-size:60px;"">+</div>","null","fixation","","","","","","","","","","","",""
"revaluation","275","1103471","0.0-4.0-10.0-0.1","spark_pilot_norest","8469","3","20","Male","","false","","","","","[555.0999999046326]","./assets/img/ocean/animals/seahorse.jpg","[""ArrowLeft""]","second stage test","ocean","0","{""ArrowUp,ArrowLeft"":23,""ArrowUp,ArrowRight"":10,""ArrowDown,ArrowLeft"":8,""ArrowDown,ArrowRight"":30}","true","ArrowUp,ArrowLeft","","original","1","","","",""
"html-keyboard-response","276","1103976","0.0-4.0-10.0-1.1","spark_pilot_norest","8469","3","20","Male","","","","","","","null","<div style=""font-size:60px;"">+</div>","null","fixation","","","","","","","","","","","",""
"revaluation","277","1104484","0.0-4.0-10.0-0.2","spark_pilot_norest","8469","3","20","Male","","false","","","","","[502.6000003814697]","./assets/img/ocean/animals/seahorse.jpg","[""ArrowLeft""]","second stage test","ocean","0","{""ArrowUp,ArrowLeft"":23,""ArrowUp,ArrowRight"":10,""ArrowDown,ArrowLeft"":8,""ArrowDown,ArrowRight"":30}","true","ArrowUp,ArrowLeft","","original","1","","","",""
"html-keyboard-response","278","1104991","0.0-4.0-10.0-1.2","spark_pilot_norest","8469","3","20","Male","","","","","","","null","<div style=""font-size:60px;"">+</div>","null","fixation","","","","","","","","","","","",""
"revaluation","279","1105582","0.0-4.0-10.0-0.3","spark_pilot_norest","8469","3","20","Male","","false","","","","","[586.9000000953674]","./assets/img/ocean/animals/seahorse.jpg","[""ArrowLeft""]","second stage test","ocean","0","{""ArrowUp,ArrowLeft"":23,""ArrowUp,ArrowRight"":10,""ArrowDown,ArrowLeft"":8,""ArrowDown,ArrowRight"":30}","true","ArrowUp,ArrowLeft","","original","1","","","",""
"html-keyboard-response","280","1106084","0.0-4.0-10.0-1.3","spark_pilot_norest","8469","3","20","Male","","","","","","","null","<div style=""font-size:60px;"">+</div>","null","fixation","","","","","","","","","","","",""
"revaluation","281","1106608","0.0-4.0-10.0-0.4","spark_pilot_norest","8469","3","20","Male","","false","","","","","[521.1999998092651]","./assets/img/ocean/animals/octopus.jpg","[""ArrowRight""]","second stage test","ocean","0","{""ArrowUp,ArrowLeft"":23,""ArrowUp,ArrowRight"":10,""ArrowDown,ArrowLeft"":8,""ArrowDown,ArrowRight"":30}","true","ArrowDown,ArrowRight","","original","1","","","",""
"html-keyboard-response","282","1107114","0.0-4.0-10.0-1.4","spark_pilot_norest","8469","3","20","Male","","","","","","","null","<div style=""font-size:60px;"">+</div>","null","fixation","","","","","","","","","","","",""
"revaluation","283","1107588","0.0-4.0-10.0-0.5","spark_pilot_norest","8469","3","20","Male","","false","","","","","[469.40000009536743]","./assets/img/ocean/animals/octopus.jpg","[""ArrowRight""]","second stage test","ocean","0","{""ArrowUp,ArrowLeft"":23,""ArrowUp,ArrowRight"":10,""ArrowDown,ArrowLeft"":8,""ArrowDown,ArrowRight"":30}","true","ArrowDown,ArrowRight","","original","1","","","",""
"html-keyboard-response","284","1108097","0.0-4.0-10.0-1.5","spark_pilot_norest","8469","3","20","Male","","","","","","","null","<div style=""font-size:60px;"">+</div>","null","fixation","","","","","","","","","","","",""
"revaluation","285","1108579","0.0-4.0-10.0-0.6","spark_pilot_norest","8469","3","20","Male","","false","","","","","[478.19999980926514]","./assets/img/ocean/animals/octopus.jpg","[""ArrowRight""]","second stage test","ocean","0","{""ArrowUp,ArrowLeft"":23,""ArrowUp,ArrowRight"":10,""ArrowDown,ArrowLeft"":8,""ArrowDown,ArrowRight"":30}","true","ArrowDown,ArrowRight","","original","1","","","",""
"html-keyboard-response","286","1109093","0.0-4.0-10.0-1.6","spark_pilot_norest","8469","3","20","Male","","","","","","","null","<div style=""font-size:60px;"">+</div>","null","fixation","","","","","","","","","","","",""
"revaluation","287","1109544","0.0-4.0-10.0-0.7","spark_pilot_norest","8469","3","20","Male","","false","","","","","[445.90000009536743]","./assets/img/ocean/animals/octopus.jpg","[""ArrowRight""]","second stage test","ocean","0","{""ArrowUp,ArrowLeft"":23,""ArrowUp,ArrowRight"":10,""ArrowDown,ArrowLeft"":8,""ArrowDown,ArrowRight"":30}","true","ArrowDown,ArrowRight","","original","1","","","",""
"html-keyboard-response","288","1110059","0.0-4.0-10.0-1.7","spark_pilot_norest","8469","3","20","Male","","","","","","","null","<div style=""font-size:60px;"">+</div>","null","fixation","","","","","","","","","","","",""
"learning-instructions","289","1114696","0.0-4.0-0.1-0.2","spark_pilot_norest","8469","3","20","Male","","","","","","","1849.1999998092651","<p> This time you are searching for treasure in the <b>canyon</b>.</p>","","instructions","","","","","","","","","","","",""
"learning-instructions","290","1136448","0.0-4.0-0.1-0.3","spark_pilot_norest","8469","3","20","Male","","","","","","","4501","<p><b>New</b> animals with <b>new</b> treasure chests live here. You need to explore to discover where the animal with the best treasure chest is.</p>
                    <p> Like before, once you figure out which animal has the chest with the most treasure, you should try to get to that animal and select that chest! </p>","","instructions","","","","","","","","","","","",""
"learning-instructions","291","1152775","0.0-4.0-1.1-0.1","spark_pilot_norest","8469","3","20","Male","","","","","","","1588.1999998092651","<p> Remember, when you see a picture of the place, use the up and down keys to <b>find an animal</b>.</p>
            <p> When you encounter an animal, you should use the left and right keys to <b>select a treasure chest</b>.</p>
            <p> Don't forget to look out for the robber! </p>","","instructions","","","","","","","","","","","",""
"revaluation","292","1156795","0.0-4.0-2.1-0.50","spark_pilot_norest","8469","3","20","Male","","false","","","","","[1152.9000000953674]","./assets/img/canyon/catch/6.jpg","[""spaceBar""]","value training","canyon","0","{""ArrowUp,ArrowLeft"":26,""ArrowUp,ArrowRight"":10,""ArrowDown,ArrowLeft"":5,""ArrowDown,ArrowRight"":17}","true","spaceBar","true","revaluation","2","0","","",""
"html-keyboard-response","293","1157310","0.0-4.0-2.1-1.50","spark_pilot_norest","8469","3","20","Male","","","","","","","null","<div style=""font-size:60px;"">+</div>","null","fixation","","","","","","","","","1","","",""
"revaluation","294","1161331","0.0-4.0-2.1-0.51","spark_pilot_norest","8469","3","20","Male","","false","","","","","[661.9000000953674]","./assets/img/canyon/catch/7.jpg","[""spaceBar""]","value training","canyon","0","{""ArrowUp,ArrowLeft"":26,""ArrowUp,ArrowRight"":10,""ArrowDown,ArrowLeft"":5,""ArrowDown,ArrowRight"":17}","true","spaceBar","true","revaluation","2","2","","",""
"html-keyboard-response","295","1161833","0.0-4.0-2.1-1.51","spark_pilot_norest","8469","3","20","Male","","","","","","","null","<div style=""font-size:60px;"">+</div>","null","fixation","","","","","","","","","3","","",""
"revaluation","296","1167842","0.0-4.0-2.1-0.52","spark_pilot_norest","8469","3","20","Male","","false","","","","","[653.8000001907349,508.40000009536743]","./assets/img/canyon/memory/1.jpg","[""ArrowUp"",""ArrowRight""]","value training","canyon","10","{""ArrowUp,ArrowLeft"":26,""ArrowUp,ArrowRight"":10,""ArrowDown,ArrowLeft"":5,""ArrowDown,ArrowRight"":17}","false","ArrowUp,ArrowRight","false","revaluation","2","4","","",""
"html-keyboard-response","297","1168357","0.0-4.0-2.1-1.52","spark_pilot_norest","8469","3","20","Male","","","","","","","null","<div style=""font-size:60px;"">+</div>","null","fixation","","","","","","","","","5","","",""
"revaluation","298","1172375","0.0-4.0-2.1-0.53","spark_pilot_norest","8469","3","20","Male","","false","","","","","[849.6999998092651]","./assets/img/canyon/catch/4.jpg","[""spaceBar""]","value training","canyon","0","{""ArrowUp,ArrowLeft"":26,""ArrowUp,ArrowRight"":10,""ArrowDown,ArrowLeft"":5,""ArrowDown,ArrowRight"":17}","true","spaceBar","true","revaluation","2","6","","",""
"html-keyboard-response","299","1172888","0.0-4.0-2.1-1.53","spark_pilot_norest","8469","3","20","Male","","","","","","","null","<div style=""font-size:60px;"">+</div>","null","fixation","","","","","","","","","7","","",""
"revaluation","300","1178923","0.0-4.0-2.1-0.54","spark_pilot_norest","8469","3","20","Male","","false","","","","","[1412.5,282.30000019073486]","./assets/img/canyon/memory/10.jpg","[""ArrowUp"",""ArrowLeft""]","value training","canyon","26","{""ArrowUp,ArrowLeft"":26,""ArrowUp,ArrowRight"":10,""ArrowDown,ArrowLeft"":5,""ArrowDown,ArrowRight"":17}","true","ArrowUp,ArrowLeft","false","revaluation","2","8","","",""
"html-keyboard-response","301","1179429","0.0-4.0-2.1-1.54","spark_pilot_norest","8469","3","20","Male","","","","","","","null","<div style=""font-size:60px;"">+</div>","null","fixation","","","","","","","","","9","","",""
"revaluation","302","1185436","0.0-4.0-2.1-0.55","spark_pilot_norest","8469","3","20","Male","","false","","","","","[1787.8000001907349,519]","./assets/img/canyon/memory/41.jpg","[""ArrowDown"",""ArrowRight""]","value training","canyon","17","{""ArrowUp,ArrowLeft"":26,""ArrowUp,ArrowRight"":10,""ArrowDown,ArrowLeft"":5,""ArrowDown,ArrowRight"":17}","false","ArrowDown,ArrowRight","false","revaluation","2","10","","",""
"html-keyboard-response","303","1185938","0.0-4.0-2.1-1.55","spark_pilot_norest","8469","3","20","Male","","","","","","","null","<div style=""font-size:60px;"">+</div>","null","fixation","","","","","","","","","11","","",""
"revaluation","304","1191956","0.0-4.0-2.1-0.56","spark_pilot_norest","8469","3","20","Male","","false","","","","","[393.09999990463257,309.19999980926514]","./assets/img/canyon/memory/1.jpg","[""ArrowDown"",""ArrowLeft""]","value training","canyon","5","{""ArrowUp,ArrowLeft"":26,""ArrowUp,ArrowRight"":10,""ArrowDown,ArrowLeft"":5,""ArrowDown,ArrowRight"":17}","false","ArrowDown,ArrowLeft","false","revaluation","2","12","","",""
"html-keyboard-response","305","1192474","0.0-4.0-2.1-1.56","spark_pilot_norest","8469","3","20","Male","","","","","","","null","<div style=""font-size:60px;"">+</div>","null","fixation","","","","","","","","","13","","",""
"revaluation","306","1198483","0.0-4.0-2.1-0.57","spark_pilot_norest","8469","3","20","Male","","false","","","","","[739.5,520.4000000953674]","./assets/img/canyon/memory/25.jpg","[""ArrowUp"",""ArrowRight""]","value training","canyon","10","{""ArrowUp,ArrowLeft"":26,""ArrowUp,ArrowRight"":10,""ArrowDown,ArrowLeft"":5,""ArrowDown,ArrowRight"":17}","false","ArrowUp,ArrowRight","false","revaluation","2","14","","",""
"html-keyboard-response","307","1198985","0.0-4.0-2.1-1.57","spark_pilot_norest","8469","3","20","Male","","","","","","","null","<div style=""font-size:60px;"">+</div>","null","fixation","","","","","","","","","15","","",""
"revaluation","308","1204993","0.0-4.0-2.1-0.58","spark_pilot_norest","8469","3","20","Male","","false","","","","","[1194.3000001907349,343.5]","./assets/img/canyon/memory/23.jpg","[""ArrowUp"",""ArrowLeft""]","value training","canyon","26","{""ArrowUp,ArrowLeft"":26,""ArrowUp,ArrowRight"":10,""ArrowDown,ArrowLeft"":5,""ArrowDown,ArrowRight"":17}","true","ArrowUp,ArrowLeft","false","revaluation","2","16","","",""
"html-keyboard-response","309","1205496","0.0-4.0-2.1-1.58","spark_pilot_norest","8469","3","20","Male","","","","","","","null","<div style=""font-size:60px;"">+</div>","null","fixation","","","","","","","","","17","","",""
"revaluation","310","1211508","0.0-4.0-2.1-0.59","spark_pilot_norest","8469","3","20","Male","","false","","","","","[556,376.09999990463257]","./assets/img/canyon/memory/41.jpg","[""ArrowUp"",""ArrowLeft""]","value training","canyon","26","{""ArrowUp,ArrowLeft"":26,""ArrowUp,ArrowRight"":10,""ArrowDown,ArrowLeft"":5,""ArrowDown,ArrowRight"":17}","true","ArrowUp,ArrowLeft","false","revaluation","2","18","","",""
"html-keyboard-response","311","1212011","0.0-4.0-2.1-1.59","spark_pilot_norest","8469","3","20","Male","","","","","","","null","<div style=""font-size:60px;"">+</div>","null","fixation","","","","","","","","","19","","",""
"revaluation","312","1218017","0.0-4.0-2.1-0.60","spark_pilot_norest","8469","3","20","Male","","false","","","","","[582.3000001907349,342.3999996185303]","./assets/img/canyon/memory/35.jpg","[""ArrowUp"",""ArrowLeft""]","value training","canyon","26","{""ArrowUp,ArrowLeft"":26,""ArrowUp,ArrowRight"":10,""ArrowDown,ArrowLeft"":5,""ArrowDown,ArrowRight"":17}","true","ArrowUp,ArrowLeft","false","revaluation","2","20","","",""
"html-keyboard-response","313","1218520","0.0-4.0-2.1-1.60","spark_pilot_norest","8469","3","20","Male","","","","","","","null","<div style=""font-size:60px;"">+</div>","null","fixation","","","","","","","","","21","","",""
