"trial_type","trial_index","time_elapsed","internal_node_id","task_version","subject_id","assigned_condition","age","gender","success","timeout","failed_images","failed_audio","failed_video","browser_interaction","rt","stimulus","response","task_part","environment","score","rewardMap","correct","fullState","isCatch","condition","order","trial_num","key_press","ground_truth","bonus"
"pavlovia","0","1376","0.0-0.0","spark_pilot_norest","8468","2","20","Male","","","","","","","","","","","","","","","","","","","","","",""
"preload","1","24106","0.0-1.0","spark_pilot_norest","8468","2","20","Male","true","false","[]","[]","[]","[{""event"":""fullscreenenter"",""trial"":2,""time"":28827}]","","","","","","","","","","","","","","","",""
"fullscreen","2","29826","0.0-2.0","spark_pilot_norest","8468","2","20","Male","true","","","","","","","","","","","","","","","","","","","","",""
"audio-button-response","3","31507","0.0-3.0-0.0-0.0","spark_pilot_norest","8468","2","20","Male","","","","","","","1341","./assets/audio/audiotest/turtle.mp3","2","audio_test","","","","","","","","","","","",""
"learning-instructions","4","41677","0.0-3.0-1.0-0.0","spark_pilot_norest","8468","2","20","Male","","","","","","","3194.800000011921","<p> Welcome! Please remember to stay in fullscreen mode and don't click away from the experiment. </p>","","instructions","","","","","","","","","","","",""
"learning-instructions","5","52162","0.0-3.0-1.0-0.1","spark_pilot_norest","8468","2","20","Male","","","","","","","2081.0999999940395","<p> Today you will be playing a game to earn treasure. </p>
            <p> At the end of the experiment, you will earn a bonus based on how much treasure you find. </p>
            <img src='./assets/img/instructions/treasure.jpg' class='instructions-image'>","","instructions","","","","","","","","","","","",""
"learning-instructions","6","63818","0.0-3.0-1.0-0.2","spark_pilot_norest","8468","2","20","Male","","","","","","","3395.5","<p> Animals have hidden treasure in treasure chests. </p>
            <p> You need to first find an animal and then choose which of their treasure chests to search. </p>
            <img src='./assets/img/space/animals/cat.jpg' class='instructions-image'>","","instructions","","","","","","","","","","","",""
"learning-instructions","7","78477","0.0-3.0-1.0-0.3","spark_pilot_norest","8468","2","20","Male","","","","","","","1515","<p> In each round, you will search for treasure in a different place. In the real game, there will be two rounds. </p>
            <p> You will begin with a separate, practice round where you will search for treasure in outer space. </p>
            <img src='./assets/img/space/0.jpg' class='instructions-image'>","","instructions","","","","","","","","","","","",""
"learning-instructions","8","92957","0.0-3.0-1.0-0.4","spark_pilot_norest","8468","2","20","Male","","","","","","","3064.800000011921","<p> On every turn, you will see a picture of the place that you are in, but the specific image may be different each time. </p>
            <p> For example, both of these images mean you are in outer space. </p>
            <img src='./assets/img/instructions/outerspace.jpg' class='instructions-image'>","","instructions","","","","","","","","","","","",""
"learning-instructions","9","103161","0.0-3.0-1.0-0.5","spark_pilot_norest","8468","2","20","Male","","","","","","","2387.7999999821186","<p> You need to decide which direction to travel in. </p>
            <p> You can choose between going <b>up or down</b> by using the arrow keys. </p>
            <img src='./assets/img/instructions/updown.jpg' class='instructions-image'>","","instructions","","","","","","","","","","","",""
"learning-instructions","10","114422","0.0-3.0-1.0-0.6","spark_pilot_norest","8468","2","20","Male","","","","","","","2449.899999976158","<p> You will have <b>2 seconds</b> to make your choice. </p>
            <p> If you do not make a choice within 2 seconds, you will not find an animal or earn treasure. </p>
            <img src='./assets/img/instructions/2seconds.jpg' class='instructions-image'>","","instructions","","","","","","","","","","","",""
"learning-instructions","11","125143","0.0-3.0-1.0-0.7","spark_pilot_norest","8468","2","20","Male","","","","","","","3690.4000000059605","<p> Let’s try practicing that now! </p>
            <p> When you see a picture of the place you are in, press the <b>up</b> key to travel up. </p>
            <img src='./assets/img/instructions/pressUp.jpg' class='instructions-image'>","","instructions","","","","","","","","","","","",""
"revaluation","12","129173","0.0-3.0-2.0-0.0","spark_pilot_norest","8468","2","20","Male","","false","","","","","[1319.2999999821186]","./assets/img/space/0.jpg","[""ArrowUp""]","first stage practice","space","0","null","null","ArrowUp","false","","","","","",""
"html-keyboard-response","13","129683","0.0-3.0-2.0-1.0","spark_pilot_norest","8468","2","20","Male","","","","","","","null","<div style=""font-size:60px;"">+</div>","null","fixation","","","","","","","","","","","",""
"revaluation","14","133704","0.0-3.0-2.0-0.1","spark_pilot_norest","8468","2","20","Male","","false","","","","","[1250.5999999940395]","./assets/img/space/1.jpg","[""ArrowUp""]","first stage practice","space","0","null","null","ArrowUp","false","","","","","",""
"html-keyboard-response","15","134219","0.0-3.0-2.0-1.1","spark_pilot_norest","8468","2","20","Male","","","","","","","null","<div style=""font-size:60px;"">+</div>","null","fixation","","","","","","","","","","","",""
"revaluation","16","138240","0.0-3.0-2.0-0.2","spark_pilot_norest","8468","2","20","Male","","false","","","","","[646.4000000059605]","./assets/img/space/2.jpg","[""ArrowUp""]","first stage practice","space","0","null","null","ArrowUp","false","","","","","",""
"html-keyboard-response","17","138752","0.0-3.0-2.0-1.2","spark_pilot_norest","8468","2","20","Male","","","","","","","null","<div style=""font-size:60px;"">+</div>","null","fixation","","","","","","","","","","","",""
"learning-instructions","18","145868","0.0-3.0-3.0-0.0","spark_pilot_norest","8468","2","20","Male","","","","","","","2425.600000023842","<p> Great job! Now try pressing the <b>down</b> key to travel down. </p>
            <img src='./assets/img/instructions/pressDown.jpg' class='instructions-image'>","","instructions","","","","","","","","","","","",""
"revaluation","19","149888","0.0-3.0-4.0-0.0","spark_pilot_norest","8468","2","20","Male","","false","","","","","[1128.199999988079]","./assets/img/space/3.jpg","[""ArrowDown""]","first stage practice","space","0","null","null","ArrowDown","false","","","","","",""
"html-keyboard-response","20","150390","0.0-3.0-4.0-1.0","spark_pilot_norest","8468","2","20","Male","","","","","","","null","<div style=""font-size:60px;"">+</div>","null","fixation","","","","","","","","","","","",""
"revaluation","21","154401","0.0-3.0-4.0-0.1","spark_pilot_norest","8468","2","20","Male","","false","","","","","[712.5]","./assets/img/space/4.jpg","[""ArrowDown""]","first stage practice","space","0","null","null","ArrowDown","false","","","","","",""
"html-keyboard-response","22","154916","0.0-3.0-4.0-1.1","spark_pilot_norest","8468","2","20","Male","","","","","","","null","<div style=""font-size:60px;"">+</div>","null","fixation","","","","","","","","","","","",""
"revaluation","23","158937","0.0-3.0-4.0-0.2","spark_pilot_norest","8468","2","20","Male","","false","","","","","[1523.300000011921]","./assets/img/space/5.jpg","[""ArrowDown""]","first stage practice","space","0","null","null","ArrowDown","false","","","","","",""
"html-keyboard-response","24","159451","0.0-3.0-4.0-1.2","spark_pilot_norest","8468","2","20","Male","","","","","","","null","<div style=""font-size:60px;"">+</div>","null","fixation","","","","","","","","","","","",""
"learning-instructions","25","173138","0.0-3.0-5.0-0.0","spark_pilot_norest","8468","2","20","Male","","","","","","","3846.0999999940395","<p> The animals don’t move, so the animal in the upper part of a place will stay in the upper part of a place, and the animal in the lower part of a place will stay in the lower part of a place. </p>","","instructions","","","","","","","","","","","",""
"learning-instructions","26","186222","0.0-3.0-5.0-0.1","spark_pilot_norest","8468","2","20","Male","","","","","","","3960.9000000059605","<p> Each animal has two treasure chests for you to choose from. </p>
            <p> The amount of treasure in each chest can range from <b> 0 to 40 pieces.</b></p>","","instructions","","","","","","","","","","","",""
"learning-instructions","27","198935","0.0-3.0-5.0-0.2","spark_pilot_norest","8468","2","20","Male","","","","","","","1523","<p> You should decide which chest to search for treasure by using the <b>left</b> and <b>right</b> arrow keys. </p>
            <p><b> Pay attention to which animal is on the screen, as the animals have different treasure chests. </b></p>
            <img src='./assets/img/instructions/leftright.jpg' class='instructions-image'>","","instructions","","","","","","","","","","","",""
"learning-instructions","28","208520","0.0-3.0-5.0-0.3","spark_pilot_norest","8468","2","20","Male","","","","","","","3228.300000011921","<p> Let’s try practicing that now. </p>
            <p> When you see an animal, choose which chest to search for treasure. </p>
            <img src='./assets/img/instructions/chooseChest.jpg' class='instructions-image'>","","instructions","","","","","","","","","","","",""
"revaluation","29","212548","0.0-3.0-6.0-0.0","spark_pilot_norest","8468","2","20","Male","","false","","","","","[1027]","./assets/img/space/animals/cat.jpg","[""ArrowLeft""]","second stage practice","space","3","{""ArrowUp,ArrowLeft"":3,""ArrowUp,ArrowRight"":36,""ArrowDown,ArrowLeft"":15,""ArrowDown,ArrowRight"":23}","false","ArrowUp,ArrowLeft","","","","","","",""
"html-keyboard-response","30","213062","0.0-3.0-6.0-1.0","spark_pilot_norest","8468","2","20","Male","","","","","","","null","<div style=""font-size:60px;"">+</div>","null","fixation","","","","","","","","","","","",""
"revaluation","31","217088","0.0-3.0-6.0-0.1","spark_pilot_norest","8468","2","20","Male","","false","","","","","[535.8000000119209]","./assets/img/space/animals/rabbit.jpg","[""ArrowLeft""]","second stage practice","space","15","{""ArrowUp,ArrowLeft"":3,""ArrowUp,ArrowRight"":36,""ArrowDown,ArrowLeft"":15,""ArrowDown,ArrowRight"":23}","false","ArrowDown,ArrowLeft","","","","","","",""
"html-keyboard-response","32","217598","0.0-3.0-6.0-1.1","spark_pilot_norest","8468","2","20","Male","","","","","","","null","<div style=""font-size:60px;"">+</div>","null","fixation","","","","","","","","","","","",""
"revaluation","33","221620","0.0-3.0-6.0-0.2","spark_pilot_norest","8468","2","20","Male","","false","","","","","[719.4000000059605]","./assets/img/space/animals/rabbit.jpg","[""ArrowRight""]","second stage practice","space","23","{""ArrowUp,ArrowLeft"":3,""ArrowUp,ArrowRight"":36,""ArrowDown,ArrowLeft"":15,""ArrowDown,ArrowRight"":23}","true","ArrowDown,ArrowRight","","","","","","",""
"html-keyboard-response","34","222130","0.0-3.0-6.0-1.2","spark_pilot_norest","8468","2","20","Male","","","","","","","null","<div style=""font-size:60px;"">+</div>","null","fixation","","","","","","","","","","","",""
"revaluation","35","226148","0.0-3.0-6.0-0.3","spark_pilot_norest","8468","2","20","Male","","false","","","","","[673.7000000178814]","./assets/img/space/animals/cat.jpg","[""ArrowRight""]","second stage practice","space","36","{""ArrowUp,ArrowLeft"":3,""ArrowUp,ArrowRight"":36,""ArrowDown,ArrowLeft"":15,""ArrowDown,ArrowRight"":23}","true","ArrowUp,ArrowRight","","","","","","",""
"html-keyboard-response","36","226663","0.0-3.0-6.0-1.3","spark_pilot_norest","8468","2","20","Male","","","","","","","null","<div style=""font-size:60px;"">+</div>","null","fixation","","","","","","","","","","","",""
"learning-instructions","37","247548","0.0-3.0-7.0-0.0","spark_pilot_norest","8468","2","20","Male","","","","","","","4087.300000011921","<p> Great job. Now let’s try putting it together. </p>
            <p> On each turn, you will first see a picture to remind you of the place you are in, and you need to choose whether to go up or down. </p>
            <p> Then you will see an animal and choose which of its chests to search for treasure. </p>","","instructions","","","","","","","","","","","",""
"learning-instructions","38","256380","0.0-3.0-7.0-0.1","spark_pilot_norest","8468","2","20","Male","","","","","","","568.5","<p> When you choose whether to go up or down, try to go to the animal with the chest with the most treasure. </p>
            <p> Try practicing that now! </p>","","instructions","","","","","","","","","","","",""
"revaluation","39","262400","0.0-3.0-8.0-0.0","spark_pilot_norest","8468","2","20","Male","","false","","","","","[1330.9000000059605,828]","./assets/img/space/6.jpg","[""ArrowUp"",""ArrowRight""]","full practice","space","36","{""ArrowUp,ArrowLeft"":3,""ArrowUp,ArrowRight"":36,""ArrowDown,ArrowLeft"":15,""ArrowDown,ArrowRight"":23}","true","ArrowUp,ArrowRight","false","","","","","",""
"html-keyboard-response","40","262909","0.0-3.0-8.0-1.0","spark_pilot_norest","8468","2","20","Male","","","","","","","null","<div style=""font-size:60px;"">+</div>","null","fixation","","","","","","","","","","","",""
"revaluation","41","268947","0.0-3.0-8.0-0.1","spark_pilot_norest","8468","2","20","Male","","false","","","","","[661.8999999761581,576.4000000059605]","./assets/img/space/7.jpg","[""ArrowUp"",""ArrowRight""]","full practice","space","36","{""ArrowUp,ArrowLeft"":3,""ArrowUp,ArrowRight"":36,""ArrowDown,ArrowLeft"":15,""ArrowDown,ArrowRight"":23}","true","ArrowUp,ArrowRight","false","","","","","",""
"html-keyboard-response","42","269460","0.0-3.0-8.0-1.1","spark_pilot_norest","8468","2","20","Male","","","","","","","null","<div style=""font-size:60px;"">+</div>","null","fixation","","","","","","","","","","","",""
"revaluation","43","275466","0.0-3.0-8.0-0.2","spark_pilot_norest","8468","2","20","Male","","false","","","","","[319.5,405]","./assets/img/space/8.jpg","[""ArrowUp"",""ArrowRight""]","full practice","space","36","{""ArrowUp,ArrowLeft"":3,""ArrowUp,ArrowRight"":36,""ArrowDown,ArrowLeft"":15,""ArrowDown,ArrowRight"":23}","true","ArrowUp,ArrowRight","false","","","","","",""
"html-keyboard-response","44","275975","0.0-3.0-8.0-1.2","spark_pilot_norest","8468","2","20","Male","","","","","","","null","<div style=""font-size:60px;"">+</div>","null","fixation","","","","","","","","","","","",""
"revaluation","45","281998","0.0-3.0-8.0-0.3","spark_pilot_norest","8468","2","20","Male","","false","","","","","[326.5,424.09999999403954]","./assets/img/space/9.jpg","[""ArrowUp"",""ArrowRight""]","full practice","space","36","{""ArrowUp,ArrowLeft"":3,""ArrowUp,ArrowRight"":36,""ArrowDown,ArrowLeft"":15,""ArrowDown,ArrowRight"":23}","true","ArrowUp,ArrowRight","false","","","","","",""
"html-keyboard-response","46","282510","0.0-3.0-8.0-1.3","spark_pilot_norest","8468","2","20","Male","","","","","","","null","<div style=""font-size:60px;"">+</div>","null","fixation","","","","","","","","","","","",""
"revaluation","47","288525","0.0-3.0-8.0-0.4","spark_pilot_norest","8468","2","20","Male","","false","","","","","[243.30000001192093,403.09999999403954]","./assets/img/space/10.jpg","[""ArrowUp"",""ArrowRight""]","full practice","space","36","{""ArrowUp,ArrowLeft"":3,""ArrowUp,ArrowRight"":36,""ArrowDown,ArrowLeft"":15,""ArrowDown,ArrowRight"":23}","true","ArrowUp,ArrowRight","false","","","","","",""
"html-keyboard-response","48","289026","0.0-3.0-8.0-1.4","spark_pilot_norest","8468","2","20","Male","","","","","","","null","<div style=""font-size:60px;"">+</div>","null","fixation","","","","","","","","","","","",""
"learning-instructions","49","299987","0.0-3.0-9.0-0.0","spark_pilot_norest","8468","2","20","Male","","","","","","","663.0999999940395","<p> One last thing: sometimes, you will see a robber. The robber can be anywhere in the picture. </p>
            <p> If you do not stop them, you will lose treasure. </p>
            <img src='./assets/img/instructions/robber.jpg' class='instructions-image'>","","instructions","","","","","","","","","","","",""
"learning-instructions","50","309584","0.0-3.0-9.0-0.1","spark_pilot_norest","8468","2","20","Male","","","","","","","2430","<p> If you see the robber, you should <b>press the space bar</b> rather than using the arrow keys. </p>
            <p> Try practicing that now! </p>","","instructions","","","","","","","","","","","",""
"revaluation","51","313591","0.0-3.0-10.0-0.0","spark_pilot_norest","8468","2","20","Male","","false","","","","","[1055.4000000059605]","./assets/img/space/catch/0.jpg","[""spaceBar""]","catch practice","space","0","{""ArrowUp,ArrowLeft"":3,""ArrowUp,ArrowRight"":36,""ArrowDown,ArrowLeft"":15,""ArrowDown,ArrowRight"":23}","true","spaceBar","true","","","","","",""
"html-keyboard-response","52","314108","0.0-3.0-10.0-1.0","spark_pilot_norest","8468","2","20","Male","","","","","","","null","<div style=""font-size:60px;"">+</div>","null","fixation","","","","","","","","","","","",""
"revaluation","53","318130","0.0-3.0-10.0-0.1","spark_pilot_norest","8468","2","20","Male","","false","","","","","[677.3000000119209]","./assets/img/space/catch/1.jpg","[""spaceBar""]","catch practice","space","0","{""ArrowUp,ArrowLeft"":3,""ArrowUp,ArrowRight"":36,""ArrowDown,ArrowLeft"":15,""ArrowDown,ArrowRight"":23}","true","spaceBar","true","","","","","",""
"html-keyboard-response","54","318640","0.0-3.0-10.0-1.1","spark_pilot_norest","8468","2","20","Male","","","","","","","null","<div style=""font-size:60px;"">+</div>","null","fixation","","","","","","","","","","","",""
"revaluation","55","322662","0.0-3.0-10.0-0.2","spark_pilot_norest","8468","2","20","Male","","false","","","","","[653]","./assets/img/space/catch/2.jpg","[""spaceBar""]","catch practice","space","0","{""ArrowUp,ArrowLeft"":3,""ArrowUp,ArrowRight"":36,""ArrowDown,ArrowLeft"":15,""ArrowDown,ArrowRight"":23}","true","spaceBar","true","","","","","",""
"html-keyboard-response","56","323174","0.0-3.0-10.0-1.2","spark_pilot_norest","8468","2","20","Male","","","","","","","null","<div style=""font-size:60px;"">+</div>","null","fixation","","","","","","","","","","","",""
"learning-instructions","57","330407","0.0-3.0-11.0-0.0-0.0","spark_pilot_norest","8468","2","20","Male","","","","","","","1984","<p> Now, you will practice a shortened version of the game to get a sense of how it all fits together. </p>","","instructions","","","","","","","","","","","",""
"learning-instructions","58","335011","0.0-3.0-11.0-0.0-0.1","spark_pilot_norest","8468","2","20","Male","","","","","","","1426.7999999821186","<p>This time you are searching for treasure in outer space.</p>","","instructions","","","","","","","","","","","",""
"learning-instructions","59","351784","0.0-3.0-11.0-1.0-0.0","spark_pilot_norest","8468","2","20","Male","","","","","","","2000.699999988079","<p> Remember, when you see a picture of the place, use the up and down keys to <b>find an animal</b>.</p>
            <p> When you encounter an animal, you should use the left and right keys to <b>select a treasure chest</b>.</p>
            <p> Don't forget to look out for the robber! </p>","","instructions","","","","","","","","","","","",""
"revaluation","60","357822","0.0-3.0-11.0-2.0-0.0","spark_pilot_norest","8468","2","20","Male","","false","","","","","[1747,948]","./assets/img/space/11.jpg","[""ArrowUp"",""ArrowRight""]","practice block","space","36","{""ArrowUp,ArrowLeft"":3,""ArrowUp,ArrowRight"":36,""ArrowDown,ArrowLeft"":15,""ArrowDown,ArrowRight"":23}","true","ArrowUp,ArrowRight","false","","","","","",""
"html-keyboard-response","61","358323","0.0-3.0-11.0-2.0-1.0","spark_pilot_norest","8468","2","20","Male","","","","","","","null","<div style=""font-size:60px;"">+</div>","null","fixation","","","","","","","","","","","",""
"revaluation","62","364358","0.0-3.0-11.0-2.0-0.1","spark_pilot_norest","8468","2","20","Male","","false","","","","","[1520.9000000059605,607.3000000119209]","./assets/img/space/12.jpg","[""ArrowUp"",""ArrowRight""]","practice block","space","36","{""ArrowUp,ArrowLeft"":3,""ArrowUp,ArrowRight"":36,""ArrowDown,ArrowLeft"":15,""ArrowDown,ArrowRight"":23}","true","ArrowUp,ArrowRight","false","","","","","",""
"html-keyboard-response","63","364872","0.0-3.0-11.0-2.0-1.1","spark_pilot_norest","8468","2","20","Male","","","","","","","null","<div style=""font-size:60px;"">+</div>","null","fixation","","","","","","","","","","","",""
"revaluation","64","370909","0.0-3.0-11.0-2.0-0.2","spark_pilot_norest","8468","2","20","Male","","false","","","","","[1578.300000011921,636.8000000119209]","./assets/img/space/13.jpg","[""ArrowUp"",""ArrowRight""]","practice block","space","36","{""ArrowUp,ArrowLeft"":3,""ArrowUp,ArrowRight"":36,""ArrowDown,ArrowLeft"":15,""ArrowDown,ArrowRight"":23}","true","ArrowUp,ArrowRight","false","","","","","",""
"html-keyboard-response","65","371422","0.0-3.0-11.0-2.0-1.2","spark_pilot_norest","8468","2","20","Male","","","","","","","null","<div style=""font-size:60px;"">+</div>","null","fixation","","","","","","","","","","","",""
"revaluation","66","377456","0.0-3.0-11.0-2.0-0.3","spark_pilot_norest","8468","2","20","Male","","false","","","","","[1286.800000011921,471.39999997615814]","./assets/img/space/14.jpg","[""ArrowUp"",""ArrowRight""]","practice block","space","36","{""ArrowUp,ArrowLeft"":3,""ArrowUp,ArrowRight"":36,""ArrowDown,ArrowLeft"":15,""ArrowDown,ArrowRight"":23}","true","ArrowUp,ArrowRight","false","","","","","",""
"html-keyboard-response","67","377973","0.0-3.0-11.0-2.0-1.3","spark_pilot_norest","8468","2","20","Male","","","","","","","null","<div style=""font-size:60px;"">+</div>","null","fixation","","","","","","","","","","","",""
"revaluation","68","383978","0.0-3.0-11.0-2.0-0.4","spark_pilot_norest","8468","2","20","Male","","false","","","","","[1448.7000000178814,360.30000001192093]","./assets/img/space/11.jpg","[""ArrowUp"",""ArrowRight""]","practice block","space","36","{""ArrowUp,ArrowLeft"":3,""ArrowUp,ArrowRight"":36,""ArrowDown,ArrowLeft"":15,""ArrowDown,ArrowRight"":23}","true","ArrowUp,ArrowRight","false","","","","","",""
"html-keyboard-response","69","384479","0.0-3.0-11.0-2.0-1.4","spark_pilot_norest","8468","2","20","Male","","","","","","","null","<div style=""font-size:60px;"">+</div>","null","fixation","","","","","","","","","","","",""
"revaluation","70","390483","0.0-3.0-11.0-2.0-0.5","spark_pilot_norest","8468","2","20","Male","","false","","","","","[1278.9000000059605,842.3000000119209]","./assets/img/space/12.jpg","[""ArrowUp"",""ArrowRight""]","practice block","space","36","{""ArrowUp,ArrowLeft"":3,""ArrowUp,ArrowRight"":36,""ArrowDown,ArrowLeft"":15,""ArrowDown,ArrowRight"":23}","true","ArrowUp,ArrowRight","false","","","","","",""
"html-keyboard-response","71","390984","0.0-3.0-11.0-2.0-1.5","spark_pilot_norest","8468","2","20","Male","","","","","","","null","<div style=""font-size:60px;"">+</div>","null","fixation","","","","","","","","","","","",""
"revaluation","72","397002","0.0-3.0-11.0-2.0-0.6","spark_pilot_norest","8468","2","20","Male","","false","","","","","[1546.5,552.1000000238419]","./assets/img/space/13.jpg","[""ArrowUp"",""ArrowRight""]","practice block","space","36","{""ArrowUp,ArrowLeft"":3,""ArrowUp,ArrowRight"":36,""ArrowDown,ArrowLeft"":15,""ArrowDown,ArrowRight"":23}","true","ArrowUp,ArrowRight","false","","","","","",""
"html-keyboard-response","73","397504","0.0-3.0-11.0-2.0-1.6","spark_pilot_norest","8468","2","20","Male","","","","","","","null","<div style=""font-size:60px;"">+</div>","null","fixation","","","","","","","","","","","",""
"revaluation","74","403508","0.0-3.0-11.0-2.0-0.7","spark_pilot_norest","8468","2","20","Male","","false","","","","","[1256.5,376.2999999821186]","./assets/img/space/14.jpg","[""ArrowUp"",""ArrowRight""]","practice block","space","36","{""ArrowUp,ArrowLeft"":3,""ArrowUp,ArrowRight"":36,""ArrowDown,ArrowLeft"":15,""ArrowDown,ArrowRight"":23}","true","ArrowUp,ArrowRight","false","","","","","",""
"html-keyboard-response","75","404009","0.0-3.0-11.0-2.0-1.7","spark_pilot_norest","8468","2","20","Male","","","","","","","null","<div style=""font-size:60px;"">+</div>","null","fixation","","","","","","","","","","","",""
"revaluation","76","408012","0.0-3.0-11.0-2.0-0.8","spark_pilot_norest","8468","2","20","Male","","false","","","","","[830.1999999880791]","./assets/img/space/catch/3.jpg","[""spaceBar""]","practice block","space","0","{""ArrowUp,ArrowLeft"":3,""ArrowUp,ArrowRight"":36,""ArrowDown,ArrowLeft"":15,""ArrowDown,ArrowRight"":23}","true","spaceBar","true","","","","","",""
"html-keyboard-response","77","408513","0.0-3.0-11.0-2.0-1.8","spark_pilot_norest","8468","2","20","Male","","","","","","","null","<div style=""font-size:60px;"">+</div>","null","fixation","","","","","","","","","","","",""
"learning-instructions","78","424317","0.0-3.0-11.0-3.0-0.0","spark_pilot_norest","8468","2","20","Male","","","","","","","2533.0999999940395","<p> Now, you will travel with a friend who will choose whether you go up or down first. </p>
            <p> On these turns, you will just see the animal that they found. You will still get to choose which chest to search for treasure.</p>","","instructions","","","","","","","","","","","",""
"revaluation","79","428336","0.0-3.0-11.0-4.0-0.0","spark_pilot_norest","8468","2","20","Male","","false","","","","","[1472.9000000059605]","./assets/img/space/animals/rabbit.jpg","[""ArrowRight""]","practice block","space","23","{""ArrowUp,ArrowLeft"":3,""ArrowUp,ArrowRight"":36,""ArrowDown,ArrowLeft"":15,""ArrowDown,ArrowRight"":23}","true","ArrowDown,ArrowRight","","","","","","",""
"html-keyboard-response","80","428850","0.0-3.0-11.0-4.0-1.0","spark_pilot_norest","8468","2","20","Male","","","","","","","null","<div style=""font-size:60px;"">+</div>","null","fixation","","","","","","","","","","","",""
"revaluation","81","432870","0.0-3.0-11.0-4.0-0.1","spark_pilot_norest","8468","2","20","Male","","false","","","","","[671.2000000178814]","./assets/img/space/animals/cat.jpg","[""ArrowRight""]","practice block","space","36","{""ArrowUp,ArrowLeft"":3,""ArrowUp,ArrowRight"":36,""ArrowDown,ArrowLeft"":15,""ArrowDown,ArrowRight"":23}","true","ArrowUp,ArrowRight","","","","","","",""
"html-keyboard-response","82","433384","0.0-3.0-11.0-4.0-1.1","spark_pilot_norest","8468","2","20","Male","","","","","","","null","<div style=""font-size:60px;"">+</div>","null","fixation","","","","","","","","","","","",""
"revaluation","83","437406","0.0-3.0-11.0-4.0-0.2","spark_pilot_norest","8468","2","20","Male","","false","","","","","[726.9000000059605]","./assets/img/space/animals/cat.jpg","[""ArrowRight""]","practice block","space","36","{""ArrowUp,ArrowLeft"":3,""ArrowUp,ArrowRight"":36,""ArrowDown,ArrowLeft"":15,""ArrowDown,ArrowRight"":23}","true","ArrowUp,ArrowRight","","","","","","",""
"html-keyboard-response","84","437918","0.0-3.0-11.0-4.0-1.2","spark_pilot_norest","8468","2","20","Male","","","","","","","null","<div style=""font-size:60px;"">+</div>","null","fixation","","","","","","","","","","","",""
"revaluation","85","441936","0.0-3.0-11.0-4.0-0.3","spark_pilot_norest","8468","2","20","Male","","false","","","","","[642.8000000119209]","./assets/img/space/animals/rabbit.jpg","[""ArrowRight""]","practice block","space","23","{""ArrowUp,ArrowLeft"":3,""ArrowUp,ArrowRight"":36,""ArrowDown,ArrowLeft"":15,""ArrowDown,ArrowRight"":23}","true","ArrowDown,ArrowRight","","","","","","",""
"html-keyboard-response","86","442452","0.0-3.0-11.0-4.0-1.3","spark_pilot_norest","8468","2","20","Male","","","","","","","null","<div style=""font-size:60px;"">+</div>","null","fixation","","","","","","","","","","","",""
"learning-instructions","87","450572","0.0-3.0-11.0-5.0-0.0","spark_pilot_norest","8468","2","20","Male","","","","","","","null","<p> You have almost finished this part of the game! </p>
            <p> We are going to ask you to make a few more choices. </p>","","instructions","","","","","","","","","","","",""
"learning-instructions","88","466588","0.0-3.0-11.0-5.0-0.1","spark_pilot_norest","8468","2","20","Male","","","","","","","null","<p> First, you need to decide whether to go up or down. When you see each picture, use the arrow keys to make your choice. </p>
            <p><b>You will not see which animal you found, but try to get to the one that will give you the most treasure.</b></p>","","instructions","","","","","","","","","","","",""
"html-keyboard-response","89","467594","0.0-3.0-11.0-6.0-0.0","spark_pilot_norest","8468","2","20","Male","","","","","","","null","<div style=""font-size:100px;color:red;"">Starting in...</div>","null","","","","","","","","","","","","",""
"html-keyboard-response","90","468596","0.0-3.0-11.0-6.0-1.0","spark_pilot_norest","8468","2","20","Male","","","","","","","null","<div style=""font-size:200px;color:red;"">3</div>","null","","","","","","","","","","","","",""
"html-keyboard-response","91","469612","0.0-3.0-11.0-6.0-2.0","spark_pilot_norest","8468","2","20","Male","","","","","","","null","<div style=""font-size:200px;color:red;"">2</div>","null","","","","","","","","","","","","",""
"html-keyboard-response","92","470626","0.0-3.0-11.0-6.0-3.0","spark_pilot_norest","8468","2","20","Male","","","","","","","null","<div style=""font-size:200px;color:red;"">1</div>","null","","","","","","","","","","","","",""
"revaluation","93","471768","0.0-3.0-11.0-7.0","spark_pilot_norest","8468","2","20","Male","","false","","","","","[1139.9000000059605]","./assets/img/space/15.jpg","[""ArrowUp""]","practice block","space","0","{""ArrowUp,ArrowLeft"":3,""ArrowUp,ArrowRight"":36,""ArrowDown,ArrowLeft"":15,""ArrowDown,ArrowRight"":23}","true","ArrowUp","false","","","","","",""
"html-keyboard-response","94","472284","0.0-3.0-11.0-8.0","spark_pilot_norest","8468","2","20","Male","","","","","","","null","<div style=""font-size:60px;"">+</div>","null","fixation","","","","","","","","","","","",""
"learning-instructions","95","485672","0.0-3.0-11.0-9.0-0.0","spark_pilot_norest","8468","2","20","Male","","","","","","","null","<p> Now you will see the animals again and can search their chests for treasure. </p>
            <p> This time, you will not see how much treasure you earned, but you will earn more bonus money for making better choices. </p>","","instructions","","","","","","","","","","","",""
"html-keyboard-response","96","486674","0.0-3.0-11.0-10.0-0.0","spark_pilot_norest","8468","2","20","Male","","","","","","","null","<div style=""font-size:100px;color:red;"">Starting in...</div>","null","","","","","","","","","","","","",""
"html-keyboard-response","97","487676","0.0-3.0-11.0-10.0-1.0","spark_pilot_norest","8468","2","20","Male","","","","","","","null","<div style=""font-size:200px;color:red;"">3</div>","null","","","","","","","","","","","","",""
"html-keyboard-response","98","488692","0.0-3.0-11.0-10.0-2.0","spark_pilot_norest","8468","2","20","Male","","","","","","","null","<div style=""font-size:200px;color:red;"">2</div>","null","","","","","","","","","","","","",""
"html-keyboard-response","99","489694","0.0-3.0-11.0-10.0-3.0","spark_pilot_norest","8468","2","20","Male","","","","","","","null","<div style=""font-size:200px;color:red;"">1</div>","null","","","","","","","","","","","","",""
"revaluation","100","490587","0.0-3.0-11.0-11.0-0.0","spark_pilot_norest","8468","2","20","Male","","false","","","","","[891.2000000178814]","./assets/img/space/animals/cat.jpg","[""ArrowRight""]","practice block","space","0","{""ArrowUp,ArrowLeft"":3,""ArrowUp,ArrowRight"":36,""ArrowDown,ArrowLeft"":15,""ArrowDown,ArrowRight"":23}","true","ArrowUp,ArrowRight","","","","","","",""
"html-keyboard-response","101","491098","0.0-3.0-11.0-11.0-1.0","spark_pilot_norest","8468","2","20","Male","","","","","","","null","<div style=""font-size:60px;"">+</div>","null","fixation","","","","","","","","","","","",""
"revaluation","102","492066","0.0-3.0-11.0-11.0-0.1","spark_pilot_norest","8468","2","20","Male","","false","","","","","[966.0999999940395]","./assets/img/space/animals/rabbit.jpg","[""ArrowRight""]","practice block","space","0","{""ArrowUp,ArrowLeft"":3,""ArrowUp,ArrowRight"":36,""ArrowDown,ArrowLeft"":15,""ArrowDown,ArrowRight"":23}","true","ArrowDown,ArrowRight","","","","","","",""
"html-keyboard-response","103","492580","0.0-3.0-11.0-11.0-1.1","spark_pilot_norest","8468","2","20","Male","","","","","","","null","<div style=""font-size:60px;"">+</div>","null","fixation","","","","","","","","","","","",""
"learning-instructions","104","499313","0.0-3.0-12.0-0.0","spark_pilot_norest","8468","2","20","Male","","","","","","","2159.0999999940395","<p> Before you start, we're going to ask you a few questions about how the game works. </p>","","instructions","","","","","","","","","","","",""
"comp-q","105","505872","0.0-3.0-13.0-0.0-0.0","spark_pilot_norest","8468","2","20","Male","","","","","","","987.2000000178814","<p> <b> True or False? </b> </p>
            <p> There can be 50 pieces of treasure in a given animal's chest. </p>","1","comp_question","","","","true","","","","","","","",""
"comp-q","106","514232","0.0-3.0-13.0-0.0-1.0","spark_pilot_norest","8468","2","20","Male","","","","","","","1708.300000011921","<p> <b> That's right! </b> The amount of treasure in each chest can range from 0 to 40 pieces. </p>","0","comp_answer","","","","","","","","","","","",""
"comp-q","107","522084","0.0-3.0-13.0-0.1-0.1","spark_pilot_norest","8468","2","20","Male","","","","","","","739.0999999940395","<p> <b> True or False? </b> </p><p> In this game, all animals have the same amount of treasure in their left and right chests. </p>","1","comp_question","","","","true","","","","","","","",""
"comp-q","108","528431","0.0-3.0-13.0-0.1-1.1","spark_pilot_norest","8468","2","20","Male","","","","","","","1127.0999999940395","<p> <b> That's right! </b> Animals have different amounts of treasure in their treasure chests. </p>","0","comp_answer","","","","","","","","","","","",""
"comp-q","109","534819","0.0-3.0-13.0-0.2-0.2","spark_pilot_norest","8468","2","20","Male","","","","","","","544","<p> <b> True or False? </b> </p><p> The same animal will always be there if you go up in the same place. </p>","0","comp_question","","","","true","","","","","","","",""
"comp-q","110","542277","0.0-3.0-13.0-0.2-1.2","spark_pilot_norest","8468","2","20","Male","","","","","","","1013.5","<p> <b> That's right! </b> One animal lives in the upper part and one lives in the lower part of every place. </p>","0","comp_answer","","","","","","","","","","","",""
"comp-q","111","548375","0.0-3.0-13.0-0.3-0.3","spark_pilot_norest","8468","2","20","Male","","","","","","","580.3000000119209","<p> <b> True or False? </b> </p><p> If you see a different picture, it means you are in a new place. </p>","1","comp_question","","","","true","","","","","","","",""
"comp-q","112","560503","0.0-3.0-13.0-0.3-1.3","spark_pilot_norest","8468","2","20","Male","","","","","","","908.0999999940395","<p> <b> That's right! </b> Lots of different images may show the same place. For example,  you may see three different images that all remind you that you are in outer space. </p>","0","comp_answer","","","","","","","","","","","",""
"learning-instructions","113","571809","0.0-3.0-14.0-0.0","spark_pilot_norest","8468","2","20","Male","","","","","","","1455.300000011921","<p> Good job. Remember to do your best because the amount of treasure you earn will be converted into bonus money. </p>
            <p> It’s time to start the real game! </p>","","instructions","","","","","","","","","","","",""
"learning-instructions","114","575747","0.0-4.0-0.0-0.0","spark_pilot_norest","8468","2","20","Male","","","","","","","1242","<p> This time you are searching for treasure in the <b>ocean</b>.</p>","","instructions","","","","","","","","","","","",""
"learning-instructions","115","594500","0.0-4.0-0.0-0.1","spark_pilot_norest","8468","2","20","Male","","","","","","","1466.199999988079","<p><b>New</b> animals with <b>new</b> treasure chests live here. You need to explore to discover where the animal with the best treasure chest is.</p>
                    <p> Like before, once you figure out which animal has the chest with the most treasure, you should try to get to that animal and select that chest! </p>","","instructions","","","","","","","","","","","",""
"learning-instructions","116","610486","0.0-4.0-1.0-0.0","spark_pilot_norest","8468","2","20","Male","","","","","","","1261.9000000059605","<p> Remember, when you see a picture of the place, use the up and down keys to <b>find an animal</b>.</p>
            <p> When you encounter an animal, you should use the left and right keys to <b>select a treasure chest</b>.</p>
            <p> Don't forget to look out for the robber! </p>","","instructions","","","","","","","","","","","",""
"revaluation","117","616513","0.0-4.0-2.0-0.0","spark_pilot_norest","8468","2","20","Male","","false","","","","","[1506.1000000238419,919.0999999940395]","./assets/img/ocean/memory/40.jpg","[""ArrowUp"",""ArrowLeft""]","value training","ocean","23","{""ArrowUp,ArrowLeft"":23,""ArrowUp,ArrowRight"":10,""ArrowDown,ArrowLeft"":8,""ArrowDown,ArrowRight"":30}","false","ArrowUp,ArrowLeft","false","revaluation","1","0","","",""
"html-keyboard-response","118","617024","0.0-4.0-2.0-1.0","spark_pilot_norest","8468","2","20","Male","","","","","","","null","<div style=""font-size:60px;"">+</div>","null","fixation","","","","","","","","","1","","",""
"revaluation","119","623059","0.0-4.0-2.0-0.1","spark_pilot_norest","8468","2","20","Male","","false","","","","","[1419.5,580.9000000059605]","./assets/img/ocean/memory/22.jpg","[""ArrowUp"",""ArrowRight""]","value training","ocean","10","{""ArrowUp,ArrowLeft"":23,""ArrowUp,ArrowRight"":10,""ArrowDown,ArrowLeft"":8,""ArrowDown,ArrowRight"":30}","false","ArrowUp,ArrowRight","false","revaluation","1","2","","",""
"html-keyboard-response","120","623574","0.0-4.0-2.0-1.1","spark_pilot_norest","8468","2","20","Male","","","","","","","null","<div style=""font-size:60px;"">+</div>","null","fixation","","","","","","","","","3","","",""
"revaluation","121","629595","0.0-4.0-2.0-0.2","spark_pilot_norest","8468","2","20","Male","","false","","","","","[801.9000000059605,563.5]","./assets/img/ocean/memory/17.jpg","[""ArrowDown"",""ArrowLeft""]","value training","ocean","8","{""ArrowUp,ArrowLeft"":23,""ArrowUp,ArrowRight"":10,""ArrowDown,ArrowLeft"":8,""ArrowDown,ArrowRight"":30}","false","ArrowDown,ArrowLeft","false","revaluation","1","4","","",""
"html-keyboard-response","122","630107","0.0-4.0-2.0-1.2","spark_pilot_norest","8468","2","20","Male","","","","","","","null","<div style=""font-size:60px;"">+</div>","null","fixation","","","","","","","","","5","","",""
"revaluation","123","634124","0.0-4.0-2.0-0.3","spark_pilot_norest","8468","2","20","Male","","false","","","","","[1150]","./assets/img/ocean/catch/5.jpg","[""ArrowDown""]","value training","ocean","-10","{""ArrowUp,ArrowLeft"":23,""ArrowUp,ArrowRight"":10,""ArrowDown,ArrowLeft"":8,""ArrowDown,ArrowRight"":30}","false","ArrowDown","true","revaluation","1","6","","",""
"html-keyboard-response","124","634641","0.0-4.0-2.0-1.3","spark_pilot_norest","8468","2","20","Male","","","","","","","null","<div style=""font-size:60px;"">+</div>","null","fixation","","","","","","","","","7","","",""
"revaluation","125","640664","0.0-4.0-2.0-0.4","spark_pilot_norest","8468","2","20","Male","","false","","","","","[628.5,482.69999998807907]","./assets/img/ocean/memory/25.jpg","[""ArrowDown"",""ArrowRight""]","value training","ocean","30","{""ArrowUp,ArrowLeft"":23,""ArrowUp,ArrowRight"":10,""ArrowDown,ArrowLeft"":8,""ArrowDown,ArrowRight"":30}","true","ArrowDown,ArrowRight","false","revaluation","1","8","","",""
"html-keyboard-response","126","641166","0.0-4.0-2.0-1.4","spark_pilot_norest","8468","2","20","Male","","","","","","","null","<div style=""font-size:60px;"">+</div>","null","fixation","","","","","","","","","9","","",""
"revaluation","127","647171","0.0-4.0-2.0-0.5","spark_pilot_norest","8468","2","20","Male","","false","","","","","[894.0999999940395,520.1999999880791]","./assets/img/ocean/memory/36.jpg","[""ArrowDown"",""ArrowRight""]","value training","ocean","30","{""ArrowUp,ArrowLeft"":23,""ArrowUp,ArrowRight"":10,""ArrowDown,ArrowLeft"":8,""ArrowDown,ArrowRight"":30}","true","ArrowDown,ArrowRight","false","revaluation","1","10","","",""
"html-keyboard-response","128","647672","0.0-4.0-2.0-1.5","spark_pilot_norest","8468","2","20","Male","","","","","","","null","<div style=""font-size:60px;"">+</div>","null","fixation","","","","","","","","","11","","",""
"revaluation","129","653676","0.0-4.0-2.0-0.6","spark_pilot_norest","8468","2","20","Male","","false","","","","","[1042.699999988079,437.2999999821186]","./assets/img/ocean/memory/7.jpg","[""ArrowDown"",""ArrowRight""]","value training","ocean","30","{""ArrowUp,ArrowLeft"":23,""ArrowUp,ArrowRight"":10,""ArrowDown,ArrowLeft"":8,""ArrowDown,ArrowRight"":30}","true","ArrowDown,ArrowRight","false","revaluation","1","12","","",""
"html-keyboard-response","130","654177","0.0-4.0-2.0-1.6","spark_pilot_norest","8468","2","20","Male","","","","","","","null","<div style=""font-size:60px;"">+</div>","null","fixation","","","","","","","","","13","","",""
"revaluation","131","658179","0.0-4.0-2.0-0.7","spark_pilot_norest","8468","2","20","Male","","false","","","","","[904.4000000059605]","./assets/img/ocean/catch/6.jpg","[""spaceBar""]","value training","ocean","0","{""ArrowUp,ArrowLeft"":23,""ArrowUp,ArrowRight"":10,""ArrowDown,ArrowLeft"":8,""ArrowDown,ArrowRight"":30}","true","spaceBar","true","revaluation","1","14","","",""
"html-keyboard-response","132","658680","0.0-4.0-2.0-1.7","spark_pilot_norest","8468","2","20","Male","","","","","","","null","<div style=""font-size:60px;"">+</div>","null","fixation","","","","","","","","","15","","",""
"revaluation","133","664686","0.0-4.0-2.0-0.8","spark_pilot_norest","8468","2","20","Male","","false","","","","","[1557.5,455.09999999403954]","./assets/img/ocean/memory/19.jpg","[""ArrowDown"",""ArrowRight""]","value training","ocean","30","{""ArrowUp,ArrowLeft"":23,""ArrowUp,ArrowRight"":10,""ArrowDown,ArrowLeft"":8,""ArrowDown,ArrowRight"":30}","true","ArrowDown,ArrowRight","false","revaluation","1","16","","",""
"html-keyboard-response","134","665188","0.0-4.0-2.0-1.8","spark_pilot_norest","8468","2","20","Male","","","","","","","null","<div style=""font-size:60px;"">+</div>","null","fixation","","","","","","","","","17","","",""
"revaluation","135","671191","0.0-4.0-2.0-0.9","spark_pilot_norest","8468","2","20","Male","","false","","","","","[1269.5,449.59999999403954]","./assets/img/ocean/memory/26.jpg","[""ArrowDown"",""ArrowRight""]","value training","ocean","30","{""ArrowUp,ArrowLeft"":23,""ArrowUp,ArrowRight"":10,""ArrowDown,ArrowLeft"":8,""ArrowDown,ArrowRight"":30}","true","ArrowDown,ArrowRight","false","revaluation","1","18","","",""
"html-keyboard-response","136","671692","0.0-4.0-2.0-1.9","spark_pilot_norest","8468","2","20","Male","","","","","","","null","<div style=""font-size:60px;"">+</div>","null","fixation","","","","","","","","","19","","",""
"revaluation","137","677697","0.0-4.0-2.0-0.10","spark_pilot_norest","8468","2","20","Male","","false","","","","","[1637.199999988079,429.60000002384186]","./assets/img/ocean/memory/15.jpg","[""ArrowDown"",""ArrowRight""]","value training","ocean","30","{""ArrowUp,ArrowLeft"":23,""ArrowUp,ArrowRight"":10,""ArrowDown,ArrowLeft"":8,""ArrowDown,ArrowRight"":30}","true","ArrowDown,ArrowRight","false","revaluation","1","20","","",""
"html-keyboard-response","138","678198","0.0-4.0-2.0-1.10","spark_pilot_norest","8468","2","20","Male","","","","","","","null","<div style=""font-size:60px;"">+</div>","null","fixation","","","","","","","","","21","","",""
"revaluation","139","684202","0.0-4.0-2.0-0.11","spark_pilot_norest","8468","2","20","Male","","false","","","","","[1282.0999999940395,373.2999999821186]","./assets/img/ocean/memory/10.jpg","[""ArrowDown"",""ArrowRight""]","value training","ocean","30","{""ArrowUp,ArrowLeft"":23,""ArrowUp,ArrowRight"":10,""ArrowDown,ArrowLeft"":8,""ArrowDown,ArrowRight"":30}","true","ArrowDown,ArrowRight","false","revaluation","1","22","","",""
"html-keyboard-response","140","684703","0.0-4.0-2.0-1.11","spark_pilot_norest","8468","2","20","Male","","","","","","","null","<div style=""font-size:60px;"">+</div>","null","fixation","","","","","","","","","23","","",""
"revaluation","141","690706","0.0-4.0-2.0-0.12","spark_pilot_norest","8468","2","20","Male","","false","","","","","[1114.1000000238419,451.5]","./assets/img/ocean/memory/25.jpg","[""ArrowDown"",""ArrowRight""]","value training","ocean","30","{""ArrowUp,ArrowLeft"":23,""ArrowUp,ArrowRight"":10,""ArrowDown,ArrowLeft"":8,""ArrowDown,ArrowRight"":30}","true","ArrowDown,ArrowRight","false","revaluation","1","24","","",""
"html-keyboard-response","142","691208","0.0-4.0-2.0-1.12","spark_pilot_norest","8468","2","20","Male","","","","","","","null","<div style=""font-size:60px;"">+</div>","null","fixation","","","","","","","","","25","","",""
"revaluation","143","697211","0.0-4.0-2.0-0.13","spark_pilot_norest","8468","2","20","Male","","false","","","","","[1177.5999999940395,384]","./assets/img/ocean/memory/37.jpg","[""ArrowDown"",""ArrowRight""]","value training","ocean","30","{""ArrowUp,ArrowLeft"":23,""ArrowUp,ArrowRight"":10,""ArrowDown,ArrowLeft"":8,""ArrowDown,ArrowRight"":30}","true","ArrowDown,ArrowRight","false","revaluation","1","26","","",""
"html-keyboard-response","144","697712","0.0-4.0-2.0-1.13","spark_pilot_norest","8468","2","20","Male","","","","","","","null","<div style=""font-size:60px;"">+</div>","null","fixation","","","","","","","","","27","","",""
"revaluation","145","703715","0.0-4.0-2.0-0.14","spark_pilot_norest","8468","2","20","Male","","false","","","","","[1080.0999999940395,344.30000001192093]","./assets/img/ocean/memory/32.jpg","[""ArrowDown"",""ArrowRight""]","value training","ocean","30","{""ArrowUp,ArrowLeft"":23,""ArrowUp,ArrowRight"":10,""ArrowDown,ArrowLeft"":8,""ArrowDown,ArrowRight"":30}","true","ArrowDown,ArrowRight","false","revaluation","1","28","","",""
"html-keyboard-response","146","704217","0.0-4.0-2.0-1.14","spark_pilot_norest","8468","2","20","Male","","","","","","","null","<div style=""font-size:60px;"">+</div>","null","fixation","","","","","","","","","29","","",""
"revaluation","147","708219","0.0-4.0-2.0-0.15","spark_pilot_norest","8468","2","20","Male","","false","","","","","[938.8000000119209]","./assets/img/ocean/catch/1.jpg","[""spaceBar""]","value training","ocean","0","{""ArrowUp,ArrowLeft"":23,""ArrowUp,ArrowRight"":10,""ArrowDown,ArrowLeft"":8,""ArrowDown,ArrowRight"":30}","true","spaceBar","true","revaluation","1","30","","",""
"html-keyboard-response","148","708720","0.0-4.0-2.0-1.15","spark_pilot_norest","8468","2","20","Male","","","","","","","null","<div style=""font-size:60px;"">+</div>","null","fixation","","","","","","","","","31","","",""
"revaluation","149","714723","0.0-4.0-2.0-0.16","spark_pilot_norest","8468","2","20","Male","","false","","","","","[1351.4000000059605,353.30000001192093]","./assets/img/ocean/memory/27.jpg","[""ArrowDown"",""ArrowRight""]","value training","ocean","30","{""ArrowUp,ArrowLeft"":23,""ArrowUp,ArrowRight"":10,""ArrowDown,ArrowLeft"":8,""ArrowDown,ArrowRight"":30}","true","ArrowDown,ArrowRight","false","revaluation","1","32","","",""
"html-keyboard-response","150","715225","0.0-4.0-2.0-1.16","spark_pilot_norest","8468","2","20","Male","","","","","","","null","<div style=""font-size:60px;"">+</div>","null","fixation","","","","","","","","","33","","",""
"revaluation","151","721230","0.0-4.0-2.0-0.17","spark_pilot_norest","8468","2","20","Male","","false","","","","","[1209.9000000059605,408.2000000178814]","./assets/img/ocean/memory/21.jpg","[""ArrowDown"",""ArrowRight""]","value training","ocean","30","{""ArrowUp,ArrowLeft"":23,""ArrowUp,ArrowRight"":10,""ArrowDown,ArrowLeft"":8,""ArrowDown,ArrowRight"":30}","true","ArrowDown,ArrowRight","false","revaluation","1","34","","",""
"html-keyboard-response","152","721732","0.0-4.0-2.0-1.17","spark_pilot_norest","8468","2","20","Male","","","","","","","null","<div style=""font-size:60px;"">+</div>","null","fixation","","","","","","","","","35","","",""
"revaluation","153","727736","0.0-4.0-2.0-0.18","spark_pilot_norest","8468","2","20","Male","","false","","","","","[1132,480.09999999403954]","./assets/img/ocean/memory/7.jpg","[""ArrowDown"",""ArrowRight""]","value training","ocean","30","{""ArrowUp,ArrowLeft"":23,""ArrowUp,ArrowRight"":10,""ArrowDown,ArrowLeft"":8,""ArrowDown,ArrowRight"":30}","true","ArrowDown,ArrowRight","false","revaluation","1","36","","",""
"html-keyboard-response","154","728237","0.0-4.0-2.0-1.18","spark_pilot_norest","8468","2","20","Male","","","","","","","null","<div style=""font-size:60px;"">+</div>","null","fixation","","","","","","","","","37","","",""
"revaluation","155","734240","0.0-4.0-2.0-0.19","spark_pilot_norest","8468","2","20","Male","","false","","","","","[870.5999999940395,380.5]","./assets/img/ocean/memory/41.jpg","[""ArrowDown"",""ArrowRight""]","value training","ocean","30","{""ArrowUp,ArrowLeft"":23,""ArrowUp,ArrowRight"":10,""ArrowDown,ArrowLeft"":8,""ArrowDown,ArrowRight"":30}","true","ArrowDown,ArrowRight","false","revaluation","1","38","","",""
"html-keyboard-response","156","734742","0.0-4.0-2.0-1.19","spark_pilot_norest","8468","2","20","Male","","","","","","","null","<div style=""font-size:60px;"">+</div>","null","fixation","","","","","","","","","39","","",""
"revaluation","157","740747","0.0-4.0-2.0-0.20","spark_pilot_norest","8468","2","20","Male","","false","","","","","[1078.0999999940395,535.3000000119209]","./assets/img/ocean/memory/31.jpg","[""ArrowDown"",""ArrowRight""]","value training","ocean","30","{""ArrowUp,ArrowLeft"":23,""ArrowUp,ArrowRight"":10,""ArrowDown,ArrowLeft"":8,""ArrowDown,ArrowRight"":30}","true","ArrowDown,ArrowRight","false","revaluation","1","40","","",""
"html-keyboard-response","158","741249","0.0-4.0-2.0-1.20","spark_pilot_norest","8468","2","20","Male","","","","","","","null","<div style=""font-size:60px;"">+</div>","null","fixation","","","","","","","","","41","","",""
"revaluation","159","747252","0.0-4.0-2.0-0.21","spark_pilot_norest","8468","2","20","Male","","false","","","","","[888.1999999880791,331.2000000178814]","./assets/img/ocean/memory/34.jpg","[""ArrowDown"",""ArrowRight""]","value training","ocean","30","{""ArrowUp,ArrowLeft"":23,""ArrowUp,ArrowRight"":10,""ArrowDown,ArrowLeft"":8,""ArrowDown,ArrowRight"":30}","true","ArrowDown,ArrowRight","false","revaluation","1","42","","",""
"html-keyboard-response","160","747753","0.0-4.0-2.0-1.21","spark_pilot_norest","8468","2","20","Male","","","","","","","null","<div style=""font-size:60px;"">+</div>","null","fixation","","","","","","","","","43","","",""
"revaluation","161","751756","0.0-4.0-2.0-0.22","spark_pilot_norest","8468","2","20","Male","","false","","","","","[915.5999999940395]","./assets/img/ocean/catch/4.jpg","[""spaceBar""]","value training","ocean","0","{""ArrowUp,ArrowLeft"":23,""ArrowUp,ArrowRight"":10,""ArrowDown,ArrowLeft"":8,""ArrowDown,ArrowRight"":30}","true","spaceBar","true","revaluation","1","44","","",""
"html-keyboard-response","162","752258","0.0-4.0-2.0-1.22","spark_pilot_norest","8468","2","20","Male","","","","","","","null","<div style=""font-size:60px;"">+</div>","null","fixation","","","","","","","","","45","","",""
"revaluation","163","758261","0.0-4.0-2.0-0.23","spark_pilot_norest","8468","2","20","Male","","false","","","","","[812.3999999761581,474.10000002384186]","./assets/img/ocean/memory/34.jpg","[""ArrowDown"",""ArrowRight""]","value training","ocean","30","{""ArrowUp,ArrowLeft"":23,""ArrowUp,ArrowRight"":10,""ArrowDown,ArrowLeft"":8,""ArrowDown,ArrowRight"":30}","true","ArrowDown,ArrowRight","false","revaluation","1","46","","",""
"html-keyboard-response","164","758762","0.0-4.0-2.0-1.23","spark_pilot_norest","8468","2","20","Male","","","","","","","null","<div style=""font-size:60px;"">+</div>","null","fixation","","","","","","","","","47","","",""
"revaluation","165","764768","0.0-4.0-2.0-0.24","spark_pilot_norest","8468","2","20","Male","","false","","","","","[1189.9000000059605,658.2999999821186]","./assets/img/ocean/memory/41.jpg","[""ArrowDown"",""ArrowRight""]","value training","ocean","30","{""ArrowUp,ArrowLeft"":23,""ArrowUp,ArrowRight"":10,""ArrowDown,ArrowLeft"":8,""ArrowDown,ArrowRight"":30}","true","ArrowDown,ArrowRight","false","revaluation","1","48","","",""
"html-keyboard-response","166","765269","0.0-4.0-2.0-1.24","spark_pilot_norest","8468","2","20","Male","","","","","","","null","<div style=""font-size:60px;"">+</div>","null","fixation","","","","","","","","","49","","",""
"revaluation","167","771272","0.0-4.0-2.0-0.25","spark_pilot_norest","8468","2","20","Male","","false","","","","","[1066,409.60000002384186]","./assets/img/ocean/memory/22.jpg","[""ArrowDown"",""ArrowRight""]","value training","ocean","30","{""ArrowUp,ArrowLeft"":23,""ArrowUp,ArrowRight"":10,""ArrowDown,ArrowLeft"":8,""ArrowDown,ArrowRight"":30}","true","ArrowDown,ArrowRight","false","revaluation","1","50","","",""
"html-keyboard-response","168","771774","0.0-4.0-2.0-1.25","spark_pilot_norest","8468","2","20","Male","","","","","","","null","<div style=""font-size:60px;"">+</div>","null","fixation","","","","","","","","","51","","",""
"revaluation","169","777778","0.0-4.0-2.0-0.26","spark_pilot_norest","8468","2","20","Male","","false","","","","","[1275.199999988079,409.59999999403954]","./assets/img/ocean/memory/19.jpg","[""ArrowDown"",""ArrowRight""]","value training","ocean","30","{""ArrowUp,ArrowLeft"":23,""ArrowUp,ArrowRight"":10,""ArrowDown,ArrowLeft"":8,""ArrowDown,ArrowRight"":30}","true","ArrowDown,ArrowRight","false","revaluation","1","52","","",""
"html-keyboard-response","170","778279","0.0-4.0-2.0-1.26","spark_pilot_norest","8468","2","20","Male","","","","","","","null","<div style=""font-size:60px;"">+</div>","null","fixation","","","","","","","","","53","","",""
"revaluation","171","782283","0.0-4.0-2.0-0.27","spark_pilot_norest","8468","2","20","Male","","false","","","","","[604.2999999821186]","./assets/img/ocean/catch/3.jpg","[""spaceBar""]","value training","ocean","0","{""ArrowUp,ArrowLeft"":23,""ArrowUp,ArrowRight"":10,""ArrowDown,ArrowLeft"":8,""ArrowDown,ArrowRight"":30}","true","spaceBar","true","revaluation","1","54","","",""
"html-keyboard-response","172","782784","0.0-4.0-2.0-1.27","spark_pilot_norest","8468","2","20","Male","","","","","","","null","<div style=""font-size:60px;"">+</div>","null","fixation","","","","","","","","","55","","",""
"revaluation","173","788790","0.0-4.0-2.0-0.28","spark_pilot_norest","8468","2","20","Male","","false","","","","","[891.7999999821186,474.2000000178814]","./assets/img/ocean/memory/21.jpg","[""ArrowDown"",""ArrowRight""]","value training","ocean","30","{""ArrowUp,ArrowLeft"":23,""ArrowUp,ArrowRight"":10,""ArrowDown,ArrowLeft"":8,""ArrowDown,ArrowRight"":30}","true","ArrowDown,ArrowRight","false","revaluation","1","56","","",""
"html-keyboard-response","174","789307","0.0-4.0-2.0-1.28","spark_pilot_norest","8468","2","20","Male","","","","","","","null","<div style=""font-size:60px;"">+</div>","null","fixation","","","","","","","","","57","","",""
"revaluation","175","795311","0.0-4.0-2.0-0.29","spark_pilot_norest","8468","2","20","Male","","false","","","","","[1181.4000000059605,541.3000000119209]","./assets/img/ocean/memory/31.jpg","[""ArrowDown"",""ArrowRight""]","value training","ocean","30","{""ArrowUp,ArrowLeft"":23,""ArrowUp,ArrowRight"":10,""ArrowDown,ArrowLeft"":8,""ArrowDown,ArrowRight"":30}","true","ArrowDown,ArrowRight","false","revaluation","1","58","","",""
"html-keyboard-response","176","795812","0.0-4.0-2.0-1.29","spark_pilot_norest","8468","2","20","Male","","","","","","","null","<div style=""font-size:60px;"">+</div>","null","fixation","","","","","","","","","59","","",""
"revaluation","177","801817","0.0-4.0-2.0-0.30","spark_pilot_norest","8468","2","20","Male","","false","","","","","[1352,464.19999998807907]","./assets/img/ocean/memory/12.jpg","[""ArrowDown"",""ArrowRight""]","value training","ocean","30","{""ArrowUp,ArrowLeft"":23,""ArrowUp,ArrowRight"":10,""ArrowDown,ArrowLeft"":8,""ArrowDown,ArrowRight"":30}","true","ArrowDown,ArrowRight","false","revaluation","1","60","","",""
"html-keyboard-response","178","802318","0.0-4.0-2.0-1.30","spark_pilot_norest","8468","2","20","Male","","","","","","","null","<div style=""font-size:60px;"">+</div>","null","fixation","","","","","","","","","61","","",""
"revaluation","179","806321","0.0-4.0-2.0-0.31","spark_pilot_norest","8468","2","20","Male","","false","","","","","[882.0999999940395]","./assets/img/ocean/catch/2.jpg","[""spaceBar""]","value training","ocean","0","{""ArrowUp,ArrowLeft"":23,""ArrowUp,ArrowRight"":10,""ArrowDown,ArrowLeft"":8,""ArrowDown,ArrowRight"":30}","true","spaceBar","true","revaluation","1","62","","",""
"html-keyboard-response","180","806823","0.0-4.0-2.0-1.31","spark_pilot_norest","8468","2","20","Male","","","","","","","null","<div style=""font-size:60px;"">+</div>","null","fixation","","","","","","","","","63","","",""
"revaluation","181","810827","0.0-4.0-2.0-0.32","spark_pilot_norest","8468","2","20","Male","","false","","","","","[829.7000000178814]","./assets/img/ocean/catch/7.jpg","[""spaceBar""]","value training","ocean","0","{""ArrowUp,ArrowLeft"":23,""ArrowUp,ArrowRight"":10,""ArrowDown,ArrowLeft"":8,""ArrowDown,ArrowRight"":30}","true","spaceBar","true","revaluation","1","64","","",""
"html-keyboard-response","182","811328","0.0-4.0-2.0-1.32","spark_pilot_norest","8468","2","20","Male","","","","","","","null","<div style=""font-size:60px;"">+</div>","null","fixation","","","","","","","","","65","","",""
"revaluation","183","817334","0.0-4.0-2.0-0.33","spark_pilot_norest","8468","2","20","Male","","false","","","","","[1105.0999999940395,307.59999999403954]","./assets/img/ocean/memory/23.jpg","[""ArrowDown"",""ArrowRight""]","value training","ocean","30","{""ArrowUp,ArrowLeft"":23,""ArrowUp,ArrowRight"":10,""ArrowDown,ArrowLeft"":8,""ArrowDown,ArrowRight"":30}","true","ArrowDown,ArrowRight","false","revaluation","1","66","","",""
"html-keyboard-response","184","817836","0.0-4.0-2.0-1.33","spark_pilot_norest","8468","2","20","Male","","","","","","","null","<div style=""font-size:60px;"">+</div>","null","fixation","","","","","","","","","67","","",""
"revaluation","185","823839","0.0-4.0-2.0-0.34","spark_pilot_norest","8468","2","20","Male","","false","","","","","[843.6999999880791,387.7999999821186]","./assets/img/ocean/memory/36.jpg","[""ArrowDown"",""ArrowRight""]","value training","ocean","30","{""ArrowUp,ArrowLeft"":23,""ArrowUp,ArrowRight"":10,""ArrowDown,ArrowLeft"":8,""ArrowDown,ArrowRight"":30}","true","ArrowDown,ArrowRight","false","revaluation","1","68","","",""
"html-keyboard-response","186","824340","0.0-4.0-2.0-1.34","spark_pilot_norest","8468","2","20","Male","","","","","","","null","<div style=""font-size:60px;"">+</div>","null","fixation","","","","","","","","","69","","",""
"revaluation","187","830343","0.0-4.0-2.0-0.35","spark_pilot_norest","8468","2","20","Male","","false","","","","","[827.5,373.09999999403954]","./assets/img/ocean/memory/27.jpg","[""ArrowDown"",""ArrowRight""]","value training","ocean","30","{""ArrowUp,ArrowLeft"":23,""ArrowUp,ArrowRight"":10,""ArrowDown,ArrowLeft"":8,""ArrowDown,ArrowRight"":30}","true","ArrowDown,ArrowRight","false","revaluation","1","70","","",""
"html-keyboard-response","188","830845","0.0-4.0-2.0-1.35","spark_pilot_norest","8468","2","20","Male","","","","","","","null","<div style=""font-size:60px;"">+</div>","null","fixation","","","","","","","","","71","","",""
"revaluation","189","836848","0.0-4.0-2.0-0.36","spark_pilot_norest","8468","2","20","Male","","false","","","","","[807.4000000059605,357.60000002384186]","./assets/img/ocean/memory/17.jpg","[""ArrowDown"",""ArrowRight""]","value training","ocean","30","{""ArrowUp,ArrowLeft"":23,""ArrowUp,ArrowRight"":10,""ArrowDown,ArrowLeft"":8,""ArrowDown,ArrowRight"":30}","true","ArrowDown,ArrowRight","false","revaluation","1","72","","",""
"html-keyboard-response","190","837350","0.0-4.0-2.0-1.36","spark_pilot_norest","8468","2","20","Male","","","","","","","null","<div style=""font-size:60px;"">+</div>","null","fixation","","","","","","","","","73","","",""
"revaluation","191","843354","0.0-4.0-2.0-0.37","spark_pilot_norest","8468","2","20","Male","","false","","","","","[720,304]","./assets/img/ocean/memory/12.jpg","[""ArrowDown"",""ArrowRight""]","value training","ocean","30","{""ArrowUp,ArrowLeft"":23,""ArrowUp,ArrowRight"":10,""ArrowDown,ArrowLeft"":8,""ArrowDown,ArrowRight"":30}","true","ArrowDown,ArrowRight","false","revaluation","1","74","","",""
"html-keyboard-response","192","843855","0.0-4.0-2.0-1.37","spark_pilot_norest","8468","2","20","Male","","","","","","","null","<div style=""font-size:60px;"">+</div>","null","fixation","","","","","","","","","75","","",""
"revaluation","193","849860","0.0-4.0-2.0-0.38","spark_pilot_norest","8468","2","20","Male","","false","","","","","[868.6999999880791,544.7999999821186]","./assets/img/ocean/memory/18.jpg","[""ArrowDown"",""ArrowRight""]","value training","ocean","30","{""ArrowUp,ArrowLeft"":23,""ArrowUp,ArrowRight"":10,""ArrowDown,ArrowLeft"":8,""ArrowDown,ArrowRight"":30}","true","ArrowDown,ArrowRight","false","revaluation","1","76","","",""
"html-keyboard-response","194","850361","0.0-4.0-2.0-1.38","spark_pilot_norest","8468","2","20","Male","","","","","","","null","<div style=""font-size:60px;"">+</div>","null","fixation","","","","","","","","","77","","",""
"revaluation","195","856364","0.0-4.0-2.0-0.39","spark_pilot_norest","8468","2","20","Male","","false","","","","","[994.0999999940395,528.0999999940395]","./assets/img/ocean/memory/26.jpg","[""ArrowDown"",""ArrowRight""]","value training","ocean","30","{""ArrowUp,ArrowLeft"":23,""ArrowUp,ArrowRight"":10,""ArrowDown,ArrowLeft"":8,""ArrowDown,ArrowRight"":30}","true","ArrowDown,ArrowRight","false","revaluation","1","78","","",""
"html-keyboard-response","196","856865","0.0-4.0-2.0-1.39","spark_pilot_norest","8468","2","20","Male","","","","","","","null","<div style=""font-size:60px;"">+</div>","null","fixation","","","","","","","","","79","","",""
"revaluation","197","862870","0.0-4.0-2.0-0.40","spark_pilot_norest","8468","2","20","Male","","false","","","","","[1028.4000000059605,399.5]","./assets/img/ocean/memory/40.jpg","[""ArrowDown"",""ArrowRight""]","value training","ocean","30","{""ArrowUp,ArrowLeft"":23,""ArrowUp,ArrowRight"":10,""ArrowDown,ArrowLeft"":8,""ArrowDown,ArrowRight"":30}","true","ArrowDown,ArrowRight","false","revaluation","1","80","","",""
"html-keyboard-response","198","863373","0.0-4.0-2.0-1.40","spark_pilot_norest","8468","2","20","Male","","","","","","","null","<div style=""font-size:60px;"">+</div>","null","fixation","","","","","","","","","81","","",""
"revaluation","199","869378","0.0-4.0-2.0-0.41","spark_pilot_norest","8468","2","20","Male","","false","","","","","[1158.300000011921,789.0999999940395]","./assets/img/ocean/memory/10.jpg","[""ArrowDown"",""ArrowRight""]","value training","ocean","30","{""ArrowUp,ArrowLeft"":23,""ArrowUp,ArrowRight"":10,""ArrowDown,ArrowLeft"":8,""ArrowDown,ArrowRight"":30}","true","ArrowDown,ArrowRight","false","revaluation","1","82","","",""
"html-keyboard-response","200","869880","0.0-4.0-2.0-1.41","spark_pilot_norest","8468","2","20","Male","","","","","","","null","<div style=""font-size:60px;"">+</div>","null","fixation","","","","","","","","","83","","",""
"revaluation","201","875883","0.0-4.0-2.0-0.42","spark_pilot_norest","8468","2","20","Male","","false","","","","","[838.7999999821186,435.19999998807907]","./assets/img/ocean/memory/23.jpg","[""ArrowDown"",""ArrowRight""]","value training","ocean","30","{""ArrowUp,ArrowLeft"":23,""ArrowUp,ArrowRight"":10,""ArrowDown,ArrowLeft"":8,""ArrowDown,ArrowRight"":30}","true","ArrowDown,ArrowRight","false","revaluation","1","84","","",""
"html-keyboard-response","202","876385","0.0-4.0-2.0-1.42","spark_pilot_norest","8468","2","20","Male","","","","","","","null","<div style=""font-size:60px;"">+</div>","null","fixation","","","","","","","","","85","","",""
"revaluation","203","882388","0.0-4.0-2.0-0.43","spark_pilot_norest","8468","2","20","Male","","false","","","","","[1347,391.89999997615814]","./assets/img/ocean/memory/14.jpg","[""ArrowDown"",""ArrowRight""]","value training","ocean","30","{""ArrowUp,ArrowLeft"":23,""ArrowUp,ArrowRight"":10,""ArrowDown,ArrowLeft"":8,""ArrowDown,ArrowRight"":30}","true","ArrowDown,ArrowRight","false","revaluation","1","86","","",""
"html-keyboard-response","204","882890","0.0-4.0-2.0-1.43","spark_pilot_norest","8468","2","20","Male","","","","","","","null","<div style=""font-size:60px;"">+</div>","null","fixation","","","","","","","","","87","","",""
"revaluation","205","888894","0.0-4.0-2.0-0.44","spark_pilot_norest","8468","2","20","Male","","false","","","","","[887.4000000059605,451.7000000178814]","./assets/img/ocean/memory/18.jpg","[""ArrowDown"",""ArrowRight""]","value training","ocean","30","{""ArrowUp,ArrowLeft"":23,""ArrowUp,ArrowRight"":10,""ArrowDown,ArrowLeft"":8,""ArrowDown,ArrowRight"":30}","true","ArrowDown,ArrowRight","false","revaluation","1","88","","",""
"html-keyboard-response","206","889395","0.0-4.0-2.0-1.44","spark_pilot_norest","8468","2","20","Male","","","","","","","null","<div style=""font-size:60px;"">+</div>","null","fixation","","","","","","","","","89","","",""
"revaluation","207","895399","0.0-4.0-2.0-0.45","spark_pilot_norest","8468","2","20","Male","","false","","","","","[1229.5,395.40000000596046]","./assets/img/ocean/memory/14.jpg","[""ArrowDown"",""ArrowRight""]","value training","ocean","30","{""ArrowUp,ArrowLeft"":23,""ArrowUp,ArrowRight"":10,""ArrowDown,ArrowLeft"":8,""ArrowDown,ArrowRight"":30}","true","ArrowDown,ArrowRight","false","revaluation","1","90","","",""
"html-keyboard-response","208","895911","0.0-4.0-2.0-1.45","spark_pilot_norest","8468","2","20","Male","","","","","","","null","<div style=""font-size:60px;"">+</div>","null","fixation","","","","","","","","","91","","",""
"revaluation","209","899915","0.0-4.0-2.0-0.46","spark_pilot_norest","8468","2","20","Male","","false","","","","","[923.4000000059605]","./assets/img/ocean/catch/0.jpg","[""spaceBar""]","value training","ocean","0","{""ArrowUp,ArrowLeft"":23,""ArrowUp,ArrowRight"":10,""ArrowDown,ArrowLeft"":8,""ArrowDown,ArrowRight"":30}","true","spaceBar","true","revaluation","1","92","","",""
"html-keyboard-response","210","900418","0.0-4.0-2.0-1.46","spark_pilot_norest","8468","2","20","Male","","","","","","","null","<div style=""font-size:60px;"">+</div>","null","fixation","","","","","","","","","93","","",""
"revaluation","211","906420","0.0-4.0-2.0-0.47","spark_pilot_norest","8468","2","20","Male","","false","","","","","[853.1999999880791,339]","./assets/img/ocean/memory/37.jpg","[""ArrowDown"",""ArrowRight""]","value training","ocean","30","{""ArrowUp,ArrowLeft"":23,""ArrowUp,ArrowRight"":10,""ArrowDown,ArrowLeft"":8,""ArrowDown,ArrowRight"":30}","true","ArrowDown,ArrowRight","false","revaluation","1","94","","",""
"html-keyboard-response","212","906922","0.0-4.0-2.0-1.47","spark_pilot_norest","8468","2","20","Male","","","","","","","null","<div style=""font-size:60px;"">+</div>","null","fixation","","","","","","","","","95","","",""
"revaluation","213","912927","0.0-4.0-2.0-0.48","spark_pilot_norest","8468","2","20","Male","","false","","","","","[1199.9000000059605,447.40000000596046]","./assets/img/ocean/memory/15.jpg","[""ArrowDown"",""ArrowRight""]","value training","ocean","30","{""ArrowUp,ArrowLeft"":23,""ArrowUp,ArrowRight"":10,""ArrowDown,ArrowLeft"":8,""ArrowDown,ArrowRight"":30}","true","ArrowDown,ArrowRight","false","revaluation","1","96","","",""
"html-keyboard-response","214","913428","0.0-4.0-2.0-1.48","spark_pilot_norest","8468","2","20","Male","","","","","","","null","<div style=""font-size:60px;"">+</div>","null","fixation","","","","","","","","","97","","",""
"revaluation","215","919430","0.0-4.0-2.0-0.49","spark_pilot_norest","8468","2","20","Male","","false","","","","","[932.5,421.69999998807907]","./assets/img/ocean/memory/32.jpg","[""ArrowDown"",""ArrowRight""]","value training","ocean","30","{""ArrowUp,ArrowLeft"":23,""ArrowUp,ArrowRight"":10,""ArrowDown,ArrowLeft"":8,""ArrowDown,ArrowRight"":30}","true","ArrowDown,ArrowRight","false","revaluation","1","98","","",""
"html-keyboard-response","216","919932","0.0-4.0-2.0-1.49","spark_pilot_norest","8468","2","20","Male","","","","","","","null","<div style=""font-size:60px;"">+</div>","null","fixation","","","","","","","","","99","","",""
"learning-instructions","217","936641","0.0-4.0-3.0-0.0","spark_pilot_norest","8468","2","20","Male","","","","","","","3471.100000023842","<p> Now, you will travel with a friend who will choose whether you go up or down first. </p>
            <p> On these turns, you will just see the animal that they found. You will still get to choose which chest to search for treasure.</p>","","instructions","","","","","","","","","","","",""
"revaluation","218","940661","0.0-4.0-4.0-0.0","spark_pilot_norest","8468","2","20","Male","","false","","","","","[1041.9000000059605]","./assets/img/ocean/animals/seahorse.jpg","[""ArrowRight""]","revaluation","ocean","7","{""ArrowUp,ArrowLeft"":27,""ArrowUp,ArrowRight"":15,""ArrowDown,ArrowLeft"":21,""ArrowDown,ArrowRight"":7}","false","ArrowDown,ArrowRight","","revaluation","1","0","","",""
"html-keyboard-response","219","941172","0.0-4.0-4.0-1.0","spark_pilot_norest","8468","2","20","Male","","","","","","","null","<div style=""font-size:60px;"">+</div>","null","fixation","","","","","","","","","1","","",""
"revaluation","220","945185","0.0-4.0-4.0-0.1","spark_pilot_norest","8468","2","20","Male","","false","","","","","[1225.7000000178814]","./assets/img/ocean/animals/octopus.jpg","[""ArrowRight""]","revaluation","ocean","15","{""ArrowUp,ArrowLeft"":27,""ArrowUp,ArrowRight"":15,""ArrowDown,ArrowLeft"":21,""ArrowDown,ArrowRight"":7}","false","ArrowUp,ArrowRight","","revaluation","1","2","","",""
"html-keyboard-response","221","945689","0.0-4.0-4.0-1.1","spark_pilot_norest","8468","2","20","Male","","","","","","","null","<div style=""font-size:60px;"">+</div>","null","fixation","","","","","","","","","3","","",""
"revaluation","222","949709","0.0-4.0-4.0-0.2","spark_pilot_norest","8468","2","20","Male","","false","","","","","[518.1999999880791]","./assets/img/ocean/animals/seahorse.jpg","[""ArrowLeft""]","revaluation","ocean","21","{""ArrowUp,ArrowLeft"":27,""ArrowUp,ArrowRight"":15,""ArrowDown,ArrowLeft"":21,""ArrowDown,ArrowRight"":7}","true","ArrowDown,ArrowLeft","","revaluation","1","4","","",""
"html-keyboard-response","223","950223","0.0-4.0-4.0-1.2","spark_pilot_norest","8468","2","20","Male","","","","","","","null","<div style=""font-size:60px;"">+</div>","null","fixation","","","","","","","","","5","","",""
"revaluation","224","954252","0.0-4.0-4.0-0.3","spark_pilot_norest","8468","2","20","Male","","false","","","","","[858]","./assets/img/ocean/animals/seahorse.jpg","[""ArrowLeft""]","revaluation","ocean","21","{""ArrowUp,ArrowLeft"":27,""ArrowUp,ArrowRight"":15,""ArrowDown,ArrowLeft"":21,""ArrowDown,ArrowRight"":7}","true","ArrowDown,ArrowLeft","","revaluation","1","6","","",""
"html-keyboard-response","225","954755","0.0-4.0-4.0-1.3","spark_pilot_norest","8468","2","20","Male","","","","","","","null","<div style=""font-size:60px;"">+</div>","null","fixation","","","","","","","","","7","","",""
"revaluation","226","958776","0.0-4.0-4.0-0.4","spark_pilot_norest","8468","2","20","Male","","false","","","","","[634.4000000059605]","./assets/img/ocean/animals/octopus.jpg","[""ArrowLeft""]","revaluation","ocean","27","{""ArrowUp,ArrowLeft"":27,""ArrowUp,ArrowRight"":15,""ArrowDown,ArrowLeft"":21,""ArrowDown,ArrowRight"":7}","true","ArrowUp,ArrowLeft","","revaluation","1","8","","",""
"html-keyboard-response","227","959289","0.0-4.0-4.0-1.4","spark_pilot_norest","8468","2","20","Male","","","","","","","null","<div style=""font-size:60px;"">+</div>","null","fixation","","","","","","","","","9","","",""
"revaluation","228","963307","0.0-4.0-4.0-0.5","spark_pilot_norest","8468","2","20","Male","","false","","","","","[796.7999999821186]","./assets/img/ocean/animals/seahorse.jpg","[""ArrowLeft""]","revaluation","ocean","21","{""ArrowUp,ArrowLeft"":27,""ArrowUp,ArrowRight"":15,""ArrowDown,ArrowLeft"":21,""ArrowDown,ArrowRight"":7}","true","ArrowDown,ArrowLeft","","revaluation","1","10","","",""
"html-keyboard-response","229","963809","0.0-4.0-4.0-1.5","spark_pilot_norest","8468","2","20","Male","","","","","","","null","<div style=""font-size:60px;"">+</div>","null","fixation","","","","","","","","","11","","",""
"revaluation","230","967813","0.0-4.0-4.0-0.6","spark_pilot_norest","8468","2","20","Male","","false","","","","","[806.6999999880791]","./assets/img/ocean/animals/seahorse.jpg","[""ArrowLeft""]","revaluation","ocean","21","{""ArrowUp,ArrowLeft"":27,""ArrowUp,ArrowRight"":15,""ArrowDown,ArrowLeft"":21,""ArrowDown,ArrowRight"":7}","true","ArrowDown,ArrowLeft","","revaluation","1","12","","",""
"html-keyboard-response","231","968314","0.0-4.0-4.0-1.6","spark_pilot_norest","8468","2","20","Male","","","","","","","null","<div style=""font-size:60px;"">+</div>","null","fixation","","","","","","","","","13","","",""
"revaluation","232","972318","0.0-4.0-4.0-0.7","spark_pilot_norest","8468","2","20","Male","","false","","","","","[650.9000000059605]","./assets/img/ocean/animals/octopus.jpg","[""ArrowLeft""]","revaluation","ocean","27","{""ArrowUp,ArrowLeft"":27,""ArrowUp,ArrowRight"":15,""ArrowDown,ArrowLeft"":21,""ArrowDown,ArrowRight"":7}","true","ArrowUp,ArrowLeft","","revaluation","1","14","","",""
"html-keyboard-response","233","972820","0.0-4.0-4.0-1.7","spark_pilot_norest","8468","2","20","Male","","","","","","","null","<div style=""font-size:60px;"">+</div>","null","fixation","","","","","","","","","15","","",""
"revaluation","234","976836","0.0-4.0-4.0-0.8","spark_pilot_norest","8468","2","20","Male","","false","","","","","[685.6999999880791]","./assets/img/ocean/animals/octopus.jpg","[""ArrowLeft""]","revaluation","ocean","27","{""ArrowUp,ArrowLeft"":27,""ArrowUp,ArrowRight"":15,""ArrowDown,ArrowLeft"":21,""ArrowDown,ArrowRight"":7}","true","ArrowUp,ArrowLeft","","revaluation","1","16","","",""
"html-keyboard-response","235","977337","0.0-4.0-4.0-1.8","spark_pilot_norest","8468","2","20","Male","","","","","","","null","<div style=""font-size:60px;"">+</div>","null","fixation","","","","","","","","","17","","",""
"revaluation","236","981340","0.0-4.0-4.0-0.9","spark_pilot_norest","8468","2","20","Male","","false","","","","","[589.9000000059605]","./assets/img/ocean/animals/octopus.jpg","[""ArrowLeft""]","revaluation","ocean","27","{""ArrowUp,ArrowLeft"":27,""ArrowUp,ArrowRight"":15,""ArrowDown,ArrowLeft"":21,""ArrowDown,ArrowRight"":7}","true","ArrowUp,ArrowLeft","","revaluation","1","18","","",""
"html-keyboard-response","237","981841","0.0-4.0-4.0-1.9","spark_pilot_norest","8468","2","20","Male","","","","","","","null","<div style=""font-size:60px;"">+</div>","null","fixation","","","","","","","","","19","","",""
"revaluation","238","985844","0.0-4.0-4.0-0.10","spark_pilot_norest","8468","2","20","Male","","false","","","","","[613.9000000059605]","./assets/img/ocean/animals/octopus.jpg","[""ArrowLeft""]","revaluation","ocean","27","{""ArrowUp,ArrowLeft"":27,""ArrowUp,ArrowRight"":15,""ArrowDown,ArrowLeft"":21,""ArrowDown,ArrowRight"":7}","true","ArrowUp,ArrowLeft","","revaluation","1","20","","",""
"html-keyboard-response","239","986346","0.0-4.0-4.0-1.10","spark_pilot_norest","8468","2","20","Male","","","","","","","null","<div style=""font-size:60px;"">+</div>","null","fixation","","","","","","","","","21","","",""
"revaluation","240","990349","0.0-4.0-4.0-0.11","spark_pilot_norest","8468","2","20","Male","","false","","","","","[742.1000000238419]","./assets/img/ocean/animals/seahorse.jpg","[""ArrowLeft""]","revaluation","ocean","21","{""ArrowUp,ArrowLeft"":27,""ArrowUp,ArrowRight"":15,""ArrowDown,ArrowLeft"":21,""ArrowDown,ArrowRight"":7}","true","ArrowDown,ArrowLeft","","revaluation","1","22","","",""
"html-keyboard-response","241","990851","0.0-4.0-4.0-1.11","spark_pilot_norest","8468","2","20","Male","","","","","","","null","<div style=""font-size:60px;"">+</div>","null","fixation","","","","","","","","","23","","",""
"revaluation","242","994855","0.0-4.0-4.0-0.12","spark_pilot_norest","8468","2","20","Male","","false","","","","","[570.9000000059605]","./assets/img/ocean/animals/octopus.jpg","[""ArrowLeft""]","revaluation","ocean","27","{""ArrowUp,ArrowLeft"":27,""ArrowUp,ArrowRight"":15,""ArrowDown,ArrowLeft"":21,""ArrowDown,ArrowRight"":7}","true","ArrowUp,ArrowLeft","","revaluation","1","24","","",""
"html-keyboard-response","243","995356","0.0-4.0-4.0-1.12","spark_pilot_norest","8468","2","20","Male","","","","","","","null","<div style=""font-size:60px;"">+</div>","null","fixation","","","","","","","","","25","","",""
"revaluation","244","999360","0.0-4.0-4.0-0.13","spark_pilot_norest","8468","2","20","Male","","false","","","","","[783]","./assets/img/ocean/animals/octopus.jpg","[""ArrowLeft""]","revaluation","ocean","27","{""ArrowUp,ArrowLeft"":27,""ArrowUp,ArrowRight"":15,""ArrowDown,ArrowLeft"":21,""ArrowDown,ArrowRight"":7}","true","ArrowUp,ArrowLeft","","revaluation","1","26","","",""
"html-keyboard-response","245","999861","0.0-4.0-4.0-1.13","spark_pilot_norest","8468","2","20","Male","","","","","","","null","<div style=""font-size:60px;"">+</div>","null","fixation","","","","","","","","","27","","",""
"revaluation","246","1003864","0.0-4.0-4.0-0.14","spark_pilot_norest","8468","2","20","Male","","false","","","","","[642.5]","./assets/img/ocean/animals/seahorse.jpg","[""ArrowLeft""]","revaluation","ocean","21","{""ArrowUp,ArrowLeft"":27,""ArrowUp,ArrowRight"":15,""ArrowDown,ArrowLeft"":21,""ArrowDown,ArrowRight"":7}","true","ArrowDown,ArrowLeft","","revaluation","1","28","","",""
"html-keyboard-response","247","1004366","0.0-4.0-4.0-1.14","spark_pilot_norest","8468","2","20","Male","","","","","","","null","<div style=""font-size:60px;"">+</div>","null","fixation","","","","","","","","","29","","",""
"revaluation","248","1008369","0.0-4.0-4.0-0.15","spark_pilot_norest","8468","2","20","Male","","false","","","","","[566.3999999761581]","./assets/img/ocean/animals/seahorse.jpg","[""ArrowLeft""]","revaluation","ocean","21","{""ArrowUp,ArrowLeft"":27,""ArrowUp,ArrowRight"":15,""ArrowDown,ArrowLeft"":21,""ArrowDown,ArrowRight"":7}","true","ArrowDown,ArrowLeft","","revaluation","1","30","","",""
"html-keyboard-response","249","1008870","0.0-4.0-4.0-1.15","spark_pilot_norest","8468","2","20","Male","","","","","","","null","<div style=""font-size:60px;"">+</div>","null","fixation","","","","","","","","","31","","",""
"revaluation","250","1012874","0.0-4.0-4.0-0.16","spark_pilot_norest","8468","2","20","Male","","false","","","","","[690.6999999880791]","./assets/img/ocean/animals/octopus.jpg","[""ArrowLeft""]","revaluation","ocean","27","{""ArrowUp,ArrowLeft"":27,""ArrowUp,ArrowRight"":15,""ArrowDown,ArrowLeft"":21,""ArrowDown,ArrowRight"":7}","true","ArrowUp,ArrowLeft","","revaluation","1","32","","",""
"html-keyboard-response","251","1013376","0.0-4.0-4.0-1.16","spark_pilot_norest","8468","2","20","Male","","","","","","","null","<div style=""font-size:60px;"">+</div>","null","fixation","","","","","","","","","33","","",""
"revaluation","252","1017378","0.0-4.0-4.0-0.17","spark_pilot_norest","8468","2","20","Male","","false","","","","","[693.5999999940395]","./assets/img/ocean/animals/seahorse.jpg","[""ArrowLeft""]","revaluation","ocean","21","{""ArrowUp,ArrowLeft"":27,""ArrowUp,ArrowRight"":15,""ArrowDown,ArrowLeft"":21,""ArrowDown,ArrowRight"":7}","true","ArrowDown,ArrowLeft","","revaluation","1","34","","",""
"html-keyboard-response","253","1017880","0.0-4.0-4.0-1.17","spark_pilot_norest","8468","2","20","Male","","","","","","","null","<div style=""font-size:60px;"">+</div>","null","fixation","","","","","","","","","35","","",""
"learning-instructions","254","1026354","0.0-4.0-5.0-0.0","spark_pilot_norest","8468","2","20","Male","","","","","","","null","<p> You have almost finished this part of the game! </p>
            <p> We are going to ask you to make a few more choices. </p>","","instructions","","","","","","","","","","","",""
"learning-instructions","255","1042319","0.0-4.0-5.0-0.1","spark_pilot_norest","8468","2","20","Male","","","","","","","null","<p> First, you need to decide whether to go up or down. When you see each picture, use the arrow keys to make your choice. </p>
            <p><b>You will not see which animal you found, but try to get to the one that will give you the most treasure.</b></p>","","instructions","","","","","","","","","","","",""
"html-keyboard-response","256","1043330","0.0-4.0-6.0-0.0","spark_pilot_norest","8468","2","20","Male","","","","","","","null","<div style=""font-size:100px;color:red;"">Starting in...</div>","null","","","","","","","","","","","","",""
"html-keyboard-response","257","1044347","0.0-4.0-6.0-1.0","spark_pilot_norest","8468","2","20","Male","","","","","","","null","<div style=""font-size:200px;color:red;"">3</div>","null","","","","","","","","","","","","",""
"html-keyboard-response","258","1045362","0.0-4.0-6.0-2.0","spark_pilot_norest","8468","2","20","Male","","","","","","","null","<div style=""font-size:200px;color:red;"">2</div>","null","","","","","","","","","","","","",""
"html-keyboard-response","259","1046377","0.0-4.0-6.0-3.0","spark_pilot_norest","8468","2","20","Male","","","","","","","null","<div style=""font-size:200px;color:red;"">1</div>","null","","","","","","","","","","","","",""
"revaluation","260","1047733","0.0-4.0-7.0-0.0","spark_pilot_norest","8468","2","20","Male","","false","","","","","[1354.199999988079]","./assets/img/ocean/test/1.jpg","[""ArrowUp""]","first stage test","ocean","0","{""ArrowUp,ArrowLeft"":27,""ArrowUp,ArrowRight"":15,""ArrowDown,ArrowLeft"":21,""ArrowDown,ArrowRight"":7}","true","ArrowUp","false","revaluation","1","","","",""
"html-keyboard-response","261","1048249","0.0-4.0-7.0-1.0","spark_pilot_norest","8468","2","20","Male","","","","","","","null","<div style=""font-size:60px;"">+</div>","null","fixation","","","","","","","","","","","",""
"revaluation","262","1049407","0.0-4.0-7.0-0.1","spark_pilot_norest","8468","2","20","Male","","false","","","","","[1157]","./assets/img/ocean/test/0.jpg","[""ArrowUp""]","first stage test","ocean","0","{""ArrowUp,ArrowLeft"":27,""ArrowUp,ArrowRight"":15,""ArrowDown,ArrowLeft"":21,""ArrowDown,ArrowRight"":7}","true","ArrowUp","false","revaluation","1","","","",""
"html-keyboard-response","263","1049915","0.0-4.0-7.0-1.1","spark_pilot_norest","8468","2","20","Male","","","","","","","null","<div style=""font-size:60px;"">+</div>","null","fixation","","","","","","","","","","","",""
"revaluation","264","1051493","0.0-4.0-7.0-0.2","spark_pilot_norest","8468","2","20","Male","","false","","","","","[1575.9000000059605]","./assets/img/ocean/test/3.jpg","[""ArrowUp""]","first stage test","ocean","0","{""ArrowUp,ArrowLeft"":27,""ArrowUp,ArrowRight"":15,""ArrowDown,ArrowLeft"":21,""ArrowDown,ArrowRight"":7}","true","ArrowUp","false","revaluation","1","","","",""
"html-keyboard-response","265","1052000","0.0-4.0-7.0-1.2","spark_pilot_norest","8468","2","20","Male","","","","","","","null","<div style=""font-size:60px;"">+</div>","null","fixation","","","","","","","","","","","",""
"revaluation","266","1053373","0.0-4.0-7.0-0.3","spark_pilot_norest","8468","2","20","Male","","false","","","","","[1371.4000000059605]","./assets/img/ocean/test/2.jpg","[""ArrowUp""]","first stage test","ocean","0","{""ArrowUp,ArrowLeft"":27,""ArrowUp,ArrowRight"":15,""ArrowDown,ArrowLeft"":21,""ArrowDown,ArrowRight"":7}","true","ArrowUp","false","revaluation","1","","","",""
"html-keyboard-response","267","1053883","0.0-4.0-7.0-1.3","spark_pilot_norest","8468","2","20","Male","","","","","","","null","<div style=""font-size:60px;"">+</div>","null","fixation","","","","","","","","","","","",""
"learning-instructions","268","1067233","0.0-4.0-8.0-0.0","spark_pilot_norest","8468","2","20","Male","","","","","","","null","<p> Now you will see the animals again and can search their chests for treasure. </p>
            <p> This time, you will not see how much treasure you earned, but you will earn more bonus money for making better choices. </p>","","instructions","","","","","","","","","","","",""
"html-keyboard-response","269","1068245","0.0-4.0-9.0-0.0","spark_pilot_norest","8468","2","20","Male","","","","","","","null","<div style=""font-size:100px;color:red;"">Starting in...</div>","null","","","","","","","","","","","","",""
"html-keyboard-response","270","1069256","0.0-4.0-9.0-1.0","spark_pilot_norest","8468","2","20","Male","","","","","","","null","<div style=""font-size:200px;color:red;"">3</div>","null","","","","","","","","","","","","",""
"html-keyboard-response","271","1070261","0.0-4.0-9.0-2.0","spark_pilot_norest","8468","2","20","Male","","","","","","","null","<div style=""font-size:200px;color:red;"">2</div>","null","","","","","","","","","","","","",""
"html-keyboard-response","272","1071277","0.0-4.0-9.0-3.0","spark_pilot_norest","8468","2","20","Male","","","","","","","null","<div style=""font-size:200px;color:red;"">1</div>","null","","","","","","","","","","","","",""
"revaluation","273","1072705","0.0-4.0-10.0-0.0","spark_pilot_norest","8468","2","20","Male","","false","","","","","[1426.7000000178814]","./assets/img/ocean/animals/octopus.jpg","[""ArrowLeft""]","second stage test","ocean","0","{""ArrowUp,ArrowLeft"":27,""ArrowUp,ArrowRight"":15,""ArrowDown,ArrowLeft"":21,""ArrowDown,ArrowRight"":7}","true","ArrowUp,ArrowLeft","","revaluation","1","","","",""
"html-keyboard-response","274","1073217","0.0-4.0-10.0-1.0","spark_pilot_norest","8468","2","20","Male","","","","","","","null","<div style=""font-size:60px;"">+</div>","null","fixation","","","","","","","","","","","",""
"revaluation","275","1073957","0.0-4.0-10.0-0.1","spark_pilot_norest","8468","2","20","Male","","false","","","","","[738.7000000178814]","./assets/img/ocean/animals/octopus.jpg","[""ArrowLeft""]","second stage test","ocean","0","{""ArrowUp,ArrowLeft"":27,""ArrowUp,ArrowRight"":15,""ArrowDown,ArrowLeft"":21,""ArrowDown,ArrowRight"":7}","true","ArrowUp,ArrowLeft","","revaluation","1","","","",""
"html-keyboard-response","276","1074465","0.0-4.0-10.0-1.1","spark_pilot_norest","8468","2","20","Male","","","","","","","null","<div style=""font-size:60px;"">+</div>","null","fixation","","","","","","","","","","","",""
"revaluation","277","1075143","0.0-4.0-10.0-0.2","spark_pilot_norest","8468","2","20","Male","","false","","","","","[675.8000000119209]","./assets/img/ocean/animals/octopus.jpg","[""ArrowLeft""]","second stage test","ocean","0","{""ArrowUp,ArrowLeft"":27,""ArrowUp,ArrowRight"":15,""ArrowDown,ArrowLeft"":21,""ArrowDown,ArrowRight"":7}","true","ArrowUp,ArrowLeft","","revaluation","1","","","",""
"html-keyboard-response","278","1075648","0.0-4.0-10.0-1.2","spark_pilot_norest","8468","2","20","Male","","","","","","","null","<div style=""font-size:60px;"">+</div>","null","fixation","","","","","","","","","","","",""
"revaluation","279","1076196","0.0-4.0-10.0-0.3","spark_pilot_norest","8468","2","20","Male","","false","","","","","[546.3000000119209]","./assets/img/ocean/animals/octopus.jpg","[""ArrowLeft""]","second stage test","ocean","0","{""ArrowUp,ArrowLeft"":27,""ArrowUp,ArrowRight"":15,""ArrowDown,ArrowLeft"":21,""ArrowDown,ArrowRight"":7}","true","ArrowUp,ArrowLeft","","revaluation","1","","","",""
"html-keyboard-response","280","1076699","0.0-4.0-10.0-1.3","spark_pilot_norest","8468","2","20","Male","","","","","","","null","<div style=""font-size:60px;"">+</div>","null","fixation","","","","","","","","","","","",""
"revaluation","281","1078597","0.0-4.0-10.0-0.4","spark_pilot_norest","8468","2","20","Male","","false","","","","","[1897.0999999940395]","./assets/img/ocean/animals/seahorse.jpg","[""ArrowLeft""]","second stage test","ocean","0","{""ArrowUp,ArrowLeft"":27,""ArrowUp,ArrowRight"":15,""ArrowDown,ArrowLeft"":21,""ArrowDown,ArrowRight"":7}","true","ArrowDown,ArrowLeft","","revaluation","1","","","",""
"html-keyboard-response","282","1079099","0.0-4.0-10.0-1.4","spark_pilot_norest","8468","2","20","Male","","","","","","","null","<div style=""font-size:60px;"">+</div>","null","fixation","","","","","","","","","","","",""
"revaluation","283","1079978","0.0-4.0-10.0-0.5","spark_pilot_norest","8468","2","20","Male","","false","","","","","[876.8999999761581]","./assets/img/ocean/animals/seahorse.jpg","[""ArrowLeft""]","second stage test","ocean","0","{""ArrowUp,ArrowLeft"":27,""ArrowUp,ArrowRight"":15,""ArrowDown,ArrowLeft"":21,""ArrowDown,ArrowRight"":7}","true","ArrowDown,ArrowLeft","","revaluation","1","","","",""
"html-keyboard-response","284","1080481","0.0-4.0-10.0-1.5","spark_pilot_norest","8468","2","20","Male","","","","","","","null","<div style=""font-size:60px;"">+</div>","null","fixation","","","","","","","","","","","",""
"revaluation","285","1081274","0.0-4.0-10.0-0.6","spark_pilot_norest","8468","2","20","Male","","false","","","","","[790.9000000059605]","./assets/img/ocean/animals/seahorse.jpg","[""ArrowRight""]","second stage test","ocean","0","{""ArrowUp,ArrowLeft"":27,""ArrowUp,ArrowRight"":15,""ArrowDown,ArrowLeft"":21,""ArrowDown,ArrowRight"":7}","false","ArrowDown,ArrowRight","","revaluation","1","","","",""
"html-keyboard-response","286","1081781","0.0-4.0-10.0-1.6","spark_pilot_norest","8468","2","20","Male","","","","","","","null","<div style=""font-size:60px;"">+</div>","null","fixation","","","","","","","","","","","",""
"revaluation","287","1082496","0.0-4.0-10.0-0.7","spark_pilot_norest","8468","2","20","Male","","false","","","","","[713]","./assets/img/ocean/animals/seahorse.jpg","[""ArrowRight""]","second stage test","ocean","0","{""ArrowUp,ArrowLeft"":27,""ArrowUp,ArrowRight"":15,""ArrowDown,ArrowLeft"":21,""ArrowDown,ArrowRight"":7}","false","ArrowDown,ArrowRight","","revaluation","1","","","",""
"html-keyboard-response","288","1082999","0.0-4.0-10.0-1.7","spark_pilot_norest","8468","2","20","Male","","","","","","","null","<div style=""font-size:60px;"">+</div>","null","fixation","","","","","","","","","","","",""
"learning-instructions","289","1089628","0.0-4.0-0.1-0.2","spark_pilot_norest","8468","2","20","Male","","","","","","","3870","<p> This time you are searching for treasure in the <b>canyon</b>.</p>","","instructions","","","","","","","","","","","",""
"learning-instructions","290","1111083","0.0-4.0-0.1-0.3","spark_pilot_norest","8468","2","20","Male","","","","","","","4205","<p><b>New</b> animals with <b>new</b> treasure chests live here. You need to explore to discover where the animal with the best treasure chest is.</p>
                    <p> Like before, once you figure out which animal has the chest with the most treasure, you should try to get to that animal and select that chest! </p>","","instructions","","","","","","","","","","","",""
"learning-instructions","291","1129331","0.0-4.0-1.1-0.1","spark_pilot_norest","8468","2","20","Male","","","","","","","3512.5","<p> Remember, when you see a picture of the place, use the up and down keys to <b>find an animal</b>.</p>
            <p> When you encounter an animal, you should use the left and right keys to <b>select a treasure chest</b>.</p>
            <p> Don't forget to look out for the robber! </p>","","instructions","","","","","","","","","","","",""
"revaluation","292","1135352","0.0-4.0-2.1-0.50","spark_pilot_norest","8468","2","20","Male","","false","","","","","[1764.3999999761581,673.1999999880791]","./assets/img/canyon/memory/18.jpg","[""ArrowUp"",""ArrowLeft""]","value training","canyon","26","{""ArrowUp,ArrowLeft"":26,""ArrowUp,ArrowRight"":10,""ArrowDown,ArrowLeft"":5,""ArrowDown,ArrowRight"":17}","true","ArrowUp,ArrowLeft","false","original","2","0","","",""
"html-keyboard-response","293","1135863","0.0-4.0-2.1-1.50","spark_pilot_norest","8468","2","20","Male","","","","","","","null","<div style=""font-size:60px;"">+</div>","null","fixation","","","","","","","","","1","","",""
"revaluation","294","1141882","0.0-4.0-2.1-0.51","spark_pilot_norest","8468","2","20","Male","","false","","","","","[565,617.5999999940395]","./assets/img/canyon/memory/34.jpg","[""ArrowUp"",""ArrowRight""]","value training","canyon","10","{""ArrowUp,ArrowLeft"":26,""ArrowUp,ArrowRight"":10,""ArrowDown,ArrowLeft"":5,""ArrowDown,ArrowRight"":17}","false","ArrowUp,ArrowRight","false","original","2","2","","",""
"html-keyboard-response","295","1142395","0.0-4.0-2.1-1.51","spark_pilot_norest","8468","2","20","Male","","","","","","","null","<div style=""font-size:60px;"">+</div>","null","fixation","","","","","","","","","3","","",""
"revaluation","296","1146411","0.0-4.0-2.1-0.52","spark_pilot_norest","8468","2","20","Male","","false","","","","","[954.5999999940395]","./assets/img/canyon/catch/2.jpg","[""spaceBar""]","value training","canyon","0","{""ArrowUp,ArrowLeft"":26,""ArrowUp,ArrowRight"":10,""ArrowDown,ArrowLeft"":5,""ArrowDown,ArrowRight"":17}","true","spaceBar","true","original","2","4","","",""
"html-keyboard-response","297","1146927","0.0-4.0-2.1-1.52","spark_pilot_norest","8468","2","20","Male","","","","","","","null","<div style=""font-size:60px;"">+</div>","null","fixation","","","","","","","","","5","","",""
"revaluation","298","1152965","0.0-4.0-2.1-0.53","spark_pilot_norest","8468","2","20","Male","","false","","","","","[996.7999999821186,449.59999999403954]","./assets/img/canyon/memory/7.jpg","[""ArrowDown"",""ArrowLeft""]","value training","canyon","5","{""ArrowUp,ArrowLeft"":26,""ArrowUp,ArrowRight"":10,""ArrowDown,ArrowLeft"":5,""ArrowDown,ArrowRight"":17}","false","ArrowDown,ArrowLeft","false","original","2","6","","",""
"html-keyboard-response","299","1153478","0.0-4.0-2.1-1.53","spark_pilot_norest","8468","2","20","Male","","","","","","","null","<div style=""font-size:60px;"">+</div>","null","fixation","","","","","","","","","7","","",""
"revaluation","300","1157482","0.0-4.0-2.1-0.54","spark_pilot_norest","8468","2","20","Male","","false","","","","","[782.3999999761581]","./assets/img/canyon/catch/5.jpg","[""spaceBar""]","value training","canyon","0","{""ArrowUp,ArrowLeft"":26,""ArrowUp,ArrowRight"":10,""ArrowDown,ArrowLeft"":5,""ArrowDown,ArrowRight"":17}","true","spaceBar","true","original","2","8","","",""
"html-keyboard-response","301","1157983","0.0-4.0-2.1-1.54","spark_pilot_norest","8468","2","20","Male","","","","","","","null","<div style=""font-size:60px;"">+</div>","null","fixation","","","","","","","","","9","","",""
"revaluation","302","1163986","0.0-4.0-2.1-0.55","spark_pilot_norest","8468","2","20","Male","","false","","","","","[864.9000000059605,711.5999999940395]","./assets/img/canyon/memory/32.jpg","[""ArrowDown"",""ArrowRight""]","value training","canyon","17","{""ArrowUp,ArrowLeft"":26,""ArrowUp,ArrowRight"":10,""ArrowDown,ArrowLeft"":5,""ArrowDown,ArrowRight"":17}","false","ArrowDown,ArrowRight","false","original","2","10","","",""
"html-keyboard-response","303","1164487","0.0-4.0-2.1-1.55","spark_pilot_norest","8468","2","20","Male","","","","","","","null","<div style=""font-size:60px;"">+</div>","null","fixation","","","","","","","","","11","","",""
"revaluation","304","1170492","0.0-4.0-2.1-0.56","spark_pilot_norest","8468","2","20","Male","","false","","","","","[1068,413.40000000596046]","./assets/img/canyon/memory/7.jpg","[""ArrowUp"",""ArrowLeft""]","value training","canyon","26","{""ArrowUp,ArrowLeft"":26,""ArrowUp,ArrowRight"":10,""ArrowDown,ArrowLeft"":5,""ArrowDown,ArrowRight"":17}","true","ArrowUp,ArrowLeft","false","original","2","12","","",""
"html-keyboard-response","305","1170993","0.0-4.0-2.1-1.56","spark_pilot_norest","8468","2","20","Male","","","","","","","null","<div style=""font-size:60px;"">+</div>","null","fixation","","","","","","","","","13","","",""
"revaluation","306","1176996","0.0-4.0-2.1-0.57","spark_pilot_norest","8468","2","20","Male","","false","","","","","[1718,466.40000000596046]","./assets/img/canyon/memory/17.jpg","[""ArrowUp"",""ArrowLeft""]","value training","canyon","26","{""ArrowUp,ArrowLeft"":26,""ArrowUp,ArrowRight"":10,""ArrowDown,ArrowLeft"":5,""ArrowDown,ArrowRight"":17}","true","ArrowUp,ArrowLeft","false","original","2","14","","",""
"html-keyboard-response","307","1177498","0.0-4.0-2.1-1.57","spark_pilot_norest","8468","2","20","Male","","","","","","","null","<div style=""font-size:60px;"">+</div>","null","fixation","","","","","","","","","15","","",""
"revaluation","308","1183502","0.0-4.0-2.1-0.58","spark_pilot_norest","8468","2","20","Male","","false","","","","","[1270.199999988079,443.80000001192093]","./assets/img/canyon/memory/22.jpg","[""ArrowUp"",""ArrowLeft""]","value training","canyon","26","{""ArrowUp,ArrowLeft"":26,""ArrowUp,ArrowRight"":10,""ArrowDown,ArrowLeft"":5,""ArrowDown,ArrowRight"":17}","true","ArrowUp,ArrowLeft","false","original","2","16","","",""
"html-keyboard-response","309","1184003","0.0-4.0-2.1-1.58","spark_pilot_norest","8468","2","20","Male","","","","","","","null","<div style=""font-size:60px;"">+</div>","null","fixation","","","","","","","","","17","","",""
"revaluation","310","1188006","0.0-4.0-2.1-0.59","spark_pilot_norest","8468","2","20","Male","","false","","","","","[730.2000000178814]","./assets/img/canyon/catch/1.jpg","[""spaceBar""]","value training","canyon","0","{""ArrowUp,ArrowLeft"":26,""ArrowUp,ArrowRight"":10,""ArrowDown,ArrowLeft"":5,""ArrowDown,ArrowRight"":17}","true","spaceBar","true","original","2","18","","",""
"html-keyboard-response","311","1188507","0.0-4.0-2.1-1.59","spark_pilot_norest","8468","2","20","Male","","","","","","","null","<div style=""font-size:60px;"">+</div>","null","fixation","","","","","","","","","19","","",""
"revaluation","312","1194513","0.0-4.0-2.1-0.60","spark_pilot_norest","8468","2","20","Male","","false","","","","","[897,613.8000000119209]","./assets/img/canyon/memory/10.jpg","[""ArrowUp"",""ArrowLeft""]","value training","canyon","26","{""ArrowUp,ArrowLeft"":26,""ArrowUp,ArrowRight"":10,""ArrowDown,ArrowLeft"":5,""ArrowDown,ArrowRight"":17}","true","ArrowUp,ArrowLeft","false","original","2","20","","",""
"html-keyboard-response","313","1195014","0.0-4.0-2.1-1.60","spark_pilot_norest","8468","2","20","Male","","","","","","","null","<div style=""font-size:60px;"">+</div>","null","fixation","","","","","","","","","21","","",""
