"trial_type","trial_index","time_elapsed","internal_node_id","task_version","subject_id","assigned_condition","age","gender","success","timeout","failed_images","failed_audio","failed_video","browser_interaction","value","rt","stimulus","response","task_part","environment","score","rewardMap","correct","fullState","isCatch","condition","order","trial_num","key_press","ground_truth","bonus"
"pavlovia","0","2404","0.0-0.0","spark_pilot_norest","8599","5","12","Female","","","","","","","","","","","","","","","","","","","","","","",""
"preload","1","24566","0.0-1.0","spark_pilot_norest","8599","5","12","Female","true","false","[]","[]","[]","[{""event"":""fullscreenenter"",""trial"":2,""time"":40872}]","","","","","","","","","","","","","","","","",""
"fullscreen","2","41790","0.0-2.0","spark_pilot_norest","8599","5","12","Female","true","","","","","","","","","","","","","","","","","","","","","",""
"call-function","3","310966","0.0-3.0","spark_pilot_norest","8599","5","12","Female","","","","","","","","","","","","","","","","","","","","","","",""
"audio-button-response","4","312351","0.0-4.0-0.0-0.0","spark_pilot_norest","8599","5","12","Female","","","","","","","","1373","./assets/audio/audiotest/turtle.mp3","2","audio_test","","","","","","","","","","","",""
"learning-instructions","5","321107","0.0-4.0-1.0-0.0","spark_pilot_norest","8599","5","12","Female","","","","","","","","1801","<p> Welcome! Please remember to stay in fullscreen mode and don't click away from the experiment. </p>","","instructions","","","","","","","","","","","",""
"learning-instructions","6","330753","0.0-4.0-1.0-0.1","spark_pilot_norest","8599","5","12","Female","","","","","","","","1255","<p> Today you will be playing a game to earn treasure. </p>
            <p> At the end of the experiment, you will earn a bonus based on how much treasure you find. </p>
            <img src='./assets/img/instructions/treasure.jpg' class='instructions-image'>","","instructions","","","","","","","","","","","",""
"learning-instructions","7","340252","0.0-4.0-1.0-0.2","spark_pilot_norest","8599","5","12","Female","","","","","","","","1251.0000000000582","<p> Animals have hidden treasure in treasure chests. </p>
            <p> You need to first find an animal and then choose which of their treasure chests to search. </p>
            <img src='./assets/img/space/animals/cat.jpg' class='instructions-image'>","","instructions","","","","","","","","","","","",""
"learning-instructions","8","354594","0.0-4.0-1.0-0.3","spark_pilot_norest","8599","5","12","Female","","","","","","","","1190","<p> In each round, you will search for treasure in a different place. In the real game, there will be two rounds. </p>
            <p> You will begin with a separate, practice round where you will search for treasure in outer space. </p>
            <img src='./assets/img/space/0.jpg' class='instructions-image'>","","instructions","","","","","","","","","","","",""
"learning-instructions","9","367043","0.0-4.0-1.0-0.4","spark_pilot_norest","8599","5","12","Female","","","","","","","","1033.9999999999418","<p> On every turn, you will see a picture of the place that you are in, but the specific image may be different each time. </p>
            <p> For example, both of these images mean you are in outer space. </p>
            <img src='./assets/img/instructions/outerspace.jpg' class='instructions-image'>","","instructions","","","","","","","","","","","",""
"learning-instructions","10","379288","0.0-4.0-1.0-0.5","spark_pilot_norest","8599","5","12","Female","","","","","","","","4433.999999999942","<p> You need to decide which direction to travel in. </p>
            <p> You can choose between going <b>up or down</b> by using the arrow keys. </p>
            <img src='./assets/img/instructions/updown.jpg' class='instructions-image'>","","instructions","","","","","","","","","","","",""
"learning-instructions","11","393064","0.0-4.0-1.0-0.6","spark_pilot_norest","8599","5","12","Female","","","","","","","","4984","<p> You will have <b>2 seconds</b> to make your choice. </p>
            <p> If you do not make a choice within 2 seconds, you will not find an animal or earn treasure. </p>
            <img src='./assets/img/instructions/2seconds.jpg' class='instructions-image'>","","instructions","","","","","","","","","","","",""
"learning-instructions","12","401506","0.0-4.0-1.0-0.7","spark_pilot_norest","8599","5","12","Female","","","","","","","","1421","<p> Let’s try practicing that now! </p>
            <p> When you see a picture of the place you are in, press the <b>up</b> key to travel up. </p>
            <img src='./assets/img/instructions/pressUp.jpg' class='instructions-image'>","","instructions","","","","","","","","","","","",""
"revaluation","13","405522","0.0-4.0-2.0-0.0","spark_pilot_norest","8599","5","12","Female","","false","","","","","","[1643]","./assets/img/space/0.jpg","[""ArrowUp""]","first stage practice","space","0","null","null","ArrowUp","false","","","","","",""
"html-keyboard-response","14","406024","0.0-4.0-2.0-1.0","spark_pilot_norest","8599","5","12","Female","","","","","","","","null","<div style=""font-size:60px;"">+</div>","null","fixation","","","","","","","","","","","",""
"revaluation","15","410026","0.0-4.0-2.0-0.1","spark_pilot_norest","8599","5","12","Female","","false","","","","","","[1839]","./assets/img/space/1.jpg","[""ArrowUp""]","first stage practice","space","0","null","null","ArrowUp","false","","","","","",""
"html-keyboard-response","16","410528","0.0-4.0-2.0-1.1","spark_pilot_norest","8599","5","12","Female","","","","","","","","null","<div style=""font-size:60px;"">+</div>","null","fixation","","","","","","","","","","","",""
"revaluation","17","414533","0.0-4.0-2.0-0.2","spark_pilot_norest","8599","5","12","Female","","false","","","","","","[361]","./assets/img/space/2.jpg","[""ArrowUp""]","first stage practice","space","0","null","null","ArrowUp","false","","","","","",""
"html-keyboard-response","18","415035","0.0-4.0-2.0-1.2","spark_pilot_norest","8599","5","12","Female","","","","","","","","null","<div style=""font-size:60px;"">+</div>","null","fixation","","","","","","","","","","","",""
"learning-instructions","19","420923","0.0-4.0-3.0-0.0","spark_pilot_norest","8599","5","12","Female","","","","","","","","1203","<p> Great job! Now try pressing the <b>down</b> key to travel down. </p>
            <img src='./assets/img/instructions/pressDown.jpg' class='instructions-image'>","","instructions","","","","","","","","","","","",""
"revaluation","20","424926","0.0-4.0-4.0-0.0","spark_pilot_norest","8599","5","12","Female","","false","","","","","","[1802]","./assets/img/space/3.jpg","[""ArrowDown""]","first stage practice","space","0","null","null","ArrowDown","false","","","","","",""
"html-keyboard-response","21","425427","0.0-4.0-4.0-1.0","spark_pilot_norest","8599","5","12","Female","","","","","","","","null","<div style=""font-size:60px;"">+</div>","null","fixation","","","","","","","","","","","",""
"revaluation","22","429430","0.0-4.0-4.0-0.1","spark_pilot_norest","8599","5","12","Female","","false","","","","","","[795]","./assets/img/space/4.jpg","[""ArrowDown""]","first stage practice","space","0","null","null","ArrowDown","false","","","","","",""
"html-keyboard-response","23","429931","0.0-4.0-4.0-1.1","spark_pilot_norest","8599","5","12","Female","","","","","","","","null","<div style=""font-size:60px;"">+</div>","null","fixation","","","","","","","","","","","",""
"revaluation","24","433935","0.0-4.0-4.0-0.2","spark_pilot_norest","8599","5","12","Female","","false","","","","","","[947]","./assets/img/space/5.jpg","[""ArrowDown""]","first stage practice","space","0","null","null","ArrowDown","false","","","","","",""
"html-keyboard-response","25","434436","0.0-4.0-4.0-1.2","spark_pilot_norest","8599","5","12","Female","","","","","","","","null","<div style=""font-size:60px;"">+</div>","null","fixation","","","","","","","","","","","",""
"learning-instructions","26","446972","0.0-4.0-5.0-0.0","spark_pilot_norest","8599","5","12","Female","","","","","","","","2705","<p> The animals don’t move, so the animal in the upper part of a place will stay in the upper part of a place, and the animal in the lower part of a place will stay in the lower part of a place. </p>","","instructions","","","","","","","","","","","",""
"learning-instructions","27","456558","0.0-4.0-5.0-0.1","spark_pilot_norest","8599","5","12","Female","","","","","","","","471","<p> Each animal has two treasure chests for you to choose from. </p>
            <p> The amount of treasure in each chest can range from <b> 0 to 40 pieces.</b></p>","","instructions","","","","","","","","","","","",""
"learning-instructions","28","468966","0.0-4.0-5.0-0.2","spark_pilot_norest","8599","5","12","Female","","","","","","","","1220","<p> You should decide which chest to search for treasure by using the <b>left</b> and <b>right</b> arrow keys. </p>
            <p><b> Pay attention to which animal is on the screen, as the animals have different treasure chests. </b></p>
            <img src='./assets/img/instructions/leftright.jpg' class='instructions-image'>","","instructions","","","","","","","","","","","",""
"learning-instructions","29","477071","0.0-4.0-5.0-0.3","spark_pilot_norest","8599","5","12","Female","","","","","","","","1755.0000000000582","<p> Let’s try practicing that now. </p>
            <p> When you see an animal, choose which chest to search for treasure. </p>
            <img src='./assets/img/instructions/chooseChest.jpg' class='instructions-image'>","","instructions","","","","","","","","","","","",""
"revaluation","30","481076","0.0-4.0-6.0-0.0","spark_pilot_norest","8599","5","12","Female","","false","","","","","","[37]","./assets/img/space/animals/rabbit.jpg","[""ArrowLeft""]","second stage practice","space","15","{""ArrowUp,ArrowLeft"":3,""ArrowUp,ArrowRight"":36,""ArrowDown,ArrowLeft"":15,""ArrowDown,ArrowRight"":23}","false","ArrowDown,ArrowLeft","","","","","","",""
"html-keyboard-response","31","481578","0.0-4.0-6.0-1.0","spark_pilot_norest","8599","5","12","Female","","","","","","","","null","<div style=""font-size:60px;"">+</div>","null","fixation","","","","","","","","","","","",""
"revaluation","32","485582","0.0-4.0-6.0-0.1","spark_pilot_norest","8599","5","12","Female","","false","","","","","","[426]","./assets/img/space/animals/cat.jpg","[""ArrowRight""]","second stage practice","space","36","{""ArrowUp,ArrowLeft"":3,""ArrowUp,ArrowRight"":36,""ArrowDown,ArrowLeft"":15,""ArrowDown,ArrowRight"":23}","true","ArrowUp,ArrowRight","","","","","","",""
"html-keyboard-response","33","486083","0.0-4.0-6.0-1.1","spark_pilot_norest","8599","5","12","Female","","","","","","","","null","<div style=""font-size:60px;"">+</div>","null","fixation","","","","","","","","","","","",""
"revaluation","34","490088","0.0-4.0-6.0-0.2","spark_pilot_norest","8599","5","12","Female","","false","","","","","","[541]","./assets/img/space/animals/cat.jpg","[""ArrowRight""]","second stage practice","space","36","{""ArrowUp,ArrowLeft"":3,""ArrowUp,ArrowRight"":36,""ArrowDown,ArrowLeft"":15,""ArrowDown,ArrowRight"":23}","true","ArrowUp,ArrowRight","","","","","","",""
"html-keyboard-response","35","490590","0.0-4.0-6.0-1.2","spark_pilot_norest","8599","5","12","Female","","","","","","","","null","<div style=""font-size:60px;"">+</div>","null","fixation","","","","","","","","","","","",""
"revaluation","36","494595","0.0-4.0-6.0-0.3","spark_pilot_norest","8599","5","12","Female","","false","","","","","","[890]","./assets/img/space/animals/rabbit.jpg","[""ArrowRight""]","second stage practice","space","23","{""ArrowUp,ArrowLeft"":3,""ArrowUp,ArrowRight"":36,""ArrowDown,ArrowLeft"":15,""ArrowDown,ArrowRight"":23}","true","ArrowDown,ArrowRight","","","","","","",""
"html-keyboard-response","37","495096","0.0-4.0-6.0-1.3","spark_pilot_norest","8599","5","12","Female","","","","","","","","null","<div style=""font-size:60px;"">+</div>","null","fixation","","","","","","","","","","","",""
"learning-instructions","38","513050","0.0-4.0-7.0-0.0","spark_pilot_norest","8599","5","12","Female","","","","","","","","1136","<p> Great job. Now let’s try putting it together. </p>
            <p> On each turn, you will first see a picture to remind you of the place you are in, and you need to choose whether to go up or down. </p>
            <p> Then you will see an animal and choose which of its chests to search for treasure. </p>","","instructions","","","","","","","","","","","",""
"learning-instructions","39","523126","0.0-4.0-7.0-0.1","spark_pilot_norest","8599","5","12","Female","","","","","","","","1837","<p> When you choose whether to go up or down, try to go to the animal with the chest with the most treasure. </p>
            <p> Try practicing that now! </p>","","instructions","","","","","","","","","","","",""
"revaluation","40","529131","0.0-4.0-8.0-0.0","spark_pilot_norest","8599","5","12","Female","","false","","","","","","[1118,429]","./assets/img/space/6.jpg","[""ArrowUp"",""ArrowLeft""]","full practice","space","3","{""ArrowUp,ArrowLeft"":3,""ArrowUp,ArrowRight"":36,""ArrowDown,ArrowLeft"":15,""ArrowDown,ArrowRight"":23}","false","ArrowUp,ArrowLeft","false","","","","","",""
"html-keyboard-response","41","529634","0.0-4.0-8.0-1.0","spark_pilot_norest","8599","5","12","Female","","","","","","","","null","<div style=""font-size:60px;"">+</div>","null","fixation","","","","","","","","","","","",""
"revaluation","42","535640","0.0-4.0-8.0-0.1","spark_pilot_norest","8599","5","12","Female","","false","","","","","","[901,416]","./assets/img/space/7.jpg","[""ArrowDown"",""ArrowRight""]","full practice","space","23","{""ArrowUp,ArrowLeft"":3,""ArrowUp,ArrowRight"":36,""ArrowDown,ArrowLeft"":15,""ArrowDown,ArrowRight"":23}","false","ArrowDown,ArrowRight","false","","","","","",""
"html-keyboard-response","43","536141","0.0-4.0-8.0-1.1","spark_pilot_norest","8599","5","12","Female","","","","","","","","null","<div style=""font-size:60px;"">+</div>","null","fixation","","","","","","","","","","","",""
"revaluation","44","542146","0.0-4.0-8.0-0.2","spark_pilot_norest","8599","5","12","Female","","false","","","","","","[1094.9999999998836,416]","./assets/img/space/8.jpg","[""ArrowUp"",""ArrowRight""]","full practice","space","36","{""ArrowUp,ArrowLeft"":3,""ArrowUp,ArrowRight"":36,""ArrowDown,ArrowLeft"":15,""ArrowDown,ArrowRight"":23}","true","ArrowUp,ArrowRight","false","","","","","",""
"html-keyboard-response","45","542648","0.0-4.0-8.0-1.2","spark_pilot_norest","8599","5","12","Female","","","","","","","","null","<div style=""font-size:60px;"">+</div>","null","fixation","","","","","","","","","","","",""
"revaluation","46","548653","0.0-4.0-8.0-0.3","spark_pilot_norest","8599","5","12","Female","","false","","","","","","[469.0000000001164,920.0000000001164]","./assets/img/space/9.jpg","[""ArrowUp"",""ArrowRight""]","full practice","space","36","{""ArrowUp,ArrowLeft"":3,""ArrowUp,ArrowRight"":36,""ArrowDown,ArrowLeft"":15,""ArrowDown,ArrowRight"":23}","true","ArrowUp,ArrowRight","false","","","","","",""
"html-keyboard-response","47","549154","0.0-4.0-8.0-1.3","spark_pilot_norest","8599","5","12","Female","","","","","","","","null","<div style=""font-size:60px;"">+</div>","null","fixation","","","","","","","","","","","",""
"revaluation","48","555159","0.0-4.0-8.0-0.4","spark_pilot_norest","8599","5","12","Female","","false","","","","","","[278,563]","./assets/img/space/10.jpg","[""ArrowUp"",""ArrowRight""]","full practice","space","36","{""ArrowUp,ArrowLeft"":3,""ArrowUp,ArrowRight"":36,""ArrowDown,ArrowLeft"":15,""ArrowDown,ArrowRight"":23}","true","ArrowUp,ArrowRight","false","","","","","",""
"html-keyboard-response","49","555661","0.0-4.0-8.0-1.4","spark_pilot_norest","8599","5","12","Female","","","","","","","","null","<div style=""font-size:60px;"">+</div>","null","fixation","","","","","","","","","","","",""
"learning-instructions","50","567099","0.0-4.0-9.0-0.0","spark_pilot_norest","8599","5","12","Female","","","","","","","","1148","<p> One last thing: sometimes, you will see a robber. The robber can be anywhere in the picture. </p>
            <p> If you do not stop them, you will lose treasure. </p>
            <img src='./assets/img/instructions/robber.jpg' class='instructions-image'>","","instructions","","","","","","","","","","","",""
"learning-instructions","51","576944","0.0-4.0-9.0-0.1","spark_pilot_norest","8599","5","12","Female","","","","","","","","2698","<p> If you see the robber, you should <b>press the space bar</b> rather than using the arrow keys. </p>
            <p> Try practicing that now! </p>","","instructions","","","","","","","","","","","",""
"revaluation","52","580949","0.0-4.0-10.0-0.0","spark_pilot_norest","8599","5","12","Female","","false","","","","","","[996.9999999998836]","./assets/img/space/catch/0.jpg","[""spaceBar""]","catch practice","space","0","{""ArrowUp,ArrowLeft"":3,""ArrowUp,ArrowRight"":36,""ArrowDown,ArrowLeft"":15,""ArrowDown,ArrowRight"":23}","true","spaceBar","true","","","","","",""
"html-keyboard-response","53","581451","0.0-4.0-10.0-1.0","spark_pilot_norest","8599","5","12","Female","","","","","","","","null","<div style=""font-size:60px;"">+</div>","null","fixation","","","","","","","","","","","",""
"revaluation","54","585456","0.0-4.0-10.0-0.1","spark_pilot_norest","8599","5","12","Female","","false","","","","","","[556]","./assets/img/space/catch/1.jpg","[""spaceBar""]","catch practice","space","0","{""ArrowUp,ArrowLeft"":3,""ArrowUp,ArrowRight"":36,""ArrowDown,ArrowLeft"":15,""ArrowDown,ArrowRight"":23}","true","spaceBar","true","","","","","",""
"html-keyboard-response","55","585957","0.0-4.0-10.0-1.1","spark_pilot_norest","8599","5","12","Female","","","","","","","","null","<div style=""font-size:60px;"">+</div>","null","fixation","","","","","","","","","","","",""
"revaluation","56","589962","0.0-4.0-10.0-0.2","spark_pilot_norest","8599","5","12","Female","","false","","","","","","[743]","./assets/img/space/catch/2.jpg","[""spaceBar""]","catch practice","space","0","{""ArrowUp,ArrowLeft"":3,""ArrowUp,ArrowRight"":36,""ArrowDown,ArrowLeft"":15,""ArrowDown,ArrowRight"":23}","true","spaceBar","true","","","","","",""
"html-keyboard-response","57","590463","0.0-4.0-10.0-1.2","spark_pilot_norest","8599","5","12","Female","","","","","","","","null","<div style=""font-size:60px;"">+</div>","null","fixation","","","","","","","","","","","",""
"learning-instructions","58","597407","0.0-4.0-11.0-0.0-0.0","spark_pilot_norest","8599","5","12","Female","","","","","","","","1720","<p> Now, you will practice a shortened version of the game to get a sense of how it all fits together. </p>","","instructions","","","","","","","","","","","",""
"learning-instructions","59","625858","0.0-4.0-11.0-0.0-0.1","spark_pilot_norest","8599","5","12","Female","","","","","","","","25273","<p>This time you are searching for treasure in outer space.</p>","","instructions","","","","","","","","","","","",""
"learning-instructions","60","643067","0.0-4.0-11.0-1.0-0.0","spark_pilot_norest","8599","5","12","Female","","","","","","","","2450.9999999998836","<p> Remember, when you see a picture of the place, use the up and down keys to <b>find an animal</b>.</p>
            <p> When you encounter an animal, you should use the left and right keys to <b>select a treasure chest</b>.</p>
            <p> Don't forget to look out for the robber! </p>","","instructions","","","","","","","","","","","",""
"revaluation","61","649071","0.0-4.0-11.0-2.0-0.0","spark_pilot_norest","8599","5","12","Female","","false","","","","","","[1866.9999999998836,685]","./assets/img/space/11.jpg","[""ArrowUp"",""ArrowRight""]","practice block","space","36","{""ArrowUp,ArrowLeft"":3,""ArrowUp,ArrowRight"":36,""ArrowDown,ArrowLeft"":15,""ArrowDown,ArrowRight"":23}","true","ArrowUp,ArrowRight","false","","","","","",""
"html-keyboard-response","62","649572","0.0-4.0-11.0-2.0-1.0","spark_pilot_norest","8599","5","12","Female","","","","","","","","null","<div style=""font-size:60px;"">+</div>","null","fixation","","","","","","","","","","","",""
"revaluation","63","655576","0.0-4.0-11.0-2.0-0.1","spark_pilot_norest","8599","5","12","Female","","false","","","","","","[844,326]","./assets/img/space/12.jpg","[""ArrowDown"",""ArrowRight""]","practice block","space","23","{""ArrowUp,ArrowLeft"":3,""ArrowUp,ArrowRight"":36,""ArrowDown,ArrowLeft"":15,""ArrowDown,ArrowRight"":23}","false","ArrowDown,ArrowRight","false","","","","","",""
"html-keyboard-response","64","656078","0.0-4.0-11.0-2.0-1.1","spark_pilot_norest","8599","5","12","Female","","","","","","","","null","<div style=""font-size:60px;"">+</div>","null","fixation","","","","","","","","","","","",""
"revaluation","65","662083","0.0-4.0-11.0-2.0-0.2","spark_pilot_norest","8599","5","12","Female","","false","","","","","","[322,285.0000000001164]","./assets/img/space/13.jpg","[""ArrowUp"",""ArrowLeft""]","practice block","space","3","{""ArrowUp,ArrowLeft"":3,""ArrowUp,ArrowRight"":36,""ArrowDown,ArrowLeft"":15,""ArrowDown,ArrowRight"":23}","false","ArrowUp,ArrowLeft","false","","","","","",""
"html-keyboard-response","66","662585","0.0-4.0-11.0-2.0-1.2","spark_pilot_norest","8599","5","12","Female","","","","","","","","null","<div style=""font-size:60px;"">+</div>","null","fixation","","","","","","","","","","","",""
"revaluation","67","668590","0.0-4.0-11.0-2.0-0.3","spark_pilot_norest","8599","5","12","Female","","false","","","","","","[1189,605]","./assets/img/space/14.jpg","[""ArrowUp"",""ArrowRight""]","practice block","space","36","{""ArrowUp,ArrowLeft"":3,""ArrowUp,ArrowRight"":36,""ArrowDown,ArrowLeft"":15,""ArrowDown,ArrowRight"":23}","true","ArrowUp,ArrowRight","false","","","","","",""
"html-keyboard-response","68","669092","0.0-4.0-11.0-2.0-1.3","spark_pilot_norest","8599","5","12","Female","","","","","","","","null","<div style=""font-size:60px;"">+</div>","null","fixation","","","","","","","","","","","",""
"revaluation","69","675098","0.0-4.0-11.0-2.0-0.4","spark_pilot_norest","8599","5","12","Female","","false","","","","","","[717,499]","./assets/img/space/11.jpg","[""ArrowUp"",""ArrowRight""]","practice block","space","36","{""ArrowUp,ArrowLeft"":3,""ArrowUp,ArrowRight"":36,""ArrowDown,ArrowLeft"":15,""ArrowDown,ArrowRight"":23}","true","ArrowUp,ArrowRight","false","","","","","",""
"html-keyboard-response","70","675599","0.0-4.0-11.0-2.0-1.4","spark_pilot_norest","8599","5","12","Female","","","","","","","","null","<div style=""font-size:60px;"">+</div>","null","fixation","","","","","","","","","","","",""
"revaluation","71","681605","0.0-4.0-11.0-2.0-0.5","spark_pilot_norest","8599","5","12","Female","","false","","","","","","[652,736]","./assets/img/space/12.jpg","[""ArrowUp"",""ArrowRight""]","practice block","space","36","{""ArrowUp,ArrowLeft"":3,""ArrowUp,ArrowRight"":36,""ArrowDown,ArrowLeft"":15,""ArrowDown,ArrowRight"":23}","true","ArrowUp,ArrowRight","false","","","","","",""
"html-keyboard-response","72","682106","0.0-4.0-11.0-2.0-1.5","spark_pilot_norest","8599","5","12","Female","","","","","","","","null","<div style=""font-size:60px;"">+</div>","null","fixation","","","","","","","","","","","",""
"revaluation","73","688111","0.0-4.0-11.0-2.0-0.6","spark_pilot_norest","8599","5","12","Female","","false","","","","","","[823,576]","./assets/img/space/13.jpg","[""ArrowUp"",""ArrowRight""]","practice block","space","36","{""ArrowUp,ArrowLeft"":3,""ArrowUp,ArrowRight"":36,""ArrowDown,ArrowLeft"":15,""ArrowDown,ArrowRight"":23}","true","ArrowUp,ArrowRight","false","","","","","",""
"html-keyboard-response","74","688613","0.0-4.0-11.0-2.0-1.6","spark_pilot_norest","8599","5","12","Female","","","","","","","","null","<div style=""font-size:60px;"">+</div>","null","fixation","","","","","","","","","","","",""
"revaluation","75","694618","0.0-4.0-11.0-2.0-0.7","spark_pilot_norest","8599","5","12","Female","","false","","","","","","[491,477.0000000001164]","./assets/img/space/14.jpg","[""ArrowUp"",""ArrowRight""]","practice block","space","36","{""ArrowUp,ArrowLeft"":3,""ArrowUp,ArrowRight"":36,""ArrowDown,ArrowLeft"":15,""ArrowDown,ArrowRight"":23}","true","ArrowUp,ArrowRight","false","","","","","",""
"html-keyboard-response","76","695119","0.0-4.0-11.0-2.0-1.7","spark_pilot_norest","8599","5","12","Female","","","","","","","","null","<div style=""font-size:60px;"">+</div>","null","fixation","","","","","","","","","","","",""
"revaluation","77","699123","0.0-4.0-11.0-2.0-0.8","spark_pilot_norest","8599","5","12","Female","","false","","","","","","[634]","./assets/img/space/catch/3.jpg","[""spaceBar""]","practice block","space","0","{""ArrowUp,ArrowLeft"":3,""ArrowUp,ArrowRight"":36,""ArrowDown,ArrowLeft"":15,""ArrowDown,ArrowRight"":23}","true","spaceBar","true","","","","","",""
"html-keyboard-response","78","699624","0.0-4.0-11.0-2.0-1.8","spark_pilot_norest","8599","5","12","Female","","","","","","","","null","<div style=""font-size:60px;"">+</div>","null","fixation","","","","","","","","","","","",""
"learning-instructions","79","714309","0.0-4.0-11.0-3.0-0.0","spark_pilot_norest","8599","5","12","Female","","","","","","","","1763","<p> Now, you will travel with a friend who will choose whether you go up or down first. </p>
            <p> On these turns, you will just see the animal that they found. You will still get to choose which chest to search for treasure.</p>","","instructions","","","","","","","","","","","",""
"revaluation","80","718313","0.0-4.0-11.0-4.0-0.0","spark_pilot_norest","8599","5","12","Female","","false","","","","","","[978]","./assets/img/space/animals/rabbit.jpg","[""ArrowRight""]","practice block","space","23","{""ArrowUp,ArrowLeft"":3,""ArrowUp,ArrowRight"":36,""ArrowDown,ArrowLeft"":15,""ArrowDown,ArrowRight"":23}","true","ArrowDown,ArrowRight","","","","","","",""
"html-keyboard-response","81","718815","0.0-4.0-11.0-4.0-1.0","spark_pilot_norest","8599","5","12","Female","","","","","","","","null","<div style=""font-size:60px;"">+</div>","null","fixation","","","","","","","","","","","",""
"revaluation","82","722819","0.0-4.0-11.0-4.0-0.1","spark_pilot_norest","8599","5","12","Female","","false","","","","","","[563]","./assets/img/space/animals/cat.jpg","[""ArrowRight""]","practice block","space","36","{""ArrowUp,ArrowLeft"":3,""ArrowUp,ArrowRight"":36,""ArrowDown,ArrowLeft"":15,""ArrowDown,ArrowRight"":23}","true","ArrowUp,ArrowRight","","","","","","",""
"html-keyboard-response","83","723320","0.0-4.0-11.0-4.0-1.1","spark_pilot_norest","8599","5","12","Female","","","","","","","","null","<div style=""font-size:60px;"">+</div>","null","fixation","","","","","","","","","","","",""
"revaluation","84","727324","0.0-4.0-11.0-4.0-0.2","spark_pilot_norest","8599","5","12","Female","","false","","","","","","[1001]","./assets/img/space/animals/rabbit.jpg","[""ArrowRight""]","practice block","space","23","{""ArrowUp,ArrowLeft"":3,""ArrowUp,ArrowRight"":36,""ArrowDown,ArrowLeft"":15,""ArrowDown,ArrowRight"":23}","true","ArrowDown,ArrowRight","","","","","","",""
"html-keyboard-response","85","727825","0.0-4.0-11.0-4.0-1.2","spark_pilot_norest","8599","5","12","Female","","","","","","","","null","<div style=""font-size:60px;"">+</div>","null","fixation","","","","","","","","","","","",""
"revaluation","86","731828","0.0-4.0-11.0-4.0-0.3","spark_pilot_norest","8599","5","12","Female","","false","","","","","","[375]","./assets/img/space/animals/cat.jpg","[""ArrowRight""]","practice block","space","36","{""ArrowUp,ArrowLeft"":3,""ArrowUp,ArrowRight"":36,""ArrowDown,ArrowLeft"":15,""ArrowDown,ArrowRight"":23}","true","ArrowUp,ArrowRight","","","","","","",""
"html-keyboard-response","87","732330","0.0-4.0-11.0-4.0-1.3","spark_pilot_norest","8599","5","12","Female","","","","","","","","null","<div style=""font-size:60px;"">+</div>","null","fixation","","","","","","","","","","","",""
"learning-instructions","88","740447","0.0-4.0-11.0-5.0-0.0","spark_pilot_norest","8599","5","12","Female","","","","","","","","null","<p> You have almost finished this part of the game! </p>
            <p> We are going to ask you to make a few more choices. </p>","","instructions","","","","","","","","","","","",""
"learning-instructions","89","756480","0.0-4.0-11.0-5.0-0.1","spark_pilot_norest","8599","5","12","Female","","","","","","","","null","<p> First, you need to decide whether to go up or down. When you see each picture, use the arrow keys to make your choice. </p>
            <p><b>You will not see which animal you found, but try to get to the one that will give you the most treasure.</b></p>","","instructions","","","","","","","","","","","",""
"html-keyboard-response","90","757482","0.0-4.0-11.0-6.0-0.0","spark_pilot_norest","8599","5","12","Female","","","","","","","","null","<div style=""font-size:100px;color:red;"">Starting in...</div>","null","","","","","","","","","","","","",""
"html-keyboard-response","91","758484","0.0-4.0-11.0-6.0-1.0","spark_pilot_norest","8599","5","12","Female","","","","","","","","null","<div style=""font-size:200px;color:red;"">3</div>","null","","","","","","","","","","","","",""
"html-keyboard-response","92","759486","0.0-4.0-11.0-6.0-2.0","spark_pilot_norest","8599","5","12","Female","","","","","","","","null","<div style=""font-size:200px;color:red;"">2</div>","null","","","","","","","","","","","","",""
"html-keyboard-response","93","760487","0.0-4.0-11.0-6.0-3.0","spark_pilot_norest","8599","5","12","Female","","","","","","","","null","<div style=""font-size:200px;color:red;"">1</div>","null","","","","","","","","","","","","",""
"revaluation","94","761919","0.0-4.0-11.0-7.0","spark_pilot_norest","8599","5","12","Female","","false","","","","","","[1429]","./assets/img/space/15.jpg","[""ArrowDown""]","practice block","space","0","{""ArrowUp,ArrowLeft"":3,""ArrowUp,ArrowRight"":36,""ArrowDown,ArrowLeft"":15,""ArrowDown,ArrowRight"":23}","false","ArrowDown","false","","","","","",""
"html-keyboard-response","95","762420","0.0-4.0-11.0-8.0","spark_pilot_norest","8599","5","12","Female","","","","","","","","null","<div style=""font-size:60px;"">+</div>","null","fixation","","","","","","","","","","","",""
"learning-instructions","96","775797","0.0-4.0-11.0-9.0-0.0","spark_pilot_norest","8599","5","12","Female","","","","","","","","null","<p> Now you will see the animals again and can search their chests for treasure. </p>
            <p> This time, you will not see how much treasure you earned, but you will earn more bonus money for making better choices. </p>","","instructions","","","","","","","","","","","",""
"html-keyboard-response","97","776799","0.0-4.0-11.0-10.0-0.0","spark_pilot_norest","8599","5","12","Female","","","","","","","","null","<div style=""font-size:100px;color:red;"">Starting in...</div>","null","","","","","","","","","","","","",""
"html-keyboard-response","98","777801","0.0-4.0-11.0-10.0-1.0","spark_pilot_norest","8599","5","12","Female","","","","","","","","null","<div style=""font-size:200px;color:red;"">3</div>","null","","","","","","","","","","","","",""
"html-keyboard-response","99","778802","0.0-4.0-11.0-10.0-2.0","spark_pilot_norest","8599","5","12","Female","","","","","","","","null","<div style=""font-size:200px;color:red;"">2</div>","null","","","","","","","","","","","","",""
"html-keyboard-response","100","779804","0.0-4.0-11.0-10.0-3.0","spark_pilot_norest","8599","5","12","Female","","","","","","","","null","<div style=""font-size:200px;color:red;"">1</div>","null","","","","","","","","","","","","",""
"revaluation","101","780452","0.0-4.0-11.0-11.0-0.0","spark_pilot_norest","8599","5","12","Female","","false","","","","","","[644]","./assets/img/space/animals/cat.jpg","[""ArrowRight""]","practice block","space","0","{""ArrowUp,ArrowLeft"":3,""ArrowUp,ArrowRight"":36,""ArrowDown,ArrowLeft"":15,""ArrowDown,ArrowRight"":23}","true","ArrowUp,ArrowRight","","","","","","",""
"html-keyboard-response","102","780953","0.0-4.0-11.0-11.0-1.0","spark_pilot_norest","8599","5","12","Female","","","","","","","","null","<div style=""font-size:60px;"">+</div>","null","fixation","","","","","","","","","","","",""
"revaluation","103","781411","0.0-4.0-11.0-11.0-0.1","spark_pilot_norest","8599","5","12","Female","","false","","","","","","[456]","./assets/img/space/animals/rabbit.jpg","[""ArrowRight""]","practice block","space","0","{""ArrowUp,ArrowLeft"":3,""ArrowUp,ArrowRight"":36,""ArrowDown,ArrowLeft"":15,""ArrowDown,ArrowRight"":23}","true","ArrowDown,ArrowRight","","","","","","",""
"html-keyboard-response","104","781912","0.0-4.0-11.0-11.0-1.1","spark_pilot_norest","8599","5","12","Female","","","","","","","","null","<div style=""font-size:60px;"">+</div>","null","fixation","","","","","","","","","","","",""
"learning-instructions","105","789346","0.0-4.0-12.0-0.0","spark_pilot_norest","8599","5","12","Female","","","","","","","","2863","<p> Before you start, we're going to ask you a few questions about how the game works. </p>","","instructions","","","","","","","","","","","",""
"comp-q","106","796352","0.0-4.0-13.0-0.0-0.0","spark_pilot_norest","8599","5","12","Female","","","","","","","","1426","<p> <b> True or False? </b> </p>
            <p> There can be 50 pieces of treasure in a given animal's chest. </p>","1","comp_question","","","","true","","","","","","","",""
"comp-q","107","805097","0.0-4.0-13.0-0.0-1.0","spark_pilot_norest","8599","5","12","Female","","","","","","","","2098.9999999998836","<p> <b> That's right! </b> The amount of treasure in each chest can range from 0 to 40 pieces. </p>","0","comp_answer","","","","","","","","","","","",""
"comp-q","108","812890","0.0-4.0-13.0-0.1-0.1","spark_pilot_norest","8599","5","12","Female","","","","","","","","682","<p> <b> True or False? </b> </p><p> In this game, all animals have the same amount of treasure in their left and right chests. </p>","1","comp_question","","","","true","","","","","","","",""
"comp-q","109","819622","0.0-4.0-13.0-0.1-1.1","spark_pilot_norest","8599","5","12","Female","","","","","","","","1514","<p> <b> That's right! </b> Animals have different amounts of treasure in their treasure chests. </p>","0","comp_answer","","","","","","","","","","","",""
"comp-q","110","826320","0.0-4.0-13.0-0.2-0.2","spark_pilot_norest","8599","5","12","Female","","","","","","","","862","<p> <b> True or False? </b> </p><p> The same animal will always be there if you go up in the same place. </p>","0","comp_question","","","","true","","","","","","","",""
"comp-q","111","834657","0.0-4.0-13.0-0.2-1.2","spark_pilot_norest","8599","5","12","Female","","","","","","","","1902","<p> <b> That's right! </b> One animal lives in the upper part and one lives in the lower part of every place. </p>","0","comp_answer","","","","","","","","","","","",""
"comp-q","112","841771","0.0-4.0-13.0-0.3-0.3","spark_pilot_norest","8599","5","12","Female","","","","","","","","1603","<p> <b> True or False? </b> </p><p> If you see a different picture, it means you are in a new place. </p>","1","comp_question","","","","true","","","","","","","",""
"comp-q","113","855278","0.0-4.0-13.0-0.3-1.3","spark_pilot_norest","8599","5","12","Female","","","","","","","","2278.0000000001164","<p> <b> That's right! </b> Lots of different images may show the same place. For example,  you may see three different images that all remind you that you are in outer space. </p>","0","comp_answer","","","","","","","","","","","",""
"learning-instructions","114","866977","0.0-4.0-14.0-0.0","spark_pilot_norest","8599","5","12","Female","","","","","","","","1856","<p> Good job. Remember to do your best because the amount of treasure you earn will be converted into bonus money. </p>
            <p> It’s time to start the real game! </p>","","instructions","","","","","","","","","","","",""
"learning-instructions","115","872733","0.0-5.0-0.0-0.0","spark_pilot_norest","8599","5","12","Female","","","","","","","","2999","<p> This time you are searching for treasure in the <b>canyon</b>.</p>","","instructions","","","","","","","","","","","",""
"learning-instructions","116","892193","0.0-5.0-0.0-0.1","spark_pilot_norest","8599","5","12","Female","","","","","","","","2156","<p><b>New</b> animals with <b>new</b> treasure chests live here. You need to explore to discover where the animal with the best treasure chest is.</p>
                    <p> Like before, once you figure out which animal has the chest with the most treasure, you should try to get to that animal and select that chest! </p>","","instructions","","","","","","","","","","","",""
"learning-instructions","117","908706","0.0-5.0-1.0-0.0","spark_pilot_norest","8599","5","12","Female","","","","","","","","1782","<p> Remember, when you see a picture of the place, use the up and down keys to <b>find an animal</b>.</p>
            <p> When you encounter an animal, you should use the left and right keys to <b>select a treasure chest</b>.</p>
            <p> Don't forget to look out for the robber! </p>","","instructions","","","","","","","","","","","",""
"revaluation","118","914712","0.0-5.0-2.0-0.0","spark_pilot_norest","8599","5","12","Female","","false","","","","","","[1218,648]","./assets/img/canyon/memory/41.jpg","[""ArrowUp"",""ArrowLeft""]","value training","canyon","26","{""ArrowUp,ArrowLeft"":26,""ArrowUp,ArrowRight"":10,""ArrowDown,ArrowLeft"":5,""ArrowDown,ArrowRight"":17}","true","ArrowUp,ArrowLeft","false","original","1","0","","",""
"html-keyboard-response","119","915215","0.0-5.0-2.0-1.0","spark_pilot_norest","8599","5","12","Female","","","","","","","","null","<div style=""font-size:60px;"">+</div>","null","fixation","","","","","","","","","1","","",""
"revaluation","120","921221","0.0-5.0-2.0-0.1","spark_pilot_norest","8599","5","12","Female","","false","","","","","","[550,345]","./assets/img/canyon/memory/33.jpg","[""ArrowUp"",""ArrowRight""]","value training","canyon","10","{""ArrowUp,ArrowLeft"":26,""ArrowUp,ArrowRight"":10,""ArrowDown,ArrowLeft"":5,""ArrowDown,ArrowRight"":17}","false","ArrowUp,ArrowRight","false","original","1","2","","",""
"html-keyboard-response","121","921723","0.0-5.0-2.0-1.1","spark_pilot_norest","8599","5","12","Female","","","","","","","","null","<div style=""font-size:60px;"">+</div>","null","fixation","","","","","","","","","3","","",""
"revaluation","122","927727","0.0-5.0-2.0-0.2","spark_pilot_norest","8599","5","12","Female","","false","","","","","","[361,331.9999999998836]","./assets/img/canyon/memory/0.jpg","[""ArrowDown"",""ArrowLeft""]","value training","canyon","5","{""ArrowUp,ArrowLeft"":26,""ArrowUp,ArrowRight"":10,""ArrowDown,ArrowLeft"":5,""ArrowDown,ArrowRight"":17}","false","ArrowDown,ArrowLeft","false","original","1","4","","",""
"html-keyboard-response","123","928229","0.0-5.0-2.0-1.2","spark_pilot_norest","8599","5","12","Female","","","","","","","","null","<div style=""font-size:60px;"">+</div>","null","fixation","","","","","","","","","5","","",""
"revaluation","124","932233","0.0-5.0-2.0-0.3","spark_pilot_norest","8599","5","12","Female","","false","","","","","","[610.0000000001164]","./assets/img/canyon/catch/3.jpg","[""ArrowDown""]","value training","canyon","-10","{""ArrowUp,ArrowLeft"":26,""ArrowUp,ArrowRight"":10,""ArrowDown,ArrowLeft"":5,""ArrowDown,ArrowRight"":17}","false","ArrowDown","true","original","1","6","","",""
"html-keyboard-response","125","932735","0.0-5.0-2.0-1.3","spark_pilot_norest","8599","5","12","Female","","","","","","","","null","<div style=""font-size:60px;"">+</div>","null","fixation","","","","","","","","","7","","",""
"revaluation","126","936740","0.0-5.0-2.0-0.4","spark_pilot_norest","8599","5","12","Female","","false","","","","","","[823]","./assets/img/canyon/catch/5.jpg","[""spaceBar""]","value training","canyon","0","{""ArrowUp,ArrowLeft"":26,""ArrowUp,ArrowRight"":10,""ArrowDown,ArrowLeft"":5,""ArrowDown,ArrowRight"":17}","true","spaceBar","true","original","1","8","","",""
"html-keyboard-response","127","937242","0.0-5.0-2.0-1.4","spark_pilot_norest","8599","5","12","Female","","","","","","","","null","<div style=""font-size:60px;"">+</div>","null","fixation","","","","","","","","","9","","",""
"revaluation","128","943246","0.0-5.0-2.0-0.5","spark_pilot_norest","8599","5","12","Female","","false","","","","","","[919,575]","./assets/img/canyon/memory/36.jpg","[""ArrowDown"",""ArrowRight""]","value training","canyon","17","{""ArrowUp,ArrowLeft"":26,""ArrowUp,ArrowRight"":10,""ArrowDown,ArrowLeft"":5,""ArrowDown,ArrowRight"":17}","false","ArrowDown,ArrowRight","false","original","1","10","","",""
"html-keyboard-response","129","943748","0.0-5.0-2.0-1.5","spark_pilot_norest","8599","5","12","Female","","","","","","","","null","<div style=""font-size:60px;"">+</div>","null","fixation","","","","","","","","","11","","",""
"revaluation","130","949753","0.0-5.0-2.0-0.6","spark_pilot_norest","8599","5","12","Female","","false","","","","","","[817,478.9999999998836]","./assets/img/canyon/memory/6.jpg","[""ArrowUp"",""ArrowLeft""]","value training","canyon","26","{""ArrowUp,ArrowLeft"":26,""ArrowUp,ArrowRight"":10,""ArrowDown,ArrowLeft"":5,""ArrowDown,ArrowRight"":17}","true","ArrowUp,ArrowLeft","false","original","1","12","","",""
"html-keyboard-response","131","950255","0.0-5.0-2.0-1.6","spark_pilot_norest","8599","5","12","Female","","","","","","","","null","<div style=""font-size:60px;"">+</div>","null","fixation","","","","","","","","","13","","",""
"revaluation","132","954258","0.0-5.0-2.0-0.7","spark_pilot_norest","8599","5","12","Female","","false","","","","","","[839]","./assets/img/canyon/catch/4.jpg","[""spaceBar""]","value training","canyon","0","{""ArrowUp,ArrowLeft"":26,""ArrowUp,ArrowRight"":10,""ArrowDown,ArrowLeft"":5,""ArrowDown,ArrowRight"":17}","true","spaceBar","true","original","1","14","","",""
"html-keyboard-response","133","954760","0.0-5.0-2.0-1.7","spark_pilot_norest","8599","5","12","Female","","","","","","","","null","<div style=""font-size:60px;"">+</div>","null","fixation","","","","","","","","","15","","",""
"revaluation","134","960765","0.0-5.0-2.0-0.8","spark_pilot_norest","8599","5","12","Female","","false","","","","","","[642,432]","./assets/img/canyon/memory/38.jpg","[""ArrowUp"",""ArrowLeft""]","value training","canyon","26","{""ArrowUp,ArrowLeft"":26,""ArrowUp,ArrowRight"":10,""ArrowDown,ArrowLeft"":5,""ArrowDown,ArrowRight"":17}","true","ArrowUp,ArrowLeft","false","original","1","16","","",""
"html-keyboard-response","135","961267","0.0-5.0-2.0-1.8","spark_pilot_norest","8599","5","12","Female","","","","","","","","null","<div style=""font-size:60px;"">+</div>","null","fixation","","","","","","","","","17","","",""
"revaluation","136","967273","0.0-5.0-2.0-0.9","spark_pilot_norest","8599","5","12","Female","","false","","","","","","[487.0000000001164,469.9999999998836]","./assets/img/canyon/memory/33.jpg","[""ArrowUp"",""ArrowLeft""]","value training","canyon","26","{""ArrowUp,ArrowLeft"":26,""ArrowUp,ArrowRight"":10,""ArrowDown,ArrowLeft"":5,""ArrowDown,ArrowRight"":17}","true","ArrowUp,ArrowLeft","false","original","1","18","","",""
"html-keyboard-response","137","967774","0.0-5.0-2.0-1.9","spark_pilot_norest","8599","5","12","Female","","","","","","","","null","<div style=""font-size:60px;"">+</div>","null","fixation","","","","","","","","","19","","",""
"revaluation","138","973779","0.0-5.0-2.0-0.10","spark_pilot_norest","8599","5","12","Female","","false","","","","","","[807,537]","./assets/img/canyon/memory/36.jpg","[""ArrowUp"",""ArrowLeft""]","value training","canyon","26","{""ArrowUp,ArrowLeft"":26,""ArrowUp,ArrowRight"":10,""ArrowDown,ArrowLeft"":5,""ArrowDown,ArrowRight"":17}","true","ArrowUp,ArrowLeft","false","original","1","20","","",""
"html-keyboard-response","139","974281","0.0-5.0-2.0-1.10","spark_pilot_norest","8599","5","12","Female","","","","","","","","null","<div style=""font-size:60px;"">+</div>","null","fixation","","","","","","","","","21","","",""
"revaluation","140","980286","0.0-5.0-2.0-0.11","spark_pilot_norest","8599","5","12","Female","","false","","","","","","[438,460]","./assets/img/canyon/memory/41.jpg","[""ArrowUp"",""ArrowLeft""]","value training","canyon","26","{""ArrowUp,ArrowLeft"":26,""ArrowUp,ArrowRight"":10,""ArrowDown,ArrowLeft"":5,""ArrowDown,ArrowRight"":17}","true","ArrowUp,ArrowLeft","false","original","1","22","","",""
"html-keyboard-response","141","980790","0.0-5.0-2.0-1.11","spark_pilot_norest","8599","5","12","Female","","","","","","","","null","<div style=""font-size:60px;"">+</div>","null","fixation","","","","","","","","","23","","",""
"revaluation","142","984796","0.0-5.0-2.0-0.12","spark_pilot_norest","8599","5","12","Female","","false","","","","","","[524]","./assets/img/canyon/catch/7.jpg","[""spaceBar""]","value training","canyon","0","{""ArrowUp,ArrowLeft"":26,""ArrowUp,ArrowRight"":10,""ArrowDown,ArrowLeft"":5,""ArrowDown,ArrowRight"":17}","true","spaceBar","true","original","1","24","","",""
"html-keyboard-response","143","985298","0.0-5.0-2.0-1.12","spark_pilot_norest","8599","5","12","Female","","","","","","","","null","<div style=""font-size:60px;"">+</div>","null","fixation","","","","","","","","","25","","",""
"revaluation","144","991303","0.0-5.0-2.0-0.13","spark_pilot_norest","8599","5","12","Female","","false","","","","","","[736.9999999998836,886]","./assets/img/canyon/memory/35.jpg","[""ArrowUp"",""ArrowLeft""]","value training","canyon","26","{""ArrowUp,ArrowLeft"":26,""ArrowUp,ArrowRight"":10,""ArrowDown,ArrowLeft"":5,""ArrowDown,ArrowRight"":17}","true","ArrowUp,ArrowLeft","false","original","1","26","","",""
"html-keyboard-response","145","991804","0.0-5.0-2.0-1.13","spark_pilot_norest","8599","5","12","Female","","","","","","","","null","<div style=""font-size:60px;"">+</div>","null","fixation","","","","","","","","","27","","",""
"revaluation","146","997809","0.0-5.0-2.0-0.14","spark_pilot_norest","8599","5","12","Female","","false","","","","","","[774,434]","./assets/img/canyon/memory/8.jpg","[""ArrowUp"",""ArrowLeft""]","value training","canyon","26","{""ArrowUp,ArrowLeft"":26,""ArrowUp,ArrowRight"":10,""ArrowDown,ArrowLeft"":5,""ArrowDown,ArrowRight"":17}","true","ArrowUp,ArrowLeft","false","original","1","28","","",""
"html-keyboard-response","147","998312","0.0-5.0-2.0-1.14","spark_pilot_norest","8599","5","12","Female","","","","","","","","null","<div style=""font-size:60px;"">+</div>","null","fixation","","","","","","","","","29","","",""
"revaluation","148","1004316","0.0-5.0-2.0-0.15","spark_pilot_norest","8599","5","12","Female","","false","","","","","","[1029.9999999998836,1090]","./assets/img/canyon/memory/20.jpg","[""ArrowUp"",""ArrowLeft""]","value training","canyon","26","{""ArrowUp,ArrowLeft"":26,""ArrowUp,ArrowRight"":10,""ArrowDown,ArrowLeft"":5,""ArrowDown,ArrowRight"":17}","true","ArrowUp,ArrowLeft","false","original","1","30","","",""
"html-keyboard-response","149","1004817","0.0-5.0-2.0-1.15","spark_pilot_norest","8599","5","12","Female","","","","","","","","null","<div style=""font-size:60px;"">+</div>","null","fixation","","","","","","","","","31","","",""
"revaluation","150","1010823","0.0-5.0-2.0-0.16","spark_pilot_norest","8599","5","12","Female","","false","","","","","","[1207,788]","./assets/img/canyon/memory/30.jpg","[""ArrowUp"",""ArrowLeft""]","value training","canyon","26","{""ArrowUp,ArrowLeft"":26,""ArrowUp,ArrowRight"":10,""ArrowDown,ArrowLeft"":5,""ArrowDown,ArrowRight"":17}","true","ArrowUp,ArrowLeft","false","original","1","32","","",""
"html-keyboard-response","151","1011324","0.0-5.0-2.0-1.16","spark_pilot_norest","8599","5","12","Female","","","","","","","","null","<div style=""font-size:60px;"">+</div>","null","fixation","","","","","","","","","33","","",""
"revaluation","152","1017329","0.0-5.0-2.0-0.17","spark_pilot_norest","8599","5","12","Female","","false","","","","","","[497.0000000001164,546]","./assets/img/canyon/memory/16.jpg","[""ArrowUp"",""ArrowLeft""]","value training","canyon","26","{""ArrowUp,ArrowLeft"":26,""ArrowUp,ArrowRight"":10,""ArrowDown,ArrowLeft"":5,""ArrowDown,ArrowRight"":17}","true","ArrowUp,ArrowLeft","false","original","1","34","","",""
"html-keyboard-response","153","1017831","0.0-5.0-2.0-1.17","spark_pilot_norest","8599","5","12","Female","","","","","","","","null","<div style=""font-size:60px;"">+</div>","null","fixation","","","","","","","","","35","","",""
"revaluation","154","1023836","0.0-5.0-2.0-0.18","spark_pilot_norest","8599","5","12","Female","","false","","","","","","[537,410]","./assets/img/canyon/memory/38.jpg","[""ArrowUp"",""ArrowLeft""]","value training","canyon","26","{""ArrowUp,ArrowLeft"":26,""ArrowUp,ArrowRight"":10,""ArrowDown,ArrowLeft"":5,""ArrowDown,ArrowRight"":17}","true","ArrowUp,ArrowLeft","false","original","1","36","","",""
"html-keyboard-response","155","1024337","0.0-5.0-2.0-1.18","spark_pilot_norest","8599","5","12","Female","","","","","","","","null","<div style=""font-size:60px;"">+</div>","null","fixation","","","","","","","","","37","","",""
"revaluation","156","1030342","0.0-5.0-2.0-0.19","spark_pilot_norest","8599","5","12","Female","","false","","","","","","[547.0000000001164,496.0000000001164]","./assets/img/canyon/memory/20.jpg","[""ArrowUp"",""ArrowLeft""]","value training","canyon","26","{""ArrowUp,ArrowLeft"":26,""ArrowUp,ArrowRight"":10,""ArrowDown,ArrowLeft"":5,""ArrowDown,ArrowRight"":17}","true","ArrowUp,ArrowLeft","false","original","1","38","","",""
"html-keyboard-response","157","1030844","0.0-5.0-2.0-1.19","spark_pilot_norest","8599","5","12","Female","","","","","","","","null","<div style=""font-size:60px;"">+</div>","null","fixation","","","","","","","","","39","","",""
"revaluation","158","1034847","0.0-5.0-2.0-0.20","spark_pilot_norest","8599","5","12","Female","","false","","","","","","[1023.9999999998836]","./assets/img/canyon/catch/2.jpg","[""spaceBar""]","value training","canyon","0","{""ArrowUp,ArrowLeft"":26,""ArrowUp,ArrowRight"":10,""ArrowDown,ArrowLeft"":5,""ArrowDown,ArrowRight"":17}","true","spaceBar","true","original","1","40","","",""
"html-keyboard-response","159","1035349","0.0-5.0-2.0-1.20","spark_pilot_norest","8599","5","12","Female","","","","","","","","null","<div style=""font-size:60px;"">+</div>","null","fixation","","","","","","","","","41","","",""
"revaluation","160","1041354","0.0-5.0-2.0-0.21","spark_pilot_norest","8599","5","12","Female","","false","","","","","","[658.0000000001164,667.0000000001164]","./assets/img/canyon/memory/15.jpg","[""ArrowUp"",""ArrowLeft""]","value training","canyon","26","{""ArrowUp,ArrowLeft"":26,""ArrowUp,ArrowRight"":10,""ArrowDown,ArrowLeft"":5,""ArrowDown,ArrowRight"":17}","true","ArrowUp,ArrowLeft","false","original","1","42","","",""
"html-keyboard-response","161","1041856","0.0-5.0-2.0-1.21","spark_pilot_norest","8599","5","12","Female","","","","","","","","null","<div style=""font-size:60px;"">+</div>","null","fixation","","","","","","","","","43","","",""
"revaluation","162","1047861","0.0-5.0-2.0-0.22","spark_pilot_norest","8599","5","12","Female","","false","","","","","","[612,491]","./assets/img/canyon/memory/1.jpg","[""ArrowUp"",""ArrowLeft""]","value training","canyon","26","{""ArrowUp,ArrowLeft"":26,""ArrowUp,ArrowRight"":10,""ArrowDown,ArrowLeft"":5,""ArrowDown,ArrowRight"":17}","true","ArrowUp,ArrowLeft","false","original","1","44","","",""
"html-keyboard-response","163","1048362","0.0-5.0-2.0-1.22","spark_pilot_norest","8599","5","12","Female","","","","","","","","null","<div style=""font-size:60px;"">+</div>","null","fixation","","","","","","","","","45","","",""
"revaluation","164","1054367","0.0-5.0-2.0-0.23","spark_pilot_norest","8599","5","12","Female","","false","","","","","","[494,518]","./assets/img/canyon/memory/6.jpg","[""ArrowUp"",""ArrowLeft""]","value training","canyon","26","{""ArrowUp,ArrowLeft"":26,""ArrowUp,ArrowRight"":10,""ArrowDown,ArrowLeft"":5,""ArrowDown,ArrowRight"":17}","true","ArrowUp,ArrowLeft","false","original","1","46","","",""
"html-keyboard-response","165","1054868","0.0-5.0-2.0-1.23","spark_pilot_norest","8599","5","12","Female","","","","","","","","null","<div style=""font-size:60px;"">+</div>","null","fixation","","","","","","","","","47","","",""
"revaluation","166","1060872","0.0-5.0-2.0-0.24","spark_pilot_norest","8599","5","12","Female","","false","","","","","","[591.0000000002328,548]","./assets/img/canyon/memory/32.jpg","[""ArrowUp"",""ArrowLeft""]","value training","canyon","26","{""ArrowUp,ArrowLeft"":26,""ArrowUp,ArrowRight"":10,""ArrowDown,ArrowLeft"":5,""ArrowDown,ArrowRight"":17}","true","ArrowUp,ArrowLeft","false","original","1","48","","",""
"html-keyboard-response","167","1061373","0.0-5.0-2.0-1.24","spark_pilot_norest","8599","5","12","Female","","","","","","","","null","<div style=""font-size:60px;"">+</div>","null","fixation","","","","","","","","","49","","",""
"revaluation","168","1065377","0.0-5.0-2.0-0.25","spark_pilot_norest","8599","5","12","Female","","false","","","","","","[627.9999999997672]","./assets/img/canyon/catch/6.jpg","[""spaceBar""]","value training","canyon","0","{""ArrowUp,ArrowLeft"":26,""ArrowUp,ArrowRight"":10,""ArrowDown,ArrowLeft"":5,""ArrowDown,ArrowRight"":17}","true","spaceBar","true","original","1","50","","",""
"html-keyboard-response","169","1065878","0.0-5.0-2.0-1.25","spark_pilot_norest","8599","5","12","Female","","","","","","","","null","<div style=""font-size:60px;"">+</div>","null","fixation","","","","","","","","","51","","",""
"revaluation","170","1071883","0.0-5.0-2.0-0.26","spark_pilot_norest","8599","5","12","Female","","false","","","","","","[503,366]","./assets/img/canyon/memory/34.jpg","[""ArrowUp"",""ArrowLeft""]","value training","canyon","26","{""ArrowUp,ArrowLeft"":26,""ArrowUp,ArrowRight"":10,""ArrowDown,ArrowLeft"":5,""ArrowDown,ArrowRight"":17}","true","ArrowUp,ArrowLeft","false","original","1","52","","",""
"html-keyboard-response","171","1072385","0.0-5.0-2.0-1.26","spark_pilot_norest","8599","5","12","Female","","","","","","","","null","<div style=""font-size:60px;"">+</div>","null","fixation","","","","","","","","","53","","",""
"revaluation","172","1078390","0.0-5.0-2.0-0.27","spark_pilot_norest","8599","5","12","Female","","false","","","","","","[290,436]","./assets/img/canyon/memory/12.jpg","[""ArrowUp"",""ArrowLeft""]","value training","canyon","26","{""ArrowUp,ArrowLeft"":26,""ArrowUp,ArrowRight"":10,""ArrowDown,ArrowLeft"":5,""ArrowDown,ArrowRight"":17}","true","ArrowUp,ArrowLeft","false","original","1","54","","",""
"html-keyboard-response","173","1078891","0.0-5.0-2.0-1.27","spark_pilot_norest","8599","5","12","Female","","","","","","","","null","<div style=""font-size:60px;"">+</div>","null","fixation","","","","","","","","","55","","",""
"revaluation","174","1084895","0.0-5.0-2.0-0.28","spark_pilot_norest","8599","5","12","Female","","false","","","","","","[562,799]","./assets/img/canyon/memory/40.jpg","[""ArrowUp"",""ArrowLeft""]","value training","canyon","26","{""ArrowUp,ArrowLeft"":26,""ArrowUp,ArrowRight"":10,""ArrowDown,ArrowLeft"":5,""ArrowDown,ArrowRight"":17}","true","ArrowUp,ArrowLeft","false","original","1","56","","",""
"html-keyboard-response","175","1085397","0.0-5.0-2.0-1.28","spark_pilot_norest","8599","5","12","Female","","","","","","","","null","<div style=""font-size:60px;"">+</div>","null","fixation","","","","","","","","","57","","",""
"revaluation","176","1091403","0.0-5.0-2.0-0.29","spark_pilot_norest","8599","5","12","Female","","false","","","","","","[602,377]","./assets/img/canyon/memory/35.jpg","[""ArrowUp"",""ArrowLeft""]","value training","canyon","26","{""ArrowUp,ArrowLeft"":26,""ArrowUp,ArrowRight"":10,""ArrowDown,ArrowLeft"":5,""ArrowDown,ArrowRight"":17}","true","ArrowUp,ArrowLeft","false","original","1","58","","",""
"html-keyboard-response","177","1091905","0.0-5.0-2.0-1.29","spark_pilot_norest","8599","5","12","Female","","","","","","","","null","<div style=""font-size:60px;"">+</div>","null","fixation","","","","","","","","","59","","",""
"revaluation","178","1097908","0.0-5.0-2.0-0.30","spark_pilot_norest","8599","5","12","Female","","false","","","","","","[835,478.00000000023283]","./assets/img/canyon/memory/10.jpg","[""ArrowUp"",""ArrowLeft""]","value training","canyon","26","{""ArrowUp,ArrowLeft"":26,""ArrowUp,ArrowRight"":10,""ArrowDown,ArrowLeft"":5,""ArrowDown,ArrowRight"":17}","true","ArrowUp,ArrowLeft","false","original","1","60","","",""
"html-keyboard-response","179","1098410","0.0-5.0-2.0-1.30","spark_pilot_norest","8599","5","12","Female","","","","","","","","null","<div style=""font-size:60px;"">+</div>","null","fixation","","","","","","","","","61","","",""
"revaluation","180","1104415","0.0-5.0-2.0-0.31","spark_pilot_norest","8599","5","12","Female","","false","","","","","","[615,500]","./assets/img/canyon/memory/10.jpg","[""ArrowUp"",""ArrowLeft""]","value training","canyon","26","{""ArrowUp,ArrowLeft"":26,""ArrowUp,ArrowRight"":10,""ArrowDown,ArrowLeft"":5,""ArrowDown,ArrowRight"":17}","true","ArrowUp,ArrowLeft","false","original","1","62","","",""
"html-keyboard-response","181","1104917","0.0-5.0-2.0-1.31","spark_pilot_norest","8599","5","12","Female","","","","","","","","null","<div style=""font-size:60px;"">+</div>","null","fixation","","","","","","","","","63","","",""
"revaluation","182","1110922","0.0-5.0-2.0-0.32","spark_pilot_norest","8599","5","12","Female","","false","","","","","","[664,450]","./assets/img/canyon/memory/31.jpg","[""ArrowUp"",""ArrowLeft""]","value training","canyon","26","{""ArrowUp,ArrowLeft"":26,""ArrowUp,ArrowRight"":10,""ArrowDown,ArrowLeft"":5,""ArrowDown,ArrowRight"":17}","true","ArrowUp,ArrowLeft","false","original","1","64","","",""
"html-keyboard-response","183","1111424","0.0-5.0-2.0-1.32","spark_pilot_norest","8599","5","12","Female","","","","","","","","null","<div style=""font-size:60px;"">+</div>","null","fixation","","","","","","","","","65","","",""
"revaluation","184","1115427","0.0-5.0-2.0-0.33","spark_pilot_norest","8599","5","12","Female","","false","","","","","","[712]","./assets/img/canyon/catch/0.jpg","[""spaceBar""]","value training","canyon","0","{""ArrowUp,ArrowLeft"":26,""ArrowUp,ArrowRight"":10,""ArrowDown,ArrowLeft"":5,""ArrowDown,ArrowRight"":17}","true","spaceBar","true","original","1","66","","",""
"html-keyboard-response","185","1115929","0.0-5.0-2.0-1.33","spark_pilot_norest","8599","5","12","Female","","","","","","","","null","<div style=""font-size:60px;"">+</div>","null","fixation","","","","","","","","","67","","",""
"revaluation","186","1121934","0.0-5.0-2.0-0.34","spark_pilot_norest","8599","5","12","Female","","false","","","","","","[628,687]","./assets/img/canyon/memory/1.jpg","[""ArrowUp"",""ArrowLeft""]","value training","canyon","26","{""ArrowUp,ArrowLeft"":26,""ArrowUp,ArrowRight"":10,""ArrowDown,ArrowLeft"":5,""ArrowDown,ArrowRight"":17}","true","ArrowUp,ArrowLeft","false","original","1","68","","",""
"html-keyboard-response","187","1122436","0.0-5.0-2.0-1.34","spark_pilot_norest","8599","5","12","Female","","","","","","","","null","<div style=""font-size:60px;"">+</div>","null","fixation","","","","","","","","","69","","",""
"revaluation","188","1128440","0.0-5.0-2.0-0.35","spark_pilot_norest","8599","5","12","Female","","false","","","","","","[713,832]","./assets/img/canyon/memory/40.jpg","[""ArrowUp"",""ArrowLeft""]","value training","canyon","26","{""ArrowUp,ArrowLeft"":26,""ArrowUp,ArrowRight"":10,""ArrowDown,ArrowLeft"":5,""ArrowDown,ArrowRight"":17}","true","ArrowUp,ArrowLeft","false","original","1","70","","",""
"html-keyboard-response","189","1128942","0.0-5.0-2.0-1.35","spark_pilot_norest","8599","5","12","Female","","","","","","","","null","<div style=""font-size:60px;"">+</div>","null","fixation","","","","","","","","","71","","",""
"revaluation","190","1134947","0.0-5.0-2.0-0.36","spark_pilot_norest","8599","5","12","Female","","false","","","","","","[361.99999999976717,475]","./assets/img/canyon/memory/31.jpg","[""ArrowUp"",""ArrowLeft""]","value training","canyon","26","{""ArrowUp,ArrowLeft"":26,""ArrowUp,ArrowRight"":10,""ArrowDown,ArrowLeft"":5,""ArrowDown,ArrowRight"":17}","true","ArrowUp,ArrowLeft","false","original","1","72","","",""
"html-keyboard-response","191","1135449","0.0-5.0-2.0-1.36","spark_pilot_norest","8599","5","12","Female","","","","","","","","null","<div style=""font-size:60px;"">+</div>","null","fixation","","","","","","","","","73","","",""
"revaluation","192","1141453","0.0-5.0-2.0-0.37","spark_pilot_norest","8599","5","12","Female","","false","","","","","","[674,613]","./assets/img/canyon/memory/0.jpg","[""ArrowUp"",""ArrowLeft""]","value training","canyon","26","{""ArrowUp,ArrowLeft"":26,""ArrowUp,ArrowRight"":10,""ArrowDown,ArrowLeft"":5,""ArrowDown,ArrowRight"":17}","true","ArrowUp,ArrowLeft","false","original","1","74","","",""
"html-keyboard-response","193","1141955","0.0-5.0-2.0-1.37","spark_pilot_norest","8599","5","12","Female","","","","","","","","null","<div style=""font-size:60px;"">+</div>","null","fixation","","","","","","","","","75","","",""
"revaluation","194","1147960","0.0-5.0-2.0-0.38","spark_pilot_norest","8599","5","12","Female","","false","","","","","","[669,823]","./assets/img/canyon/memory/32.jpg","[""ArrowUp"",""ArrowLeft""]","value training","canyon","26","{""ArrowUp,ArrowLeft"":26,""ArrowUp,ArrowRight"":10,""ArrowDown,ArrowLeft"":5,""ArrowDown,ArrowRight"":17}","true","ArrowUp,ArrowLeft","false","original","1","76","","",""
"html-keyboard-response","195","1148461","0.0-5.0-2.0-1.38","spark_pilot_norest","8599","5","12","Female","","","","","","","","null","<div style=""font-size:60px;"">+</div>","null","fixation","","","","","","","","","77","","",""
"revaluation","196","1154466","0.0-5.0-2.0-0.39","spark_pilot_norest","8599","5","12","Female","","false","","","","","","[454.99999999976717,432]","./assets/img/canyon/memory/37.jpg","[""ArrowUp"",""ArrowLeft""]","value training","canyon","26","{""ArrowUp,ArrowLeft"":26,""ArrowUp,ArrowRight"":10,""ArrowDown,ArrowLeft"":5,""ArrowDown,ArrowRight"":17}","true","ArrowUp,ArrowLeft","false","original","1","78","","",""
"html-keyboard-response","197","1154967","0.0-5.0-2.0-1.39","spark_pilot_norest","8599","5","12","Female","","","","","","","","null","<div style=""font-size:60px;"">+</div>","null","fixation","","","","","","","","","79","","",""
"revaluation","198","1160971","0.0-5.0-2.0-0.40","spark_pilot_norest","8599","5","12","Female","","false","","","","","","[481,619.0000000002328]","./assets/img/canyon/memory/30.jpg","[""ArrowUp"",""ArrowLeft""]","value training","canyon","26","{""ArrowUp,ArrowLeft"":26,""ArrowUp,ArrowRight"":10,""ArrowDown,ArrowLeft"":5,""ArrowDown,ArrowRight"":17}","true","ArrowUp,ArrowLeft","false","original","1","80","","",""
"html-keyboard-response","199","1161473","0.0-5.0-2.0-1.40","spark_pilot_norest","8599","5","12","Female","","","","","","","","null","<div style=""font-size:60px;"">+</div>","null","fixation","","","","","","","","","81","","",""
"revaluation","200","1167479","0.0-5.0-2.0-0.41","spark_pilot_norest","8599","5","12","Female","","false","","","","","","[575,546]","./assets/img/canyon/memory/37.jpg","[""ArrowUp"",""ArrowLeft""]","value training","canyon","26","{""ArrowUp,ArrowLeft"":26,""ArrowUp,ArrowRight"":10,""ArrowDown,ArrowLeft"":5,""ArrowDown,ArrowRight"":17}","true","ArrowUp,ArrowLeft","false","original","1","82","","",""
"html-keyboard-response","201","1167980","0.0-5.0-2.0-1.41","spark_pilot_norest","8599","5","12","Female","","","","","","","","null","<div style=""font-size:60px;"">+</div>","null","fixation","","","","","","","","","83","","",""
"revaluation","202","1173986","0.0-5.0-2.0-0.42","spark_pilot_norest","8599","5","12","Female","","false","","","","","","[1107.9999999997672,767]","./assets/img/canyon/memory/39.jpg","[""ArrowUp"",""ArrowLeft""]","value training","canyon","26","{""ArrowUp,ArrowLeft"":26,""ArrowUp,ArrowRight"":10,""ArrowDown,ArrowLeft"":5,""ArrowDown,ArrowRight"":17}","true","ArrowUp,ArrowLeft","false","original","1","84","","",""
"html-keyboard-response","203","1174488","0.0-5.0-2.0-1.42","spark_pilot_norest","8599","5","12","Female","","","","","","","","null","<div style=""font-size:60px;"">+</div>","null","fixation","","","","","","","","","85","","",""
"revaluation","204","1180491","0.0-5.0-2.0-0.43","spark_pilot_norest","8599","5","12","Female","","false","","","","","","[497,749]","./assets/img/canyon/memory/8.jpg","[""ArrowUp"",""ArrowLeft""]","value training","canyon","26","{""ArrowUp,ArrowLeft"":26,""ArrowUp,ArrowRight"":10,""ArrowDown,ArrowLeft"":5,""ArrowDown,ArrowRight"":17}","true","ArrowUp,ArrowLeft","false","original","1","86","","",""
"html-keyboard-response","205","1180992","0.0-5.0-2.0-1.43","spark_pilot_norest","8599","5","12","Female","","","","","","","","null","<div style=""font-size:60px;"">+</div>","null","fixation","","","","","","","","","87","","",""
"revaluation","206","1186998","0.0-5.0-2.0-0.44","spark_pilot_norest","8599","5","12","Female","","false","","","","","","[662,743]","./assets/img/canyon/memory/15.jpg","[""ArrowUp"",""ArrowLeft""]","value training","canyon","26","{""ArrowUp,ArrowLeft"":26,""ArrowUp,ArrowRight"":10,""ArrowDown,ArrowLeft"":5,""ArrowDown,ArrowRight"":17}","true","ArrowUp,ArrowLeft","false","original","1","88","","",""
"html-keyboard-response","207","1187499","0.0-5.0-2.0-1.44","spark_pilot_norest","8599","5","12","Female","","","","","","","","null","<div style=""font-size:60px;"">+</div>","null","fixation","","","","","","","","","89","","",""
"revaluation","208","1193506","0.0-5.0-2.0-0.45","spark_pilot_norest","8599","5","12","Female","","false","","","","","","[959,952]","./assets/img/canyon/memory/34.jpg","[""ArrowUp"",""ArrowLeft""]","value training","canyon","26","{""ArrowUp,ArrowLeft"":26,""ArrowUp,ArrowRight"":10,""ArrowDown,ArrowLeft"":5,""ArrowDown,ArrowRight"":17}","true","ArrowUp,ArrowLeft","false","original","1","90","","",""
"html-keyboard-response","209","1194007","0.0-5.0-2.0-1.45","spark_pilot_norest","8599","5","12","Female","","","","","","","","null","<div style=""font-size:60px;"">+</div>","null","fixation","","","","","","","","","91","","",""
"revaluation","210","1200013","0.0-5.0-2.0-0.46","spark_pilot_norest","8599","5","12","Female","","false","","","","","","[979,841]","./assets/img/canyon/memory/12.jpg","[""ArrowUp"",""ArrowLeft""]","value training","canyon","26","{""ArrowUp,ArrowLeft"":26,""ArrowUp,ArrowRight"":10,""ArrowDown,ArrowLeft"":5,""ArrowDown,ArrowRight"":17}","true","ArrowUp,ArrowLeft","false","original","1","92","","",""
"html-keyboard-response","211","1200515","0.0-5.0-2.0-1.46","spark_pilot_norest","8599","5","12","Female","","","","","","","","null","<div style=""font-size:60px;"">+</div>","null","fixation","","","","","","","","","93","","",""
"revaluation","212","1204519","0.0-5.0-2.0-0.47","spark_pilot_norest","8599","5","12","Female","","false","","","","","","[442]","./assets/img/canyon/catch/1.jpg","[""ArrowUp""]","value training","canyon","-10","{""ArrowUp,ArrowLeft"":26,""ArrowUp,ArrowRight"":10,""ArrowDown,ArrowLeft"":5,""ArrowDown,ArrowRight"":17}","false","ArrowUp","true","original","1","94","","",""
"html-keyboard-response","213","1205021","0.0-5.0-2.0-1.47","spark_pilot_norest","8599","5","12","Female","","","","","","","","null","<div style=""font-size:60px;"">+</div>","null","fixation","","","","","","","","","95","","",""
"revaluation","214","1211025","0.0-5.0-2.0-0.48","spark_pilot_norest","8599","5","12","Female","","false","","","","","","[548,990]","./assets/img/canyon/memory/16.jpg","[""ArrowUp"",""ArrowLeft""]","value training","canyon","26","{""ArrowUp,ArrowLeft"":26,""ArrowUp,ArrowRight"":10,""ArrowDown,ArrowLeft"":5,""ArrowDown,ArrowRight"":17}","true","ArrowUp,ArrowLeft","false","original","1","96","","",""
"html-keyboard-response","215","1211527","0.0-5.0-2.0-1.48","spark_pilot_norest","8599","5","12","Female","","","","","","","","null","<div style=""font-size:60px;"">+</div>","null","fixation","","","","","","","","","97","","",""
"revaluation","216","1217532","0.0-5.0-2.0-0.49","spark_pilot_norest","8599","5","12","Female","","false","","","","","","[620,730]","./assets/img/canyon/memory/39.jpg","[""ArrowUp"",""ArrowLeft""]","value training","canyon","26","{""ArrowUp,ArrowLeft"":26,""ArrowUp,ArrowRight"":10,""ArrowDown,ArrowLeft"":5,""ArrowDown,ArrowRight"":17}","true","ArrowUp,ArrowLeft","false","original","1","98","","",""
"html-keyboard-response","217","1218034","0.0-5.0-2.0-1.49","spark_pilot_norest","8599","5","12","Female","","","","","","","","null","<div style=""font-size:60px;"">+</div>","null","fixation","","","","","","","","","99","","",""
"learning-instructions","218","1233889","0.0-5.0-3.0-0.0","spark_pilot_norest","8599","5","12","Female","","","","","","","","2972","<p> Now, you will travel with a friend who will choose whether you go up or down first. </p>
            <p> On these turns, you will just see the animal that they found. You will still get to choose which chest to search for treasure.</p>","","instructions","","","","","","","","","","","",""
"revaluation","219","1237891","0.0-5.0-4.0-0.0","spark_pilot_norest","8599","5","12","Female","","false","","","","","","[598]","./assets/img/canyon/animals/giraffe.jpg","[""ArrowRight""]","revaluation","canyon","17","{""ArrowUp,ArrowLeft"":26,""ArrowUp,ArrowRight"":10,""ArrowDown,ArrowLeft"":5,""ArrowDown,ArrowRight"":17}","true","ArrowDown,ArrowRight","","original","1","0","","",""
"html-keyboard-response","220","1238393","0.0-5.0-4.0-1.0","spark_pilot_norest","8599","5","12","Female","","","","","","","","null","<div style=""font-size:60px;"">+</div>","null","fixation","","","","","","","","","1","","",""
"revaluation","221","1242396","0.0-5.0-4.0-0.1","spark_pilot_norest","8599","5","12","Female","","false","","","","","","[661]","./assets/img/canyon/animals/giraffe.jpg","[""ArrowRight""]","revaluation","canyon","17","{""ArrowUp,ArrowLeft"":26,""ArrowUp,ArrowRight"":10,""ArrowDown,ArrowLeft"":5,""ArrowDown,ArrowRight"":17}","true","ArrowDown,ArrowRight","","original","1","2","","",""
"html-keyboard-response","222","1242898","0.0-5.0-4.0-1.1","spark_pilot_norest","8599","5","12","Female","","","","","","","","null","<div style=""font-size:60px;"">+</div>","null","fixation","","","","","","","","","3","","",""
"revaluation","223","1246901","0.0-5.0-4.0-0.2","spark_pilot_norest","8599","5","12","Female","","false","","","","","","[659]","./assets/img/canyon/animals/lion.jpg","[""ArrowLeft""]","revaluation","canyon","26","{""ArrowUp,ArrowLeft"":26,""ArrowUp,ArrowRight"":10,""ArrowDown,ArrowLeft"":5,""ArrowDown,ArrowRight"":17}","true","ArrowUp,ArrowLeft","","original","1","4","","",""
"html-keyboard-response","224","1247403","0.0-5.0-4.0-1.2","spark_pilot_norest","8599","5","12","Female","","","","","","","","null","<div style=""font-size:60px;"">+</div>","null","fixation","","","","","","","","","5","","",""
"revaluation","225","1251406","0.0-5.0-4.0-0.3","spark_pilot_norest","8599","5","12","Female","","false","","","","","","[514]","./assets/img/canyon/animals/lion.jpg","[""ArrowLeft""]","revaluation","canyon","26","{""ArrowUp,ArrowLeft"":26,""ArrowUp,ArrowRight"":10,""ArrowDown,ArrowLeft"":5,""ArrowDown,ArrowRight"":17}","true","ArrowUp,ArrowLeft","","original","1","6","","",""
"html-keyboard-response","226","1251907","0.0-5.0-4.0-1.3","spark_pilot_norest","8599","5","12","Female","","","","","","","","null","<div style=""font-size:60px;"">+</div>","null","fixation","","","","","","","","","7","","",""
"revaluation","227","1255911","0.0-5.0-4.0-0.4","spark_pilot_norest","8599","5","12","Female","","false","","","","","","[511]","./assets/img/canyon/animals/lion.jpg","[""ArrowLeft""]","revaluation","canyon","26","{""ArrowUp,ArrowLeft"":26,""ArrowUp,ArrowRight"":10,""ArrowDown,ArrowLeft"":5,""ArrowDown,ArrowRight"":17}","true","ArrowUp,ArrowLeft","","original","1","8","","",""
"html-keyboard-response","228","1256412","0.0-5.0-4.0-1.4","spark_pilot_norest","8599","5","12","Female","","","","","","","","null","<div style=""font-size:60px;"">+</div>","null","fixation","","","","","","","","","9","","",""
"revaluation","229","1260416","0.0-5.0-4.0-0.5","spark_pilot_norest","8599","5","12","Female","","false","","","","","","[613]","./assets/img/canyon/animals/giraffe.jpg","[""ArrowRight""]","revaluation","canyon","17","{""ArrowUp,ArrowLeft"":26,""ArrowUp,ArrowRight"":10,""ArrowDown,ArrowLeft"":5,""ArrowDown,ArrowRight"":17}","true","ArrowDown,ArrowRight","","original","1","10","","",""
"html-keyboard-response","230","1260917","0.0-5.0-4.0-1.5","spark_pilot_norest","8599","5","12","Female","","","","","","","","null","<div style=""font-size:60px;"">+</div>","null","fixation","","","","","","","","","11","","",""
"revaluation","231","1264920","0.0-5.0-4.0-0.6","spark_pilot_norest","8599","5","12","Female","","false","","","","","","[472]","./assets/img/canyon/animals/lion.jpg","[""ArrowLeft""]","revaluation","canyon","26","{""ArrowUp,ArrowLeft"":26,""ArrowUp,ArrowRight"":10,""ArrowDown,ArrowLeft"":5,""ArrowDown,ArrowRight"":17}","true","ArrowUp,ArrowLeft","","original","1","12","","",""
"html-keyboard-response","232","1265421","0.0-5.0-4.0-1.6","spark_pilot_norest","8599","5","12","Female","","","","","","","","null","<div style=""font-size:60px;"">+</div>","null","fixation","","","","","","","","","13","","",""
"revaluation","233","1269424","0.0-5.0-4.0-0.7","spark_pilot_norest","8599","5","12","Female","","false","","","","","","[532]","./assets/img/canyon/animals/lion.jpg","[""ArrowLeft""]","revaluation","canyon","26","{""ArrowUp,ArrowLeft"":26,""ArrowUp,ArrowRight"":10,""ArrowDown,ArrowLeft"":5,""ArrowDown,ArrowRight"":17}","true","ArrowUp,ArrowLeft","","original","1","14","","",""
"html-keyboard-response","234","1269926","0.0-5.0-4.0-1.7","spark_pilot_norest","8599","5","12","Female","","","","","","","","null","<div style=""font-size:60px;"">+</div>","null","fixation","","","","","","","","","15","","",""
"revaluation","235","1273930","0.0-5.0-4.0-0.8","spark_pilot_norest","8599","5","12","Female","","false","","","","","","[575.0000000002328]","./assets/img/canyon/animals/lion.jpg","[""ArrowLeft""]","revaluation","canyon","26","{""ArrowUp,ArrowLeft"":26,""ArrowUp,ArrowRight"":10,""ArrowDown,ArrowLeft"":5,""ArrowDown,ArrowRight"":17}","true","ArrowUp,ArrowLeft","","original","1","16","","",""
"html-keyboard-response","236","1274431","0.0-5.0-4.0-1.8","spark_pilot_norest","8599","5","12","Female","","","","","","","","null","<div style=""font-size:60px;"">+</div>","null","fixation","","","","","","","","","17","","",""
"revaluation","237","1278435","0.0-5.0-4.0-0.9","spark_pilot_norest","8599","5","12","Female","","false","","","","","","[564]","./assets/img/canyon/animals/lion.jpg","[""ArrowLeft""]","revaluation","canyon","26","{""ArrowUp,ArrowLeft"":26,""ArrowUp,ArrowRight"":10,""ArrowDown,ArrowLeft"":5,""ArrowDown,ArrowRight"":17}","true","ArrowUp,ArrowLeft","","original","1","18","","",""
"html-keyboard-response","238","1278936","0.0-5.0-4.0-1.9","spark_pilot_norest","8599","5","12","Female","","","","","","","","null","<div style=""font-size:60px;"">+</div>","null","fixation","","","","","","","","","19","","",""
"revaluation","239","1282939","0.0-5.0-4.0-0.10","spark_pilot_norest","8599","5","12","Female","","false","","","","","","[491]","./assets/img/canyon/animals/giraffe.jpg","[""ArrowRight""]","revaluation","canyon","17","{""ArrowUp,ArrowLeft"":26,""ArrowUp,ArrowRight"":10,""ArrowDown,ArrowLeft"":5,""ArrowDown,ArrowRight"":17}","true","ArrowDown,ArrowRight","","original","1","20","","",""
"html-keyboard-response","240","1283440","0.0-5.0-4.0-1.10","spark_pilot_norest","8599","5","12","Female","","","","","","","","null","<div style=""font-size:60px;"">+</div>","null","fixation","","","","","","","","","21","","",""
"revaluation","241","1287444","0.0-5.0-4.0-0.11","spark_pilot_norest","8599","5","12","Female","","false","","","","","","[629.0000000002328]","./assets/img/canyon/animals/giraffe.jpg","[""ArrowRight""]","revaluation","canyon","17","{""ArrowUp,ArrowLeft"":26,""ArrowUp,ArrowRight"":10,""ArrowDown,ArrowLeft"":5,""ArrowDown,ArrowRight"":17}","true","ArrowDown,ArrowRight","","original","1","22","","",""
"html-keyboard-response","242","1287945","0.0-5.0-4.0-1.11","spark_pilot_norest","8599","5","12","Female","","","","","","","","null","<div style=""font-size:60px;"">+</div>","null","fixation","","","","","","","","","23","","",""
"revaluation","243","1291949","0.0-5.0-4.0-0.12","spark_pilot_norest","8599","5","12","Female","","false","","","","","","[671]","./assets/img/canyon/animals/giraffe.jpg","[""ArrowRight""]","revaluation","canyon","17","{""ArrowUp,ArrowLeft"":26,""ArrowUp,ArrowRight"":10,""ArrowDown,ArrowLeft"":5,""ArrowDown,ArrowRight"":17}","true","ArrowDown,ArrowRight","","original","1","24","","",""
"html-keyboard-response","244","1292450","0.0-5.0-4.0-1.12","spark_pilot_norest","8599","5","12","Female","","","","","","","","null","<div style=""font-size:60px;"">+</div>","null","fixation","","","","","","","","","25","","",""
"revaluation","245","1296454","0.0-5.0-4.0-0.13","spark_pilot_norest","8599","5","12","Female","","false","","","","","","[709]","./assets/img/canyon/animals/giraffe.jpg","[""ArrowRight""]","revaluation","canyon","17","{""ArrowUp,ArrowLeft"":26,""ArrowUp,ArrowRight"":10,""ArrowDown,ArrowLeft"":5,""ArrowDown,ArrowRight"":17}","true","ArrowDown,ArrowRight","","original","1","26","","",""
"html-keyboard-response","246","1296955","0.0-5.0-4.0-1.13","spark_pilot_norest","8599","5","12","Female","","","","","","","","null","<div style=""font-size:60px;"">+</div>","null","fixation","","","","","","","","","27","","",""
"revaluation","247","1300958","0.0-5.0-4.0-0.14","spark_pilot_norest","8599","5","12","Female","","false","","","","","","[466]","./assets/img/canyon/animals/lion.jpg","[""ArrowLeft""]","revaluation","canyon","26","{""ArrowUp,ArrowLeft"":26,""ArrowUp,ArrowRight"":10,""ArrowDown,ArrowLeft"":5,""ArrowDown,ArrowRight"":17}","true","ArrowUp,ArrowLeft","","original","1","28","","",""
"html-keyboard-response","248","1301459","0.0-5.0-4.0-1.14","spark_pilot_norest","8599","5","12","Female","","","","","","","","null","<div style=""font-size:60px;"">+</div>","null","fixation","","","","","","","","","29","","",""
"revaluation","249","1305462","0.0-5.0-4.0-0.15","spark_pilot_norest","8599","5","12","Female","","false","","","","","","[673]","./assets/img/canyon/animals/giraffe.jpg","[""ArrowRight""]","revaluation","canyon","17","{""ArrowUp,ArrowLeft"":26,""ArrowUp,ArrowRight"":10,""ArrowDown,ArrowLeft"":5,""ArrowDown,ArrowRight"":17}","true","ArrowDown,ArrowRight","","original","1","30","","",""
"html-keyboard-response","250","1305964","0.0-5.0-4.0-1.15","spark_pilot_norest","8599","5","12","Female","","","","","","","","null","<div style=""font-size:60px;"">+</div>","null","fixation","","","","","","","","","31","","",""
"revaluation","251","1309968","0.0-5.0-4.0-0.16","spark_pilot_norest","8599","5","12","Female","","false","","","","","","[725]","./assets/img/canyon/animals/lion.jpg","[""ArrowLeft""]","revaluation","canyon","26","{""ArrowUp,ArrowLeft"":26,""ArrowUp,ArrowRight"":10,""ArrowDown,ArrowLeft"":5,""ArrowDown,ArrowRight"":17}","true","ArrowUp,ArrowLeft","","original","1","32","","",""
"html-keyboard-response","252","1310469","0.0-5.0-4.0-1.16","spark_pilot_norest","8599","5","12","Female","","","","","","","","null","<div style=""font-size:60px;"">+</div>","null","fixation","","","","","","","","","33","","",""
"revaluation","253","1314473","0.0-5.0-4.0-0.17","spark_pilot_norest","8599","5","12","Female","","false","","","","","","[478]","./assets/img/canyon/animals/giraffe.jpg","[""ArrowRight""]","revaluation","canyon","17","{""ArrowUp,ArrowLeft"":26,""ArrowUp,ArrowRight"":10,""ArrowDown,ArrowLeft"":5,""ArrowDown,ArrowRight"":17}","true","ArrowDown,ArrowRight","","original","1","34","","",""
"html-keyboard-response","254","1314974","0.0-5.0-4.0-1.17","spark_pilot_norest","8599","5","12","Female","","","","","","","","null","<div style=""font-size:60px;"">+</div>","null","fixation","","","","","","","","","35","","",""
"learning-instructions","255","1323076","0.0-5.0-5.0-0.0","spark_pilot_norest","8599","5","12","Female","","","","","","","","null","<p> You have almost finished this part of the game! </p>
            <p> We are going to ask you to make a few more choices. </p>","","instructions","","","","","","","","","","","",""
"learning-instructions","256","1339049","0.0-5.0-5.0-0.1","spark_pilot_norest","8599","5","12","Female","","","","","","","","null","<p> First, you need to decide whether to go up or down. When you see each picture, use the arrow keys to make your choice. </p>
            <p><b>You will not see which animal you found, but try to get to the one that will give you the most treasure.</b></p>","","instructions","","","","","","","","","","","",""
"html-keyboard-response","257","1340051","0.0-5.0-6.0-0.0","spark_pilot_norest","8599","5","12","Female","","","","","","","","null","<div style=""font-size:100px;color:red;"">Starting in...</div>","null","","","","","","","","","","","","",""
"html-keyboard-response","258","1341053","0.0-5.0-6.0-1.0","spark_pilot_norest","8599","5","12","Female","","","","","","","","null","<div style=""font-size:200px;color:red;"">3</div>","null","","","","","","","","","","","","",""
"html-keyboard-response","259","1342054","0.0-5.0-6.0-2.0","spark_pilot_norest","8599","5","12","Female","","","","","","","","null","<div style=""font-size:200px;color:red;"">2</div>","null","","","","","","","","","","","","",""
"html-keyboard-response","260","1343056","0.0-5.0-6.0-3.0","spark_pilot_norest","8599","5","12","Female","","","","","","","","null","<div style=""font-size:200px;color:red;"">1</div>","null","","","","","","","","","","","","",""
"revaluation","261","1343802","0.0-5.0-7.0-0.0","spark_pilot_norest","8599","5","12","Female","","false","","","","","","[745]","./assets/img/canyon/test/0.jpg","[""ArrowUp""]","first stage test","canyon","0","{""ArrowUp,ArrowLeft"":26,""ArrowUp,ArrowRight"":10,""ArrowDown,ArrowLeft"":5,""ArrowDown,ArrowRight"":17}","true","ArrowUp","false","original","1","","","",""
"html-keyboard-response","262","1344304","0.0-5.0-7.0-1.0","spark_pilot_norest","8599","5","12","Female","","","","","","","","null","<div style=""font-size:60px;"">+</div>","null","fixation","","","","","","","","","","","",""
"revaluation","263","1344853","0.0-5.0-7.0-0.1","spark_pilot_norest","8599","5","12","Female","","false","","","","","","[547]","./assets/img/canyon/test/3.jpg","[""ArrowUp""]","first stage test","canyon","0","{""ArrowUp,ArrowLeft"":26,""ArrowUp,ArrowRight"":10,""ArrowDown,ArrowLeft"":5,""ArrowDown,ArrowRight"":17}","true","ArrowUp","false","original","1","","","",""
"html-keyboard-response","264","1345355","0.0-5.0-7.0-1.1","spark_pilot_norest","8599","5","12","Female","","","","","","","","null","<div style=""font-size:60px;"">+</div>","null","fixation","","","","","","","","","","","",""
"revaluation","265","1345959","0.0-5.0-7.0-0.2","spark_pilot_norest","8599","5","12","Female","","false","","","","","","[602]","./assets/img/canyon/test/2.jpg","[""ArrowUp""]","first stage test","canyon","0","{""ArrowUp,ArrowLeft"":26,""ArrowUp,ArrowRight"":10,""ArrowDown,ArrowLeft"":5,""ArrowDown,ArrowRight"":17}","true","ArrowUp","false","original","1","","","",""
"html-keyboard-response","266","1346460","0.0-5.0-7.0-1.2","spark_pilot_norest","8599","5","12","Female","","","","","","","","null","<div style=""font-size:60px;"">+</div>","null","fixation","","","","","","","","","","","",""
"revaluation","267","1346984","0.0-5.0-7.0-0.3","spark_pilot_norest","8599","5","12","Female","","false","","","","","","[521]","./assets/img/canyon/test/1.jpg","[""ArrowUp""]","first stage test","canyon","0","{""ArrowUp,ArrowLeft"":26,""ArrowUp,ArrowRight"":10,""ArrowDown,ArrowLeft"":5,""ArrowDown,ArrowRight"":17}","true","ArrowUp","false","original","1","","","",""
"html-keyboard-response","268","1347485","0.0-5.0-7.0-1.3","spark_pilot_norest","8599","5","12","Female","","","","","","","","null","<div style=""font-size:60px;"">+</div>","null","fixation","","","","","","","","","","","",""
"learning-instructions","269","1360827","0.0-5.0-8.0-0.0","spark_pilot_norest","8599","5","12","Female","","","","","","","","null","<p> Now you will see the animals again and can search their chests for treasure. </p>
            <p> This time, you will not see how much treasure you earned, but you will earn more bonus money for making better choices. </p>","","instructions","","","","","","","","","","","",""
"html-keyboard-response","270","1361829","0.0-5.0-9.0-0.0","spark_pilot_norest","8599","5","12","Female","","","","","","","","null","<div style=""font-size:100px;color:red;"">Starting in...</div>","null","","","","","","","","","","","","",""
"html-keyboard-response","271","1362830","0.0-5.0-9.0-1.0","spark_pilot_norest","8599","5","12","Female","","","","","","","","null","<div style=""font-size:200px;color:red;"">3</div>","null","","","","","","","","","","","","",""
"html-keyboard-response","272","1363832","0.0-5.0-9.0-2.0","spark_pilot_norest","8599","5","12","Female","","","","","","","","null","<div style=""font-size:200px;color:red;"">2</div>","null","","","","","","","","","","","","",""
"html-keyboard-response","273","1364834","0.0-5.0-9.0-3.0","spark_pilot_norest","8599","5","12","Female","","","","","","","","null","<div style=""font-size:200px;color:red;"">1</div>","null","","","","","","","","","","","","",""
"revaluation","274","1365221","0.0-5.0-10.0-0.0","spark_pilot_norest","8599","5","12","Female","","false","","","","","","[386]","./assets/img/canyon/animals/lion.jpg","[""ArrowLeft""]","second stage test","canyon","0","{""ArrowUp,ArrowLeft"":26,""ArrowUp,ArrowRight"":10,""ArrowDown,ArrowLeft"":5,""ArrowDown,ArrowRight"":17}","true","ArrowUp,ArrowLeft","","original","1","","","",""
"html-keyboard-response","275","1365722","0.0-5.0-10.0-1.0","spark_pilot_norest","8599","5","12","Female","","","","","","","","null","<div style=""font-size:60px;"">+</div>","null","fixation","","","","","","","","","","","",""
"revaluation","276","1365994","0.0-5.0-10.0-0.1","spark_pilot_norest","8599","5","12","Female","","false","","","","","","[271]","./assets/img/canyon/animals/lion.jpg","[""ArrowLeft""]","second stage test","canyon","0","{""ArrowUp,ArrowLeft"":26,""ArrowUp,ArrowRight"":10,""ArrowDown,ArrowLeft"":5,""ArrowDown,ArrowRight"":17}","true","ArrowUp,ArrowLeft","","original","1","","","",""
"html-keyboard-response","277","1366496","0.0-5.0-10.0-1.1","spark_pilot_norest","8599","5","12","Female","","","","","","","","null","<div style=""font-size:60px;"">+</div>","null","fixation","","","","","","","","","","","",""
"revaluation","278","1366769","0.0-5.0-10.0-0.2","spark_pilot_norest","8599","5","12","Female","","false","","","","","","[271]","./assets/img/canyon/animals/lion.jpg","[""ArrowLeft""]","second stage test","canyon","0","{""ArrowUp,ArrowLeft"":26,""ArrowUp,ArrowRight"":10,""ArrowDown,ArrowLeft"":5,""ArrowDown,ArrowRight"":17}","true","ArrowUp,ArrowLeft","","original","1","","","",""
"html-keyboard-response","279","1367270","0.0-5.0-10.0-1.2","spark_pilot_norest","8599","5","12","Female","","","","","","","","null","<div style=""font-size:60px;"">+</div>","null","fixation","","","","","","","","","","","",""
"revaluation","280","1367551","0.0-5.0-10.0-0.3","spark_pilot_norest","8599","5","12","Female","","false","","","","","","[278]","./assets/img/canyon/animals/lion.jpg","[""ArrowLeft""]","second stage test","canyon","0","{""ArrowUp,ArrowLeft"":26,""ArrowUp,ArrowRight"":10,""ArrowDown,ArrowLeft"":5,""ArrowDown,ArrowRight"":17}","true","ArrowUp,ArrowLeft","","original","1","","","",""
"html-keyboard-response","281","1368052","0.0-5.0-10.0-1.3","spark_pilot_norest","8599","5","12","Female","","","","","","","","null","<div style=""font-size:60px;"">+</div>","null","fixation","","","","","","","","","","","",""
"revaluation","282","1368387","0.0-5.0-10.0-0.4","spark_pilot_norest","8599","5","12","Female","","false","","","","","","[333]","./assets/img/canyon/animals/giraffe.jpg","[""ArrowLeft""]","second stage test","canyon","0","{""ArrowUp,ArrowLeft"":26,""ArrowUp,ArrowRight"":10,""ArrowDown,ArrowLeft"":5,""ArrowDown,ArrowRight"":17}","false","ArrowDown,ArrowLeft","","original","1","","","",""
"html-keyboard-response","283","1368888","0.0-5.0-10.0-1.4","spark_pilot_norest","8599","5","12","Female","","","","","","","","null","<div style=""font-size:60px;"">+</div>","null","fixation","","","","","","","","","","","",""
"revaluation","284","1369551","0.0-5.0-10.0-0.5","spark_pilot_norest","8599","5","12","Female","","false","","","","","","[660]","./assets/img/canyon/animals/giraffe.jpg","[""ArrowRight""]","second stage test","canyon","0","{""ArrowUp,ArrowLeft"":26,""ArrowUp,ArrowRight"":10,""ArrowDown,ArrowLeft"":5,""ArrowDown,ArrowRight"":17}","true","ArrowDown,ArrowRight","","original","1","","","",""
"html-keyboard-response","285","1370052","0.0-5.0-10.0-1.5","spark_pilot_norest","8599","5","12","Female","","","","","","","","null","<div style=""font-size:60px;"">+</div>","null","fixation","","","","","","","","","","","",""
"revaluation","286","1370454","0.0-5.0-10.0-0.6","spark_pilot_norest","8599","5","12","Female","","false","","","","","","[399]","./assets/img/canyon/animals/giraffe.jpg","[""ArrowRight""]","second stage test","canyon","0","{""ArrowUp,ArrowLeft"":26,""ArrowUp,ArrowRight"":10,""ArrowDown,ArrowLeft"":5,""ArrowDown,ArrowRight"":17}","true","ArrowDown,ArrowRight","","original","1","","","",""
"html-keyboard-response","287","1370955","0.0-5.0-10.0-1.6","spark_pilot_norest","8599","5","12","Female","","","","","","","","null","<div style=""font-size:60px;"">+</div>","null","fixation","","","","","","","","","","","",""
"revaluation","288","1371300","0.0-5.0-10.0-0.7","spark_pilot_norest","8599","5","12","Female","","false","","","","","","[343.99999999976717]","./assets/img/canyon/animals/giraffe.jpg","[""ArrowRight""]","second stage test","canyon","0","{""ArrowUp,ArrowLeft"":26,""ArrowUp,ArrowRight"":10,""ArrowDown,ArrowLeft"":5,""ArrowDown,ArrowRight"":17}","true","ArrowDown,ArrowRight","","original","1","","","",""
"html-keyboard-response","289","1371801","0.0-5.0-10.0-1.7","spark_pilot_norest","8599","5","12","Female","","","","","","","","null","<div style=""font-size:60px;"">+</div>","null","fixation","","","","","","","","","","","",""
"learning-instructions","290","1376604","0.0-5.0-0.1-0.2","spark_pilot_norest","8599","5","12","Female","","","","","","","","2108","<p> This time you are searching for treasure in the <b>ocean</b>.</p>","","instructions","","","","","","","","","","","",""
"learning-instructions","291","1411037","0.0-5.0-0.1-0.3","spark_pilot_norest","8599","5","12","Female","","","","","","","","17181","<p><b>New</b> animals with <b>new</b> treasure chests live here. You need to explore to discover where the animal with the best treasure chest is.</p>
                    <p> Like before, once you figure out which animal has the chest with the most treasure, you should try to get to that animal and select that chest! </p>","","instructions","","","","","","","","","","","",""
"learning-instructions","292","1427956","0.0-5.0-1.1-0.1","spark_pilot_norest","8599","5","12","Female","","","","","","","","2189","<p> Remember, when you see a picture of the place, use the up and down keys to <b>find an animal</b>.</p>
            <p> When you encounter an animal, you should use the left and right keys to <b>select a treasure chest</b>.</p>
            <p> Don't forget to look out for the robber! </p>","","instructions","","","","","","","","","","","",""
"revaluation","293","1433959","0.0-5.0-2.1-0.50","spark_pilot_norest","8599","5","12","Female","","false","","","","","","[1012.9999999997672,552.9999999997672]","./assets/img/ocean/memory/36.jpg","[""ArrowDown"",""ArrowLeft""]","value training","ocean","8","{""ArrowUp,ArrowLeft"":23,""ArrowUp,ArrowRight"":10,""ArrowDown,ArrowLeft"":8,""ArrowDown,ArrowRight"":30}","false","ArrowDown,ArrowLeft","false","revaluation","2","0","","",""
"html-keyboard-response","294","1434461","0.0-5.0-2.1-1.50","spark_pilot_norest","8599","5","12","Female","","","","","","","","null","<div style=""font-size:60px;"">+</div>","null","fixation","","","","","","","","","1","","",""
"revaluation","295","1438465","0.0-5.0-2.1-0.51","spark_pilot_norest","8599","5","12","Female","","false","","","","","","[674]","./assets/img/ocean/catch/2.jpg","[""spaceBar""]","value training","ocean","0","{""ArrowUp,ArrowLeft"":23,""ArrowUp,ArrowRight"":10,""ArrowDown,ArrowLeft"":8,""ArrowDown,ArrowRight"":30}","true","spaceBar","true","revaluation","2","2","","",""
"html-keyboard-response","296","1438967","0.0-5.0-2.1-1.51","spark_pilot_norest","8599","5","12","Female","","","","","","","","null","<div style=""font-size:60px;"">+</div>","null","fixation","","","","","","","","","3","","",""
"revaluation","297","1444973","0.0-5.0-2.1-0.52","spark_pilot_norest","8599","5","12","Female","","false","","","","","","[594.0000000002328,436]","./assets/img/ocean/memory/10.jpg","[""ArrowDown"",""ArrowRight""]","value training","ocean","30","{""ArrowUp,ArrowLeft"":23,""ArrowUp,ArrowRight"":10,""ArrowDown,ArrowLeft"":8,""ArrowDown,ArrowRight"":30}","true","ArrowDown,ArrowRight","false","revaluation","2","4","","",""
"html-keyboard-response","298","1445474","0.0-5.0-2.1-1.52","spark_pilot_norest","8599","5","12","Female","","","","","","","","null","<div style=""font-size:60px;"">+</div>","null","fixation","","","","","","","","","5","","",""
"revaluation","299","1451479","0.0-5.0-2.1-0.53","spark_pilot_norest","8599","5","12","Female","","false","","","","","","[493,502]","./assets/img/ocean/memory/38.jpg","[""ArrowUp"",""ArrowRight""]","value training","ocean","10","{""ArrowUp,ArrowLeft"":23,""ArrowUp,ArrowRight"":10,""ArrowDown,ArrowLeft"":8,""ArrowDown,ArrowRight"":30}","false","ArrowUp,ArrowRight","false","revaluation","2","6","","",""
"html-keyboard-response","300","1451981","0.0-5.0-2.1-1.53","spark_pilot_norest","8599","5","12","Female","","","","","","","","null","<div style=""font-size:60px;"">+</div>","null","fixation","","","","","","","","","7","","",""
"revaluation","301","1455985","0.0-5.0-2.1-0.54","spark_pilot_norest","8599","5","12","Female","","false","","","","","","[429]","./assets/img/ocean/catch/5.jpg","[""ArrowUp""]","value training","ocean","-10","{""ArrowUp,ArrowLeft"":23,""ArrowUp,ArrowRight"":10,""ArrowDown,ArrowLeft"":8,""ArrowDown,ArrowRight"":30}","false","ArrowUp","true","revaluation","2","8","","",""
"html-keyboard-response","302","1456487","0.0-5.0-2.1-1.54","spark_pilot_norest","8599","5","12","Female","","","","","","","","null","<div style=""font-size:60px;"">+</div>","null","fixation","","","","","","","","","9","","",""
"revaluation","303","1462492","0.0-5.0-2.1-0.55","spark_pilot_norest","8599","5","12","Female","","false","","","","","","[770,563]","./assets/img/ocean/memory/15.jpg","[""ArrowUp"",""ArrowLeft""]","value training","ocean","23","{""ArrowUp,ArrowLeft"":23,""ArrowUp,ArrowRight"":10,""ArrowDown,ArrowLeft"":8,""ArrowDown,ArrowRight"":30}","false","ArrowUp,ArrowLeft","false","revaluation","2","10","","",""
"html-keyboard-response","304","1462994","0.0-5.0-2.1-1.55","spark_pilot_norest","8599","5","12","Female","","","","","","","","null","<div style=""font-size:60px;"">+</div>","null","fixation","","","","","","","","","11","","",""
"revaluation","305","1468999","0.0-5.0-2.1-0.56","spark_pilot_norest","8599","5","12","Female","","false","","","","","","[1075.9999999997672,602.9999999997672]","./assets/img/ocean/memory/31.jpg","[""ArrowDown"",""ArrowRight""]","value training","ocean","30","{""ArrowUp,ArrowLeft"":23,""ArrowUp,ArrowRight"":10,""ArrowDown,ArrowLeft"":8,""ArrowDown,ArrowRight"":30}","true","ArrowDown,ArrowRight","false","revaluation","2","12","","",""
"html-keyboard-response","306","1469501","0.0-5.0-2.1-1.56","spark_pilot_norest","8599","5","12","Female","","","","","","","","null","<div style=""font-size:60px;"">+</div>","null","fixation","","","","","","","","","13","","",""
"revaluation","307","1475505","0.0-5.0-2.1-0.57","spark_pilot_norest","8599","5","12","Female","","false","","","","","","[1298,765]","./assets/img/ocean/memory/41.jpg","[""ArrowDown"",""ArrowRight""]","value training","ocean","30","{""ArrowUp,ArrowLeft"":23,""ArrowUp,ArrowRight"":10,""ArrowDown,ArrowLeft"":8,""ArrowDown,ArrowRight"":30}","true","ArrowDown,ArrowRight","false","revaluation","2","14","","",""
"html-keyboard-response","308","1476007","0.0-5.0-2.1-1.57","spark_pilot_norest","8599","5","12","Female","","","","","","","","null","<div style=""font-size:60px;"">+</div>","null","fixation","","","","","","","","","15","","",""
"revaluation","309","1482012","0.0-5.0-2.1-0.58","spark_pilot_norest","8599","5","12","Female","","false","","","","","","[712,804.0000000002328]","./assets/img/ocean/memory/34.jpg","[""ArrowDown"",""ArrowRight""]","value training","ocean","30","{""ArrowUp,ArrowLeft"":23,""ArrowUp,ArrowRight"":10,""ArrowDown,ArrowLeft"":8,""ArrowDown,ArrowRight"":30}","true","ArrowDown,ArrowRight","false","revaluation","2","16","","",""
"html-keyboard-response","310","1482514","0.0-5.0-2.1-1.58","spark_pilot_norest","8599","5","12","Female","","","","","","","","null","<div style=""font-size:60px;"">+</div>","null","fixation","","","","","","","","","17","","",""
"revaluation","311","1486518","0.0-5.0-2.1-0.59","spark_pilot_norest","8599","5","12","Female","","false","","","","","","[894.9999999997672]","./assets/img/ocean/catch/6.jpg","[""spaceBar""]","value training","ocean","0","{""ArrowUp,ArrowLeft"":23,""ArrowUp,ArrowRight"":10,""ArrowDown,ArrowLeft"":8,""ArrowDown,ArrowRight"":30}","true","spaceBar","true","revaluation","2","18","","",""
"html-keyboard-response","312","1487020","0.0-5.0-2.1-1.59","spark_pilot_norest","8599","5","12","Female","","","","","","","","null","<div style=""font-size:60px;"">+</div>","null","fixation","","","","","","","","","19","","",""
"revaluation","313","1491024","0.0-5.0-2.1-0.60","spark_pilot_norest","8599","5","12","Female","","false","","","","","","[757]","./assets/img/ocean/catch/1.jpg","[""spaceBar""]","value training","ocean","0","{""ArrowUp,ArrowLeft"":23,""ArrowUp,ArrowRight"":10,""ArrowDown,ArrowLeft"":8,""ArrowDown,ArrowRight"":30}","true","spaceBar","true","revaluation","2","20","","",""
"html-keyboard-response","314","1491526","0.0-5.0-2.1-1.60","spark_pilot_norest","8599","5","12","Female","","","","","","","","null","<div style=""font-size:60px;"">+</div>","null","fixation","","","","","","","","","21","","",""
"revaluation","315","1497532","0.0-5.0-2.1-0.61","spark_pilot_norest","8599","5","12","Female","","false","","","","","","[921.0000000002328,651]","./assets/img/ocean/memory/20.jpg","[""ArrowDown"",""ArrowRight""]","value training","ocean","30","{""ArrowUp,ArrowLeft"":23,""ArrowUp,ArrowRight"":10,""ArrowDown,ArrowLeft"":8,""ArrowDown,ArrowRight"":30}","true","ArrowDown,ArrowRight","false","revaluation","2","22","","",""
