"trial_type","trial_index","time_elapsed","internal_node_id","task_version","subject_id","assigned_condition","age","gender","success","timeout","failed_images","failed_audio","failed_video","browser_interaction","rt","stimulus","response","task_part","environment","score","rewardMap","correct","fullState","isCatch","condition","order","trial_num","key_press","ground_truth","bonus"
"pavlovia","0","2312","0.0-0.0","spark_pilot_norest","8655","8","15","Female","","","","","","","","","","","","","","","","","","","","","",""
"preload","1","66628","0.0-1.0","spark_pilot_norest","8655","8","15","Female","true","false","[]","[]","[]","[{""event"":""focus"",""trial"":0,""time"":1132},{""event"":""fullscreenenter"",""trial"":2,""time"":68825}]","","","","","","","","","","","","","","","",""
"fullscreen","2","69627","0.0-2.0","spark_pilot_norest","8655","8","15","Female","true","","","","","","","","","","","","","","","","","","","","",""
"audio-button-response","3","72236","0.0-3.0-0.0-0.0","spark_pilot_norest","8655","8","15","Female","","","","","","","2507","./assets/audio/audiotest/turtle.mp3","2","audio_test","","","","","","","","","","","",""
"learning-instructions","4","82351","0.0-3.0-1.0-0.0","spark_pilot_norest","8655","8","15","Female","","","","","","","3051.600000000093","<p> Welcome! Please remember to stay in fullscreen mode and don't click away from the experiment. </p>","","instructions","","","","","","","","","","","",""
"learning-instructions","5","179326","0.0-3.0-1.0-0.1","spark_pilot_norest","8655","8","15","Female","","","","","","","88465.3999999999","<p> Today you will be playing a game to earn treasure. </p>
            <p> At the end of the experiment, you will earn a bonus based on how much treasure you find. </p>
            <img src='./assets/img/instructions/treasure.jpg' class='instructions-image'>","","instructions","","","","","","","","","","","",""
"learning-instructions","6","189028","0.0-3.0-1.0-0.2","spark_pilot_norest","8655","8","15","Female","","","","","","","1330.2000000001863","<p> Animals have hidden treasure in treasure chests. </p>
            <p> You need to first find an animal and then choose which of their treasure chests to search. </p>
            <img src='./assets/img/space/animals/cat.jpg' class='instructions-image'>","","instructions","","","","","","","","","","","",""
"learning-instructions","7","206378","0.0-3.0-1.0-0.3","spark_pilot_norest","8655","8","15","Female","","","","","","","4044.7000000001863","<p> In each round, you will search for treasure in a different place. In the real game, there will be two rounds. </p>
            <p> You will begin with a separate, practice round where you will search for treasure in outer space. </p>
            <img src='./assets/img/space/0.jpg' class='instructions-image'>","","instructions","","","","","","","","","","","",""
"learning-instructions","8","219342","0.0-3.0-1.0-0.4","spark_pilot_norest","8655","8","15","Female","","","","","","","1445.4000000003725","<p> On every turn, you will see a picture of the place that you are in, but the specific image may be different each time. </p>
            <p> For example, both of these images mean you are in outer space. </p>
            <img src='./assets/img/instructions/outerspace.jpg' class='instructions-image'>","","instructions","","","","","","","","","","","",""
"learning-instructions","9","229236","0.0-3.0-1.0-0.5","spark_pilot_norest","8655","8","15","Female","","","","","","","1974.2999999998137","<p> You need to decide which direction to travel in. </p>
            <p> You can choose between going <b>up or down</b> by using the arrow keys. </p>
            <img src='./assets/img/instructions/updown.jpg' class='instructions-image'>","","instructions","","","","","","","","","","","",""
"learning-instructions","10","239732","0.0-3.0-1.0-0.6","spark_pilot_norest","8655","8","15","Female","","","","","","","1565.8999999999069","<p> You will have <b>2 seconds</b> to make your choice. </p>
            <p> If you do not make a choice within 2 seconds, you will not find an animal or earn treasure. </p>
            <img src='./assets/img/instructions/2seconds.jpg' class='instructions-image'>","","instructions","","","","","","","","","","","",""
"learning-instructions","11","248747","0.0-3.0-1.0-0.7","spark_pilot_norest","8655","8","15","Female","","","","","","","1868.1000000000931","<p> Let’s try practicing that now! </p>
            <p> When you see a picture of the place you are in, press the <b>up</b> key to travel up. </p>
            <img src='./assets/img/instructions/pressUp.jpg' class='instructions-image'>","","instructions","","","","","","","","","","","",""
"revaluation","12","252824","0.0-3.0-2.0-0.0","spark_pilot_norest","8655","8","15","Female","","false","","","","","[1076.0999999996275]","./assets/img/space/0.jpg","[""ArrowUp""]","first stage practice","space","0","null","null","ArrowUp","false","","","","","",""
"html-keyboard-response","13","253330","0.0-3.0-2.0-1.0","spark_pilot_norest","8655","8","15","Female","","","","","","","null","<div style=""font-size:60px;"">+</div>","null","fixation","","","","","","","","","","","",""
"revaluation","14","257351","0.0-3.0-2.0-0.1","spark_pilot_norest","8655","8","15","Female","","false","","","","","[1048.8999999999069]","./assets/img/space/1.jpg","[""ArrowUp""]","first stage practice","space","0","null","null","ArrowUp","false","","","","","",""
"html-keyboard-response","15","257858","0.0-3.0-2.0-1.1","spark_pilot_norest","8655","8","15","Female","","","","","","","null","<div style=""font-size:60px;"">+</div>","null","fixation","","","","","","","","","","","",""
"revaluation","16","261883","0.0-3.0-2.0-0.2","spark_pilot_norest","8655","8","15","Female","","false","","","","","[906.7000000001863]","./assets/img/space/2.jpg","[""ArrowUp""]","first stage practice","space","0","null","null","ArrowUp","false","","","","","",""
"html-keyboard-response","17","262388","0.0-3.0-2.0-1.2","spark_pilot_norest","8655","8","15","Female","","","","","","","null","<div style=""font-size:60px;"">+</div>","null","fixation","","","","","","","","","","","",""
"learning-instructions","18","270153","0.0-3.0-3.0-0.0","spark_pilot_norest","8655","8","15","Female","","","","","","","2986.5","<p> Great job! Now try pressing the <b>down</b> key to travel down. </p>
            <img src='./assets/img/instructions/pressDown.jpg' class='instructions-image'>","","instructions","","","","","","","","","","","",""
"revaluation","19","274182","0.0-3.0-4.0-0.0","spark_pilot_norest","8655","8","15","Female","","false","","","","","[955.8000000002794]","./assets/img/space/3.jpg","[""ArrowDown""]","first stage practice","space","0","null","null","ArrowDown","false","","","","","",""
"html-keyboard-response","20","274688","0.0-3.0-4.0-1.0","spark_pilot_norest","8655","8","15","Female","","","","","","","null","<div style=""font-size:60px;"">+</div>","null","fixation","","","","","","","","","","","",""
"revaluation","21","278714","0.0-3.0-4.0-0.1","spark_pilot_norest","8655","8","15","Female","","false","","","","","[754.3999999999069]","./assets/img/space/4.jpg","[""ArrowDown""]","first stage practice","space","0","null","null","ArrowDown","false","","","","","",""
"html-keyboard-response","22","279217","0.0-3.0-4.0-1.1","spark_pilot_norest","8655","8","15","Female","","","","","","","null","<div style=""font-size:60px;"">+</div>","null","fixation","","","","","","","","","","","",""
"revaluation","23","283229","0.0-3.0-4.0-0.2","spark_pilot_norest","8655","8","15","Female","","false","","","","","[327.90000000037253]","./assets/img/space/5.jpg","[""ArrowDown""]","first stage practice","space","0","null","null","ArrowDown","false","","","","","",""
"html-keyboard-response","24","283734","0.0-3.0-4.0-1.2","spark_pilot_norest","8655","8","15","Female","","","","","","","null","<div style=""font-size:60px;"">+</div>","null","fixation","","","","","","","","","","","",""
"learning-instructions","25","296299","0.0-3.0-5.0-0.0","spark_pilot_norest","8655","8","15","Female","","","","","","","2605.7000000001863","<p> The animals don’t move, so the animal in the upper part of a place will stay in the upper part of a place, and the animal in the lower part of a place will stay in the lower part of a place. </p>","","instructions","","","","","","","","","","","",""
"learning-instructions","26","307761","0.0-3.0-5.0-0.1","spark_pilot_norest","8655","8","15","Female","","","","","","","2206.899999999907","<p> Each animal has two treasure chests for you to choose from. </p>
            <p> The amount of treasure in each chest can range from <b> 0 to 40 pieces.</b></p>","","instructions","","","","","","","","","","","",""
"learning-instructions","27","321608","0.0-3.0-5.0-0.2","spark_pilot_norest","8655","8","15","Female","","","","","","","2548","<p> You should decide which chest to search for treasure by using the <b>left</b> and <b>right</b> arrow keys. </p>
            <p><b> Pay attention to which animal is on the screen, as the animals have different treasure chests. </b></p>
            <img src='./assets/img/instructions/leftright.jpg' class='instructions-image'>","","instructions","","","","","","","","","","","",""
"learning-instructions","28","329555","0.0-3.0-5.0-0.3","spark_pilot_norest","8655","8","15","Female","","","","","","","1501.6999999997206","<p> Let’s try practicing that now. </p>
            <p> When you see an animal, choose which chest to search for treasure. </p>
            <img src='./assets/img/instructions/chooseChest.jpg' class='instructions-image'>","","instructions","","","","","","","","","","","",""
"revaluation","29","333571","0.0-3.0-6.0-0.0","spark_pilot_norest","8655","8","15","Female","","false","","","","","[1312.7999999998137]","./assets/img/space/animals/rabbit.jpg","[""ArrowLeft""]","second stage practice","space","15","{""ArrowUp,ArrowLeft"":3,""ArrowUp,ArrowRight"":36,""ArrowDown,ArrowLeft"":15,""ArrowDown,ArrowRight"":23}","false","ArrowDown,ArrowLeft","","","","","","",""
"html-keyboard-response","30","334074","0.0-3.0-6.0-1.0","spark_pilot_norest","8655","8","15","Female","","","","","","","null","<div style=""font-size:60px;"">+</div>","null","fixation","","","","","","","","","","","",""
"revaluation","31","338096","0.0-3.0-6.0-0.1","spark_pilot_norest","8655","8","15","Female","","false","","","","","[559]","./assets/img/space/animals/cat.jpg","[""ArrowRight""]","second stage practice","space","36","{""ArrowUp,ArrowLeft"":3,""ArrowUp,ArrowRight"":36,""ArrowDown,ArrowLeft"":15,""ArrowDown,ArrowRight"":23}","true","ArrowUp,ArrowRight","","","","","","",""
"html-keyboard-response","32","338601","0.0-3.0-6.0-1.1","spark_pilot_norest","8655","8","15","Female","","","","","","","null","<div style=""font-size:60px;"">+</div>","null","fixation","","","","","","","","","","","",""
"revaluation","33","342624","0.0-3.0-6.0-0.2","spark_pilot_norest","8655","8","15","Female","","false","","","","","[480.5]","./assets/img/space/animals/rabbit.jpg","[""ArrowRight""]","second stage practice","space","23","{""ArrowUp,ArrowLeft"":3,""ArrowUp,ArrowRight"":36,""ArrowDown,ArrowLeft"":15,""ArrowDown,ArrowRight"":23}","true","ArrowDown,ArrowRight","","","","","","",""
"html-keyboard-response","34","343129","0.0-3.0-6.0-1.2","spark_pilot_norest","8655","8","15","Female","","","","","","","null","<div style=""font-size:60px;"">+</div>","null","fixation","","","","","","","","","","","",""
"revaluation","35","347149","0.0-3.0-6.0-0.3","spark_pilot_norest","8655","8","15","Female","","false","","","","","[484.10000000009313]","./assets/img/space/animals/cat.jpg","[""ArrowRight""]","second stage practice","space","36","{""ArrowUp,ArrowLeft"":3,""ArrowUp,ArrowRight"":36,""ArrowDown,ArrowLeft"":15,""ArrowDown,ArrowRight"":23}","true","ArrowUp,ArrowRight","","","","","","",""
"html-keyboard-response","36","347654","0.0-3.0-6.0-1.3","spark_pilot_norest","8655","8","15","Female","","","","","","","null","<div style=""font-size:60px;"">+</div>","null","fixation","","","","","","","","","","","",""
"learning-instructions","37","367669","0.0-3.0-7.0-0.0","spark_pilot_norest","8655","8","15","Female","","","","","","","3030.2999999998137","<p> Great job. Now let’s try putting it together. </p>
            <p> On each turn, you will first see a picture to remind you of the place you are in, and you need to choose whether to go up or down. </p>
            <p> Then you will see an animal and choose which of its chests to search for treasure. </p>","","instructions","","","","","","","","","","","",""
"learning-instructions","38","376962","0.0-3.0-7.0-0.1","spark_pilot_norest","8655","8","15","Female","","","","","","","934.7999999998137","<p> When you choose whether to go up or down, try to go to the animal with the chest with the most treasure. </p>
            <p> Try practicing that now! </p>","","instructions","","","","","","","","","","","",""
"revaluation","39","382974","0.0-3.0-8.0-0.0","spark_pilot_norest","8655","8","15","Female","","false","","","","","[1124.2000000001863,816]","./assets/img/space/6.jpg","[""ArrowUp"",""ArrowLeft""]","full practice","space","3","{""ArrowUp,ArrowLeft"":3,""ArrowUp,ArrowRight"":36,""ArrowDown,ArrowLeft"":15,""ArrowDown,ArrowRight"":23}","false","ArrowUp,ArrowLeft","false","","","","","",""
"html-keyboard-response","40","383478","0.0-3.0-8.0-1.0","spark_pilot_norest","8655","8","15","Female","","","","","","","null","<div style=""font-size:60px;"">+</div>","null","fixation","","","","","","","","","","","",""
"revaluation","41","389500","0.0-3.0-8.0-0.1","spark_pilot_norest","8655","8","15","Female","","false","","","","","[866.3999999999069,407.10000000009313]","./assets/img/space/7.jpg","[""ArrowDown"",""ArrowRight""]","full practice","space","23","{""ArrowUp,ArrowLeft"":3,""ArrowUp,ArrowRight"":36,""ArrowDown,ArrowLeft"":15,""ArrowDown,ArrowRight"":23}","false","ArrowDown,ArrowRight","false","","","","","",""
"html-keyboard-response","42","390006","0.0-3.0-8.0-1.1","spark_pilot_norest","8655","8","15","Female","","","","","","","null","<div style=""font-size:60px;"">+</div>","null","fixation","","","","","","","","","","","",""
"revaluation","43","396025","0.0-3.0-8.0-0.2","spark_pilot_norest","8655","8","15","Female","","false","","","","","[416.09999999962747,938.2000000001863]","./assets/img/space/8.jpg","[""ArrowDown"",""ArrowLeft""]","full practice","space","15","{""ArrowUp,ArrowLeft"":3,""ArrowUp,ArrowRight"":36,""ArrowDown,ArrowLeft"":15,""ArrowDown,ArrowRight"":23}","false","ArrowDown,ArrowLeft","false","","","","","",""
"html-keyboard-response","44","396530","0.0-3.0-8.0-1.2","spark_pilot_norest","8655","8","15","Female","","","","","","","null","<div style=""font-size:60px;"">+</div>","null","fixation","","","","","","","","","","","",""
"revaluation","45","402550","0.0-3.0-8.0-0.3","spark_pilot_norest","8655","8","15","Female","","false","","","","","[837.5,401.5]","./assets/img/space/9.jpg","[""ArrowDown"",""ArrowRight""]","full practice","space","23","{""ArrowUp,ArrowLeft"":3,""ArrowUp,ArrowRight"":36,""ArrowDown,ArrowLeft"":15,""ArrowDown,ArrowRight"":23}","false","ArrowDown,ArrowRight","false","","","","","",""
"html-keyboard-response","46","403055","0.0-3.0-8.0-1.3","spark_pilot_norest","8655","8","15","Female","","","","","","","null","<div style=""font-size:60px;"">+</div>","null","fixation","","","","","","","","","","","",""
"revaluation","47","409072","0.0-3.0-8.0-0.4","spark_pilot_norest","8655","8","15","Female","","false","","","","","[944.6999999997206,398]","./assets/img/space/10.jpg","[""ArrowDown"",""ArrowRight""]","full practice","space","23","{""ArrowUp,ArrowLeft"":3,""ArrowUp,ArrowRight"":36,""ArrowDown,ArrowLeft"":15,""ArrowDown,ArrowRight"":23}","false","ArrowDown,ArrowRight","false","","","","","",""
"html-keyboard-response","48","409577","0.0-3.0-8.0-1.4","spark_pilot_norest","8655","8","15","Female","","","","","","","null","<div style=""font-size:60px;"">+</div>","null","fixation","","","","","","","","","","","",""
"learning-instructions","49","422701","0.0-3.0-9.0-0.0","spark_pilot_norest","8655","8","15","Female","","","","","","","2653.2999999998137","<p> One last thing: sometimes, you will see a robber. The robber can be anywhere in the picture. </p>
            <p> If you do not stop them, you will lose treasure. </p>
            <img src='./assets/img/instructions/robber.jpg' class='instructions-image'>","","instructions","","","","","","","","","","","",""
"learning-instructions","50","432150","0.0-3.0-9.0-0.1","spark_pilot_norest","8655","8","15","Female","","","","","","","2181.899999999907","<p> If you see the robber, you should <b>press the space bar</b> rather than using the arrow keys. </p>
            <p> Try practicing that now! </p>","","instructions","","","","","","","","","","","",""
"revaluation","51","436163","0.0-3.0-10.0-0.0","spark_pilot_norest","8655","8","15","Female","","false","","","","","[756.0999999996275]","./assets/img/space/catch/0.jpg","[""spaceBar""]","catch practice","space","0","{""ArrowUp,ArrowLeft"":3,""ArrowUp,ArrowRight"":36,""ArrowDown,ArrowLeft"":15,""ArrowDown,ArrowRight"":23}","true","spaceBar","true","","","","","",""
"html-keyboard-response","52","436666","0.0-3.0-10.0-1.0","spark_pilot_norest","8655","8","15","Female","","","","","","","null","<div style=""font-size:60px;"">+</div>","null","fixation","","","","","","","","","","","",""
"revaluation","53","440677","0.0-3.0-10.0-0.1","spark_pilot_norest","8655","8","15","Female","","false","","","","","[554.1000000000931]","./assets/img/space/catch/1.jpg","[""spaceBar""]","catch practice","space","0","{""ArrowUp,ArrowLeft"":3,""ArrowUp,ArrowRight"":36,""ArrowDown,ArrowLeft"":15,""ArrowDown,ArrowRight"":23}","true","spaceBar","true","","","","","",""
"html-keyboard-response","54","441181","0.0-3.0-10.0-1.1","spark_pilot_norest","8655","8","15","Female","","","","","","","null","<div style=""font-size:60px;"">+</div>","null","fixation","","","","","","","","","","","",""
"revaluation","55","445203","0.0-3.0-10.0-0.2","spark_pilot_norest","8655","8","15","Female","","false","","","","","[632.8999999999069]","./assets/img/space/catch/2.jpg","[""spaceBar""]","catch practice","space","0","{""ArrowUp,ArrowLeft"":3,""ArrowUp,ArrowRight"":36,""ArrowDown,ArrowLeft"":15,""ArrowDown,ArrowRight"":23}","true","spaceBar","true","","","","","",""
"html-keyboard-response","56","445706","0.0-3.0-10.0-1.2","spark_pilot_norest","8655","8","15","Female","","","","","","","null","<div style=""font-size:60px;"">+</div>","null","fixation","","","","","","","","","","","",""
"learning-instructions","57","453399","0.0-3.0-11.0-0.0-0.0","spark_pilot_norest","8655","8","15","Female","","","","","","","2333.399999999907","<p> Now, you will practice a shortened version of the game to get a sense of how it all fits together. </p>","","instructions","","","","","","","","","","","",""
"learning-instructions","58","458530","0.0-3.0-11.0-0.0-0.1","spark_pilot_norest","8655","8","15","Female","","","","","","","1865.7999999998137","<p>This time you are searching for treasure in outer space.</p>","","instructions","","","","","","","","","","","",""
"learning-instructions","59","476654","0.0-3.0-11.0-1.0-0.0","spark_pilot_norest","8655","8","15","Female","","","","","","","3220.1999999997206","<p> Remember, when you see a picture of the place, use the up and down keys to <b>find an animal</b>.</p>
            <p> When you encounter an animal, you should use the left and right keys to <b>select a treasure chest</b>.</p>
            <p> Don't forget to look out for the robber! </p>","","instructions","","","","","","","","","","","",""
"revaluation","60","482666","0.0-3.0-11.0-2.0-0.0","spark_pilot_norest","8655","8","15","Female","","false","","","","","[1637.8000000002794,799]","./assets/img/space/11.jpg","[""ArrowUp"",""ArrowLeft""]","practice block","space","3","{""ArrowUp,ArrowLeft"":3,""ArrowUp,ArrowRight"":36,""ArrowDown,ArrowLeft"":15,""ArrowDown,ArrowRight"":23}","false","ArrowUp,ArrowLeft","false","","","","","",""
"html-keyboard-response","61","483170","0.0-3.0-11.0-2.0-1.0","spark_pilot_norest","8655","8","15","Female","","","","","","","null","<div style=""font-size:60px;"">+</div>","null","fixation","","","","","","","","","","","",""
"revaluation","62","489188","0.0-3.0-11.0-2.0-0.1","spark_pilot_norest","8655","8","15","Female","","false","","","","","[1142.2000000001863,585.2999999998137]","./assets/img/space/12.jpg","[""ArrowUp"",""ArrowLeft""]","practice block","space","3","{""ArrowUp,ArrowLeft"":3,""ArrowUp,ArrowRight"":36,""ArrowDown,ArrowLeft"":15,""ArrowDown,ArrowRight"":23}","false","ArrowUp,ArrowLeft","false","","","","","",""
"html-keyboard-response","63","489695","0.0-3.0-11.0-2.0-1.1","spark_pilot_norest","8655","8","15","Female","","","","","","","null","<div style=""font-size:60px;"">+</div>","null","fixation","","","","","","","","","","","",""
"revaluation","64","495711","0.0-3.0-11.0-2.0-0.2","spark_pilot_norest","8655","8","15","Female","","false","","","","","[1952.7999999998137,559.5]","./assets/img/space/13.jpg","[""ArrowUp"",""ArrowRight""]","practice block","space","36","{""ArrowUp,ArrowLeft"":3,""ArrowUp,ArrowRight"":36,""ArrowDown,ArrowLeft"":15,""ArrowDown,ArrowRight"":23}","true","ArrowUp,ArrowRight","false","","","","","",""
"html-keyboard-response","65","496215","0.0-3.0-11.0-2.0-1.2","spark_pilot_norest","8655","8","15","Female","","","","","","","null","<div style=""font-size:60px;"">+</div>","null","fixation","","","","","","","","","","","",""
"revaluation","66","502239","0.0-3.0-11.0-2.0-0.3","spark_pilot_norest","8655","8","15","Female","","false","","","","","[555.2000000001863,1169.8000000002794]","./assets/img/space/14.jpg","[""ArrowDown"",""ArrowLeft""]","practice block","space","15","{""ArrowUp,ArrowLeft"":3,""ArrowUp,ArrowRight"":36,""ArrowDown,ArrowLeft"":15,""ArrowDown,ArrowRight"":23}","false","ArrowDown,ArrowLeft","false","","","","","",""
"html-keyboard-response","67","502743","0.0-3.0-11.0-2.0-1.3","spark_pilot_norest","8655","8","15","Female","","","","","","","null","<div style=""font-size:60px;"">+</div>","null","fixation","","","","","","","","","","","",""
"revaluation","68","508760","0.0-3.0-11.0-2.0-0.4","spark_pilot_norest","8655","8","15","Female","","false","","","","","[635.2999999998137,436.70000000018626]","./assets/img/space/11.jpg","[""ArrowUp"",""ArrowRight""]","practice block","space","36","{""ArrowUp,ArrowLeft"":3,""ArrowUp,ArrowRight"":36,""ArrowDown,ArrowLeft"":15,""ArrowDown,ArrowRight"":23}","true","ArrowUp,ArrowRight","false","","","","","",""
"html-keyboard-response","69","509265","0.0-3.0-11.0-2.0-1.4","spark_pilot_norest","8655","8","15","Female","","","","","","","null","<div style=""font-size:60px;"">+</div>","null","fixation","","","","","","","","","","","",""
"revaluation","70","515282","0.0-3.0-11.0-2.0-0.5","spark_pilot_norest","8655","8","15","Female","","false","","","","","[805.1000000000931,361.89999999990687]","./assets/img/space/12.jpg","[""ArrowUp"",""ArrowRight""]","practice block","space","36","{""ArrowUp,ArrowLeft"":3,""ArrowUp,ArrowRight"":36,""ArrowDown,ArrowLeft"":15,""ArrowDown,ArrowRight"":23}","true","ArrowUp,ArrowRight","false","","","","","",""
"html-keyboard-response","71","515789","0.0-3.0-11.0-2.0-1.5","spark_pilot_norest","8655","8","15","Female","","","","","","","null","<div style=""font-size:60px;"">+</div>","null","fixation","","","","","","","","","","","",""
"revaluation","72","521807","0.0-3.0-11.0-2.0-0.6","spark_pilot_norest","8655","8","15","Female","","false","","","","","[371.29999999981374,364.39999999990687]","./assets/img/space/13.jpg","[""ArrowUp"",""ArrowRight""]","practice block","space","36","{""ArrowUp,ArrowLeft"":3,""ArrowUp,ArrowRight"":36,""ArrowDown,ArrowLeft"":15,""ArrowDown,ArrowRight"":23}","true","ArrowUp,ArrowRight","false","","","","","",""
"html-keyboard-response","73","522312","0.0-3.0-11.0-2.0-1.6","spark_pilot_norest","8655","8","15","Female","","","","","","","null","<div style=""font-size:60px;"">+</div>","null","fixation","","","","","","","","","","","",""
"revaluation","74","528336","0.0-3.0-11.0-2.0-0.7","spark_pilot_norest","8655","8","15","Female","","false","","","","","[293.40000000037253,387.10000000009313]","./assets/img/space/14.jpg","[""ArrowUp"",""ArrowRight""]","practice block","space","36","{""ArrowUp,ArrowLeft"":3,""ArrowUp,ArrowRight"":36,""ArrowDown,ArrowLeft"":15,""ArrowDown,ArrowRight"":23}","true","ArrowUp,ArrowRight","false","","","","","",""
"html-keyboard-response","75","528842","0.0-3.0-11.0-2.0-1.7","spark_pilot_norest","8655","8","15","Female","","","","","","","null","<div style=""font-size:60px;"">+</div>","null","fixation","","","","","","","","","","","",""
"revaluation","76","532859","0.0-3.0-11.0-2.0-0.8","spark_pilot_norest","8655","8","15","Female","","false","","","","","[574.7000000001863]","./assets/img/space/catch/3.jpg","[""spaceBar""]","practice block","space","0","{""ArrowUp,ArrowLeft"":3,""ArrowUp,ArrowRight"":36,""ArrowDown,ArrowLeft"":15,""ArrowDown,ArrowRight"":23}","true","spaceBar","true","","","","","",""
"html-keyboard-response","77","533363","0.0-3.0-11.0-2.0-1.8","spark_pilot_norest","8655","8","15","Female","","","","","","","null","<div style=""font-size:60px;"">+</div>","null","fixation","","","","","","","","","","","",""
"learning-instructions","78","548573","0.0-3.0-11.0-3.0-0.0","spark_pilot_norest","8655","8","15","Female","","","","","","","2146.6999999997206","<p> Now, you will travel with a friend who will choose whether you go up or down first. </p>
            <p> On these turns, you will just see the animal that they found. You will still get to choose which chest to search for treasure.</p>","","instructions","","","","","","","","","","","",""
"revaluation","79","552587","0.0-3.0-11.0-4.0-0.0","spark_pilot_norest","8655","8","15","Female","","false","","","","","[898.1000000000931]","./assets/img/space/animals/rabbit.jpg","[""ArrowRight""]","practice block","space","23","{""ArrowUp,ArrowLeft"":3,""ArrowUp,ArrowRight"":36,""ArrowDown,ArrowLeft"":15,""ArrowDown,ArrowRight"":23}","true","ArrowDown,ArrowRight","","","","","","",""
"html-keyboard-response","80","553094","0.0-3.0-11.0-4.0-1.0","spark_pilot_norest","8655","8","15","Female","","","","","","","null","<div style=""font-size:60px;"">+</div>","null","fixation","","","","","","","","","","","",""
"revaluation","81","557116","0.0-3.0-11.0-4.0-0.1","spark_pilot_norest","8655","8","15","Female","","false","","","","","[400]","./assets/img/space/animals/rabbit.jpg","[""ArrowLeft""]","practice block","space","15","{""ArrowUp,ArrowLeft"":3,""ArrowUp,ArrowRight"":36,""ArrowDown,ArrowLeft"":15,""ArrowDown,ArrowRight"":23}","false","ArrowDown,ArrowLeft","","","","","","",""
"html-keyboard-response","82","557622","0.0-3.0-11.0-4.0-1.1","spark_pilot_norest","8655","8","15","Female","","","","","","","null","<div style=""font-size:60px;"">+</div>","null","fixation","","","","","","","","","","","",""
"revaluation","83","561653","0.0-3.0-11.0-4.0-0.2","spark_pilot_norest","8655","8","15","Female","","false","","","","","[413.10000000009313]","./assets/img/space/animals/cat.jpg","[""ArrowLeft""]","practice block","space","3","{""ArrowUp,ArrowLeft"":3,""ArrowUp,ArrowRight"":36,""ArrowDown,ArrowLeft"":15,""ArrowDown,ArrowRight"":23}","false","ArrowUp,ArrowLeft","","","","","","",""
"html-keyboard-response","84","562158","0.0-3.0-11.0-4.0-1.2","spark_pilot_norest","8655","8","15","Female","","","","","","","null","<div style=""font-size:60px;"">+</div>","null","fixation","","","","","","","","","","","",""
"revaluation","85","566177","0.0-3.0-11.0-4.0-0.3","spark_pilot_norest","8655","8","15","Female","","false","","","","","[336.79999999981374]","./assets/img/space/animals/cat.jpg","[""ArrowLeft""]","practice block","space","3","{""ArrowUp,ArrowLeft"":3,""ArrowUp,ArrowRight"":36,""ArrowDown,ArrowLeft"":15,""ArrowDown,ArrowRight"":23}","false","ArrowUp,ArrowLeft","","","","","","",""
"html-keyboard-response","86","566680","0.0-3.0-11.0-4.0-1.3","spark_pilot_norest","8655","8","15","Female","","","","","","","null","<div style=""font-size:60px;"">+</div>","null","fixation","","","","","","","","","","","",""
"learning-instructions","87","574865","0.0-3.0-11.0-5.0-0.0","spark_pilot_norest","8655","8","15","Female","","","","","","","null","<p> You have almost finished this part of the game! </p>
            <p> We are going to ask you to make a few more choices. </p>","","instructions","","","","","","","","","","","",""
"learning-instructions","88","591016","0.0-3.0-11.0-5.0-0.1","spark_pilot_norest","8655","8","15","Female","","","","","","","null","<p> First, you need to decide whether to go up or down. When you see each picture, use the arrow keys to make your choice. </p>
            <p><b>You will not see which animal you found, but try to get to the one that will give you the most treasure.</b></p>","","instructions","","","","","","","","","","","",""
"html-keyboard-response","89","592021","0.0-3.0-11.0-6.0-0.0","spark_pilot_norest","8655","8","15","Female","","","","","","","null","<div style=""font-size:100px;color:red;"">Starting in...</div>","null","","","","","","","","","","","","",""
"html-keyboard-response","90","593026","0.0-3.0-11.0-6.0-1.0","spark_pilot_norest","8655","8","15","Female","","","","","","","null","<div style=""font-size:200px;color:red;"">3</div>","null","","","","","","","","","","","","",""
"html-keyboard-response","91","594030","0.0-3.0-11.0-6.0-2.0","spark_pilot_norest","8655","8","15","Female","","","","","","","null","<div style=""font-size:200px;color:red;"">2</div>","null","","","","","","","","","","","","",""
"html-keyboard-response","92","595033","0.0-3.0-11.0-6.0-3.0","spark_pilot_norest","8655","8","15","Female","","","","","","","null","<div style=""font-size:200px;color:red;"">1</div>","null","","","","","","","","","","","","",""
"revaluation","93","595626","0.0-3.0-11.0-7.0","spark_pilot_norest","8655","8","15","Female","","false","","","","","[578.7000000001863]","./assets/img/space/15.jpg","[""ArrowUp""]","practice block","space","0","{""ArrowUp,ArrowLeft"":3,""ArrowUp,ArrowRight"":36,""ArrowDown,ArrowLeft"":15,""ArrowDown,ArrowRight"":23}","true","ArrowUp","false","","","","","",""
"html-keyboard-response","94","596133","0.0-3.0-11.0-8.0","spark_pilot_norest","8655","8","15","Female","","","","","","","null","<div style=""font-size:60px;"">+</div>","null","fixation","","","","","","","","","","","",""
"learning-instructions","95","609629","0.0-3.0-11.0-9.0-0.0","spark_pilot_norest","8655","8","15","Female","","","","","","","null","<p> Now you will see the animals again and can search their chests for treasure. </p>
            <p> This time, you will not see how much treasure you earned, but you will earn more bonus money for making better choices. </p>","","instructions","","","","","","","","","","","",""
"html-keyboard-response","96","610634","0.0-3.0-11.0-10.0-0.0","spark_pilot_norest","8655","8","15","Female","","","","","","","null","<div style=""font-size:100px;color:red;"">Starting in...</div>","null","","","","","","","","","","","","",""
"html-keyboard-response","97","611639","0.0-3.0-11.0-10.0-1.0","spark_pilot_norest","8655","8","15","Female","","","","","","","null","<div style=""font-size:200px;color:red;"">3</div>","null","","","","","","","","","","","","",""
"html-keyboard-response","98","612645","0.0-3.0-11.0-10.0-2.0","spark_pilot_norest","8655","8","15","Female","","","","","","","null","<div style=""font-size:200px;color:red;"">2</div>","null","","","","","","","","","","","","",""
"html-keyboard-response","99","613651","0.0-3.0-11.0-10.0-3.0","spark_pilot_norest","8655","8","15","Female","","","","","","","null","<div style=""font-size:200px;color:red;"">1</div>","null","","","","","","","","","","","","",""
"revaluation","100","614039","0.0-3.0-11.0-11.0-0.0","spark_pilot_norest","8655","8","15","Female","","false","","","","","[366]","./assets/img/space/animals/cat.jpg","[""ArrowRight""]","practice block","space","0","{""ArrowUp,ArrowLeft"":3,""ArrowUp,ArrowRight"":36,""ArrowDown,ArrowLeft"":15,""ArrowDown,ArrowRight"":23}","true","ArrowUp,ArrowRight","","","","","","",""
"html-keyboard-response","101","614542","0.0-3.0-11.0-11.0-1.0","spark_pilot_norest","8655","8","15","Female","","","","","","","null","<div style=""font-size:60px;"">+</div>","null","fixation","","","","","","","","","","","",""
"revaluation","102","615239","0.0-3.0-11.0-11.0-0.1","spark_pilot_norest","8655","8","15","Female","","false","","","","","[679.1000000000931]","./assets/img/space/animals/rabbit.jpg","[""ArrowRight""]","practice block","space","0","{""ArrowUp,ArrowLeft"":3,""ArrowUp,ArrowRight"":36,""ArrowDown,ArrowLeft"":15,""ArrowDown,ArrowRight"":23}","true","ArrowDown,ArrowRight","","","","","","",""
"html-keyboard-response","103","615745","0.0-3.0-11.0-11.0-1.1","spark_pilot_norest","8655","8","15","Female","","","","","","","null","<div style=""font-size:60px;"">+</div>","null","fixation","","","","","","","","","","","",""
"learning-instructions","104","621938","0.0-3.0-12.0-0.0","spark_pilot_norest","8655","8","15","Female","","","","","","","1541.6999999997206","<p> Before you start, we're going to ask you a few questions about how the game works. </p>","","instructions","","","","","","","","","","","",""
"comp-q","105","628931","0.0-3.0-13.0-0.0-0.0","spark_pilot_norest","8655","8","15","Female","","","","","","","1299.3999999999069","<p> <b> True or False? </b> </p>
            <p> There can be 50 pieces of treasure in a given animal's chest. </p>","1","comp_question","","","","true","","","","","","","",""
"comp-q","106","639711","0.0-3.0-13.0-0.0-1.0","spark_pilot_norest","8655","8","15","Female","","","","","","","4037.7999999998137","<p> <b> That's right! </b> The amount of treasure in each chest can range from 0 to 40 pieces. </p>","0","comp_answer","","","","","","","","","","","",""
"comp-q","107","648479","0.0-3.0-13.0-0.1-0.1","spark_pilot_norest","8655","8","15","Female","","","","","","","1549.1999999997206","<p> <b> True or False? </b> </p><p> In this game, all animals have the same amount of treasure in their left and right chests. </p>","1","comp_question","","","","true","","","","","","","",""
"comp-q","108","658091","0.0-3.0-13.0-0.1-1.1","spark_pilot_norest","8655","8","15","Female","","","","","","","4294.200000000186","<p> <b> That's right! </b> Animals have different amounts of treasure in their treasure chests. </p>","0","comp_answer","","","","","","","","","","","",""
"comp-q","109","665455","0.0-3.0-13.0-0.2-0.2","spark_pilot_norest","8655","8","15","Female","","","","","","","1451.8999999999069","<p> <b> True or False? </b> </p><p> The same animal will always be there if you go up in the same place. </p>","1","comp_question","","","","false","","","","","","","",""
"comp-q","110","672932","0.0-3.0-13.0-0.2-1.2","spark_pilot_norest","8655","8","15","Female","","","","","","","1086.5999999996275","<p> <b>Incorrect.</b> One animal lives in the upper part and one lives in the lower part of every place. </p>","0","comp_answer","","","","","","","","","","","",""
"comp-q","111","679422","0.0-3.0-13.0-0.3-0.3","spark_pilot_norest","8655","8","15","Female","","","","","","","661","<p> <b> True or False? </b> </p><p> The same animal will always be there if you go up in the same place. </p>","0","comp_question","","","","true","","","","","","","",""
"comp-q","112","687499","0.0-3.0-13.0-0.3-1.3","spark_pilot_norest","8655","8","15","Female","","","","","","","1543.5999999996275","<p> <b> That's right! </b> One animal lives in the upper part and one lives in the lower part of every place. </p>","0","comp_answer","","","","","","","","","","","",""
"comp-q","113","693947","0.0-3.0-13.0-0.4-0.4","spark_pilot_norest","8655","8","15","Female","","","","","","","845.1000000000931","<p> <b> True or False? </b> </p><p> If you see a different picture, it means you are in a new place. </p>","0","comp_question","","","","false","","","","","","","",""
"comp-q","114","706034","0.0-3.0-13.0-0.4-1.4","spark_pilot_norest","8655","8","15","Female","","","","","","","868","<p> <b>Incorrect.</b> Lots of different images may show the same place. For example,  you may see three different images that all remind you that you are in outer space. </p>","0","comp_answer","","","","","","","","","","","",""
"comp-q","115","712048","0.0-3.0-13.0-0.5-0.5","spark_pilot_norest","8655","8","15","Female","","","","","","","501.60000000009313","<p> <b> True or False? </b> </p><p> If you see a different picture, it means you are in a new place. </p>","1","comp_question","","","","true","","","","","","","",""
"comp-q","116","727454","0.0-3.0-13.0-0.5-1.5","spark_pilot_norest","8655","8","15","Female","","","","","","","4066.9000000003725","<p> <b> That's right! </b> Lots of different images may show the same place. For example,  you may see three different images that all remind you that you are in outer space. </p>","0","comp_answer","","","","","","","","","","","",""
"learning-instructions","117","788603","0.0-3.0-14.0-0.0","spark_pilot_norest","8655","8","15","Female","","","","","","","51191","<p> Good job. Remember to do your best because the amount of treasure you earn will be converted into bonus money. </p>
            <p> It’s time to start the real game! </p>","","instructions","","","","","","","","","","","",""
"learning-instructions","118","801774","0.0-4.0-0.0-0.0","spark_pilot_norest","8655","8","15","Female","","","","","","","10327.799999999814","<p> This time you are searching for treasure in the <b>canyon</b>.</p>","","instructions","","","","","","","","","","","",""
"learning-instructions","119","820357","0.0-4.0-0.0-0.1","spark_pilot_norest","8655","8","15","Female","","","","","","","1099.7000000001863","<p><b>New</b> animals with <b>new</b> treasure chests live here. You need to explore to discover where the animal with the best treasure chest is.</p>
                    <p> Like before, once you figure out which animal has the chest with the most treasure, you should try to get to that animal and select that chest! </p>","","instructions","","","","","","","","","","","",""
"learning-instructions","120","836744","0.0-4.0-1.0-0.0","spark_pilot_norest","8655","8","15","Female","","","","","","","1650","<p> Remember, when you see a picture of the place, use the up and down keys to <b>find an animal</b>.</p>
            <p> When you encounter an animal, you should use the left and right keys to <b>select a treasure chest</b>.</p>
            <p> Don't forget to look out for the robber! </p>","","instructions","","","","","","","","","","","",""
"revaluation","121","842753","0.0-4.0-2.0-0.0","spark_pilot_norest","8655","8","15","Female","","false","","","","","[955.2000000001863,380.5]","./assets/img/canyon/memory/25.jpg","[""ArrowUp"",""ArrowRight""]","value training","canyon","10","{""ArrowUp,ArrowLeft"":26,""ArrowUp,ArrowRight"":10,""ArrowDown,ArrowLeft"":5,""ArrowDown,ArrowRight"":17}","false","ArrowUp,ArrowRight","false","revaluation","1","0","","",""
"html-keyboard-response","122","843263","0.0-4.0-2.0-1.0","spark_pilot_norest","8655","8","15","Female","","","","","","","null","<div style=""font-size:60px;"">+</div>","null","fixation","","","","","","","","","1","","",""
"revaluation","123","849278","0.0-4.0-2.0-0.1","spark_pilot_norest","8655","8","15","Female","","false","","","","","[550.1000000000931,567.6999999997206]","./assets/img/canyon/memory/22.jpg","[""ArrowDown"",""ArrowRight""]","value training","canyon","17","{""ArrowUp,ArrowLeft"":26,""ArrowUp,ArrowRight"":10,""ArrowDown,ArrowLeft"":5,""ArrowDown,ArrowRight"":17}","false","ArrowDown,ArrowRight","false","revaluation","1","2","","",""
"html-keyboard-response","124","849784","0.0-4.0-2.0-1.1","spark_pilot_norest","8655","8","15","Female","","","","","","","null","<div style=""font-size:60px;"">+</div>","null","fixation","","","","","","","","","3","","",""
"revaluation","125","855804","0.0-4.0-2.0-0.2","spark_pilot_norest","8655","8","15","Female","","false","","","","","[883.5999999996275,990]","./assets/img/canyon/memory/17.jpg","[""ArrowUp"",""ArrowLeft""]","value training","canyon","26","{""ArrowUp,ArrowLeft"":26,""ArrowUp,ArrowRight"":10,""ArrowDown,ArrowLeft"":5,""ArrowDown,ArrowRight"":17}","true","ArrowUp,ArrowLeft","false","revaluation","1","4","","",""
"html-keyboard-response","126","856310","0.0-4.0-2.0-1.2","spark_pilot_norest","8655","8","15","Female","","","","","","","null","<div style=""font-size:60px;"">+</div>","null","fixation","","","","","","","","","5","","",""
"revaluation","127","862335","0.0-4.0-2.0-0.3","spark_pilot_norest","8655","8","15","Female","","false","","","","","[1140.3000000002794,410.10000000009313]","./assets/img/canyon/memory/9.jpg","[""ArrowUp"",""ArrowLeft""]","value training","canyon","26","{""ArrowUp,ArrowLeft"":26,""ArrowUp,ArrowRight"":10,""ArrowDown,ArrowLeft"":5,""ArrowDown,ArrowRight"":17}","true","ArrowUp,ArrowLeft","false","revaluation","1","6","","",""
"html-keyboard-response","128","862841","0.0-4.0-2.0-1.3","spark_pilot_norest","8655","8","15","Female","","","","","","","null","<div style=""font-size:60px;"">+</div>","null","fixation","","","","","","","","","7","","",""
"revaluation","129","868858","0.0-4.0-2.0-0.4","spark_pilot_norest","8655","8","15","Female","","false","","","","","[430.5,395.09999999962747]","./assets/img/canyon/memory/15.jpg","[""ArrowUp"",""ArrowLeft""]","value training","canyon","26","{""ArrowUp,ArrowLeft"":26,""ArrowUp,ArrowRight"":10,""ArrowDown,ArrowLeft"":5,""ArrowDown,ArrowRight"":17}","true","ArrowUp,ArrowLeft","false","revaluation","1","8","","",""
"html-keyboard-response","130","869366","0.0-4.0-2.0-1.4","spark_pilot_norest","8655","8","15","Female","","","","","","","null","<div style=""font-size:60px;"">+</div>","null","fixation","","","","","","","","","9","","",""
"revaluation","131","873381","0.0-4.0-2.0-0.5","spark_pilot_norest","8655","8","15","Female","","false","","","","","[619.3000000002794]","./assets/img/canyon/catch/6.jpg","[""spaceBar""]","value training","canyon","0","{""ArrowUp,ArrowLeft"":26,""ArrowUp,ArrowRight"":10,""ArrowDown,ArrowLeft"":5,""ArrowDown,ArrowRight"":17}","true","spaceBar","true","revaluation","1","10","","",""
"html-keyboard-response","132","873884","0.0-4.0-2.0-1.5","spark_pilot_norest","8655","8","15","Female","","","","","","","null","<div style=""font-size:60px;"">+</div>","null","fixation","","","","","","","","","11","","",""
"revaluation","133","879902","0.0-4.0-2.0-0.6","spark_pilot_norest","8655","8","15","Female","","false","","","","","[983.1000000000931,286.70000000018626]","./assets/img/canyon/memory/1.jpg","[""ArrowDown"",""ArrowRight""]","value training","canyon","17","{""ArrowUp,ArrowLeft"":26,""ArrowUp,ArrowRight"":10,""ArrowDown,ArrowLeft"":5,""ArrowDown,ArrowRight"":17}","false","ArrowDown,ArrowRight","false","revaluation","1","12","","",""
"html-keyboard-response","134","880407","0.0-4.0-2.0-1.6","spark_pilot_norest","8655","8","15","Female","","","","","","","null","<div style=""font-size:60px;"">+</div>","null","fixation","","","","","","","","","13","","",""
"revaluation","135","884424","0.0-4.0-2.0-0.7","spark_pilot_norest","8655","8","15","Female","","false","","","","","[1001.2000000001863]","./assets/img/canyon/catch/1.jpg","[""spaceBar""]","value training","canyon","0","{""ArrowUp,ArrowLeft"":26,""ArrowUp,ArrowRight"":10,""ArrowDown,ArrowLeft"":5,""ArrowDown,ArrowRight"":17}","true","spaceBar","true","revaluation","1","14","","",""
"html-keyboard-response","136","884928","0.0-4.0-2.0-1.7","spark_pilot_norest","8655","8","15","Female","","","","","","","null","<div style=""font-size:60px;"">+</div>","null","fixation","","","","","","","","","15","","",""
"revaluation","137","890939","0.0-4.0-2.0-0.8","spark_pilot_norest","8655","8","15","Female","","false","","","","","[662.5999999996275,364.79999999981374]","./assets/img/canyon/memory/29.jpg","[""ArrowDown"",""ArrowLeft""]","value training","canyon","5","{""ArrowUp,ArrowLeft"":26,""ArrowUp,ArrowRight"":10,""ArrowDown,ArrowLeft"":5,""ArrowDown,ArrowRight"":17}","false","ArrowDown,ArrowLeft","false","revaluation","1","16","","",""
"html-keyboard-response","138","891445","0.0-4.0-2.0-1.8","spark_pilot_norest","8655","8","15","Female","","","","","","","null","<div style=""font-size:60px;"">+</div>","null","fixation","","","","","","","","","17","","",""
"revaluation","139","897464","0.0-4.0-2.0-0.9","spark_pilot_norest","8655","8","15","Female","","false","","","","","[1029.8999999999069,351]","./assets/img/canyon/memory/0.jpg","[""ArrowDown"",""ArrowRight""]","value training","canyon","17","{""ArrowUp,ArrowLeft"":26,""ArrowUp,ArrowRight"":10,""ArrowDown,ArrowLeft"":5,""ArrowDown,ArrowRight"":17}","false","ArrowDown,ArrowRight","false","revaluation","1","18","","",""
"html-keyboard-response","140","897970","0.0-4.0-2.0-1.9","spark_pilot_norest","8655","8","15","Female","","","","","","","null","<div style=""font-size:60px;"">+</div>","null","fixation","","","","","","","","","19","","",""
"revaluation","141","901984","0.0-4.0-2.0-0.10","spark_pilot_norest","8655","8","15","Female","","false","","","","","[731]","./assets/img/canyon/catch/2.jpg","[""spaceBar""]","value training","canyon","0","{""ArrowUp,ArrowLeft"":26,""ArrowUp,ArrowRight"":10,""ArrowDown,ArrowLeft"":5,""ArrowDown,ArrowRight"":17}","true","spaceBar","true","revaluation","1","20","","",""
"html-keyboard-response","142","902492","0.0-4.0-2.0-1.10","spark_pilot_norest","8655","8","15","Female","","","","","","","null","<div style=""font-size:60px;"">+</div>","null","fixation","","","","","","","","","21","","",""
"revaluation","143","908507","0.0-4.0-2.0-0.11","spark_pilot_norest","8655","8","15","Female","","false","","","","","[679.9000000003725,433]","./assets/img/canyon/memory/6.jpg","[""ArrowDown"",""ArrowLeft""]","value training","canyon","5","{""ArrowUp,ArrowLeft"":26,""ArrowUp,ArrowRight"":10,""ArrowDown,ArrowLeft"":5,""ArrowDown,ArrowRight"":17}","false","ArrowDown,ArrowLeft","false","revaluation","1","22","","",""
"html-keyboard-response","144","909012","0.0-4.0-2.0-1.11","spark_pilot_norest","8655","8","15","Female","","","","","","","null","<div style=""font-size:60px;"">+</div>","null","fixation","","","","","","","","","23","","",""
"revaluation","145","915030","0.0-4.0-2.0-0.12","spark_pilot_norest","8655","8","15","Female","","false","","","","","[543.3000000002794,338.5]","./assets/img/canyon/memory/25.jpg","[""ArrowDown"",""ArrowRight""]","value training","canyon","17","{""ArrowUp,ArrowLeft"":26,""ArrowUp,ArrowRight"":10,""ArrowDown,ArrowLeft"":5,""ArrowDown,ArrowRight"":17}","false","ArrowDown,ArrowRight","false","revaluation","1","24","","",""
"html-keyboard-response","146","915536","0.0-4.0-2.0-1.12","spark_pilot_norest","8655","8","15","Female","","","","","","","null","<div style=""font-size:60px;"">+</div>","null","fixation","","","","","","","","","25","","",""
"revaluation","147","921553","0.0-4.0-2.0-0.13","spark_pilot_norest","8655","8","15","Female","","false","","","","","[470.5,885.1000000000931]","./assets/img/canyon/memory/35.jpg","[""ArrowDown"",""ArrowLeft""]","value training","canyon","5","{""ArrowUp,ArrowLeft"":26,""ArrowUp,ArrowRight"":10,""ArrowDown,ArrowLeft"":5,""ArrowDown,ArrowRight"":17}","false","ArrowDown,ArrowLeft","false","revaluation","1","26","","",""
"html-keyboard-response","148","922059","0.0-4.0-2.0-1.13","spark_pilot_norest","8655","8","15","Female","","","","","","","null","<div style=""font-size:60px;"">+</div>","null","fixation","","","","","","","","","27","","",""
"revaluation","149","928081","0.0-4.0-2.0-0.14","spark_pilot_norest","8655","8","15","Female","","false","","","","","[518.3999999999069,364]","./assets/img/canyon/memory/5.jpg","[""ArrowDown"",""ArrowRight""]","value training","canyon","17","{""ArrowUp,ArrowLeft"":26,""ArrowUp,ArrowRight"":10,""ArrowDown,ArrowLeft"":5,""ArrowDown,ArrowRight"":17}","false","ArrowDown,ArrowRight","false","revaluation","1","28","","",""
"html-keyboard-response","150","928586","0.0-4.0-2.0-1.14","spark_pilot_norest","8655","8","15","Female","","","","","","","null","<div style=""font-size:60px;"">+</div>","null","fixation","","","","","","","","","29","","",""
"revaluation","151","934602","0.0-4.0-2.0-0.15","spark_pilot_norest","8655","8","15","Female","","false","","","","","[500.3000000002794,897.2000000001863]","./assets/img/canyon/memory/6.jpg","[""ArrowDown"",""ArrowLeft""]","value training","canyon","5","{""ArrowUp,ArrowLeft"":26,""ArrowUp,ArrowRight"":10,""ArrowDown,ArrowLeft"":5,""ArrowDown,ArrowRight"":17}","false","ArrowDown,ArrowLeft","false","revaluation","1","30","","",""
"html-keyboard-response","152","935107","0.0-4.0-2.0-1.15","spark_pilot_norest","8655","8","15","Female","","","","","","","null","<div style=""font-size:60px;"">+</div>","null","fixation","","","","","","","","","31","","",""
"revaluation","153","941125","0.0-4.0-2.0-0.16","spark_pilot_norest","8655","8","15","Female","","false","","","","","[546.1000000000931,1488.6999999997206]","./assets/img/canyon/memory/19.jpg","[""ArrowDown"",""ArrowRight""]","value training","canyon","17","{""ArrowUp,ArrowLeft"":26,""ArrowUp,ArrowRight"":10,""ArrowDown,ArrowLeft"":5,""ArrowDown,ArrowRight"":17}","false","ArrowDown,ArrowRight","false","revaluation","1","32","","",""
"html-keyboard-response","154","941632","0.0-4.0-2.0-1.16","spark_pilot_norest","8655","8","15","Female","","","","","","","null","<div style=""font-size:60px;"">+</div>","null","fixation","","","","","","","","","33","","",""
"revaluation","155","947653","0.0-4.0-2.0-0.17","spark_pilot_norest","8655","8","15","Female","","false","","","","","[528.7000000001863,444.89999999990687]","./assets/img/canyon/memory/37.jpg","[""ArrowDown"",""ArrowLeft""]","value training","canyon","5","{""ArrowUp,ArrowLeft"":26,""ArrowUp,ArrowRight"":10,""ArrowDown,ArrowLeft"":5,""ArrowDown,ArrowRight"":17}","false","ArrowDown,ArrowLeft","false","revaluation","1","34","","",""
"html-keyboard-response","156","948160","0.0-4.0-2.0-1.17","spark_pilot_norest","8655","8","15","Female","","","","","","","null","<div style=""font-size:60px;"">+</div>","null","fixation","","","","","","","","","35","","",""
"revaluation","157","954181","0.0-4.0-2.0-0.18","spark_pilot_norest","8655","8","15","Female","","false","","","","","[804.1000000000931,356.20000000018626]","./assets/img/canyon/memory/3.jpg","[""ArrowDown"",""ArrowLeft""]","value training","canyon","5","{""ArrowUp,ArrowLeft"":26,""ArrowUp,ArrowRight"":10,""ArrowDown,ArrowLeft"":5,""ArrowDown,ArrowRight"":17}","false","ArrowDown,ArrowLeft","false","revaluation","1","36","","",""
"html-keyboard-response","158","954685","0.0-4.0-2.0-1.18","spark_pilot_norest","8655","8","15","Female","","","","","","","null","<div style=""font-size:60px;"">+</div>","null","fixation","","","","","","","","","37","","",""
"revaluation","159","960700","0.0-4.0-2.0-0.19","spark_pilot_norest","8655","8","15","Female","","false","","","","","[490.90000000037253,703.3999999999069]","./assets/img/canyon/memory/35.jpg","[""ArrowDown"",""ArrowLeft""]","value training","canyon","5","{""ArrowUp,ArrowLeft"":26,""ArrowUp,ArrowRight"":10,""ArrowDown,ArrowLeft"":5,""ArrowDown,ArrowRight"":17}","false","ArrowDown,ArrowLeft","false","revaluation","1","38","","",""
"html-keyboard-response","160","961205","0.0-4.0-2.0-1.19","spark_pilot_norest","8655","8","15","Female","","","","","","","null","<div style=""font-size:60px;"">+</div>","null","fixation","","","","","","","","","39","","",""
"revaluation","161","967222","0.0-4.0-2.0-0.20","spark_pilot_norest","8655","8","15","Female","","false","","","","","[791.1000000000931,351.60000000009313]","./assets/img/canyon/memory/30.jpg","[""ArrowUp"",""ArrowRight""]","value training","canyon","10","{""ArrowUp,ArrowLeft"":26,""ArrowUp,ArrowRight"":10,""ArrowDown,ArrowLeft"":5,""ArrowDown,ArrowRight"":17}","false","ArrowUp,ArrowRight","false","revaluation","1","40","","",""
"html-keyboard-response","162","967726","0.0-4.0-2.0-1.20","spark_pilot_norest","8655","8","15","Female","","","","","","","null","<div style=""font-size:60px;"">+</div>","null","fixation","","","","","","","","","41","","",""
"revaluation","163","973745","0.0-4.0-2.0-0.21","spark_pilot_norest","8655","8","15","Female","","false","","","","","[1516.6999999997206,1437.8999999999069]","./assets/img/canyon/memory/0.jpg","[""ArrowUp"",""ArrowLeft""]","value training","canyon","26","{""ArrowUp,ArrowLeft"":26,""ArrowUp,ArrowRight"":10,""ArrowDown,ArrowLeft"":5,""ArrowDown,ArrowRight"":17}","true","ArrowUp,ArrowLeft","false","revaluation","1","42","","",""
"html-keyboard-response","164","974252","0.0-4.0-2.0-1.21","spark_pilot_norest","8655","8","15","Female","","","","","","","null","<div style=""font-size:60px;"">+</div>","null","fixation","","","","","","","","","43","","",""
"revaluation","165","980279","0.0-4.0-2.0-0.22","spark_pilot_norest","8655","8","15","Female","","true","","","","","[414.20000000018626]","./assets/img/canyon/memory/9.jpg","[""ArrowUp""]","value training","canyon","-5","{""ArrowUp,ArrowLeft"":26,""ArrowUp,ArrowRight"":10,""ArrowDown,ArrowLeft"":5,""ArrowDown,ArrowRight"":17}","false","ArrowUp","false","revaluation","1","44","","",""
"html-keyboard-response","166","980785","0.0-4.0-2.0-1.22","spark_pilot_norest","8655","8","15","Female","","","","","","","null","<div style=""font-size:60px;"">+</div>","null","fixation","","","","","","","","","45","","",""
"revaluation","167","986803","0.0-4.0-2.0-0.23","spark_pilot_norest","8655","8","15","Female","","false","","","","","[600.8999999999069,384.10000000009313]","./assets/img/canyon/memory/22.jpg","[""ArrowUp"",""ArrowLeft""]","value training","canyon","26","{""ArrowUp,ArrowLeft"":26,""ArrowUp,ArrowRight"":10,""ArrowDown,ArrowLeft"":5,""ArrowDown,ArrowRight"":17}","true","ArrowUp,ArrowLeft","false","revaluation","1","46","","",""
"html-keyboard-response","168","987309","0.0-4.0-2.0-1.23","spark_pilot_norest","8655","8","15","Female","","","","","","","null","<div style=""font-size:60px;"">+</div>","null","fixation","","","","","","","","","47","","",""
"revaluation","169","993328","0.0-4.0-2.0-0.24","spark_pilot_norest","8655","8","15","Female","","false","","","","","[676.1000000000931,1246.0999999996275]","./assets/img/canyon/memory/29.jpg","[""ArrowDown"",""ArrowLeft""]","value training","canyon","5","{""ArrowUp,ArrowLeft"":26,""ArrowUp,ArrowRight"":10,""ArrowDown,ArrowLeft"":5,""ArrowDown,ArrowRight"":17}","false","ArrowDown,ArrowLeft","false","revaluation","1","48","","",""
"html-keyboard-response","170","993834","0.0-4.0-2.0-1.24","spark_pilot_norest","8655","8","15","Female","","","","","","","null","<div style=""font-size:60px;"">+</div>","null","fixation","","","","","","","","","49","","",""
"revaluation","171","999853","0.0-4.0-2.0-0.25","spark_pilot_norest","8655","8","15","Female","","false","","","","","[604.1000000000931,368.10000000009313]","./assets/img/canyon/memory/28.jpg","[""ArrowDown"",""ArrowLeft""]","value training","canyon","5","{""ArrowUp,ArrowLeft"":26,""ArrowUp,ArrowRight"":10,""ArrowDown,ArrowLeft"":5,""ArrowDown,ArrowRight"":17}","false","ArrowDown,ArrowLeft","false","revaluation","1","50","","",""
"html-keyboard-response","172","1000359","0.0-4.0-2.0-1.25","spark_pilot_norest","8655","8","15","Female","","","","","","","null","<div style=""font-size:60px;"">+</div>","null","fixation","","","","","","","","","51","","",""
"revaluation","173","1004377","0.0-4.0-2.0-0.26","spark_pilot_norest","8655","8","15","Female","","false","","","","","[1440.5]","./assets/img/canyon/catch/5.jpg","[""ArrowDown""]","value training","canyon","-10","{""ArrowUp,ArrowLeft"":26,""ArrowUp,ArrowRight"":10,""ArrowDown,ArrowLeft"":5,""ArrowDown,ArrowRight"":17}","false","ArrowDown","true","revaluation","1","52","","",""
"html-keyboard-response","174","1004883","0.0-4.0-2.0-1.26","spark_pilot_norest","8655","8","15","Female","","","","","","","null","<div style=""font-size:60px;"">+</div>","null","fixation","","","","","","","","","53","","",""
"revaluation","175","1010905","0.0-4.0-2.0-0.27","spark_pilot_norest","8655","8","15","Female","","false","","","","","[1025.8999999999069,709.1999999997206]","./assets/img/canyon/memory/17.jpg","[""ArrowUp"",""ArrowLeft""]","value training","canyon","26","{""ArrowUp,ArrowLeft"":26,""ArrowUp,ArrowRight"":10,""ArrowDown,ArrowLeft"":5,""ArrowDown,ArrowRight"":17}","true","ArrowUp,ArrowLeft","false","revaluation","1","54","","",""
"html-keyboard-response","176","1011412","0.0-4.0-2.0-1.27","spark_pilot_norest","8655","8","15","Female","","","","","","","null","<div style=""font-size:60px;"">+</div>","null","fixation","","","","","","","","","55","","",""
"revaluation","177","1015432","0.0-4.0-2.0-0.28","spark_pilot_norest","8655","8","15","Female","","true","","","","","[]","./assets/img/canyon/memory/19.jpg","[]","value training","canyon","-5","{""ArrowUp,ArrowLeft"":26,""ArrowUp,ArrowRight"":10,""ArrowDown,ArrowLeft"":5,""ArrowDown,ArrowRight"":17}","false","","false","revaluation","1","56","","",""
"html-keyboard-response","178","1015938","0.0-4.0-2.0-1.28","spark_pilot_norest","8655","8","15","Female","","","","","","","null","<div style=""font-size:60px;"">+</div>","null","fixation","","","","","","","","","57","","",""
"revaluation","179","1021952","0.0-4.0-2.0-0.29","spark_pilot_norest","8655","8","15","Female","","false","","","","","[1357.2000000001863,1341.8999999999069]","./assets/img/canyon/memory/4.jpg","[""ArrowUp"",""ArrowLeft""]","value training","canyon","26","{""ArrowUp,ArrowLeft"":26,""ArrowUp,ArrowRight"":10,""ArrowDown,ArrowLeft"":5,""ArrowDown,ArrowRight"":17}","true","ArrowUp,ArrowLeft","false","revaluation","1","58","","",""
"html-keyboard-response","180","1022458","0.0-4.0-2.0-1.29","spark_pilot_norest","8655","8","15","Female","","","","","","","null","<div style=""font-size:60px;"">+</div>","null","fixation","","","","","","","","","59","","",""
"revaluation","181","1028475","0.0-4.0-2.0-0.30","spark_pilot_norest","8655","8","15","Female","","false","","","","","[1610.2000000001863,864.8999999999069]","./assets/img/canyon/memory/5.jpg","[""ArrowDown"",""ArrowLeft""]","value training","canyon","5","{""ArrowUp,ArrowLeft"":26,""ArrowUp,ArrowRight"":10,""ArrowDown,ArrowLeft"":5,""ArrowDown,ArrowRight"":17}","false","ArrowDown,ArrowLeft","false","revaluation","1","60","","",""
"html-keyboard-response","182","1028982","0.0-4.0-2.0-1.30","spark_pilot_norest","8655","8","15","Female","","","","","","","null","<div style=""font-size:60px;"">+</div>","null","fixation","","","","","","","","","61","","",""
"revaluation","183","1035000","0.0-4.0-2.0-0.31","spark_pilot_norest","8655","8","15","Female","","false","","","","","[422.60000000009313,582.6000000000931]","./assets/img/canyon/memory/37.jpg","[""ArrowDown"",""ArrowLeft""]","value training","canyon","5","{""ArrowUp,ArrowLeft"":26,""ArrowUp,ArrowRight"":10,""ArrowDown,ArrowLeft"":5,""ArrowDown,ArrowRight"":17}","false","ArrowDown,ArrowLeft","false","revaluation","1","62","","",""
"html-keyboard-response","184","1035505","0.0-4.0-2.0-1.31","spark_pilot_norest","8655","8","15","Female","","","","","","","null","<div style=""font-size:60px;"">+</div>","null","fixation","","","","","","","","","63","","",""
"revaluation","185","1041527","0.0-4.0-2.0-0.32","spark_pilot_norest","8655","8","15","Female","","false","","","","","[297.60000000009313,470.70000000018626]","./assets/img/canyon/memory/3.jpg","[""ArrowDown"",""ArrowLeft""]","value training","canyon","5","{""ArrowUp,ArrowLeft"":26,""ArrowUp,ArrowRight"":10,""ArrowDown,ArrowLeft"":5,""ArrowDown,ArrowRight"":17}","false","ArrowDown,ArrowLeft","false","revaluation","1","64","","",""
"html-keyboard-response","186","1042035","0.0-4.0-2.0-1.32","spark_pilot_norest","8655","8","15","Female","","","","","","","null","<div style=""font-size:60px;"">+</div>","null","fixation","","","","","","","","","65","","",""
"revaluation","187","1048054","0.0-4.0-2.0-0.33","spark_pilot_norest","8655","8","15","Female","","false","","","","","[758.5,460.5]","./assets/img/canyon/memory/30.jpg","[""ArrowDown"",""ArrowLeft""]","value training","canyon","5","{""ArrowUp,ArrowLeft"":26,""ArrowUp,ArrowRight"":10,""ArrowDown,ArrowLeft"":5,""ArrowDown,ArrowRight"":17}","false","ArrowDown,ArrowLeft","false","revaluation","1","66","","",""
"html-keyboard-response","188","1048558","0.0-4.0-2.0-1.33","spark_pilot_norest","8655","8","15","Female","","","","","","","null","<div style=""font-size:60px;"">+</div>","null","fixation","","","","","","","","","67","","",""
"revaluation","189","1054578","0.0-4.0-2.0-0.34","spark_pilot_norest","8655","8","15","Female","","true","","","","","[466.6999999997206]","./assets/img/canyon/memory/4.jpg","[""ArrowDown""]","value training","canyon","-5","{""ArrowUp,ArrowLeft"":26,""ArrowUp,ArrowRight"":10,""ArrowDown,ArrowLeft"":5,""ArrowDown,ArrowRight"":17}","false","ArrowDown","false","revaluation","1","68","","",""
"html-keyboard-response","190","1055084","0.0-4.0-2.0-1.34","spark_pilot_norest","8655","8","15","Female","","","","","","","null","<div style=""font-size:60px;"">+</div>","null","fixation","","","","","","","","","69","","",""
"revaluation","191","1061108","0.0-4.0-2.0-0.35","spark_pilot_norest","8655","8","15","Female","","false","","","","","[308.60000000009313,544]","./assets/img/canyon/memory/40.jpg","[""ArrowDown"",""ArrowRight""]","value training","canyon","17","{""ArrowUp,ArrowLeft"":26,""ArrowUp,ArrowRight"":10,""ArrowDown,ArrowLeft"":5,""ArrowDown,ArrowRight"":17}","false","ArrowDown,ArrowRight","false","revaluation","1","70","","",""
"html-keyboard-response","192","1061613","0.0-4.0-2.0-1.35","spark_pilot_norest","8655","8","15","Female","","","","","","","null","<div style=""font-size:60px;"">+</div>","null","fixation","","","","","","","","","71","","",""
"revaluation","193","1067629","0.0-4.0-2.0-0.36","spark_pilot_norest","8655","8","15","Female","","false","","","","","[599.3999999999069,647.3000000002794]","./assets/img/canyon/memory/14.jpg","[""ArrowDown"",""ArrowLeft""]","value training","canyon","5","{""ArrowUp,ArrowLeft"":26,""ArrowUp,ArrowRight"":10,""ArrowDown,ArrowLeft"":5,""ArrowDown,ArrowRight"":17}","false","ArrowDown,ArrowLeft","false","revaluation","1","72","","",""
"html-keyboard-response","194","1068135","0.0-4.0-2.0-1.36","spark_pilot_norest","8655","8","15","Female","","","","","","","null","<div style=""font-size:60px;"">+</div>","null","fixation","","","","","","","","","73","","",""
"revaluation","195","1072151","0.0-4.0-2.0-0.37","spark_pilot_norest","8655","8","15","Female","","false","","","","","[243.5]","./assets/img/canyon/catch/4.jpg","[""ArrowDown""]","value training","canyon","-10","{""ArrowUp,ArrowLeft"":26,""ArrowUp,ArrowRight"":10,""ArrowDown,ArrowLeft"":5,""ArrowDown,ArrowRight"":17}","false","ArrowDown","true","revaluation","1","74","","",""
"html-keyboard-response","196","1072656","0.0-4.0-2.0-1.37","spark_pilot_norest","8655","8","15","Female","","","","","","","null","<div style=""font-size:60px;"">+</div>","null","fixation","","","","","","","","","75","","",""
"revaluation","197","1078676","0.0-4.0-2.0-0.38","spark_pilot_norest","8655","8","15","Female","","false","","","","","[208,441.10000000009313]","./assets/img/canyon/memory/32.jpg","[""ArrowDown"",""ArrowRight""]","value training","canyon","17","{""ArrowUp,ArrowLeft"":26,""ArrowUp,ArrowRight"":10,""ArrowDown,ArrowLeft"":5,""ArrowDown,ArrowRight"":17}","false","ArrowDown,ArrowRight","false","revaluation","1","76","","",""
"html-keyboard-response","198","1079181","0.0-4.0-2.0-1.38","spark_pilot_norest","8655","8","15","Female","","","","","","","null","<div style=""font-size:60px;"">+</div>","null","fixation","","","","","","","","","77","","",""
"revaluation","199","1083201","0.0-4.0-2.0-0.39","spark_pilot_norest","8655","8","15","Female","","false","","","","","[489.20000000018626]","./assets/img/canyon/catch/7.jpg","[""ArrowDown""]","value training","canyon","-10","{""ArrowUp,ArrowLeft"":26,""ArrowUp,ArrowRight"":10,""ArrowDown,ArrowLeft"":5,""ArrowDown,ArrowRight"":17}","false","ArrowDown","true","revaluation","1","78","","",""
"html-keyboard-response","200","1083704","0.0-4.0-2.0-1.39","spark_pilot_norest","8655","8","15","Female","","","","","","","null","<div style=""font-size:60px;"">+</div>","null","fixation","","","","","","","","","79","","",""
"revaluation","201","1089717","0.0-4.0-2.0-0.40","spark_pilot_norest","8655","8","15","Female","","false","","","","","[555.5,1854.6000000000931]","./assets/img/canyon/memory/14.jpg","[""ArrowUp"",""ArrowLeft""]","value training","canyon","26","{""ArrowUp,ArrowLeft"":26,""ArrowUp,ArrowRight"":10,""ArrowDown,ArrowLeft"":5,""ArrowDown,ArrowRight"":17}","true","ArrowUp,ArrowLeft","false","revaluation","1","80","","",""
"html-keyboard-response","202","1090221","0.0-4.0-2.0-1.40","spark_pilot_norest","8655","8","15","Female","","","","","","","null","<div style=""font-size:60px;"">+</div>","null","fixation","","","","","","","","","81","","",""
"revaluation","203","1096243","0.0-4.0-2.0-0.41","spark_pilot_norest","8655","8","15","Female","","false","","","","","[1364.2999999998137,562.3999999999069]","./assets/img/canyon/memory/40.jpg","[""ArrowDown"",""ArrowRight""]","value training","canyon","17","{""ArrowUp,ArrowLeft"":26,""ArrowUp,ArrowRight"":10,""ArrowDown,ArrowLeft"":5,""ArrowDown,ArrowRight"":17}","false","ArrowDown,ArrowRight","false","revaluation","1","82","","",""
"html-keyboard-response","204","1096749","0.0-4.0-2.0-1.41","spark_pilot_norest","8655","8","15","Female","","","","","","","null","<div style=""font-size:60px;"">+</div>","null","fixation","","","","","","","","","83","","",""
"revaluation","205","1102766","0.0-4.0-2.0-0.42","spark_pilot_norest","8655","8","15","Female","","false","","","","","[332.5,568.6000000000931]","./assets/img/canyon/memory/28.jpg","[""ArrowUp"",""ArrowLeft""]","value training","canyon","26","{""ArrowUp,ArrowLeft"":26,""ArrowUp,ArrowRight"":10,""ArrowDown,ArrowLeft"":5,""ArrowDown,ArrowRight"":17}","true","ArrowUp,ArrowLeft","false","revaluation","1","84","","",""
"html-keyboard-response","206","1103273","0.0-4.0-2.0-1.42","spark_pilot_norest","8655","8","15","Female","","","","","","","null","<div style=""font-size:60px;"">+</div>","null","fixation","","","","","","","","","85","","",""
"revaluation","207","1109294","0.0-4.0-2.0-0.43","spark_pilot_norest","8655","8","15","Female","","false","","","","","[895.6000000000931,450.70000000018626]","./assets/img/canyon/memory/21.jpg","[""ArrowDown"",""ArrowRight""]","value training","canyon","17","{""ArrowUp,ArrowLeft"":26,""ArrowUp,ArrowRight"":10,""ArrowDown,ArrowLeft"":5,""ArrowDown,ArrowRight"":17}","false","ArrowDown,ArrowRight","false","revaluation","1","86","","",""
"html-keyboard-response","208","1109801","0.0-4.0-2.0-1.43","spark_pilot_norest","8655","8","15","Female","","","","","","","null","<div style=""font-size:60px;"">+</div>","null","fixation","","","","","","","","","87","","",""
"revaluation","209","1115825","0.0-4.0-2.0-0.44","spark_pilot_norest","8655","8","15","Female","","false","","","","","[596,311.70000000018626]","./assets/img/canyon/memory/1.jpg","[""ArrowUp"",""ArrowLeft""]","value training","canyon","26","{""ArrowUp,ArrowLeft"":26,""ArrowUp,ArrowRight"":10,""ArrowDown,ArrowLeft"":5,""ArrowDown,ArrowRight"":17}","true","ArrowUp,ArrowLeft","false","revaluation","1","88","","",""
"html-keyboard-response","210","1116330","0.0-4.0-2.0-1.44","spark_pilot_norest","8655","8","15","Female","","","","","","","null","<div style=""font-size:60px;"">+</div>","null","fixation","","","","","","","","","89","","",""
"revaluation","211","1122347","0.0-4.0-2.0-0.45","spark_pilot_norest","8655","8","15","Female","","false","","","","","[726.3000000002794,443.10000000009313]","./assets/img/canyon/memory/21.jpg","[""ArrowDown"",""ArrowRight""]","value training","canyon","17","{""ArrowUp,ArrowLeft"":26,""ArrowUp,ArrowRight"":10,""ArrowDown,ArrowLeft"":5,""ArrowDown,ArrowRight"":17}","false","ArrowDown,ArrowRight","false","revaluation","1","90","","",""
"html-keyboard-response","212","1122852","0.0-4.0-2.0-1.45","spark_pilot_norest","8655","8","15","Female","","","","","","","null","<div style=""font-size:60px;"">+</div>","null","fixation","","","","","","","","","91","","",""
"revaluation","213","1126869","0.0-4.0-2.0-0.46","spark_pilot_norest","8655","8","15","Female","","false","","","","","[1342.7000000001863]","./assets/img/canyon/catch/3.jpg","[""spaceBar""]","value training","canyon","0","{""ArrowUp,ArrowLeft"":26,""ArrowUp,ArrowRight"":10,""ArrowDown,ArrowLeft"":5,""ArrowDown,ArrowRight"":17}","true","spaceBar","true","revaluation","1","92","","",""
"html-keyboard-response","214","1127373","0.0-4.0-2.0-1.46","spark_pilot_norest","8655","8","15","Female","","","","","","","null","<div style=""font-size:60px;"">+</div>","null","fixation","","","","","","","","","93","","",""
"revaluation","215","1133388","0.0-4.0-2.0-0.47","spark_pilot_norest","8655","8","15","Female","","false","","","","","[889.3999999999069,439.6999999997206]","./assets/img/canyon/memory/15.jpg","[""ArrowDown"",""ArrowLeft""]","value training","canyon","5","{""ArrowUp,ArrowLeft"":26,""ArrowUp,ArrowRight"":10,""ArrowDown,ArrowLeft"":5,""ArrowDown,ArrowRight"":17}","false","ArrowDown,ArrowLeft","false","revaluation","1","94","","",""
"html-keyboard-response","216","1133895","0.0-4.0-2.0-1.47","spark_pilot_norest","8655","8","15","Female","","","","","","","null","<div style=""font-size:60px;"">+</div>","null","fixation","","","","","","","","","95","","",""
"revaluation","217","1137915","0.0-4.0-2.0-0.48","spark_pilot_norest","8655","8","15","Female","","false","","","","","[735.5]","./assets/img/canyon/catch/0.jpg","[""spaceBar""]","value training","canyon","0","{""ArrowUp,ArrowLeft"":26,""ArrowUp,ArrowRight"":10,""ArrowDown,ArrowLeft"":5,""ArrowDown,ArrowRight"":17}","true","spaceBar","true","revaluation","1","96","","",""
"html-keyboard-response","218","1138422","0.0-4.0-2.0-1.48","spark_pilot_norest","8655","8","15","Female","","","","","","","null","<div style=""font-size:60px;"">+</div>","null","fixation","","","","","","","","","97","","",""
"revaluation","219","1144441","0.0-4.0-2.0-0.49","spark_pilot_norest","8655","8","15","Female","","false","","","","","[1044.1000000000931,549.6000000000931]","./assets/img/canyon/memory/32.jpg","[""ArrowDown"",""ArrowRight""]","value training","canyon","17","{""ArrowUp,ArrowLeft"":26,""ArrowUp,ArrowRight"":10,""ArrowDown,ArrowLeft"":5,""ArrowDown,ArrowRight"":17}","false","ArrowDown,ArrowRight","false","revaluation","1","98","","",""
"html-keyboard-response","220","1144947","0.0-4.0-2.0-1.49","spark_pilot_norest","8655","8","15","Female","","","","","","","null","<div style=""font-size:60px;"">+</div>","null","fixation","","","","","","","","","99","","",""
"learning-instructions","221","1160353","0.0-4.0-3.0-0.0","spark_pilot_norest","8655","8","15","Female","","","","","","","2479.0999999996275","<p> Now, you will travel with a friend who will choose whether you go up or down first. </p>
            <p> On these turns, you will just see the animal that they found. You will still get to choose which chest to search for treasure.</p>","","instructions","","","","","","","","","","","",""
"revaluation","222","1164368","0.0-4.0-4.0-0.0","spark_pilot_norest","8655","8","15","Female","","false","","","","","[854.7000000001863]","./assets/img/canyon/animals/lion.jpg","[""ArrowRight""]","revaluation","canyon","27","{""ArrowUp,ArrowLeft"":2,""ArrowUp,ArrowRight"":11,""ArrowDown,ArrowLeft"":8,""ArrowDown,ArrowRight"":27}","true","ArrowDown,ArrowRight","","revaluation","1","0","","",""
"html-keyboard-response","223","1164883","0.0-4.0-4.0-1.0","spark_pilot_norest","8655","8","15","Female","","","","","","","null","<div style=""font-size:60px;"">+</div>","null","fixation","","","","","","","","","1","","",""
"revaluation","224","1168902","0.0-4.0-4.0-0.1","spark_pilot_norest","8655","8","15","Female","","false","","","","","[434.59999999962747]","./assets/img/canyon/animals/giraffe.jpg","[""ArrowRight""]","revaluation","canyon","11","{""ArrowUp,ArrowLeft"":2,""ArrowUp,ArrowRight"":11,""ArrowDown,ArrowLeft"":8,""ArrowDown,ArrowRight"":27}","true","ArrowUp,ArrowRight","","revaluation","1","2","","",""
"html-keyboard-response","225","1169405","0.0-4.0-4.0-1.1","spark_pilot_norest","8655","8","15","Female","","","","","","","null","<div style=""font-size:60px;"">+</div>","null","fixation","","","","","","","","","3","","",""
"revaluation","226","1173423","0.0-4.0-4.0-0.2","spark_pilot_norest","8655","8","15","Female","","false","","","","","[396.5]","./assets/img/canyon/animals/lion.jpg","[""ArrowRight""]","revaluation","canyon","27","{""ArrowUp,ArrowLeft"":2,""ArrowUp,ArrowRight"":11,""ArrowDown,ArrowLeft"":8,""ArrowDown,ArrowRight"":27}","true","ArrowDown,ArrowRight","","revaluation","1","4","","",""
"html-keyboard-response","227","1173927","0.0-4.0-4.0-1.2","spark_pilot_norest","8655","8","15","Female","","","","","","","null","<div style=""font-size:60px;"">+</div>","null","fixation","","","","","","","","","5","","",""
"revaluation","228","1177939","0.0-4.0-4.0-0.3","spark_pilot_norest","8655","8","15","Female","","false","","","","","[399.6999999997206]","./assets/img/canyon/animals/lion.jpg","[""ArrowRight""]","revaluation","canyon","27","{""ArrowUp,ArrowLeft"":2,""ArrowUp,ArrowRight"":11,""ArrowDown,ArrowLeft"":8,""ArrowDown,ArrowRight"":27}","true","ArrowDown,ArrowRight","","revaluation","1","6","","",""
"html-keyboard-response","229","1178442","0.0-4.0-4.0-1.3","spark_pilot_norest","8655","8","15","Female","","","","","","","null","<div style=""font-size:60px;"">+</div>","null","fixation","","","","","","","","","7","","",""
"revaluation","230","1182462","0.0-4.0-4.0-0.4","spark_pilot_norest","8655","8","15","Female","","false","","","","","[287.3000000002794]","./assets/img/canyon/animals/giraffe.jpg","[""ArrowRight""]","revaluation","canyon","11","{""ArrowUp,ArrowLeft"":2,""ArrowUp,ArrowRight"":11,""ArrowDown,ArrowLeft"":8,""ArrowDown,ArrowRight"":27}","true","ArrowUp,ArrowRight","","revaluation","1","8","","",""
"html-keyboard-response","231","1182968","0.0-4.0-4.0-1.4","spark_pilot_norest","8655","8","15","Female","","","","","","","null","<div style=""font-size:60px;"">+</div>","null","fixation","","","","","","","","","9","","",""
"revaluation","232","1186984","0.0-4.0-4.0-0.5","spark_pilot_norest","8655","8","15","Female","","false","","","","","[293]","./assets/img/canyon/animals/lion.jpg","[""ArrowLeft""]","revaluation","canyon","8","{""ArrowUp,ArrowLeft"":2,""ArrowUp,ArrowRight"":11,""ArrowDown,ArrowLeft"":8,""ArrowDown,ArrowRight"":27}","false","ArrowDown,ArrowLeft","","revaluation","1","10","","",""
"html-keyboard-response","233","1187490","0.0-4.0-4.0-1.5","spark_pilot_norest","8655","8","15","Female","","","","","","","null","<div style=""font-size:60px;"">+</div>","null","fixation","","","","","","","","","11","","",""
"revaluation","234","1191503","0.0-4.0-4.0-0.6","spark_pilot_norest","8655","8","15","Female","","false","","","","","[335.5]","./assets/img/canyon/animals/lion.jpg","[""ArrowRight""]","revaluation","canyon","27","{""ArrowUp,ArrowLeft"":2,""ArrowUp,ArrowRight"":11,""ArrowDown,ArrowLeft"":8,""ArrowDown,ArrowRight"":27}","true","ArrowDown,ArrowRight","","revaluation","1","12","","",""
"html-keyboard-response","235","1192006","0.0-4.0-4.0-1.6","spark_pilot_norest","8655","8","15","Female","","","","","","","null","<div style=""font-size:60px;"">+</div>","null","fixation","","","","","","","","","13","","",""
"revaluation","236","1196025","0.0-4.0-4.0-0.7","spark_pilot_norest","8655","8","15","Female","","false","","","","","[371.39999999990687]","./assets/img/canyon/animals/giraffe.jpg","[""ArrowRight""]","revaluation","canyon","11","{""ArrowUp,ArrowLeft"":2,""ArrowUp,ArrowRight"":11,""ArrowDown,ArrowLeft"":8,""ArrowDown,ArrowRight"":27}","true","ArrowUp,ArrowRight","","revaluation","1","14","","",""
"html-keyboard-response","237","1196531","0.0-4.0-4.0-1.7","spark_pilot_norest","8655","8","15","Female","","","","","","","null","<div style=""font-size:60px;"">+</div>","null","fixation","","","","","","","","","15","","",""
"revaluation","238","1200549","0.0-4.0-4.0-0.8","spark_pilot_norest","8655","8","15","Female","","false","","","","","[400]","./assets/img/canyon/animals/giraffe.jpg","[""ArrowRight""]","revaluation","canyon","11","{""ArrowUp,ArrowLeft"":2,""ArrowUp,ArrowRight"":11,""ArrowDown,ArrowLeft"":8,""ArrowDown,ArrowRight"":27}","true","ArrowUp,ArrowRight","","revaluation","1","16","","",""
"html-keyboard-response","239","1201056","0.0-4.0-4.0-1.8","spark_pilot_norest","8655","8","15","Female","","","","","","","null","<div style=""font-size:60px;"">+</div>","null","fixation","","","","","","","","","17","","",""
"revaluation","240","1205072","0.0-4.0-4.0-0.9","spark_pilot_norest","8655","8","15","Female","","false","","","","","[306.5]","./assets/img/canyon/animals/giraffe.jpg","[""ArrowRight""]","revaluation","canyon","11","{""ArrowUp,ArrowLeft"":2,""ArrowUp,ArrowRight"":11,""ArrowDown,ArrowLeft"":8,""ArrowDown,ArrowRight"":27}","true","ArrowUp,ArrowRight","","revaluation","1","18","","",""
"html-keyboard-response","241","1205577","0.0-4.0-4.0-1.9","spark_pilot_norest","8655","8","15","Female","","","","","","","null","<div style=""font-size:60px;"">+</div>","null","fixation","","","","","","","","","19","","",""
"revaluation","242","1209600","0.0-4.0-4.0-0.10","spark_pilot_norest","8655","8","15","Female","","false","","","","","[311.70000000018626]","./assets/img/canyon/animals/giraffe.jpg","[""ArrowLeft""]","revaluation","canyon","2","{""ArrowUp,ArrowLeft"":2,""ArrowUp,ArrowRight"":11,""ArrowDown,ArrowLeft"":8,""ArrowDown,ArrowRight"":27}","false","ArrowUp,ArrowLeft","","revaluation","1","20","","",""
"html-keyboard-response","243","1210108","0.0-4.0-4.0-1.10","spark_pilot_norest","8655","8","15","Female","","","","","","","null","<div style=""font-size:60px;"">+</div>","null","fixation","","","","","","","","","21","","",""
"revaluation","244","1214124","0.0-4.0-4.0-0.11","spark_pilot_norest","8655","8","15","Female","","false","","","","","[61]","./assets/img/canyon/animals/lion.jpg","[""ArrowRight""]","revaluation","canyon","27","{""ArrowUp,ArrowLeft"":2,""ArrowUp,ArrowRight"":11,""ArrowDown,ArrowLeft"":8,""ArrowDown,ArrowRight"":27}","true","ArrowDown,ArrowRight","","revaluation","1","22","","",""
"html-keyboard-response","245","1214629","0.0-4.0-4.0-1.11","spark_pilot_norest","8655","8","15","Female","","","","","","","null","<div style=""font-size:60px;"">+</div>","null","fixation","","","","","","","","","23","","",""
"revaluation","246","1218650","0.0-4.0-4.0-0.12","spark_pilot_norest","8655","8","15","Female","","true","","","","","[]","./assets/img/canyon/animals/giraffe.jpg","[]","revaluation","canyon","-5","{""ArrowUp,ArrowLeft"":2,""ArrowUp,ArrowRight"":11,""ArrowDown,ArrowLeft"":8,""ArrowDown,ArrowRight"":27}","false","ArrowUp","","revaluation","1","24","","",""
"html-keyboard-response","247","1219154","0.0-4.0-4.0-1.12","spark_pilot_norest","8655","8","15","Female","","","","","","","null","<div style=""font-size:60px;"">+</div>","null","fixation","","","","","","","","","25","","",""
"revaluation","248","1223173","0.0-4.0-4.0-0.13","spark_pilot_norest","8655","8","15","Female","","false","","","","","[456.3000000002794]","./assets/img/canyon/animals/lion.jpg","[""ArrowRight""]","revaluation","canyon","27","{""ArrowUp,ArrowLeft"":2,""ArrowUp,ArrowRight"":11,""ArrowDown,ArrowLeft"":8,""ArrowDown,ArrowRight"":27}","true","ArrowDown,ArrowRight","","revaluation","1","26","","",""
"html-keyboard-response","249","1223677","0.0-4.0-4.0-1.13","spark_pilot_norest","8655","8","15","Female","","","","","","","null","<div style=""font-size:60px;"">+</div>","null","fixation","","","","","","","","","27","","",""
"revaluation","250","1227691","0.0-4.0-4.0-0.14","spark_pilot_norest","8655","8","15","Female","","false","","","","","[361.90000000037253]","./assets/img/canyon/animals/giraffe.jpg","[""ArrowRight""]","revaluation","canyon","11","{""ArrowUp,ArrowLeft"":2,""ArrowUp,ArrowRight"":11,""ArrowDown,ArrowLeft"":8,""ArrowDown,ArrowRight"":27}","true","ArrowUp,ArrowRight","","revaluation","1","28","","",""
"html-keyboard-response","251","1228196","0.0-4.0-4.0-1.14","spark_pilot_norest","8655","8","15","Female","","","","","","","null","<div style=""font-size:60px;"">+</div>","null","fixation","","","","","","","","","29","","",""
"revaluation","252","1232218","0.0-4.0-4.0-0.15","spark_pilot_norest","8655","8","15","Female","","false","","","","","[396.89999999990687]","./assets/img/canyon/animals/giraffe.jpg","[""ArrowLeft""]","revaluation","canyon","2","{""ArrowUp,ArrowLeft"":2,""ArrowUp,ArrowRight"":11,""ArrowDown,ArrowLeft"":8,""ArrowDown,ArrowRight"":27}","false","ArrowUp,ArrowLeft","","revaluation","1","30","","",""
"html-keyboard-response","253","1232725","0.0-4.0-4.0-1.15","spark_pilot_norest","8655","8","15","Female","","","","","","","null","<div style=""font-size:60px;"">+</div>","null","fixation","","","","","","","","","31","","",""
"revaluation","254","1236746","0.0-4.0-4.0-0.16","spark_pilot_norest","8655","8","15","Female","","false","","","","","[316.60000000009313]","./assets/img/canyon/animals/lion.jpg","[""ArrowRight""]","revaluation","canyon","27","{""ArrowUp,ArrowLeft"":2,""ArrowUp,ArrowRight"":11,""ArrowDown,ArrowLeft"":8,""ArrowDown,ArrowRight"":27}","true","ArrowDown,ArrowRight","","revaluation","1","32","","",""
"html-keyboard-response","255","1237253","0.0-4.0-4.0-1.16","spark_pilot_norest","8655","8","15","Female","","","","","","","null","<div style=""font-size:60px;"">+</div>","null","fixation","","","","","","","","","33","","",""
"revaluation","256","1241273","0.0-4.0-4.0-0.17","spark_pilot_norest","8655","8","15","Female","","false","","","","","[642.7000000001863]","./assets/img/canyon/animals/lion.jpg","[""ArrowRight""]","revaluation","canyon","27","{""ArrowUp,ArrowLeft"":2,""ArrowUp,ArrowRight"":11,""ArrowDown,ArrowLeft"":8,""ArrowDown,ArrowRight"":27}","true","ArrowDown,ArrowRight","","revaluation","1","34","","",""
"html-keyboard-response","257","1241779","0.0-4.0-4.0-1.17","spark_pilot_norest","8655","8","15","Female","","","","","","","null","<div style=""font-size:60px;"">+</div>","null","fixation","","","","","","","","","35","","",""
"learning-instructions","258","1249920","0.0-4.0-5.0-0.0","spark_pilot_norest","8655","8","15","Female","","","","","","","null","<p> You have almost finished this part of the game! </p>
            <p> We are going to ask you to make a few more choices. </p>","","instructions","","","","","","","","","","","",""
"learning-instructions","259","1265897","0.0-4.0-5.0-0.1","spark_pilot_norest","8655","8","15","Female","","","","","","","null","<p> First, you need to decide whether to go up or down. When you see each picture, use the arrow keys to make your choice. </p>
            <p><b>You will not see which animal you found, but try to get to the one that will give you the most treasure.</b></p>","","instructions","","","","","","","","","","","",""
"html-keyboard-response","260","1266903","0.0-4.0-6.0-0.0","spark_pilot_norest","8655","8","15","Female","","","","","","","null","<div style=""font-size:100px;color:red;"">Starting in...</div>","null","","","","","","","","","","","","",""
"html-keyboard-response","261","1267907","0.0-4.0-6.0-1.0","spark_pilot_norest","8655","8","15","Female","","","","","","","null","<div style=""font-size:200px;color:red;"">3</div>","null","","","","","","","","","","","","",""
"html-keyboard-response","262","1268911","0.0-4.0-6.0-2.0","spark_pilot_norest","8655","8","15","Female","","","","","","","null","<div style=""font-size:200px;color:red;"">2</div>","null","","","","","","","","","","","","",""
"html-keyboard-response","263","1269916","0.0-4.0-6.0-3.0","spark_pilot_norest","8655","8","15","Female","","","","","","","null","<div style=""font-size:200px;color:red;"">1</div>","null","","","","","","","","","","","","",""
"revaluation","264","1270321","0.0-4.0-7.0-0.0","spark_pilot_norest","8655","8","15","Female","","false","","","","","[384.90000000037253]","./assets/img/canyon/test/1.jpg","[""ArrowUp""]","first stage test","canyon","0","{""ArrowUp,ArrowLeft"":2,""ArrowUp,ArrowRight"":11,""ArrowDown,ArrowLeft"":8,""ArrowDown,ArrowRight"":27}","false","ArrowUp","false","revaluation","1","","","",""
"html-keyboard-response","265","1270827","0.0-4.0-7.0-1.0","spark_pilot_norest","8655","8","15","Female","","","","","","","null","<div style=""font-size:60px;"">+</div>","null","fixation","","","","","","","","","","","",""
"revaluation","266","1271509","0.0-4.0-7.0-0.1","spark_pilot_norest","8655","8","15","Female","","false","","","","","[664.7999999998137]","./assets/img/canyon/test/0.jpg","[""ArrowUp""]","first stage test","canyon","0","{""ArrowUp,ArrowLeft"":2,""ArrowUp,ArrowRight"":11,""ArrowDown,ArrowLeft"":8,""ArrowDown,ArrowRight"":27}","false","ArrowUp","false","revaluation","1","","","",""
"html-keyboard-response","267","1272014","0.0-4.0-7.0-1.1","spark_pilot_norest","8655","8","15","Female","","","","","","","null","<div style=""font-size:60px;"">+</div>","null","fixation","","","","","","","","","","","",""
"revaluation","268","1272448","0.0-4.0-7.0-0.2","spark_pilot_norest","8655","8","15","Female","","false","","","","","[418.39999999990687]","./assets/img/canyon/test/2.jpg","[""ArrowDown""]","first stage test","canyon","0","{""ArrowUp,ArrowLeft"":2,""ArrowUp,ArrowRight"":11,""ArrowDown,ArrowLeft"":8,""ArrowDown,ArrowRight"":27}","true","ArrowDown","false","revaluation","1","","","",""
"html-keyboard-response","269","1272954","0.0-4.0-7.0-1.2","spark_pilot_norest","8655","8","15","Female","","","","","","","null","<div style=""font-size:60px;"">+</div>","null","fixation","","","","","","","","","","","",""
"revaluation","270","1273424","0.0-4.0-7.0-0.3","spark_pilot_norest","8655","8","15","Female","","false","","","","","[455]","./assets/img/canyon/test/3.jpg","[""ArrowUp""]","first stage test","canyon","0","{""ArrowUp,ArrowLeft"":2,""ArrowUp,ArrowRight"":11,""ArrowDown,ArrowLeft"":8,""ArrowDown,ArrowRight"":27}","false","ArrowUp","false","revaluation","1","","","",""
"html-keyboard-response","271","1273928","0.0-4.0-7.0-1.3","spark_pilot_norest","8655","8","15","Female","","","","","","","null","<div style=""font-size:60px;"">+</div>","null","fixation","","","","","","","","","","","",""
"learning-instructions","272","1287285","0.0-4.0-8.0-0.0","spark_pilot_norest","8655","8","15","Female","","","","","","","null","<p> Now you will see the animals again and can search their chests for treasure. </p>
            <p> This time, you will not see how much treasure you earned, but you will earn more bonus money for making better choices. </p>","","instructions","","","","","","","","","","","",""
"html-keyboard-response","273","1288291","0.0-4.0-9.0-0.0","spark_pilot_norest","8655","8","15","Female","","","","","","","null","<div style=""font-size:100px;color:red;"">Starting in...</div>","null","","","","","","","","","","","","",""
"html-keyboard-response","274","1289297","0.0-4.0-9.0-1.0","spark_pilot_norest","8655","8","15","Female","","","","","","","null","<div style=""font-size:200px;color:red;"">3</div>","null","","","","","","","","","","","","",""
"html-keyboard-response","275","1290303","0.0-4.0-9.0-2.0","spark_pilot_norest","8655","8","15","Female","","","","","","","null","<div style=""font-size:200px;color:red;"">2</div>","null","","","","","","","","","","","","",""
"html-keyboard-response","276","1291308","0.0-4.0-9.0-3.0","spark_pilot_norest","8655","8","15","Female","","","","","","","null","<div style=""font-size:200px;color:red;"">1</div>","null","","","","","","","","","","","","",""
"revaluation","277","1292051","0.0-4.0-10.0-0.0","spark_pilot_norest","8655","8","15","Female","","false","","","","","[721.9000000003725]","./assets/img/canyon/animals/giraffe.jpg","[""ArrowRight""]","second stage test","canyon","0","{""ArrowUp,ArrowLeft"":2,""ArrowUp,ArrowRight"":11,""ArrowDown,ArrowLeft"":8,""ArrowDown,ArrowRight"":27}","true","ArrowUp,ArrowRight","","revaluation","1","","","",""
"html-keyboard-response","278","1292557","0.0-4.0-10.0-1.0","spark_pilot_norest","8655","8","15","Female","","","","","","","null","<div style=""font-size:60px;"">+</div>","null","fixation","","","","","","","","","","","",""
"revaluation","279","1293029","0.0-4.0-10.0-0.1","spark_pilot_norest","8655","8","15","Female","","false","","","","","[452.89999999990687]","./assets/img/canyon/animals/giraffe.jpg","[""ArrowRight""]","second stage test","canyon","0","{""ArrowUp,ArrowLeft"":2,""ArrowUp,ArrowRight"":11,""ArrowDown,ArrowLeft"":8,""ArrowDown,ArrowRight"":27}","true","ArrowUp,ArrowRight","","revaluation","1","","","",""
"html-keyboard-response","280","1293536","0.0-4.0-10.0-1.1","spark_pilot_norest","8655","8","15","Female","","","","","","","null","<div style=""font-size:60px;"">+</div>","null","fixation","","","","","","","","","","","",""
"revaluation","281","1293936","0.0-4.0-10.0-0.2","spark_pilot_norest","8655","8","15","Female","","false","","","","","[382.29999999981374]","./assets/img/canyon/animals/giraffe.jpg","[""ArrowLeft""]","second stage test","canyon","0","{""ArrowUp,ArrowLeft"":2,""ArrowUp,ArrowRight"":11,""ArrowDown,ArrowLeft"":8,""ArrowDown,ArrowRight"":27}","false","ArrowUp,ArrowLeft","","revaluation","1","","","",""
"html-keyboard-response","282","1294440","0.0-4.0-10.0-1.2","spark_pilot_norest","8655","8","15","Female","","","","","","","null","<div style=""font-size:60px;"">+</div>","null","fixation","","","","","","","","","","","",""
"revaluation","283","1294833","0.0-4.0-10.0-0.3","spark_pilot_norest","8655","8","15","Female","","false","","","","","[378.79999999981374]","./assets/img/canyon/animals/giraffe.jpg","[""ArrowRight""]","second stage test","canyon","0","{""ArrowUp,ArrowLeft"":2,""ArrowUp,ArrowRight"":11,""ArrowDown,ArrowLeft"":8,""ArrowDown,ArrowRight"":27}","true","ArrowUp,ArrowRight","","revaluation","1","","","",""
"html-keyboard-response","284","1295339","0.0-4.0-10.0-1.3","spark_pilot_norest","8655","8","15","Female","","","","","","","null","<div style=""font-size:60px;"">+</div>","null","fixation","","","","","","","","","","","",""
"revaluation","285","1295870","0.0-4.0-10.0-0.4","spark_pilot_norest","8655","8","15","Female","","false","","","","","[516.5]","./assets/img/canyon/animals/lion.jpg","[""ArrowRight""]","second stage test","canyon","0","{""ArrowUp,ArrowLeft"":2,""ArrowUp,ArrowRight"":11,""ArrowDown,ArrowLeft"":8,""ArrowDown,ArrowRight"":27}","true","ArrowDown,ArrowRight","","revaluation","1","","","",""
"html-keyboard-response","286","1296376","0.0-4.0-10.0-1.4","spark_pilot_norest","8655","8","15","Female","","","","","","","null","<div style=""font-size:60px;"">+</div>","null","fixation","","","","","","","","","","","",""
"revaluation","287","1296757","0.0-4.0-10.0-0.5","spark_pilot_norest","8655","8","15","Female","","false","","","","","[362.59999999962747]","./assets/img/canyon/animals/lion.jpg","[""ArrowRight""]","second stage test","canyon","0","{""ArrowUp,ArrowLeft"":2,""ArrowUp,ArrowRight"":11,""ArrowDown,ArrowLeft"":8,""ArrowDown,ArrowRight"":27}","true","ArrowDown,ArrowRight","","revaluation","1","","","",""
"html-keyboard-response","288","1297261","0.0-4.0-10.0-1.5","spark_pilot_norest","8655","8","15","Female","","","","","","","null","<div style=""font-size:60px;"">+</div>","null","fixation","","","","","","","","","","","",""
"revaluation","289","1297680","0.0-4.0-10.0-0.6","spark_pilot_norest","8655","8","15","Female","","false","","","","","[403.60000000009313]","./assets/img/canyon/animals/lion.jpg","[""ArrowLeft""]","second stage test","canyon","0","{""ArrowUp,ArrowLeft"":2,""ArrowUp,ArrowRight"":11,""ArrowDown,ArrowLeft"":8,""ArrowDown,ArrowRight"":27}","false","ArrowDown,ArrowLeft","","revaluation","1","","","",""
"html-keyboard-response","290","1298190","0.0-4.0-10.0-1.6","spark_pilot_norest","8655","8","15","Female","","","","","","","null","<div style=""font-size:60px;"">+</div>","null","fixation","","","","","","","","","","","",""
"revaluation","291","1298694","0.0-4.0-10.0-0.7","spark_pilot_norest","8655","8","15","Female","","false","","","","","[485.39999999990687]","./assets/img/canyon/animals/lion.jpg","[""ArrowRight""]","second stage test","canyon","0","{""ArrowUp,ArrowLeft"":2,""ArrowUp,ArrowRight"":11,""ArrowDown,ArrowLeft"":8,""ArrowDown,ArrowRight"":27}","true","ArrowDown,ArrowRight","","revaluation","1","","","",""
"html-keyboard-response","292","1299201","0.0-4.0-10.0-1.7","spark_pilot_norest","8655","8","15","Female","","","","","","","null","<div style=""font-size:60px;"">+</div>","null","fixation","","","","","","","","","","","",""
"learning-instructions","293","1304257","0.0-4.0-0.1-0.2","spark_pilot_norest","8655","8","15","Female","","","","","","","2276.9000000003725","<p> This time you are searching for treasure in the <b>ocean</b>.</p>","","instructions","","","","","","","","","","","",""
"learning-instructions","294","1322184","0.0-4.0-0.1-0.3","spark_pilot_norest","8655","8","15","Female","","","","","","","664.1000000000931","<p><b>New</b> animals with <b>new</b> treasure chests live here. You need to explore to discover where the animal with the best treasure chest is.</p>
                    <p> Like before, once you figure out which animal has the chest with the most treasure, you should try to get to that animal and select that chest! </p>","","instructions","","","","","","","","","","","",""
"learning-instructions","295","1338021","0.0-4.0-1.1-0.1","spark_pilot_norest","8655","8","15","Female","","","","","","","1095.5","<p> Remember, when you see a picture of the place, use the up and down keys to <b>find an animal</b>.</p>
            <p> When you encounter an animal, you should use the left and right keys to <b>select a treasure chest</b>.</p>
            <p> Don't forget to look out for the robber! </p>","","instructions","","","","","","","","","","","",""
"revaluation","296","1344033","0.0-4.0-2.1-0.50","spark_pilot_norest","8655","8","15","Female","","false","","","","","[845.7999999998137,564.4000000003725]","./assets/img/ocean/memory/9.jpg","[""ArrowUp"",""ArrowLeft""]","value training","ocean","23","{""ArrowUp,ArrowLeft"":23,""ArrowUp,ArrowRight"":10,""ArrowDown,ArrowLeft"":8,""ArrowDown,ArrowRight"":30}","false","ArrowUp,ArrowLeft","false","original","2","0","","",""
"html-keyboard-response","297","1344538","0.0-4.0-2.1-1.50","spark_pilot_norest","8655","8","15","Female","","","","","","","null","<div style=""font-size:60px;"">+</div>","null","fixation","","","","","","","","","1","","",""
"revaluation","298","1348552","0.0-4.0-2.1-0.51","spark_pilot_norest","8655","8","15","Female","","false","","","","","[601.1000000000931]","./assets/img/ocean/catch/4.jpg","[""ArrowUp""]","value training","ocean","-10","{""ArrowUp,ArrowLeft"":23,""ArrowUp,ArrowRight"":10,""ArrowDown,ArrowLeft"":8,""ArrowDown,ArrowRight"":30}","false","ArrowUp","true","original","2","2","","",""
"html-keyboard-response","299","1349061","0.0-4.0-2.1-1.51","spark_pilot_norest","8655","8","15","Female","","","","","","","null","<div style=""font-size:60px;"">+</div>","null","fixation","","","","","","","","","3","","",""
"revaluation","300","1353082","0.0-4.0-2.1-0.52","spark_pilot_norest","8655","8","15","Female","","false","","","","","[1297.2999999998137]","./assets/img/ocean/catch/1.jpg","[""spaceBar""]","value training","ocean","0","{""ArrowUp,ArrowLeft"":23,""ArrowUp,ArrowRight"":10,""ArrowDown,ArrowLeft"":8,""ArrowDown,ArrowRight"":30}","true","spaceBar","true","original","2","4","","",""
"html-keyboard-response","301","1353590","0.0-4.0-2.1-1.52","spark_pilot_norest","8655","8","15","Female","","","","","","","null","<div style=""font-size:60px;"">+</div>","null","fixation","","","","","","","","","5","","",""
"revaluation","302","1359605","0.0-4.0-2.1-0.53","spark_pilot_norest","8655","8","15","Female","","false","","","","","[1451.5999999996275,988.6000000000931]","./assets/img/ocean/memory/35.jpg","[""ArrowDown"",""ArrowRight""]","value training","ocean","30","{""ArrowUp,ArrowLeft"":23,""ArrowUp,ArrowRight"":10,""ArrowDown,ArrowLeft"":8,""ArrowDown,ArrowRight"":30}","true","ArrowDown,ArrowRight","false","original","2","6","","",""
"html-keyboard-response","303","1360110","0.0-4.0-2.1-1.53","spark_pilot_norest","8655","8","15","Female","","","","","","","null","<div style=""font-size:60px;"">+</div>","null","fixation","","","","","","","","","7","","",""
"revaluation","304","1366130","0.0-4.0-2.1-0.54","spark_pilot_norest","8655","8","15","Female","","false","","","","","[1174.1999999997206,410.20000000018626]","./assets/img/ocean/memory/32.jpg","[""ArrowUp"",""ArrowLeft""]","value training","ocean","23","{""ArrowUp,ArrowLeft"":23,""ArrowUp,ArrowRight"":10,""ArrowDown,ArrowLeft"":8,""ArrowDown,ArrowRight"":30}","false","ArrowUp,ArrowLeft","false","original","2","8","","",""
"html-keyboard-response","305","1366635","0.0-4.0-2.1-1.54","spark_pilot_norest","8655","8","15","Female","","","","","","","null","<div style=""font-size:60px;"">+</div>","null","fixation","","","","","","","","","9","","",""
"revaluation","306","1372656","0.0-4.0-2.1-0.55","spark_pilot_norest","8655","8","15","Female","","false","","","","","[990.3000000002794,382.29999999981374]","./assets/img/ocean/memory/1.jpg","[""ArrowDown"",""ArrowRight""]","value training","ocean","30","{""ArrowUp,ArrowLeft"":23,""ArrowUp,ArrowRight"":10,""ArrowDown,ArrowLeft"":8,""ArrowDown,ArrowRight"":30}","true","ArrowDown,ArrowRight","false","original","2","10","","",""
"html-keyboard-response","307","1373161","0.0-4.0-2.1-1.55","spark_pilot_norest","8655","8","15","Female","","","","","","","null","<div style=""font-size:60px;"">+</div>","null","fixation","","","","","","","","","11","","",""
"revaluation","308","1379186","0.0-4.0-2.1-0.56","spark_pilot_norest","8655","8","15","Female","","false","","","","","[728.6999999997206,396.89999999990687]","./assets/img/ocean/memory/37.jpg","[""ArrowUp"",""ArrowLeft""]","value training","ocean","23","{""ArrowUp,ArrowLeft"":23,""ArrowUp,ArrowRight"":10,""ArrowDown,ArrowLeft"":8,""ArrowDown,ArrowRight"":30}","false","ArrowUp,ArrowLeft","false","original","2","12","","",""
"html-keyboard-response","309","1379691","0.0-4.0-2.1-1.56","spark_pilot_norest","8655","8","15","Female","","","","","","","null","<div style=""font-size:60px;"">+</div>","null","fixation","","","","","","","","","13","","",""
"revaluation","310","1383709","0.0-4.0-2.1-0.57","spark_pilot_norest","8655","8","15","Female","","false","","","","","[470.70000000018626]","./assets/img/ocean/catch/0.jpg","[""ArrowDown""]","value training","ocean","-10","{""ArrowUp,ArrowLeft"":23,""ArrowUp,ArrowRight"":10,""ArrowDown,ArrowLeft"":8,""ArrowDown,ArrowRight"":30}","false","ArrowDown","true","original","2","14","","",""
"html-keyboard-response","311","1384215","0.0-4.0-2.1-1.57","spark_pilot_norest","8655","8","15","Female","","","","","","","null","<div style=""font-size:60px;"">+</div>","null","fixation","","","","","","","","","15","","",""
