"trial_type","trial_index","time_elapsed","internal_node_id","task_version","subject_id","assigned_condition","age","gender","success","timeout","failed_images","failed_audio","failed_video","browser_interaction","rt","stimulus","response","task_part","environment","score","rewardMap","correct","fullState","isCatch","condition","order","trial_num","key_press","ground_truth","bonus"
"pavlovia","0","1370","0.0-0.0","spark_pilot_norest","9151","1","14","Male","","","","","","","","","","","","","","","","","","","","","",""
"preload","1","25094","0.0-1.0","spark_pilot_norest","9151","1","14","Male","true","false","[]","[]","[]","[{""event"":""fullscreenenter"",""trial"":2,""time"":31179}]","","","","","","","","","","","","","","","",""
"fullscreen","2","32148","0.0-2.0","spark_pilot_norest","9151","1","14","Male","true","","","","","","","","","","","","","","","","","","","","",""
"audio-button-response","3","44645","0.0-3.0-0.0-0.0","spark_pilot_norest","9151","1","14","Male","","","","","","","12421","./assets/audio/audiotest/turtle.mp3","4","audio_test","","","","","","","","","","","",""
"audio-button-response","4","46957","0.0-3.0-0.1-0.1","spark_pilot_norest","9151","1","14","Male","","","","","","","1301","./assets/audio/audiotest/turtle.mp3","2","audio_test","","","","","","","","","","","",""
"learning-instructions","5","57181","0.0-3.0-1.0-0.0","spark_pilot_norest","9151","1","14","Male","","","","","","","3195.4000000953674","<p> Welcome! Please remember to stay in fullscreen mode and don't click away from the experiment. </p>","","instructions","","","","","","","","","","","",""
"learning-instructions","6","66631","0.0-3.0-1.0-0.1","spark_pilot_norest","9151","1","14","Male","","","","","","","1034.2000000476837","<p> Today you will be playing a game to earn treasure. </p>
            <p> At the end of the experiment, you will earn a bonus based on how much treasure you find. </p>
            <img src='./assets/img/instructions/treasure.jpg' class='instructions-image'>","","instructions","","","","","","","","","","","",""
"learning-instructions","7","75785","0.0-3.0-1.0-0.2","spark_pilot_norest","9151","1","14","Male","","","","","","","878.2000000476837","<p> Animals have hidden treasure in treasure chests. </p>
            <p> You need to first find an animal and then choose which of their treasure chests to search. </p>
            <img src='./assets/img/space/animals/cat.jpg' class='instructions-image'>","","instructions","","","","","","","","","","","",""
"learning-instructions","8","90255","0.0-3.0-1.0-0.3","spark_pilot_norest","9151","1","14","Male","","","","","","","1298.0999999046326","<p> In each round, you will search for treasure in a different place. In the real game, there will be two rounds. </p>
            <p> You will begin with a separate, practice round where you will search for treasure in outer space. </p>
            <img src='./assets/img/space/0.jpg' class='instructions-image'>","","instructions","","","","","","","","","","","",""
"learning-instructions","9","102930","0.0-3.0-1.0-0.4","spark_pilot_norest","9151","1","14","Male","","","","","","","1254.0999999046326","<p> On every turn, you will see a picture of the place that you are in, but the specific image may be different each time. </p>
            <p> For example, both of these images mean you are in outer space. </p>
            <img src='./assets/img/instructions/outerspace.jpg' class='instructions-image'>","","instructions","","","","","","","","","","","",""
"learning-instructions","10","112420","0.0-3.0-1.0-0.5","spark_pilot_norest","9151","1","14","Male","","","","","","","1655.9000000953674","<p> You need to decide which direction to travel in. </p>
            <p> You can choose between going <b>up or down</b> by using the arrow keys. </p>
            <img src='./assets/img/instructions/updown.jpg' class='instructions-image'>","","instructions","","","","","","","","","","","",""
"learning-instructions","11","123818","0.0-3.0-1.0-0.6","spark_pilot_norest","9151","1","14","Male","","","","","","","2582.4000000953674","<p> You will have <b>2 seconds</b> to make your choice. </p>
            <p> If you do not make a choice within 2 seconds, you will not find an animal or earn treasure. </p>
            <img src='./assets/img/instructions/2seconds.jpg' class='instructions-image'>","","instructions","","","","","","","","","","","",""
"learning-instructions","12","131683","0.0-3.0-1.0-0.7","spark_pilot_norest","9151","1","14","Male","","","","","","","828.2999999523163","<p> Let’s try practicing that now! </p>
            <p> When you see a picture of the place you are in, press the <b>up</b> key to travel up. </p>
            <img src='./assets/img/instructions/pressUp.jpg' class='instructions-image'>","","instructions","","","","","","","","","","","",""
"revaluation","13","135717","0.0-3.0-2.0-0.0","spark_pilot_norest","9151","1","14","Male","","false","","","","","[1316.2000000476837]","./assets/img/space/0.jpg","[""ArrowUp""]","first stage practice","space","0","null","null","ArrowUp","false","","","","","",""
"html-keyboard-response","14","136225","0.0-3.0-2.0-1.0","spark_pilot_norest","9151","1","14","Male","","","","","","","null","<div style=""font-size:60px;"">+</div>","null","fixation","","","","","","","","","","","",""
"revaluation","15","140245","0.0-3.0-2.0-0.1","spark_pilot_norest","9151","1","14","Male","","false","","","","","[750.8999998569489]","./assets/img/space/1.jpg","[""ArrowUp""]","first stage practice","space","0","null","null","ArrowUp","false","","","","","",""
"html-keyboard-response","16","140754","0.0-3.0-2.0-1.1","spark_pilot_norest","9151","1","14","Male","","","","","","","null","<div style=""font-size:60px;"">+</div>","null","fixation","","","","","","","","","","","",""
"revaluation","17","144775","0.0-3.0-2.0-0.2","spark_pilot_norest","9151","1","14","Male","","false","","","","","[1011.8999998569489]","./assets/img/space/2.jpg","[""ArrowUp""]","first stage practice","space","0","null","null","ArrowUp","false","","","","","",""
"html-keyboard-response","18","145295","0.0-3.0-2.0-1.2","spark_pilot_norest","9151","1","14","Male","","","","","","","null","<div style=""font-size:60px;"">+</div>","null","fixation","","","","","","","","","","","",""
"learning-instructions","19","153402","0.0-3.0-3.0-0.0","spark_pilot_norest","9151","1","14","Male","","","","","","","3344.899999856949","<p> Great job! Now try pressing the <b>down</b> key to travel down. </p>
            <img src='./assets/img/instructions/pressDown.jpg' class='instructions-image'>","","instructions","","","","","","","","","","","",""
"revaluation","20","157435","0.0-3.0-4.0-0.0","spark_pilot_norest","9151","1","14","Male","","false","","","","","[1125.4000000953674]","./assets/img/space/3.jpg","[""ArrowDown""]","first stage practice","space","0","null","null","ArrowDown","false","","","","","",""
"html-keyboard-response","21","157954","0.0-3.0-4.0-1.0","spark_pilot_norest","9151","1","14","Male","","","","","","","null","<div style=""font-size:60px;"">+</div>","null","fixation","","","","","","","","","","","",""
"revaluation","22","161975","0.0-3.0-4.0-0.1","spark_pilot_norest","9151","1","14","Male","","false","","","","","[346]","./assets/img/space/4.jpg","[""ArrowDown""]","first stage practice","space","0","null","null","ArrowDown","false","","","","","",""
"html-keyboard-response","23","162484","0.0-3.0-4.0-1.1","spark_pilot_norest","9151","1","14","Male","","","","","","","null","<div style=""font-size:60px;"">+</div>","null","fixation","","","","","","","","","","","",""
"revaluation","24","166507","0.0-3.0-4.0-0.2","spark_pilot_norest","9151","1","14","Male","","false","","","","","[437]","./assets/img/space/5.jpg","[""ArrowDown""]","first stage practice","space","0","null","null","ArrowDown","false","","","","","",""
"html-keyboard-response","25","167014","0.0-3.0-4.0-1.2","spark_pilot_norest","9151","1","14","Male","","","","","","","null","<div style=""font-size:60px;"">+</div>","null","fixation","","","","","","","","","","","",""
"learning-instructions","26","179257","0.0-3.0-5.0-0.0","spark_pilot_norest","9151","1","14","Male","","","","","","","2340.899999856949","<p> The animals don’t move, so the animal in the upper part of a place will stay in the upper part of a place, and the animal in the lower part of a place will stay in the lower part of a place. </p>","","instructions","","","","","","","","","","","",""
"learning-instructions","27","189756","0.0-3.0-5.0-0.1","spark_pilot_norest","9151","1","14","Male","","","","","","","1359.6999998092651","<p> Each animal has two treasure chests for you to choose from. </p>
            <p> The amount of treasure in each chest can range from <b> 0 to 40 pieces.</b></p>","","instructions","","","","","","","","","","","",""
"learning-instructions","28","201609","0.0-3.0-5.0-0.2","spark_pilot_norest","9151","1","14","Male","","","","","","","653.0999999046326","<p> You should decide which chest to search for treasure by using the <b>left</b> and <b>right</b> arrow keys. </p>
            <p><b> Pay attention to which animal is on the screen, as the animals have different treasure chests. </b></p>
            <img src='./assets/img/instructions/leftright.jpg' class='instructions-image'>","","instructions","","","","","","","","","","","",""
"learning-instructions","29","208695","0.0-3.0-5.0-0.3","spark_pilot_norest","9151","1","14","Male","","","","","","","708.9000000953674","<p> Let’s try practicing that now. </p>
            <p> When you see an animal, choose which chest to search for treasure. </p>
            <img src='./assets/img/instructions/chooseChest.jpg' class='instructions-image'>","","instructions","","","","","","","","","","","",""
"revaluation","30","212725","0.0-3.0-6.0-0.0","spark_pilot_norest","9151","1","14","Male","","false","","","","","[1092.9000000953674]","./assets/img/space/animals/cat.jpg","[""ArrowLeft""]","second stage practice","space","3","{""ArrowUp,ArrowLeft"":3,""ArrowUp,ArrowRight"":36,""ArrowDown,ArrowLeft"":15,""ArrowDown,ArrowRight"":23}","false","ArrowUp,ArrowLeft","","","","","","",""
"html-keyboard-response","31","213244","0.0-3.0-6.0-1.0","spark_pilot_norest","9151","1","14","Male","","","","","","","null","<div style=""font-size:60px;"">+</div>","null","fixation","","","","","","","","","","","",""
"revaluation","32","217284","0.0-3.0-6.0-0.1","spark_pilot_norest","9151","1","14","Male","","false","","","","","[1176.2999999523163]","./assets/img/space/animals/cat.jpg","[""ArrowRight""]","second stage practice","space","36","{""ArrowUp,ArrowLeft"":3,""ArrowUp,ArrowRight"":36,""ArrowDown,ArrowLeft"":15,""ArrowDown,ArrowRight"":23}","true","ArrowUp,ArrowRight","","","","","","",""
"html-keyboard-response","33","217804","0.0-3.0-6.0-1.1","spark_pilot_norest","9151","1","14","Male","","","","","","","null","<div style=""font-size:60px;"">+</div>","null","fixation","","","","","","","","","","","",""
"revaluation","34","221825","0.0-3.0-6.0-0.2","spark_pilot_norest","9151","1","14","Male","","false","","","","","[1466.3999998569489]","./assets/img/space/animals/rabbit.jpg","[""ArrowLeft""]","second stage practice","space","15","{""ArrowUp,ArrowLeft"":3,""ArrowUp,ArrowRight"":36,""ArrowDown,ArrowLeft"":15,""ArrowDown,ArrowRight"":23}","false","ArrowDown,ArrowLeft","","","","","","",""
"html-keyboard-response","35","222333","0.0-3.0-6.0-1.2","spark_pilot_norest","9151","1","14","Male","","","","","","","null","<div style=""font-size:60px;"">+</div>","null","fixation","","","","","","","","","","","",""
"revaluation","36","226364","0.0-3.0-6.0-0.3","spark_pilot_norest","9151","1","14","Male","","false","","","","","[321.60000014305115]","./assets/img/space/animals/rabbit.jpg","[""ArrowRight""]","second stage practice","space","23","{""ArrowUp,ArrowLeft"":3,""ArrowUp,ArrowRight"":36,""ArrowDown,ArrowLeft"":15,""ArrowDown,ArrowRight"":23}","true","ArrowDown,ArrowRight","","","","","","",""
"html-keyboard-response","37","226884","0.0-3.0-6.0-1.3","spark_pilot_norest","9151","1","14","Male","","","","","","","null","<div style=""font-size:60px;"">+</div>","null","fixation","","","","","","","","","","","",""
"learning-instructions","38","243874","0.0-3.0-7.0-0.0","spark_pilot_norest","9151","1","14","Male","","","","","","","138.29999995231628","<p> Great job. Now let’s try putting it together. </p>
            <p> On each turn, you will first see a picture to remind you of the place you are in, and you need to choose whether to go up or down. </p>
            <p> Then you will see an animal and choose which of its chests to search for treasure. </p>","","instructions","","","","","","","","","","","",""
"learning-instructions","39","252414","0.0-3.0-7.0-0.1","spark_pilot_norest","9151","1","14","Male","","","","","","","270","<p> When you choose whether to go up or down, try to go to the animal with the chest with the most treasure. </p>
            <p> Try practicing that now! </p>","","instructions","","","","","","","","","","","",""
"revaluation","40","258465","0.0-3.0-8.0-0.0","spark_pilot_norest","9151","1","14","Male","","false","","","","","[1491,1747.7000000476837]","./assets/img/space/6.jpg","[""ArrowUp"",""ArrowLeft""]","full practice","space","3","{""ArrowUp,ArrowLeft"":3,""ArrowUp,ArrowRight"":36,""ArrowDown,ArrowLeft"":15,""ArrowDown,ArrowRight"":23}","false","ArrowUp,ArrowLeft","false","","","","","",""
"html-keyboard-response","41","258983","0.0-3.0-8.0-1.0","spark_pilot_norest","9151","1","14","Male","","","","","","","null","<div style=""font-size:60px;"">+</div>","null","fixation","","","","","","","","","","","",""
"revaluation","42","265025","0.0-3.0-8.0-0.1","spark_pilot_norest","9151","1","14","Male","","false","","","","","[1078.1999998092651,725.7000000476837]","./assets/img/space/7.jpg","[""ArrowUp"",""ArrowRight""]","full practice","space","36","{""ArrowUp,ArrowLeft"":3,""ArrowUp,ArrowRight"":36,""ArrowDown,ArrowLeft"":15,""ArrowDown,ArrowRight"":23}","true","ArrowUp,ArrowRight","false","","","","","",""
"html-keyboard-response","43","265544","0.0-3.0-8.0-1.1","spark_pilot_norest","9151","1","14","Male","","","","","","","null","<div style=""font-size:60px;"">+</div>","null","fixation","","","","","","","","","","","",""
"revaluation","44","271606","0.0-3.0-8.0-0.2","spark_pilot_norest","9151","1","14","Male","","false","","","","","[990.5999999046326,576.4000000953674]","./assets/img/space/8.jpg","[""ArrowUp"",""ArrowLeft""]","full practice","space","3","{""ArrowUp,ArrowLeft"":3,""ArrowUp,ArrowRight"":36,""ArrowDown,ArrowLeft"":15,""ArrowDown,ArrowRight"":23}","false","ArrowUp,ArrowLeft","false","","","","","",""
"html-keyboard-response","45","272124","0.0-3.0-8.0-1.2","spark_pilot_norest","9151","1","14","Male","","","","","","","null","<div style=""font-size:60px;"">+</div>","null","fixation","","","","","","","","","","","",""
"revaluation","46","278171","0.0-3.0-8.0-0.3","spark_pilot_norest","9151","1","14","Male","","false","","","","","[994.4000000953674,687.7999999523163]","./assets/img/space/9.jpg","[""ArrowUp"",""ArrowRight""]","full practice","space","36","{""ArrowUp,ArrowLeft"":3,""ArrowUp,ArrowRight"":36,""ArrowDown,ArrowLeft"":15,""ArrowDown,ArrowRight"":23}","true","ArrowUp,ArrowRight","false","","","","","",""
"html-keyboard-response","47","278681","0.0-3.0-8.0-1.3","spark_pilot_norest","9151","1","14","Male","","","","","","","null","<div style=""font-size:60px;"">+</div>","null","fixation","","","","","","","","","","","",""
"revaluation","48","284696","0.0-3.0-8.0-0.4","spark_pilot_norest","9151","1","14","Male","","false","","","","","[1095.2000000476837,50.299999952316284]","./assets/img/space/10.jpg","[""ArrowUp"",""ArrowRight""]","full practice","space","36","{""ArrowUp,ArrowLeft"":3,""ArrowUp,ArrowRight"":36,""ArrowDown,ArrowLeft"":15,""ArrowDown,ArrowRight"":23}","true","ArrowUp,ArrowRight","false","","","","","",""
"html-keyboard-response","49","285199","0.0-3.0-8.0-1.4","spark_pilot_norest","9151","1","14","Male","","","","","","","null","<div style=""font-size:60px;"">+</div>","null","fixation","","","","","","","","","","","",""
"learning-instructions","50","297826","0.0-3.0-9.0-0.0","spark_pilot_norest","9151","1","14","Male","","","","","","","2279.5999999046326","<p> One last thing: sometimes, you will see a robber. The robber can be anywhere in the picture. </p>
            <p> If you do not stop them, you will lose treasure. </p>
            <img src='./assets/img/instructions/robber.jpg' class='instructions-image'>","","instructions","","","","","","","","","","","",""
"learning-instructions","51","305375","0.0-3.0-9.0-0.1","spark_pilot_norest","9151","1","14","Male","","","","","","","369.7000000476837","<p> If you see the robber, you should <b>press the space bar</b> rather than using the arrow keys. </p>
            <p> Try practicing that now! </p>","","instructions","","","","","","","","","","","",""
"revaluation","52","309414","0.0-3.0-10.0-0.0","spark_pilot_norest","9151","1","14","Male","","false","","","","","[1452.0999999046326]","./assets/img/space/catch/0.jpg","[""spaceBar""]","catch practice","space","0","{""ArrowUp,ArrowLeft"":3,""ArrowUp,ArrowRight"":36,""ArrowDown,ArrowLeft"":15,""ArrowDown,ArrowRight"":23}","true","spaceBar","true","","","","","",""
"html-keyboard-response","53","309933","0.0-3.0-10.0-1.0","spark_pilot_norest","9151","1","14","Male","","","","","","","null","<div style=""font-size:60px;"">+</div>","null","fixation","","","","","","","","","","","",""
"revaluation","54","313965","0.0-3.0-10.0-0.1","spark_pilot_norest","9151","1","14","Male","","false","","","","","[690]","./assets/img/space/catch/1.jpg","[""spaceBar""]","catch practice","space","0","{""ArrowUp,ArrowLeft"":3,""ArrowUp,ArrowRight"":36,""ArrowDown,ArrowLeft"":15,""ArrowDown,ArrowRight"":23}","true","spaceBar","true","","","","","",""
"html-keyboard-response","55","314466","0.0-3.0-10.0-1.1","spark_pilot_norest","9151","1","14","Male","","","","","","","null","<div style=""font-size:60px;"">+</div>","null","fixation","","","","","","","","","","","",""
"revaluation","56","318483","0.0-3.0-10.0-0.2","spark_pilot_norest","9151","1","14","Male","","false","","","","","[32.5]","./assets/img/space/catch/2.jpg","[""spaceBar""]","catch practice","space","0","{""ArrowUp,ArrowLeft"":3,""ArrowUp,ArrowRight"":36,""ArrowDown,ArrowLeft"":15,""ArrowDown,ArrowRight"":23}","true","spaceBar","true","","","","","",""
"html-keyboard-response","57","319004","0.0-3.0-10.0-1.2","spark_pilot_norest","9151","1","14","Male","","","","","","","null","<div style=""font-size:60px;"">+</div>","null","fixation","","","","","","","","","","","",""
"learning-instructions","58","328092","0.0-3.0-11.0-0.0-0.0","spark_pilot_norest","9151","1","14","Male","","","","","","","3777.9000000953674","<p> Now, you will practice a shortened version of the game to get a sense of how it all fits together. </p>","","instructions","","","","","","","","","","","",""
"learning-instructions","59","332964","0.0-3.0-11.0-0.0-0.1","spark_pilot_norest","9151","1","14","Male","","","","","","","1679.2999999523163","<p>This time you are searching for treasure in outer space.</p>","","instructions","","","","","","","","","","","",""
"learning-instructions","60","348924","0.0-3.0-11.0-1.0-0.0","spark_pilot_norest","9151","1","14","Male","","","","","","","1190.2000000476837","<p> Remember, when you see a picture of the place, use the up and down keys to <b>find an animal</b>.</p>
            <p> When you encounter an animal, you should use the left and right keys to <b>select a treasure chest</b>.</p>
            <p> Don't forget to look out for the robber! </p>","","instructions","","","","","","","","","","","",""
"revaluation","61","354974","0.0-3.0-11.0-2.0-0.0","spark_pilot_norest","9151","1","14","Male","","false","","","","","[1133.7999999523163,855]","./assets/img/space/11.jpg","[""ArrowUp"",""ArrowRight""]","practice block","space","36","{""ArrowUp,ArrowLeft"":3,""ArrowUp,ArrowRight"":36,""ArrowDown,ArrowLeft"":15,""ArrowDown,ArrowRight"":23}","true","ArrowUp,ArrowRight","false","","","","","",""
"html-keyboard-response","62","355484","0.0-3.0-11.0-2.0-1.0","spark_pilot_norest","9151","1","14","Male","","","","","","","null","<div style=""font-size:60px;"">+</div>","null","fixation","","","","","","","","","","","",""
"revaluation","63","361543","0.0-3.0-11.0-2.0-0.1","spark_pilot_norest","9151","1","14","Male","","false","","","","","[733.5,476.09999990463257]","./assets/img/space/12.jpg","[""ArrowUp"",""ArrowRight""]","practice block","space","36","{""ArrowUp,ArrowLeft"":3,""ArrowUp,ArrowRight"":36,""ArrowDown,ArrowLeft"":15,""ArrowDown,ArrowRight"":23}","true","ArrowUp,ArrowRight","false","","","","","",""
"html-keyboard-response","64","362053","0.0-3.0-11.0-2.0-1.1","spark_pilot_norest","9151","1","14","Male","","","","","","","null","<div style=""font-size:60px;"">+</div>","null","fixation","","","","","","","","","","","",""
"revaluation","65","368103","0.0-3.0-11.0-2.0-0.2","spark_pilot_norest","9151","1","14","Male","","false","","","","","[1593.3999998569489,924.7000000476837]","./assets/img/space/13.jpg","[""ArrowUp"",""ArrowRight""]","practice block","space","36","{""ArrowUp,ArrowLeft"":3,""ArrowUp,ArrowRight"":36,""ArrowDown,ArrowLeft"":15,""ArrowDown,ArrowRight"":23}","true","ArrowUp,ArrowRight","false","","","","","",""
"html-keyboard-response","66","368613","0.0-3.0-11.0-2.0-1.2","spark_pilot_norest","9151","1","14","Male","","","","","","","null","<div style=""font-size:60px;"">+</div>","null","fixation","","","","","","","","","","","",""
"revaluation","67","374652","0.0-3.0-11.0-2.0-0.3","spark_pilot_norest","9151","1","14","Male","","false","","","","","[1034.2999999523163,1216.7999999523163]","./assets/img/space/14.jpg","[""ArrowUp"",""ArrowRight""]","practice block","space","36","{""ArrowUp,ArrowLeft"":3,""ArrowUp,ArrowRight"":36,""ArrowDown,ArrowLeft"":15,""ArrowDown,ArrowRight"":23}","true","ArrowUp,ArrowRight","false","","","","","",""
"html-keyboard-response","68","375163","0.0-3.0-11.0-2.0-1.3","spark_pilot_norest","9151","1","14","Male","","","","","","","null","<div style=""font-size:60px;"">+</div>","null","fixation","","","","","","","","","","","",""
"revaluation","69","381186","0.0-3.0-11.0-2.0-0.4","spark_pilot_norest","9151","1","14","Male","","false","","","","","[998.5,546.0999999046326]","./assets/img/space/11.jpg","[""ArrowUp"",""ArrowRight""]","practice block","space","36","{""ArrowUp,ArrowLeft"":3,""ArrowUp,ArrowRight"":36,""ArrowDown,ArrowLeft"":15,""ArrowDown,ArrowRight"":23}","true","ArrowUp,ArrowRight","false","","","","","",""
"html-keyboard-response","70","381689","0.0-3.0-11.0-2.0-1.4","spark_pilot_norest","9151","1","14","Male","","","","","","","null","<div style=""font-size:60px;"">+</div>","null","fixation","","","","","","","","","","","",""
"revaluation","71","387700","0.0-3.0-11.0-2.0-0.5","spark_pilot_norest","9151","1","14","Male","","false","","","","","[732,1379.9000000953674]","./assets/img/space/12.jpg","[""ArrowUp"",""ArrowRight""]","practice block","space","36","{""ArrowUp,ArrowLeft"":3,""ArrowUp,ArrowRight"":36,""ArrowDown,ArrowLeft"":15,""ArrowDown,ArrowRight"":23}","true","ArrowUp,ArrowRight","false","","","","","",""
"html-keyboard-response","72","388203","0.0-3.0-11.0-2.0-1.5","spark_pilot_norest","9151","1","14","Male","","","","","","","null","<div style=""font-size:60px;"">+</div>","null","fixation","","","","","","","","","","","",""
"revaluation","73","394229","0.0-3.0-11.0-2.0-0.6","spark_pilot_norest","9151","1","14","Male","","false","","","","","[707.0999999046326,359.90000009536743]","./assets/img/space/13.jpg","[""ArrowUp"",""ArrowRight""]","practice block","space","36","{""ArrowUp,ArrowLeft"":3,""ArrowUp,ArrowRight"":36,""ArrowDown,ArrowLeft"":15,""ArrowDown,ArrowRight"":23}","true","ArrowUp,ArrowRight","false","","","","","",""
"html-keyboard-response","74","394731","0.0-3.0-11.0-2.0-1.6","spark_pilot_norest","9151","1","14","Male","","","","","","","null","<div style=""font-size:60px;"">+</div>","null","fixation","","","","","","","","","","","",""
"revaluation","75","400742","0.0-3.0-11.0-2.0-0.7","spark_pilot_norest","9151","1","14","Male","","false","","","","","[984.7999999523163,437.7000000476837]","./assets/img/space/14.jpg","[""ArrowUp"",""ArrowRight""]","practice block","space","36","{""ArrowUp,ArrowLeft"":3,""ArrowUp,ArrowRight"":36,""ArrowDown,ArrowLeft"":15,""ArrowDown,ArrowRight"":23}","true","ArrowUp,ArrowRight","false","","","","","",""
"html-keyboard-response","76","401245","0.0-3.0-11.0-2.0-1.7","spark_pilot_norest","9151","1","14","Male","","","","","","","null","<div style=""font-size:60px;"">+</div>","null","fixation","","","","","","","","","","","",""
"revaluation","77","405253","0.0-3.0-11.0-2.0-0.8","spark_pilot_norest","9151","1","14","Male","","false","","","","","[724.3000001907349]","./assets/img/space/catch/3.jpg","[""spaceBar""]","practice block","space","0","{""ArrowUp,ArrowLeft"":3,""ArrowUp,ArrowRight"":36,""ArrowDown,ArrowLeft"":15,""ArrowDown,ArrowRight"":23}","true","spaceBar","true","","","","","",""
"html-keyboard-response","78","405755","0.0-3.0-11.0-2.0-1.8","spark_pilot_norest","9151","1","14","Male","","","","","","","null","<div style=""font-size:60px;"">+</div>","null","fixation","","","","","","","","","","","",""
"learning-instructions","79","421165","0.0-3.0-11.0-3.0-0.0","spark_pilot_norest","9151","1","14","Male","","","","","","","2461.7000000476837","<p> Now, you will travel with a friend who will choose whether you go up or down first. </p>
            <p> On these turns, you will just see the animal that they found. You will still get to choose which chest to search for treasure.</p>","","instructions","","","","","","","","","","","",""
"revaluation","80","425203","0.0-3.0-11.0-4.0-0.0","spark_pilot_norest","9151","1","14","Male","","false","","","","","[1135.7000000476837]","./assets/img/space/animals/cat.jpg","[""ArrowRight""]","practice block","space","36","{""ArrowUp,ArrowLeft"":3,""ArrowUp,ArrowRight"":36,""ArrowDown,ArrowLeft"":15,""ArrowDown,ArrowRight"":23}","true","ArrowUp,ArrowRight","","","","","","",""
"html-keyboard-response","81","425722","0.0-3.0-11.0-4.0-1.0","spark_pilot_norest","9151","1","14","Male","","","","","","","null","<div style=""font-size:60px;"">+</div>","null","fixation","","","","","","","","","","","",""
"revaluation","82","429753","0.0-3.0-11.0-4.0-0.1","spark_pilot_norest","9151","1","14","Male","","false","","","","","[1443.5]","./assets/img/space/animals/rabbit.jpg","[""ArrowLeft""]","practice block","space","15","{""ArrowUp,ArrowLeft"":3,""ArrowUp,ArrowRight"":36,""ArrowDown,ArrowLeft"":15,""ArrowDown,ArrowRight"":23}","false","ArrowDown,ArrowLeft","","","","","","",""
"html-keyboard-response","83","430272","0.0-3.0-11.0-4.0-1.1","spark_pilot_norest","9151","1","14","Male","","","","","","","null","<div style=""font-size:60px;"">+</div>","null","fixation","","","","","","","","","","","",""
"revaluation","84","434304","0.0-3.0-11.0-4.0-0.2","spark_pilot_norest","9151","1","14","Male","","false","","","","","[661.5]","./assets/img/space/animals/rabbit.jpg","[""ArrowRight""]","practice block","space","23","{""ArrowUp,ArrowLeft"":3,""ArrowUp,ArrowRight"":36,""ArrowDown,ArrowLeft"":15,""ArrowDown,ArrowRight"":23}","true","ArrowDown,ArrowRight","","","","","","",""
"html-keyboard-response","85","434822","0.0-3.0-11.0-4.0-1.2","spark_pilot_norest","9151","1","14","Male","","","","","","","null","<div style=""font-size:60px;"">+</div>","null","fixation","","","","","","","","","","","",""
"revaluation","86","438842","0.0-3.0-11.0-4.0-0.3","spark_pilot_norest","9151","1","14","Male","","false","","","","","[551.1000001430511]","./assets/img/space/animals/cat.jpg","[""ArrowRight""]","practice block","space","36","{""ArrowUp,ArrowLeft"":3,""ArrowUp,ArrowRight"":36,""ArrowDown,ArrowLeft"":15,""ArrowDown,ArrowRight"":23}","true","ArrowUp,ArrowRight","","","","","","",""
"html-keyboard-response","87","439359","0.0-3.0-11.0-4.0-1.3","spark_pilot_norest","9151","1","14","Male","","","","","","","null","<div style=""font-size:60px;"">+</div>","null","fixation","","","","","","","","","","","",""
"learning-instructions","88","447551","0.0-3.0-11.0-5.0-0.0","spark_pilot_norest","9151","1","14","Male","","","","","","","null","<p> You have almost finished this part of the game! </p>
            <p> We are going to ask you to make a few more choices. </p>","","instructions","","","","","","","","","","","",""
"learning-instructions","89","463630","0.0-3.0-11.0-5.0-0.1","spark_pilot_norest","9151","1","14","Male","","","","","","","null","<p> First, you need to decide whether to go up or down. When you see each picture, use the arrow keys to make your choice. </p>
            <p><b>You will not see which animal you found, but try to get to the one that will give you the most treasure.</b></p>","","instructions","","","","","","","","","","","",""
"html-keyboard-response","90","464641","0.0-3.0-11.0-6.0-0.0","spark_pilot_norest","9151","1","14","Male","","","","","","","null","<div style=""font-size:100px;color:red;"">Starting in...</div>","null","","","","","","","","","","","","",""
"html-keyboard-response","91","465661","0.0-3.0-11.0-6.0-1.0","spark_pilot_norest","9151","1","14","Male","","","","","","","null","<div style=""font-size:200px;color:red;"">3</div>","null","","","","","","","","","","","","",""
"html-keyboard-response","92","466671","0.0-3.0-11.0-6.0-2.0","spark_pilot_norest","9151","1","14","Male","","","","","","","null","<div style=""font-size:200px;color:red;"">2</div>","null","","","","","","","","","","","","",""
"html-keyboard-response","93","467691","0.0-3.0-11.0-6.0-3.0","spark_pilot_norest","9151","1","14","Male","","","","","","","null","<div style=""font-size:200px;color:red;"">1</div>","null","","","","","","","","","","","","",""
"revaluation","94","468471","0.0-3.0-11.0-7.0","spark_pilot_norest","9151","1","14","Male","","false","","","","","[771.7000000476837]","./assets/img/space/15.jpg","[""ArrowUp""]","practice block","space","0","{""ArrowUp,ArrowLeft"":3,""ArrowUp,ArrowRight"":36,""ArrowDown,ArrowLeft"":15,""ArrowDown,ArrowRight"":23}","true","ArrowUp","false","","","","","",""
"html-keyboard-response","95","468991","0.0-3.0-11.0-8.0","spark_pilot_norest","9151","1","14","Male","","","","","","","null","<div style=""font-size:60px;"">+</div>","null","fixation","","","","","","","","","","","",""
"learning-instructions","96","482441","0.0-3.0-11.0-9.0-0.0","spark_pilot_norest","9151","1","14","Male","","","","","","","null","<p> Now you will see the animals again and can search their chests for treasure. </p>
            <p> This time, you will not see how much treasure you earned, but you will earn more bonus money for making better choices. </p>","","instructions","","","","","","","","","","","",""
"html-keyboard-response","97","483451","0.0-3.0-11.0-10.0-0.0","spark_pilot_norest","9151","1","14","Male","","","","","","","null","<div style=""font-size:100px;color:red;"">Starting in...</div>","null","","","","","","","","","","","","",""
"html-keyboard-response","98","484471","0.0-3.0-11.0-10.0-1.0","spark_pilot_norest","9151","1","14","Male","","","","","","","null","<div style=""font-size:200px;color:red;"">3</div>","null","","","","","","","","","","","","",""
"html-keyboard-response","99","485491","0.0-3.0-11.0-10.0-2.0","spark_pilot_norest","9151","1","14","Male","","","","","","","null","<div style=""font-size:200px;color:red;"">2</div>","null","","","","","","","","","","","","",""
"html-keyboard-response","100","486501","0.0-3.0-11.0-10.0-3.0","spark_pilot_norest","9151","1","14","Male","","","","","","","null","<div style=""font-size:200px;color:red;"">1</div>","null","","","","","","","","","","","","",""
"revaluation","101","487354","0.0-3.0-11.0-11.0-0.0","spark_pilot_norest","9151","1","14","Male","","false","","","","","[846.5]","./assets/img/space/animals/cat.jpg","[""ArrowRight""]","practice block","space","0","{""ArrowUp,ArrowLeft"":3,""ArrowUp,ArrowRight"":36,""ArrowDown,ArrowLeft"":15,""ArrowDown,ArrowRight"":23}","true","ArrowUp,ArrowRight","","","","","","",""
"html-keyboard-response","102","487871","0.0-3.0-11.0-11.0-1.0","spark_pilot_norest","9151","1","14","Male","","","","","","","null","<div style=""font-size:60px;"">+</div>","null","fixation","","","","","","","","","","","",""
"revaluation","103","488884","0.0-3.0-11.0-11.0-0.1","spark_pilot_norest","9151","1","14","Male","","false","","","","","[1004.8999998569489]","./assets/img/space/animals/rabbit.jpg","[""ArrowRight""]","practice block","space","0","{""ArrowUp,ArrowLeft"":3,""ArrowUp,ArrowRight"":36,""ArrowDown,ArrowLeft"":15,""ArrowDown,ArrowRight"":23}","true","ArrowDown,ArrowRight","","","","","","",""
"html-keyboard-response","104","489391","0.0-3.0-11.0-11.0-1.1","spark_pilot_norest","9151","1","14","Male","","","","","","","null","<div style=""font-size:60px;"">+</div>","null","fixation","","","","","","","","","","","",""
"learning-instructions","105","496854","0.0-3.0-12.0-0.0","spark_pilot_norest","9151","1","14","Male","","","","","","","2841.7999999523163","<p> Before you start, we're going to ask you a few questions about how the game works. </p>","","instructions","","","","","","","","","","","",""
"comp-q","106","503594","0.0-3.0-13.0-0.0-0.0","spark_pilot_norest","9151","1","14","Male","","","","","","","1140.5","<p> <b> True or False? </b> </p>
            <p> There can be 50 pieces of treasure in a given animal's chest. </p>","0","comp_question","","","","false","","","","","","","",""
"comp-q","107","511543","0.0-3.0-13.0-0.0-1.0","spark_pilot_norest","9151","1","14","Male","","","","","","","1415.5","<p> <b>Incorrect.</b> The amount of treasure in each chest can range from 0 to 40 pieces. </p>","0","comp_answer","","","","","","","","","","","",""
"comp-q","108","517680","0.0-3.0-13.0-0.1-0.1","spark_pilot_norest","9151","1","14","Male","","","","","","","576.7999999523163","<p> <b> True or False? </b> </p>
            <p> There can be 50 pieces of treasure in a given animal's chest. </p>","1","comp_question","","","","true","","","","","","","",""
"comp-q","109","525485","0.0-3.0-13.0-0.1-1.1","spark_pilot_norest","9151","1","14","Male","","","","","","","1131.5","<p> <b> That's right! </b> The amount of treasure in each chest can range from 0 to 40 pieces. </p>","0","comp_answer","","","","","","","","","","","",""
"comp-q","110","532976","0.0-3.0-13.0-0.2-0.2","spark_pilot_norest","9151","1","14","Male","","","","","","","373.10000014305115","<p> <b> True or False? </b> </p><p> In this game, all animals have the same amount of treasure in their left and right chests. </p>","1","comp_question","","","","true","","","","","","","",""
"comp-q","111","538849","0.0-3.0-13.0-0.2-1.2","spark_pilot_norest","9151","1","14","Male","","","","","","","635.5999999046326","<p> <b> That's right! </b> Animals have different amounts of treasure in their treasure chests. </p>","0","comp_answer","","","","","","","","","","","",""
"comp-q","112","545820","0.0-3.0-13.0-0.3-0.3","spark_pilot_norest","9151","1","14","Male","","","","","","","1126.8999998569489","<p> <b> True or False? </b> </p><p> The same animal will always be there if you go up in the same place. </p>","0","comp_question","","","","true","","","","","","","",""
"comp-q","113","554734","0.0-3.0-13.0-0.3-1.3","spark_pilot_norest","9151","1","14","Male","","","","","","","2450","<p> <b> That's right! </b> One animal lives in the upper part and one lives in the lower part of every place. </p>","0","comp_answer","","","","","","","","","","","",""
"comp-q","114","561312","0.0-3.0-13.0-0.4-0.4","spark_pilot_norest","9151","1","14","Male","","","","","","","1058.2999999523163","<p> <b> True or False? </b> </p><p> If you see a different picture, it means you are in a new place. </p>","1","comp_question","","","","true","","","","","","","",""
"comp-q","115","575028","0.0-3.0-13.0-0.4-1.4","spark_pilot_norest","9151","1","14","Male","","","","","","","2475.2999999523163","<p> <b> That's right! </b> Lots of different images may show the same place. For example,  you may see three different images that all remind you that you are in outer space. </p>","0","comp_answer","","","","","","","","","","","",""
"learning-instructions","116","586985","0.0-3.0-14.0-0.0","spark_pilot_norest","9151","1","14","Male","","","","","","","2101.5","<p> Good job. Remember to do your best because the amount of treasure you earn will be converted into bonus money. </p>
            <p> It’s time to start the real game! </p>","","instructions","","","","","","","","","","","",""
"learning-instructions","117","591714","0.0-4.0-0.0-0.0","spark_pilot_norest","9151","1","14","Male","","","","","","","2021.0999999046326","<p> This time you are searching for treasure in the <b>ocean</b>.</p>","","instructions","","","","","","","","","","","",""
"learning-instructions","118","609618","0.0-4.0-0.0-0.1","spark_pilot_norest","9151","1","14","Male","","","","","","","585.5999999046326","<p><b>New</b> animals with <b>new</b> treasure chests live here. You need to explore to discover where the animal with the best treasure chest is.</p>
                    <p> Like before, once you figure out which animal has the chest with the most treasure, you should try to get to that animal and select that chest! </p>","","instructions","","","","","","","","","","","",""
"learning-instructions","119","624794","0.0-4.0-1.0-0.0","spark_pilot_norest","9151","1","14","Male","","","","","","","441.2999999523163","<p> Remember, when you see a picture of the place, use the up and down keys to <b>find an animal</b>.</p>
            <p> When you encounter an animal, you should use the left and right keys to <b>select a treasure chest</b>.</p>
            <p> Don't forget to look out for the robber! </p>","","instructions","","","","","","","","","","","",""
"revaluation","120","630832","0.0-4.0-2.0-0.0","spark_pilot_norest","9151","1","14","Male","","false","","","","","[1143.5999999046326,707.3999998569489]","./assets/img/ocean/memory/8.jpg","[""ArrowUp"",""ArrowRight""]","value training","ocean","10","{""ArrowUp,ArrowLeft"":26,""ArrowUp,ArrowRight"":10,""ArrowDown,ArrowLeft"":5,""ArrowDown,ArrowRight"":17}","false","ArrowUp,ArrowRight","false","original","1","0","","",""
"html-keyboard-response","121","631362","0.0-4.0-2.0-1.0","spark_pilot_norest","9151","1","14","Male","","","","","","","null","<div style=""font-size:60px;"">+</div>","null","fixation","","","","","","","","","1","","",""
"revaluation","122","637402","0.0-4.0-2.0-0.1","spark_pilot_norest","9151","1","14","Male","","false","","","","","[521.0999999046326,270.2999999523163]","./assets/img/ocean/memory/18.jpg","[""ArrowUp"",""ArrowLeft""]","value training","ocean","26","{""ArrowUp,ArrowLeft"":26,""ArrowUp,ArrowRight"":10,""ArrowDown,ArrowLeft"":5,""ArrowDown,ArrowRight"":17}","true","ArrowUp,ArrowLeft","false","original","1","2","","",""
"html-keyboard-response","123","637920","0.0-4.0-2.0-1.1","spark_pilot_norest","9151","1","14","Male","","","","","","","null","<div style=""font-size:60px;"">+</div>","null","fixation","","","","","","","","","3","","",""
"revaluation","124","641952","0.0-4.0-2.0-0.2","spark_pilot_norest","9151","1","14","Male","","false","","","","","[352.2999999523163]","./assets/img/ocean/catch/5.jpg","[""ArrowDown""]","value training","ocean","-10","{""ArrowUp,ArrowLeft"":26,""ArrowUp,ArrowRight"":10,""ArrowDown,ArrowLeft"":5,""ArrowDown,ArrowRight"":17}","false","ArrowDown","true","original","1","4","","",""
"html-keyboard-response","125","642461","0.0-4.0-2.0-1.2","spark_pilot_norest","9151","1","14","Male","","","","","","","null","<div style=""font-size:60px;"">+</div>","null","fixation","","","","","","","","","5","","",""
"revaluation","126","646511","0.0-4.0-2.0-0.3","spark_pilot_norest","9151","1","14","Male","","true","","","","","[]","./assets/img/ocean/memory/16.jpg","[]","value training","ocean","-5","{""ArrowUp,ArrowLeft"":26,""ArrowUp,ArrowRight"":10,""ArrowDown,ArrowLeft"":5,""ArrowDown,ArrowRight"":17}","false","","false","original","1","6","","",""
"html-keyboard-response","127","647031","0.0-4.0-2.0-1.3","spark_pilot_norest","9151","1","14","Male","","","","","","","null","<div style=""font-size:60px;"">+</div>","null","fixation","","","","","","","","","7","","",""
"revaluation","128","653072","0.0-4.0-2.0-0.4","spark_pilot_norest","9151","1","14","Male","","false","","","","","[590.7000000476837,534.3999998569489]","./assets/img/ocean/memory/30.jpg","[""ArrowDown"",""ArrowRight""]","value training","ocean","17","{""ArrowUp,ArrowLeft"":26,""ArrowUp,ArrowRight"":10,""ArrowDown,ArrowLeft"":5,""ArrowDown,ArrowRight"":17}","false","ArrowDown,ArrowRight","false","original","1","8","","",""
"html-keyboard-response","129","653591","0.0-4.0-2.0-1.4","spark_pilot_norest","9151","1","14","Male","","","","","","","null","<div style=""font-size:60px;"">+</div>","null","fixation","","","","","","","","","9","","",""
"revaluation","130","659603","0.0-4.0-2.0-0.5","spark_pilot_norest","9151","1","14","Male","","false","","","","","[596.7000000476837,573.1000001430511]","./assets/img/ocean/memory/31.jpg","[""ArrowDown"",""ArrowLeft""]","value training","ocean","5","{""ArrowUp,ArrowLeft"":26,""ArrowUp,ArrowRight"":10,""ArrowDown,ArrowLeft"":5,""ArrowDown,ArrowRight"":17}","false","ArrowDown,ArrowLeft","false","original","1","10","","",""
"html-keyboard-response","131","660106","0.0-4.0-2.0-1.5","spark_pilot_norest","9151","1","14","Male","","","","","","","null","<div style=""font-size:60px;"">+</div>","null","fixation","","","","","","","","","11","","",""
"revaluation","132","666112","0.0-4.0-2.0-0.6","spark_pilot_norest","9151","1","14","Male","","false","","","","","[639.2999999523163,446.2999999523163]","./assets/img/ocean/memory/16.jpg","[""ArrowUp"",""ArrowRight""]","value training","ocean","10","{""ArrowUp,ArrowLeft"":26,""ArrowUp,ArrowRight"":10,""ArrowDown,ArrowLeft"":5,""ArrowDown,ArrowRight"":17}","false","ArrowUp,ArrowRight","false","original","1","12","","",""
"html-keyboard-response","133","666623","0.0-4.0-2.0-1.6","spark_pilot_norest","9151","1","14","Male","","","","","","","null","<div style=""font-size:60px;"">+</div>","null","fixation","","","","","","","","","13","","",""
"revaluation","134","672629","0.0-4.0-2.0-0.7","spark_pilot_norest","9151","1","14","Male","","false","","","","","[580,293.89999985694885]","./assets/img/ocean/memory/26.jpg","[""ArrowUp"",""ArrowLeft""]","value training","ocean","26","{""ArrowUp,ArrowLeft"":26,""ArrowUp,ArrowRight"":10,""ArrowDown,ArrowLeft"":5,""ArrowDown,ArrowRight"":17}","true","ArrowUp,ArrowLeft","false","original","1","14","","",""
"html-keyboard-response","135","673131","0.0-4.0-2.0-1.7","spark_pilot_norest","9151","1","14","Male","","","","","","","null","<div style=""font-size:60px;"">+</div>","null","fixation","","","","","","","","","15","","",""
"revaluation","136","679151","0.0-4.0-2.0-0.8","spark_pilot_norest","9151","1","14","Male","","false","","","","","[592.3999998569489,287.19999980926514]","./assets/img/ocean/memory/29.jpg","[""ArrowUp"",""ArrowLeft""]","value training","ocean","26","{""ArrowUp,ArrowLeft"":26,""ArrowUp,ArrowRight"":10,""ArrowDown,ArrowLeft"":5,""ArrowDown,ArrowRight"":17}","true","ArrowUp,ArrowLeft","false","original","1","16","","",""
"html-keyboard-response","137","679669","0.0-4.0-2.0-1.8","spark_pilot_norest","9151","1","14","Male","","","","","","","null","<div style=""font-size:60px;"">+</div>","null","fixation","","","","","","","","","17","","",""
"revaluation","138","685681","0.0-4.0-2.0-0.9","spark_pilot_norest","9151","1","14","Male","","false","","","","","[635.1000001430511,409.89999985694885]","./assets/img/ocean/memory/19.jpg","[""ArrowUp"",""ArrowLeft""]","value training","ocean","26","{""ArrowUp,ArrowLeft"":26,""ArrowUp,ArrowRight"":10,""ArrowDown,ArrowLeft"":5,""ArrowDown,ArrowRight"":17}","true","ArrowUp,ArrowLeft","false","original","1","18","","",""
"html-keyboard-response","139","686182","0.0-4.0-2.0-1.9","spark_pilot_norest","9151","1","14","Male","","","","","","","null","<div style=""font-size:60px;"">+</div>","null","fixation","","","","","","","","","19","","",""
"revaluation","140","692192","0.0-4.0-2.0-0.10","spark_pilot_norest","9151","1","14","Male","","false","","","","","[667.7000000476837,1178.7000000476837]","./assets/img/ocean/memory/6.jpg","[""ArrowUp"",""ArrowLeft""]","value training","ocean","26","{""ArrowUp,ArrowLeft"":26,""ArrowUp,ArrowRight"":10,""ArrowDown,ArrowLeft"":5,""ArrowDown,ArrowRight"":17}","true","ArrowUp,ArrowLeft","false","original","1","20","","",""
"html-keyboard-response","141","692695","0.0-4.0-2.0-1.10","spark_pilot_norest","9151","1","14","Male","","","","","","","null","<div style=""font-size:60px;"">+</div>","null","fixation","","","","","","","","","21","","",""
"revaluation","142","698709","0.0-4.0-2.0-0.11","spark_pilot_norest","9151","1","14","Male","","false","","","","","[565.3999998569489,332.09999990463257]","./assets/img/ocean/memory/8.jpg","[""ArrowUp"",""ArrowLeft""]","value training","ocean","26","{""ArrowUp,ArrowLeft"":26,""ArrowUp,ArrowRight"":10,""ArrowDown,ArrowLeft"":5,""ArrowDown,ArrowRight"":17}","true","ArrowUp,ArrowLeft","false","original","1","22","","",""
"html-keyboard-response","143","699211","0.0-4.0-2.0-1.11","spark_pilot_norest","9151","1","14","Male","","","","","","","null","<div style=""font-size:60px;"">+</div>","null","fixation","","","","","","","","","23","","",""
"revaluation","144","705220","0.0-4.0-2.0-0.12","spark_pilot_norest","9151","1","14","Male","","false","","","","","[589.2999999523163,372.7999999523163]","./assets/img/ocean/memory/0.jpg","[""ArrowUp"",""ArrowLeft""]","value training","ocean","26","{""ArrowUp,ArrowLeft"":26,""ArrowUp,ArrowRight"":10,""ArrowDown,ArrowLeft"":5,""ArrowDown,ArrowRight"":17}","true","ArrowUp,ArrowLeft","false","original","1","24","","",""
"html-keyboard-response","145","705722","0.0-4.0-2.0-1.12","spark_pilot_norest","9151","1","14","Male","","","","","","","null","<div style=""font-size:60px;"">+</div>","null","fixation","","","","","","","","","25","","",""
"revaluation","146","711731","0.0-4.0-2.0-0.13","spark_pilot_norest","9151","1","14","Male","","false","","","","","[608.3999998569489,423.2000000476837]","./assets/img/ocean/memory/29.jpg","[""ArrowUp"",""ArrowLeft""]","value training","ocean","26","{""ArrowUp,ArrowLeft"":26,""ArrowUp,ArrowRight"":10,""ArrowDown,ArrowLeft"":5,""ArrowDown,ArrowRight"":17}","true","ArrowUp,ArrowLeft","false","original","1","26","","",""
"html-keyboard-response","147","712234","0.0-4.0-2.0-1.13","spark_pilot_norest","9151","1","14","Male","","","","","","","null","<div style=""font-size:60px;"">+</div>","null","fixation","","","","","","","","","27","","",""
"revaluation","148","718244","0.0-4.0-2.0-0.14","spark_pilot_norest","9151","1","14","Male","","false","","","","","[801.7000000476837,362]","./assets/img/ocean/memory/38.jpg","[""ArrowUp"",""ArrowLeft""]","value training","ocean","26","{""ArrowUp,ArrowLeft"":26,""ArrowUp,ArrowRight"":10,""ArrowDown,ArrowLeft"":5,""ArrowDown,ArrowRight"":17}","true","ArrowUp,ArrowLeft","false","original","1","28","","",""
"html-keyboard-response","149","718746","0.0-4.0-2.0-1.14","spark_pilot_norest","9151","1","14","Male","","","","","","","null","<div style=""font-size:60px;"">+</div>","null","fixation","","","","","","","","","29","","",""
"revaluation","150","724762","0.0-4.0-2.0-0.15","spark_pilot_norest","9151","1","14","Male","","false","","","","","[597.9000000953674,334.2999999523163]","./assets/img/ocean/memory/40.jpg","[""ArrowUp"",""ArrowLeft""]","value training","ocean","26","{""ArrowUp,ArrowLeft"":26,""ArrowUp,ArrowRight"":10,""ArrowDown,ArrowLeft"":5,""ArrowDown,ArrowRight"":17}","true","ArrowUp,ArrowLeft","false","original","1","30","","",""
"html-keyboard-response","151","725265","0.0-4.0-2.0-1.15","spark_pilot_norest","9151","1","14","Male","","","","","","","null","<div style=""font-size:60px;"">+</div>","null","fixation","","","","","","","","","31","","",""
"revaluation","152","731277","0.0-4.0-2.0-0.16","spark_pilot_norest","9151","1","14","Male","","false","","","","","[1005.2999999523163,488]","./assets/img/ocean/memory/27.jpg","[""ArrowUp"",""ArrowLeft""]","value training","ocean","26","{""ArrowUp,ArrowLeft"":26,""ArrowUp,ArrowRight"":10,""ArrowDown,ArrowLeft"":5,""ArrowDown,ArrowRight"":17}","true","ArrowUp,ArrowLeft","false","original","1","32","","",""
"html-keyboard-response","153","731779","0.0-4.0-2.0-1.16","spark_pilot_norest","9151","1","14","Male","","","","","","","null","<div style=""font-size:60px;"">+</div>","null","fixation","","","","","","","","","33","","",""
"revaluation","154","735788","0.0-4.0-2.0-0.17","spark_pilot_norest","9151","1","14","Male","","false","","","","","[573.7000000476837]","./assets/img/ocean/catch/0.jpg","[""spaceBar""]","value training","ocean","0","{""ArrowUp,ArrowLeft"":26,""ArrowUp,ArrowRight"":10,""ArrowDown,ArrowLeft"":5,""ArrowDown,ArrowRight"":17}","true","spaceBar","true","original","1","34","","",""
"html-keyboard-response","155","736291","0.0-4.0-2.0-1.17","spark_pilot_norest","9151","1","14","Male","","","","","","","null","<div style=""font-size:60px;"">+</div>","null","fixation","","","","","","","","","35","","",""
"revaluation","156","742299","0.0-4.0-2.0-0.18","spark_pilot_norest","9151","1","14","Male","","false","","","","","[644.0999999046326,296]","./assets/img/ocean/memory/2.jpg","[""ArrowUp"",""ArrowLeft""]","value training","ocean","26","{""ArrowUp,ArrowLeft"":26,""ArrowUp,ArrowRight"":10,""ArrowDown,ArrowLeft"":5,""ArrowDown,ArrowRight"":17}","true","ArrowUp,ArrowLeft","false","original","1","36","","",""
"html-keyboard-response","157","742802","0.0-4.0-2.0-1.18","spark_pilot_norest","9151","1","14","Male","","","","","","","null","<div style=""font-size:60px;"">+</div>","null","fixation","","","","","","","","","37","","",""
"revaluation","158","748814","0.0-4.0-2.0-0.19","spark_pilot_norest","9151","1","14","Male","","false","","","","","[389.7999999523163,488.09999990463257]","./assets/img/ocean/memory/12.jpg","[""ArrowUp"",""ArrowLeft""]","value training","ocean","26","{""ArrowUp,ArrowLeft"":26,""ArrowUp,ArrowRight"":10,""ArrowDown,ArrowLeft"":5,""ArrowDown,ArrowRight"":17}","true","ArrowUp,ArrowLeft","false","original","1","38","","",""
"html-keyboard-response","159","749317","0.0-4.0-2.0-1.19","spark_pilot_norest","9151","1","14","Male","","","","","","","null","<div style=""font-size:60px;"">+</div>","null","fixation","","","","","","","","","39","","",""
"revaluation","160","753325","0.0-4.0-2.0-0.20","spark_pilot_norest","9151","1","14","Male","","false","","","","","[714.7000000476837]","./assets/img/ocean/catch/6.jpg","[""spaceBar""]","value training","ocean","0","{""ArrowUp,ArrowLeft"":26,""ArrowUp,ArrowRight"":10,""ArrowDown,ArrowLeft"":5,""ArrowDown,ArrowRight"":17}","true","spaceBar","true","original","1","40","","",""
"html-keyboard-response","161","753827","0.0-4.0-2.0-1.20","spark_pilot_norest","9151","1","14","Male","","","","","","","null","<div style=""font-size:60px;"">+</div>","null","fixation","","","","","","","","","41","","",""
"revaluation","162","759847","0.0-4.0-2.0-0.21","spark_pilot_norest","9151","1","14","Male","","false","","","","","[661.3000001907349,477]","./assets/img/ocean/memory/24.jpg","[""ArrowUp"",""ArrowLeft""]","value training","ocean","26","{""ArrowUp,ArrowLeft"":26,""ArrowUp,ArrowRight"":10,""ArrowDown,ArrowLeft"":5,""ArrowDown,ArrowRight"":17}","true","ArrowUp,ArrowLeft","false","original","1","42","","",""
"html-keyboard-response","163","760349","0.0-4.0-2.0-1.21","spark_pilot_norest","9151","1","14","Male","","","","","","","null","<div style=""font-size:60px;"">+</div>","null","fixation","","","","","","","","","43","","",""
"revaluation","164","766360","0.0-4.0-2.0-0.22","spark_pilot_norest","9151","1","14","Male","","false","","","","","[543.9000000953674,458.5]","./assets/img/ocean/memory/39.jpg","[""ArrowUp"",""ArrowLeft""]","value training","ocean","26","{""ArrowUp,ArrowLeft"":26,""ArrowUp,ArrowRight"":10,""ArrowDown,ArrowLeft"":5,""ArrowDown,ArrowRight"":17}","true","ArrowUp,ArrowLeft","false","original","1","44","","",""
"html-keyboard-response","165","766864","0.0-4.0-2.0-1.22","spark_pilot_norest","9151","1","14","Male","","","","","","","null","<div style=""font-size:60px;"">+</div>","null","fixation","","","","","","","","","45","","",""
"revaluation","166","772873","0.0-4.0-2.0-0.23","spark_pilot_norest","9151","1","14","Male","","false","","","","","[529,328.5]","./assets/img/ocean/memory/39.jpg","[""ArrowUp"",""ArrowLeft""]","value training","ocean","26","{""ArrowUp,ArrowLeft"":26,""ArrowUp,ArrowRight"":10,""ArrowDown,ArrowLeft"":5,""ArrowDown,ArrowRight"":17}","true","ArrowUp,ArrowLeft","false","original","1","46","","",""
"html-keyboard-response","167","773376","0.0-4.0-2.0-1.23","spark_pilot_norest","9151","1","14","Male","","","","","","","null","<div style=""font-size:60px;"">+</div>","null","fixation","","","","","","","","","47","","",""
"revaluation","168","779387","0.0-4.0-2.0-0.24","spark_pilot_norest","9151","1","14","Male","","false","","","","","[382.5,367.10000014305115]","./assets/img/ocean/memory/18.jpg","[""ArrowUp"",""ArrowLeft""]","value training","ocean","26","{""ArrowUp,ArrowLeft"":26,""ArrowUp,ArrowRight"":10,""ArrowDown,ArrowLeft"":5,""ArrowDown,ArrowRight"":17}","true","ArrowUp,ArrowLeft","false","original","1","48","","",""
"html-keyboard-response","169","779889","0.0-4.0-2.0-1.24","spark_pilot_norest","9151","1","14","Male","","","","","","","null","<div style=""font-size:60px;"">+</div>","null","fixation","","","","","","","","","49","","",""
"revaluation","170","785901","0.0-4.0-2.0-0.25","spark_pilot_norest","9151","1","14","Male","","false","","","","","[468.5,374.2999999523163]","./assets/img/ocean/memory/1.jpg","[""ArrowUp"",""ArrowLeft""]","value training","ocean","26","{""ArrowUp,ArrowLeft"":26,""ArrowUp,ArrowRight"":10,""ArrowDown,ArrowLeft"":5,""ArrowDown,ArrowRight"":17}","true","ArrowUp,ArrowLeft","false","original","1","50","","",""
"html-keyboard-response","171","786404","0.0-4.0-2.0-1.25","spark_pilot_norest","9151","1","14","Male","","","","","","","null","<div style=""font-size:60px;"">+</div>","null","fixation","","","","","","","","","51","","",""
"revaluation","172","792421","0.0-4.0-2.0-0.26","spark_pilot_norest","9151","1","14","Male","","false","","","","","[707.2999999523163,800.2999999523163]","./assets/img/ocean/memory/27.jpg","[""ArrowUp"",""ArrowLeft""]","value training","ocean","26","{""ArrowUp,ArrowLeft"":26,""ArrowUp,ArrowRight"":10,""ArrowDown,ArrowLeft"":5,""ArrowDown,ArrowRight"":17}","true","ArrowUp,ArrowLeft","false","original","1","52","","",""
"html-keyboard-response","173","792923","0.0-4.0-2.0-1.26","spark_pilot_norest","9151","1","14","Male","","","","","","","null","<div style=""font-size:60px;"">+</div>","null","fixation","","","","","","","","","53","","",""
"revaluation","174","798935","0.0-4.0-2.0-0.27","spark_pilot_norest","9151","1","14","Male","","false","","","","","[531.5999999046326,1543.7000000476837]","./assets/img/ocean/memory/40.jpg","[""ArrowUp"",""ArrowLeft""]","value training","ocean","26","{""ArrowUp,ArrowLeft"":26,""ArrowUp,ArrowRight"":10,""ArrowDown,ArrowLeft"":5,""ArrowDown,ArrowRight"":17}","true","ArrowUp,ArrowLeft","false","original","1","54","","",""
"html-keyboard-response","175","799437","0.0-4.0-2.0-1.27","spark_pilot_norest","9151","1","14","Male","","","","","","","null","<div style=""font-size:60px;"">+</div>","null","fixation","","","","","","","","","55","","",""
"revaluation","176","805446","0.0-4.0-2.0-0.28","spark_pilot_norest","9151","1","14","Male","","false","","","","","[508.80000019073486,795.2000000476837]","./assets/img/ocean/memory/26.jpg","[""ArrowUp"",""ArrowLeft""]","value training","ocean","26","{""ArrowUp,ArrowLeft"":26,""ArrowUp,ArrowRight"":10,""ArrowDown,ArrowLeft"":5,""ArrowDown,ArrowRight"":17}","true","ArrowUp,ArrowLeft","false","original","1","56","","",""
"html-keyboard-response","177","805949","0.0-4.0-2.0-1.28","spark_pilot_norest","9151","1","14","Male","","","","","","","null","<div style=""font-size:60px;"">+</div>","null","fixation","","","","","","","","","57","","",""
"revaluation","178","811959","0.0-4.0-2.0-0.29","spark_pilot_norest","9151","1","14","Male","","false","","","","","[432.2999999523163,386.7999999523163]","./assets/img/ocean/memory/31.jpg","[""ArrowUp"",""ArrowLeft""]","value training","ocean","26","{""ArrowUp,ArrowLeft"":26,""ArrowUp,ArrowRight"":10,""ArrowDown,ArrowLeft"":5,""ArrowDown,ArrowRight"":17}","true","ArrowUp,ArrowLeft","false","original","1","58","","",""
"html-keyboard-response","179","812462","0.0-4.0-2.0-1.29","spark_pilot_norest","9151","1","14","Male","","","","","","","null","<div style=""font-size:60px;"">+</div>","null","fixation","","","","","","","","","59","","",""
"revaluation","180","818481","0.0-4.0-2.0-0.30","spark_pilot_norest","9151","1","14","Male","","false","","","","","[557.9000000953674,501.2000000476837]","./assets/img/ocean/memory/30.jpg","[""ArrowUp"",""ArrowLeft""]","value training","ocean","26","{""ArrowUp,ArrowLeft"":26,""ArrowUp,ArrowRight"":10,""ArrowDown,ArrowLeft"":5,""ArrowDown,ArrowRight"":17}","true","ArrowUp,ArrowLeft","false","original","1","60","","",""
"html-keyboard-response","181","818984","0.0-4.0-2.0-1.30","spark_pilot_norest","9151","1","14","Male","","","","","","","null","<div style=""font-size:60px;"">+</div>","null","fixation","","","","","","","","","61","","",""
"revaluation","182","824996","0.0-4.0-2.0-0.31","spark_pilot_norest","9151","1","14","Male","","false","","","","","[1389.5,408.90000009536743]","./assets/img/ocean/memory/19.jpg","[""ArrowUp"",""ArrowRight""]","value training","ocean","10","{""ArrowUp,ArrowLeft"":26,""ArrowUp,ArrowRight"":10,""ArrowDown,ArrowLeft"":5,""ArrowDown,ArrowRight"":17}","false","ArrowUp,ArrowRight","false","original","1","62","","",""
"html-keyboard-response","183","825499","0.0-4.0-2.0-1.31","spark_pilot_norest","9151","1","14","Male","","","","","","","null","<div style=""font-size:60px;"">+</div>","null","fixation","","","","","","","","","63","","",""
"revaluation","184","831511","0.0-4.0-2.0-0.32","spark_pilot_norest","9151","1","14","Male","","false","","","","","[345.7999999523163,246.40000009536743]","./assets/img/ocean/memory/0.jpg","[""ArrowDown"",""ArrowRight""]","value training","ocean","17","{""ArrowUp,ArrowLeft"":26,""ArrowUp,ArrowRight"":10,""ArrowDown,ArrowLeft"":5,""ArrowDown,ArrowRight"":17}","false","ArrowDown,ArrowRight","false","original","1","64","","",""
"html-keyboard-response","185","832013","0.0-4.0-2.0-1.32","spark_pilot_norest","9151","1","14","Male","","","","","","","null","<div style=""font-size:60px;"">+</div>","null","fixation","","","","","","","","","65","","",""
"revaluation","186","838024","0.0-4.0-2.0-0.33","spark_pilot_norest","9151","1","14","Male","","false","","","","","[414.7000000476837,338.10000014305115]","./assets/img/ocean/memory/35.jpg","[""ArrowDown"",""ArrowLeft""]","value training","ocean","5","{""ArrowUp,ArrowLeft"":26,""ArrowUp,ArrowRight"":10,""ArrowDown,ArrowLeft"":5,""ArrowDown,ArrowRight"":17}","false","ArrowDown,ArrowLeft","false","original","1","66","","",""
"html-keyboard-response","187","838537","0.0-4.0-2.0-1.33","spark_pilot_norest","9151","1","14","Male","","","","","","","null","<div style=""font-size:60px;"">+</div>","null","fixation","","","","","","","","","67","","",""
"revaluation","188","844548","0.0-4.0-2.0-0.34","spark_pilot_norest","9151","1","14","Male","","false","","","","","[351.5,453.10000014305115]","./assets/img/ocean/memory/35.jpg","[""ArrowUp"",""ArrowLeft""]","value training","ocean","26","{""ArrowUp,ArrowLeft"":26,""ArrowUp,ArrowRight"":10,""ArrowDown,ArrowLeft"":5,""ArrowDown,ArrowRight"":17}","true","ArrowUp,ArrowLeft","false","original","1","68","","",""
"html-keyboard-response","189","845050","0.0-4.0-2.0-1.34","spark_pilot_norest","9151","1","14","Male","","","","","","","null","<div style=""font-size:60px;"">+</div>","null","fixation","","","","","","","","","69","","",""
"revaluation","190","851070","0.0-4.0-2.0-0.35","spark_pilot_norest","9151","1","14","Male","","false","","","","","[458.5,257.80000019073486]","./assets/img/ocean/memory/12.jpg","[""ArrowUp"",""ArrowLeft""]","value training","ocean","26","{""ArrowUp,ArrowLeft"":26,""ArrowUp,ArrowRight"":10,""ArrowDown,ArrowLeft"":5,""ArrowDown,ArrowRight"":17}","true","ArrowUp,ArrowLeft","false","original","1","70","","",""
"html-keyboard-response","191","851573","0.0-4.0-2.0-1.35","spark_pilot_norest","9151","1","14","Male","","","","","","","null","<div style=""font-size:60px;"">+</div>","null","fixation","","","","","","","","","71","","",""
"revaluation","192","855582","0.0-4.0-2.0-0.36","spark_pilot_norest","9151","1","14","Male","","false","","","","","[691.5]","./assets/img/ocean/catch/3.jpg","[""spaceBar""]","value training","ocean","0","{""ArrowUp,ArrowLeft"":26,""ArrowUp,ArrowRight"":10,""ArrowDown,ArrowLeft"":5,""ArrowDown,ArrowRight"":17}","true","spaceBar","true","original","1","72","","",""
"html-keyboard-response","193","856084","0.0-4.0-2.0-1.36","spark_pilot_norest","9151","1","14","Male","","","","","","","null","<div style=""font-size:60px;"">+</div>","null","fixation","","","","","","","","","73","","",""
"revaluation","194","862092","0.0-4.0-2.0-0.37","spark_pilot_norest","9151","1","14","Male","","false","","","","","[471.2000000476837,433.2999999523163]","./assets/img/ocean/memory/6.jpg","[""ArrowUp"",""ArrowLeft""]","value training","ocean","26","{""ArrowUp,ArrowLeft"":26,""ArrowUp,ArrowRight"":10,""ArrowDown,ArrowLeft"":5,""ArrowDown,ArrowRight"":17}","true","ArrowUp,ArrowLeft","false","original","1","74","","",""
"html-keyboard-response","195","862595","0.0-4.0-2.0-1.37","spark_pilot_norest","9151","1","14","Male","","","","","","","null","<div style=""font-size:60px;"">+</div>","null","fixation","","","","","","","","","75","","",""
"revaluation","196","868609","0.0-4.0-2.0-0.38","spark_pilot_norest","9151","1","14","Male","","false","","","","","[441.7999999523163,538]","./assets/img/ocean/memory/1.jpg","[""ArrowUp"",""ArrowLeft""]","value training","ocean","26","{""ArrowUp,ArrowLeft"":26,""ArrowUp,ArrowRight"":10,""ArrowDown,ArrowLeft"":5,""ArrowDown,ArrowRight"":17}","true","ArrowUp,ArrowLeft","false","original","1","76","","",""
"html-keyboard-response","197","869112","0.0-4.0-2.0-1.38","spark_pilot_norest","9151","1","14","Male","","","","","","","null","<div style=""font-size:60px;"">+</div>","null","fixation","","","","","","","","","77","","",""
"revaluation","198","875126","0.0-4.0-2.0-0.39","spark_pilot_norest","9151","1","14","Male","","false","","","","","[553.2999999523163,530.7999999523163]","./assets/img/ocean/memory/5.jpg","[""ArrowUp"",""ArrowLeft""]","value training","ocean","26","{""ArrowUp,ArrowLeft"":26,""ArrowUp,ArrowRight"":10,""ArrowDown,ArrowLeft"":5,""ArrowDown,ArrowRight"":17}","true","ArrowUp,ArrowLeft","false","original","1","78","","",""
"html-keyboard-response","199","875629","0.0-4.0-2.0-1.39","spark_pilot_norest","9151","1","14","Male","","","","","","","null","<div style=""font-size:60px;"">+</div>","null","fixation","","","","","","","","","79","","",""
"revaluation","200","879637","0.0-4.0-2.0-0.40","spark_pilot_norest","9151","1","14","Male","","false","","","","","[705.5999999046326]","./assets/img/ocean/catch/2.jpg","[""spaceBar""]","value training","ocean","0","{""ArrowUp,ArrowLeft"":26,""ArrowUp,ArrowRight"":10,""ArrowDown,ArrowLeft"":5,""ArrowDown,ArrowRight"":17}","true","spaceBar","true","original","1","80","","",""
"html-keyboard-response","201","880140","0.0-4.0-2.0-1.40","spark_pilot_norest","9151","1","14","Male","","","","","","","null","<div style=""font-size:60px;"">+</div>","null","fixation","","","","","","","","","81","","",""
"revaluation","202","886150","0.0-4.0-2.0-0.41","spark_pilot_norest","9151","1","14","Male","","false","","","","","[545.4000000953674,390]","./assets/img/ocean/memory/5.jpg","[""ArrowUp"",""ArrowLeft""]","value training","ocean","26","{""ArrowUp,ArrowLeft"":26,""ArrowUp,ArrowRight"":10,""ArrowDown,ArrowLeft"":5,""ArrowDown,ArrowRight"":17}","true","ArrowUp,ArrowLeft","false","original","1","82","","",""
"html-keyboard-response","203","886652","0.0-4.0-2.0-1.41","spark_pilot_norest","9151","1","14","Male","","","","","","","null","<div style=""font-size:60px;"">+</div>","null","fixation","","","","","","","","","83","","",""
"revaluation","204","892662","0.0-4.0-2.0-0.42","spark_pilot_norest","9151","1","14","Male","","false","","","","","[1348.9000000953674,351.40000009536743]","./assets/img/ocean/memory/24.jpg","[""ArrowUp"",""ArrowLeft""]","value training","ocean","26","{""ArrowUp,ArrowLeft"":26,""ArrowUp,ArrowRight"":10,""ArrowDown,ArrowLeft"":5,""ArrowDown,ArrowRight"":17}","true","ArrowUp,ArrowLeft","false","original","1","84","","",""
"html-keyboard-response","205","893166","0.0-4.0-2.0-1.42","spark_pilot_norest","9151","1","14","Male","","","","","","","null","<div style=""font-size:60px;"">+</div>","null","fixation","","","","","","","","","85","","",""
"revaluation","206","899177","0.0-4.0-2.0-0.43","spark_pilot_norest","9151","1","14","Male","","false","","","","","[452.5,901.2000000476837]","./assets/img/ocean/memory/22.jpg","[""ArrowUp"",""ArrowLeft""]","value training","ocean","26","{""ArrowUp,ArrowLeft"":26,""ArrowUp,ArrowRight"":10,""ArrowDown,ArrowLeft"":5,""ArrowDown,ArrowRight"":17}","true","ArrowUp,ArrowLeft","false","original","1","86","","",""
"html-keyboard-response","207","899679","0.0-4.0-2.0-1.43","spark_pilot_norest","9151","1","14","Male","","","","","","","null","<div style=""font-size:60px;"">+</div>","null","fixation","","","","","","","","","87","","",""
"revaluation","208","903699","0.0-4.0-2.0-0.44","spark_pilot_norest","9151","1","14","Male","","false","","","","","[847]","./assets/img/ocean/catch/4.jpg","[""spaceBar""]","value training","ocean","0","{""ArrowUp,ArrowLeft"":26,""ArrowUp,ArrowRight"":10,""ArrowDown,ArrowLeft"":5,""ArrowDown,ArrowRight"":17}","true","spaceBar","true","original","1","88","","",""
"html-keyboard-response","209","904202","0.0-4.0-2.0-1.44","spark_pilot_norest","9151","1","14","Male","","","","","","","null","<div style=""font-size:60px;"">+</div>","null","fixation","","","","","","","","","89","","",""
"revaluation","210","910212","0.0-4.0-2.0-0.45","spark_pilot_norest","9151","1","14","Male","","false","","","","","[1277.2000000476837,1045.6000001430511]","./assets/img/ocean/memory/2.jpg","[""ArrowUp"",""ArrowLeft""]","value training","ocean","26","{""ArrowUp,ArrowLeft"":26,""ArrowUp,ArrowRight"":10,""ArrowDown,ArrowLeft"":5,""ArrowDown,ArrowRight"":17}","true","ArrowUp,ArrowLeft","false","original","1","90","","",""
"html-keyboard-response","211","910714","0.0-4.0-2.0-1.45","spark_pilot_norest","9151","1","14","Male","","","","","","","null","<div style=""font-size:60px;"">+</div>","null","fixation","","","","","","","","","91","","",""
"revaluation","212","914723","0.0-4.0-2.0-0.46","spark_pilot_norest","9151","1","14","Male","","false","","","","","[567.8999998569489]","./assets/img/ocean/catch/7.jpg","[""spaceBar""]","value training","ocean","0","{""ArrowUp,ArrowLeft"":26,""ArrowUp,ArrowRight"":10,""ArrowDown,ArrowLeft"":5,""ArrowDown,ArrowRight"":17}","true","spaceBar","true","original","1","92","","",""
"html-keyboard-response","213","915226","0.0-4.0-2.0-1.46","spark_pilot_norest","9151","1","14","Male","","","","","","","null","<div style=""font-size:60px;"">+</div>","null","fixation","","","","","","","","","93","","",""
"revaluation","214","919235","0.0-4.0-2.0-0.47","spark_pilot_norest","9151","1","14","Male","","false","","","","","[1001.5999999046326]","./assets/img/ocean/catch/1.jpg","[""spaceBar""]","value training","ocean","0","{""ArrowUp,ArrowLeft"":26,""ArrowUp,ArrowRight"":10,""ArrowDown,ArrowLeft"":5,""ArrowDown,ArrowRight"":17}","true","spaceBar","true","original","1","94","","",""
"html-keyboard-response","215","919738","0.0-4.0-2.0-1.47","spark_pilot_norest","9151","1","14","Male","","","","","","","null","<div style=""font-size:60px;"">+</div>","null","fixation","","","","","","","","","95","","",""
"revaluation","216","925750","0.0-4.0-2.0-0.48","spark_pilot_norest","9151","1","14","Male","","false","","","","","[816.4000000953674,260]","./assets/img/ocean/memory/22.jpg","[""ArrowUp"",""ArrowLeft""]","value training","ocean","26","{""ArrowUp,ArrowLeft"":26,""ArrowUp,ArrowRight"":10,""ArrowDown,ArrowLeft"":5,""ArrowDown,ArrowRight"":17}","true","ArrowUp,ArrowLeft","false","original","1","96","","",""
"html-keyboard-response","217","926252","0.0-4.0-2.0-1.48","spark_pilot_norest","9151","1","14","Male","","","","","","","null","<div style=""font-size:60px;"">+</div>","null","fixation","","","","","","","","","97","","",""
"revaluation","218","932262","0.0-4.0-2.0-0.49","spark_pilot_norest","9151","1","14","Male","","false","","","","","[397.30000019073486,36.40000009536743]","./assets/img/ocean/memory/38.jpg","[""ArrowUp"",""ArrowLeft""]","value training","ocean","26","{""ArrowUp,ArrowLeft"":26,""ArrowUp,ArrowRight"":10,""ArrowDown,ArrowLeft"":5,""ArrowDown,ArrowRight"":17}","true","ArrowUp,ArrowLeft","false","original","1","98","","",""
"html-keyboard-response","219","932765","0.0-4.0-2.0-1.49","spark_pilot_norest","9151","1","14","Male","","","","","","","null","<div style=""font-size:60px;"">+</div>","null","fixation","","","","","","","","","99","","",""
"learning-instructions","220","948363","0.0-4.0-3.0-0.0","spark_pilot_norest","9151","1","14","Male","","","","","","","2655.600000143051","<p> Now, you will travel with a friend who will choose whether you go up or down first. </p>
            <p> On these turns, you will just see the animal that they found. You will still get to choose which chest to search for treasure.</p>","","instructions","","","","","","","","","","","",""
"revaluation","221","952376","0.0-4.0-4.0-0.0","spark_pilot_norest","9151","1","14","Male","","false","","","","","[1317.9000000953674]","./assets/img/ocean/animals/octopus.jpg","[""ArrowRight""]","revaluation","ocean","10","{""ArrowUp,ArrowLeft"":26,""ArrowUp,ArrowRight"":10,""ArrowDown,ArrowLeft"":5,""ArrowDown,ArrowRight"":17}","false","ArrowUp,ArrowRight","","original","1","0","","",""
"html-keyboard-response","222","952895","0.0-4.0-4.0-1.0","spark_pilot_norest","9151","1","14","Male","","","","","","","null","<div style=""font-size:60px;"">+</div>","null","fixation","","","","","","","","","1","","",""
"revaluation","223","956915","0.0-4.0-4.0-0.1","spark_pilot_norest","9151","1","14","Male","","false","","","","","[383.7000000476837]","./assets/img/ocean/animals/seahorse.jpg","[""ArrowLeft""]","revaluation","ocean","5","{""ArrowUp,ArrowLeft"":26,""ArrowUp,ArrowRight"":10,""ArrowDown,ArrowLeft"":5,""ArrowDown,ArrowRight"":17}","false","ArrowDown,ArrowLeft","","original","1","2","","",""
"html-keyboard-response","224","957434","0.0-4.0-4.0-1.1","spark_pilot_norest","9151","1","14","Male","","","","","","","null","<div style=""font-size:60px;"">+</div>","null","fixation","","","","","","","","","3","","",""
"revaluation","225","961475","0.0-4.0-4.0-0.2","spark_pilot_norest","9151","1","14","Male","","false","","","","","[293]","./assets/img/ocean/animals/octopus.jpg","[""ArrowLeft""]","revaluation","ocean","26","{""ArrowUp,ArrowLeft"":26,""ArrowUp,ArrowRight"":10,""ArrowDown,ArrowLeft"":5,""ArrowDown,ArrowRight"":17}","true","ArrowUp,ArrowLeft","","original","1","4","","",""
"html-keyboard-response","226","961984","0.0-4.0-4.0-1.2","spark_pilot_norest","9151","1","14","Male","","","","","","","null","<div style=""font-size:60px;"">+</div>","null","fixation","","","","","","","","","5","","",""
"revaluation","227","966014","0.0-4.0-4.0-0.3","spark_pilot_norest","9151","1","14","Male","","false","","","","","[310.2000000476837]","./assets/img/ocean/animals/octopus.jpg","[""ArrowRight""]","revaluation","ocean","10","{""ArrowUp,ArrowLeft"":26,""ArrowUp,ArrowRight"":10,""ArrowDown,ArrowLeft"":5,""ArrowDown,ArrowRight"":17}","false","ArrowUp,ArrowRight","","original","1","6","","",""
"html-keyboard-response","228","966523","0.0-4.0-4.0-1.3","spark_pilot_norest","9151","1","14","Male","","","","","","","null","<div style=""font-size:60px;"">+</div>","null","fixation","","","","","","","","","7","","",""
"revaluation","229","970555","0.0-4.0-4.0-0.4","spark_pilot_norest","9151","1","14","Male","","false","","","","","[631.6000001430511]","./assets/img/ocean/animals/seahorse.jpg","[""ArrowRight""]","revaluation","ocean","17","{""ArrowUp,ArrowLeft"":26,""ArrowUp,ArrowRight"":10,""ArrowDown,ArrowLeft"":5,""ArrowDown,ArrowRight"":17}","true","ArrowDown,ArrowRight","","original","1","8","","",""
"html-keyboard-response","230","971074","0.0-4.0-4.0-1.4","spark_pilot_norest","9151","1","14","Male","","","","","","","null","<div style=""font-size:60px;"">+</div>","null","fixation","","","","","","","","","9","","",""
"revaluation","231","975106","0.0-4.0-4.0-0.5","spark_pilot_norest","9151","1","14","Male","","false","","","","","[400.59999990463257]","./assets/img/ocean/animals/octopus.jpg","[""ArrowLeft""]","revaluation","ocean","26","{""ArrowUp,ArrowLeft"":26,""ArrowUp,ArrowRight"":10,""ArrowDown,ArrowLeft"":5,""ArrowDown,ArrowRight"":17}","true","ArrowUp,ArrowLeft","","original","1","10","","",""
"html-keyboard-response","232","975614","0.0-4.0-4.0-1.5","spark_pilot_norest","9151","1","14","Male","","","","","","","null","<div style=""font-size:60px;"">+</div>","null","fixation","","","","","","","","","11","","",""
"revaluation","233","979631","0.0-4.0-4.0-0.6","spark_pilot_norest","9151","1","14","Male","","false","","","","","[363]","./assets/img/ocean/animals/octopus.jpg","[""ArrowLeft""]","revaluation","ocean","26","{""ArrowUp,ArrowLeft"":26,""ArrowUp,ArrowRight"":10,""ArrowDown,ArrowLeft"":5,""ArrowDown,ArrowRight"":17}","true","ArrowUp,ArrowLeft","","original","1","12","","",""
"html-keyboard-response","234","980134","0.0-4.0-4.0-1.6","spark_pilot_norest","9151","1","14","Male","","","","","","","null","<div style=""font-size:60px;"">+</div>","null","fixation","","","","","","","","","13","","",""
"revaluation","235","984143","0.0-4.0-4.0-0.7","spark_pilot_norest","9151","1","14","Male","","false","","","","","[409.7000000476837]","./assets/img/ocean/animals/seahorse.jpg","[""ArrowRight""]","revaluation","ocean","17","{""ArrowUp,ArrowLeft"":26,""ArrowUp,ArrowRight"":10,""ArrowDown,ArrowLeft"":5,""ArrowDown,ArrowRight"":17}","true","ArrowDown,ArrowRight","","original","1","14","","",""
"html-keyboard-response","236","984649","0.0-4.0-4.0-1.7","spark_pilot_norest","9151","1","14","Male","","","","","","","null","<div style=""font-size:60px;"">+</div>","null","fixation","","","","","","","","","15","","",""
"revaluation","237","988659","0.0-4.0-4.0-0.8","spark_pilot_norest","9151","1","14","Male","","false","","","","","[1758.0999999046326]","./assets/img/ocean/animals/octopus.jpg","[""ArrowLeft""]","revaluation","ocean","26","{""ArrowUp,ArrowLeft"":26,""ArrowUp,ArrowRight"":10,""ArrowDown,ArrowLeft"":5,""ArrowDown,ArrowRight"":17}","true","ArrowUp,ArrowLeft","","original","1","16","","",""
"html-keyboard-response","238","989161","0.0-4.0-4.0-1.8","spark_pilot_norest","9151","1","14","Male","","","","","","","null","<div style=""font-size:60px;"">+</div>","null","fixation","","","","","","","","","17","","",""
"revaluation","239","993170","0.0-4.0-4.0-0.9","spark_pilot_norest","9151","1","14","Male","","false","","","","","[483.7999999523163]","./assets/img/ocean/animals/seahorse.jpg","[""ArrowRight""]","revaluation","ocean","17","{""ArrowUp,ArrowLeft"":26,""ArrowUp,ArrowRight"":10,""ArrowDown,ArrowLeft"":5,""ArrowDown,ArrowRight"":17}","true","ArrowDown,ArrowRight","","original","1","18","","",""
"html-keyboard-response","240","993673","0.0-4.0-4.0-1.9","spark_pilot_norest","9151","1","14","Male","","","","","","","null","<div style=""font-size:60px;"">+</div>","null","fixation","","","","","","","","","19","","",""
"revaluation","241","997681","0.0-4.0-4.0-0.10","spark_pilot_norest","9151","1","14","Male","","false","","","","","[569.6999998092651]","./assets/img/ocean/animals/seahorse.jpg","[""ArrowRight""]","revaluation","ocean","17","{""ArrowUp,ArrowLeft"":26,""ArrowUp,ArrowRight"":10,""ArrowDown,ArrowLeft"":5,""ArrowDown,ArrowRight"":17}","true","ArrowDown,ArrowRight","","original","1","20","","",""
"html-keyboard-response","242","998183","0.0-4.0-4.0-1.10","spark_pilot_norest","9151","1","14","Male","","","","","","","null","<div style=""font-size:60px;"">+</div>","null","fixation","","","","","","","","","21","","",""
"revaluation","243","1002191","0.0-4.0-4.0-0.11","spark_pilot_norest","9151","1","14","Male","","false","","","","","[443.2999999523163]","./assets/img/ocean/animals/octopus.jpg","[""ArrowLeft""]","revaluation","ocean","26","{""ArrowUp,ArrowLeft"":26,""ArrowUp,ArrowRight"":10,""ArrowDown,ArrowLeft"":5,""ArrowDown,ArrowRight"":17}","true","ArrowUp,ArrowLeft","","original","1","22","","",""
"html-keyboard-response","244","1002693","0.0-4.0-4.0-1.11","spark_pilot_norest","9151","1","14","Male","","","","","","","null","<div style=""font-size:60px;"">+</div>","null","fixation","","","","","","","","","23","","",""
"revaluation","245","1006704","0.0-4.0-4.0-0.12","spark_pilot_norest","9151","1","14","Male","","false","","","","","[628]","./assets/img/ocean/animals/seahorse.jpg","[""ArrowRight""]","revaluation","ocean","17","{""ArrowUp,ArrowLeft"":26,""ArrowUp,ArrowRight"":10,""ArrowDown,ArrowLeft"":5,""ArrowDown,ArrowRight"":17}","true","ArrowDown,ArrowRight","","original","1","24","","",""
"html-keyboard-response","246","1007206","0.0-4.0-4.0-1.12","spark_pilot_norest","9151","1","14","Male","","","","","","","null","<div style=""font-size:60px;"">+</div>","null","fixation","","","","","","","","","25","","",""
"revaluation","247","1011215","0.0-4.0-4.0-0.13","spark_pilot_norest","9151","1","14","Male","","false","","","","","[482.2000000476837]","./assets/img/ocean/animals/octopus.jpg","[""ArrowLeft""]","revaluation","ocean","26","{""ArrowUp,ArrowLeft"":26,""ArrowUp,ArrowRight"":10,""ArrowDown,ArrowLeft"":5,""ArrowDown,ArrowRight"":17}","true","ArrowUp,ArrowLeft","","original","1","26","","",""
"html-keyboard-response","248","1011717","0.0-4.0-4.0-1.13","spark_pilot_norest","9151","1","14","Male","","","","","","","null","<div style=""font-size:60px;"">+</div>","null","fixation","","","","","","","","","27","","",""
"revaluation","249","1015724","0.0-4.0-4.0-0.14","spark_pilot_norest","9151","1","14","Male","","false","","","","","[631.0999999046326]","./assets/img/ocean/animals/octopus.jpg","[""ArrowLeft""]","revaluation","ocean","26","{""ArrowUp,ArrowLeft"":26,""ArrowUp,ArrowRight"":10,""ArrowDown,ArrowLeft"":5,""ArrowDown,ArrowRight"":17}","true","ArrowUp,ArrowLeft","","original","1","28","","",""
"html-keyboard-response","250","1016227","0.0-4.0-4.0-1.14","spark_pilot_norest","9151","1","14","Male","","","","","","","null","<div style=""font-size:60px;"">+</div>","null","fixation","","","","","","","","","29","","",""
"revaluation","251","1020238","0.0-4.0-4.0-0.15","spark_pilot_norest","9151","1","14","Male","","false","","","","","[909.7000000476837]","./assets/img/ocean/animals/seahorse.jpg","[""ArrowRight""]","revaluation","ocean","17","{""ArrowUp,ArrowLeft"":26,""ArrowUp,ArrowRight"":10,""ArrowDown,ArrowLeft"":5,""ArrowDown,ArrowRight"":17}","true","ArrowDown,ArrowRight","","original","1","30","","",""
"html-keyboard-response","252","1020740","0.0-4.0-4.0-1.15","spark_pilot_norest","9151","1","14","Male","","","","","","","null","<div style=""font-size:60px;"">+</div>","null","fixation","","","","","","","","","31","","",""
"revaluation","253","1024756","0.0-4.0-4.0-0.16","spark_pilot_norest","9151","1","14","Male","","false","","","","","[647.5999999046326]","./assets/img/ocean/animals/seahorse.jpg","[""ArrowRight""]","revaluation","ocean","17","{""ArrowUp,ArrowLeft"":26,""ArrowUp,ArrowRight"":10,""ArrowDown,ArrowLeft"":5,""ArrowDown,ArrowRight"":17}","true","ArrowDown,ArrowRight","","original","1","32","","",""
"html-keyboard-response","254","1025258","0.0-4.0-4.0-1.16","spark_pilot_norest","9151","1","14","Male","","","","","","","null","<div style=""font-size:60px;"">+</div>","null","fixation","","","","","","","","","33","","",""
"revaluation","255","1029264","0.0-4.0-4.0-0.17","spark_pilot_norest","9151","1","14","Male","","false","","","","","[506.60000014305115]","./assets/img/ocean/animals/seahorse.jpg","[""ArrowRight""]","revaluation","ocean","17","{""ArrowUp,ArrowLeft"":26,""ArrowUp,ArrowRight"":10,""ArrowDown,ArrowLeft"":5,""ArrowDown,ArrowRight"":17}","true","ArrowDown,ArrowRight","","original","1","34","","",""
"html-keyboard-response","256","1029767","0.0-4.0-4.0-1.17","spark_pilot_norest","9151","1","14","Male","","","","","","","null","<div style=""font-size:60px;"">+</div>","null","fixation","","","","","","","","","35","","",""
"learning-instructions","257","1037931","0.0-4.0-5.0-0.0","spark_pilot_norest","9151","1","14","Male","","","","","","","null","<p> You have almost finished this part of the game! </p>
            <p> We are going to ask you to make a few more choices. </p>","","instructions","","","","","","","","","","","",""
"learning-instructions","258","1053919","0.0-4.0-5.0-0.1","spark_pilot_norest","9151","1","14","Male","","","","","","","null","<p> First, you need to decide whether to go up or down. When you see each picture, use the arrow keys to make your choice. </p>
            <p><b>You will not see which animal you found, but try to get to the one that will give you the most treasure.</b></p>","","instructions","","","","","","","","","","","",""
"html-keyboard-response","259","1054938","0.0-4.0-6.0-0.0","spark_pilot_norest","9151","1","14","Male","","","","","","","null","<div style=""font-size:100px;color:red;"">Starting in...</div>","null","","","","","","","","","","","","",""
"html-keyboard-response","260","1055959","0.0-4.0-6.0-1.0","spark_pilot_norest","9151","1","14","Male","","","","","","","null","<div style=""font-size:200px;color:red;"">3</div>","null","","","","","","","","","","","","",""
"html-keyboard-response","261","1056979","0.0-4.0-6.0-2.0","spark_pilot_norest","9151","1","14","Male","","","","","","","null","<div style=""font-size:200px;color:red;"">2</div>","null","","","","","","","","","","","","",""
"html-keyboard-response","262","1057994","0.0-4.0-6.0-3.0","spark_pilot_norest","9151","1","14","Male","","","","","","","null","<div style=""font-size:200px;color:red;"">1</div>","null","","","","","","","","","","","","",""
"revaluation","263","1058891","0.0-4.0-7.0-0.0","spark_pilot_norest","9151","1","14","Male","","false","","","","","[884.8999998569489]","./assets/img/ocean/test/2.jpg","[""ArrowUp""]","first stage test","ocean","0","{""ArrowUp,ArrowLeft"":26,""ArrowUp,ArrowRight"":10,""ArrowDown,ArrowLeft"":5,""ArrowDown,ArrowRight"":17}","true","ArrowUp","false","original","1","","","",""
"html-keyboard-response","264","1059409","0.0-4.0-7.0-1.0","spark_pilot_norest","9151","1","14","Male","","","","","","","null","<div style=""font-size:60px;"">+</div>","null","fixation","","","","","","","","","","","",""
"revaluation","265","1060515","0.0-4.0-7.0-0.1","spark_pilot_norest","9151","1","14","Male","","false","","","","","[1098.2000000476837]","./assets/img/ocean/test/0.jpg","[""ArrowUp""]","first stage test","ocean","0","{""ArrowUp,ArrowLeft"":26,""ArrowUp,ArrowRight"":10,""ArrowDown,ArrowLeft"":5,""ArrowDown,ArrowRight"":17}","true","ArrowUp","false","original","1","","","",""
"html-keyboard-response","266","1061029","0.0-4.0-7.0-1.1","spark_pilot_norest","9151","1","14","Male","","","","","","","null","<div style=""font-size:60px;"">+</div>","null","fixation","","","","","","","","","","","",""
"revaluation","267","1061936","0.0-4.0-7.0-0.2","spark_pilot_norest","9151","1","14","Male","","false","","","","","[899.7000000476837]","./assets/img/ocean/test/1.jpg","[""ArrowUp""]","first stage test","ocean","0","{""ArrowUp,ArrowLeft"":26,""ArrowUp,ArrowRight"":10,""ArrowDown,ArrowLeft"":5,""ArrowDown,ArrowRight"":17}","true","ArrowUp","false","original","1","","","",""
"html-keyboard-response","268","1062449","0.0-4.0-7.0-1.2","spark_pilot_norest","9151","1","14","Male","","","","","","","null","<div style=""font-size:60px;"">+</div>","null","fixation","","","","","","","","","","","",""
"revaluation","269","1063844","0.0-4.0-7.0-0.3","spark_pilot_norest","9151","1","14","Male","","false","","","","","[1388.5]","./assets/img/ocean/test/3.jpg","[""ArrowUp""]","first stage test","ocean","0","{""ArrowUp,ArrowLeft"":26,""ArrowUp,ArrowRight"":10,""ArrowDown,ArrowLeft"":5,""ArrowDown,ArrowRight"":17}","true","ArrowUp","false","original","1","","","",""
"html-keyboard-response","270","1064349","0.0-4.0-7.0-1.3","spark_pilot_norest","9151","1","14","Male","","","","","","","null","<div style=""font-size:60px;"">+</div>","null","fixation","","","","","","","","","","","",""
"learning-instructions","271","1077710","0.0-4.0-8.0-0.0","spark_pilot_norest","9151","1","14","Male","","","","","","","null","<p> Now you will see the animals again and can search their chests for treasure. </p>
            <p> This time, you will not see how much treasure you earned, but you will earn more bonus money for making better choices. </p>","","instructions","","","","","","","","","","","",""
"html-keyboard-response","272","1078729","0.0-4.0-9.0-0.0","spark_pilot_norest","9151","1","14","Male","","","","","","","null","<div style=""font-size:100px;color:red;"">Starting in...</div>","null","","","","","","","","","","","","",""
"html-keyboard-response","273","1079739","0.0-4.0-9.0-1.0","spark_pilot_norest","9151","1","14","Male","","","","","","","null","<div style=""font-size:200px;color:red;"">3</div>","null","","","","","","","","","","","","",""
"html-keyboard-response","274","1080759","0.0-4.0-9.0-2.0","spark_pilot_norest","9151","1","14","Male","","","","","","","null","<div style=""font-size:200px;color:red;"">2</div>","null","","","","","","","","","","","","",""
"html-keyboard-response","275","1081779","0.0-4.0-9.0-3.0","spark_pilot_norest","9151","1","14","Male","","","","","","","null","<div style=""font-size:200px;color:red;"">1</div>","null","","","","","","","","","","","","",""
"revaluation","276","1082382","0.0-4.0-10.0-0.0","spark_pilot_norest","9151","1","14","Male","","false","","","","","[593.6000001430511]","./assets/img/ocean/animals/octopus.jpg","[""ArrowRight""]","second stage test","ocean","0","{""ArrowUp,ArrowLeft"":26,""ArrowUp,ArrowRight"":10,""ArrowDown,ArrowLeft"":5,""ArrowDown,ArrowRight"":17}","false","ArrowUp,ArrowRight","","original","1","","","",""
"html-keyboard-response","277","1082888","0.0-4.0-10.0-1.0","spark_pilot_norest","9151","1","14","Male","","","","","","","null","<div style=""font-size:60px;"">+</div>","null","fixation","","","","","","","","","","","",""
"revaluation","278","1083819","0.0-4.0-10.0-0.1","spark_pilot_norest","9151","1","14","Male","","false","","","","","[922.7999999523163]","./assets/img/ocean/animals/octopus.jpg","[""ArrowLeft""]","second stage test","ocean","0","{""ArrowUp,ArrowLeft"":26,""ArrowUp,ArrowRight"":10,""ArrowDown,ArrowLeft"":5,""ArrowDown,ArrowRight"":17}","true","ArrowUp,ArrowLeft","","original","1","","","",""
"html-keyboard-response","279","1084339","0.0-4.0-10.0-1.1","spark_pilot_norest","9151","1","14","Male","","","","","","","null","<div style=""font-size:60px;"">+</div>","null","fixation","","","","","","","","","","","",""
"revaluation","280","1084706","0.0-4.0-10.0-0.2","spark_pilot_norest","9151","1","14","Male","","false","","","","","[359.5]","./assets/img/ocean/animals/octopus.jpg","[""ArrowLeft""]","second stage test","ocean","0","{""ArrowUp,ArrowLeft"":26,""ArrowUp,ArrowRight"":10,""ArrowDown,ArrowLeft"":5,""ArrowDown,ArrowRight"":17}","true","ArrowUp,ArrowLeft","","original","1","","","",""
"html-keyboard-response","281","1085210","0.0-4.0-10.0-1.2","spark_pilot_norest","9151","1","14","Male","","","","","","","null","<div style=""font-size:60px;"">+</div>","null","fixation","","","","","","","","","","","",""
"revaluation","282","1085519","0.0-4.0-10.0-0.3","spark_pilot_norest","9151","1","14","Male","","false","","","","","[302.39999985694885]","./assets/img/ocean/animals/octopus.jpg","[""ArrowLeft""]","second stage test","ocean","0","{""ArrowUp,ArrowLeft"":26,""ArrowUp,ArrowRight"":10,""ArrowDown,ArrowLeft"":5,""ArrowDown,ArrowRight"":17}","true","ArrowUp,ArrowLeft","","original","1","","","",""
"html-keyboard-response","283","1086038","0.0-4.0-10.0-1.3","spark_pilot_norest","9151","1","14","Male","","","","","","","null","<div style=""font-size:60px;"">+</div>","null","fixation","","","","","","","","","","","",""
"revaluation","284","1086847","0.0-4.0-10.0-0.4","spark_pilot_norest","9151","1","14","Male","","false","","","","","[800.2999999523163]","./assets/img/ocean/animals/seahorse.jpg","[""ArrowRight""]","second stage test","ocean","0","{""ArrowUp,ArrowLeft"":26,""ArrowUp,ArrowRight"":10,""ArrowDown,ArrowLeft"":5,""ArrowDown,ArrowRight"":17}","true","ArrowDown,ArrowRight","","original","1","","","",""
"html-keyboard-response","285","1087359","0.0-4.0-10.0-1.4","spark_pilot_norest","9151","1","14","Male","","","","","","","null","<div style=""font-size:60px;"">+</div>","null","fixation","","","","","","","","","","","",""
"revaluation","286","1087651","0.0-4.0-10.0-0.5","spark_pilot_norest","9151","1","14","Male","","false","","","","","[284.40000009536743]","./assets/img/ocean/animals/seahorse.jpg","[""ArrowRight""]","second stage test","ocean","0","{""ArrowUp,ArrowLeft"":26,""ArrowUp,ArrowRight"":10,""ArrowDown,ArrowLeft"":5,""ArrowDown,ArrowRight"":17}","true","ArrowDown,ArrowRight","","original","1","","","",""
"html-keyboard-response","287","1088159","0.0-4.0-10.0-1.5","spark_pilot_norest","9151","1","14","Male","","","","","","","null","<div style=""font-size:60px;"">+</div>","null","fixation","","","","","","","","","","","",""
"revaluation","288","1088477","0.0-4.0-10.0-0.6","spark_pilot_norest","9151","1","14","Male","","false","","","","","[310.59999990463257]","./assets/img/ocean/animals/seahorse.jpg","[""ArrowRight""]","second stage test","ocean","0","{""ArrowUp,ArrowLeft"":26,""ArrowUp,ArrowRight"":10,""ArrowDown,ArrowLeft"":5,""ArrowDown,ArrowRight"":17}","true","ArrowDown,ArrowRight","","original","1","","","",""
"html-keyboard-response","289","1088989","0.0-4.0-10.0-1.6","spark_pilot_norest","9151","1","14","Male","","","","","","","null","<div style=""font-size:60px;"">+</div>","null","fixation","","","","","","","","","","","",""
"revaluation","290","1089320","0.0-4.0-10.0-0.7","spark_pilot_norest","9151","1","14","Male","","false","","","","","[324]","./assets/img/ocean/animals/seahorse.jpg","[""ArrowRight""]","second stage test","ocean","0","{""ArrowUp,ArrowLeft"":26,""ArrowUp,ArrowRight"":10,""ArrowDown,ArrowLeft"":5,""ArrowDown,ArrowRight"":17}","true","ArrowDown,ArrowRight","","original","1","","","",""
"html-keyboard-response","291","1089840","0.0-4.0-10.0-1.7","spark_pilot_norest","9151","1","14","Male","","","","","","","null","<div style=""font-size:60px;"">+</div>","null","fixation","","","","","","","","","","","",""
"learning-instructions","292","1096611","0.0-4.0-0.1-0.2","spark_pilot_norest","9151","1","14","Male","","","","","","","3980.100000143051","<p> This time you are searching for treasure in the <b>canyon</b>.</p>","","instructions","","","","","","","","","","","",""
"learning-instructions","293","1121499","0.0-4.0-0.1-0.3","spark_pilot_norest","9151","1","14","Male","","","","","","","7638.700000047684","<p><b>New</b> animals with <b>new</b> treasure chests live here. You need to explore to discover where the animal with the best treasure chest is.</p>
                    <p> Like before, once you figure out which animal has the chest with the most treasure, you should try to get to that animal and select that chest! </p>","","instructions","","","","","","","","","","","",""
"learning-instructions","294","1136706","0.0-4.0-1.1-0.1","spark_pilot_norest","9151","1","14","Male","","","","","","","476.2000000476837","<p> Remember, when you see a picture of the place, use the up and down keys to <b>find an animal</b>.</p>
            <p> When you encounter an animal, you should use the left and right keys to <b>select a treasure chest</b>.</p>
            <p> Don't forget to look out for the robber! </p>","","instructions","","","","","","","","","","","",""
"revaluation","295","1142759","0.0-4.0-2.1-0.50","spark_pilot_norest","9151","1","14","Male","","false","","","","","[1196.7000000476837,768.3000001907349]","./assets/img/canyon/memory/38.jpg","[""ArrowUp"",""ArrowRight""]","value training","canyon","10","{""ArrowUp,ArrowLeft"":23,""ArrowUp,ArrowRight"":10,""ArrowDown,ArrowLeft"":8,""ArrowDown,ArrowRight"":30}","false","ArrowUp,ArrowRight","false","revaluation","2","0","","",""
"html-keyboard-response","296","1143278","0.0-4.0-2.1-1.50","spark_pilot_norest","9151","1","14","Male","","","","","","","null","<div style=""font-size:60px;"">+</div>","null","fixation","","","","","","","","","1","","",""
"revaluation","297","1147309","0.0-4.0-2.1-0.51","spark_pilot_norest","9151","1","14","Male","","false","","","","","[359.2999999523163]","./assets/img/canyon/catch/7.jpg","[""ArrowUp""]","value training","canyon","-10","{""ArrowUp,ArrowLeft"":23,""ArrowUp,ArrowRight"":10,""ArrowDown,ArrowLeft"":8,""ArrowDown,ArrowRight"":30}","false","ArrowUp","true","revaluation","2","2","","",""
"html-keyboard-response","298","1147828","0.0-4.0-2.1-1.51","spark_pilot_norest","9151","1","14","Male","","","","","","","null","<div style=""font-size:60px;"">+</div>","null","fixation","","","","","","","","","3","","",""
"revaluation","299","1153879","0.0-4.0-2.1-0.52","spark_pilot_norest","9151","1","14","Male","","false","","","","","[593.1999998092651,374.59999990463257]","./assets/img/canyon/memory/26.jpg","[""ArrowUp"",""ArrowLeft""]","value training","canyon","23","{""ArrowUp,ArrowLeft"":23,""ArrowUp,ArrowRight"":10,""ArrowDown,ArrowLeft"":8,""ArrowDown,ArrowRight"":30}","false","ArrowUp,ArrowLeft","false","revaluation","2","4","","",""
"html-keyboard-response","300","1154389","0.0-4.0-2.1-1.52","spark_pilot_norest","9151","1","14","Male","","","","","","","null","<div style=""font-size:60px;"">+</div>","null","fixation","","","","","","","","","5","","",""
"revaluation","301","1160439","0.0-4.0-2.1-0.53","spark_pilot_norest","9151","1","14","Male","","false","","","","","[670.2000000476837,503.39999985694885]","./assets/img/canyon/memory/6.jpg","[""ArrowDown"",""ArrowRight""]","value training","canyon","30","{""ArrowUp,ArrowLeft"":23,""ArrowUp,ArrowRight"":10,""ArrowDown,ArrowLeft"":8,""ArrowDown,ArrowRight"":30}","true","ArrowDown,ArrowRight","false","revaluation","2","6","","",""
"html-keyboard-response","302","1160959","0.0-4.0-2.1-1.53","spark_pilot_norest","9151","1","14","Male","","","","","","","null","<div style=""font-size:60px;"">+</div>","null","fixation","","","","","","","","","7","","",""
"revaluation","303","1166980","0.0-4.0-2.1-0.54","spark_pilot_norest","9151","1","14","Male","","false","","","","","[454.19999980926514,164]","./assets/img/canyon/memory/2.jpg","[""ArrowDown"",""ArrowLeft""]","value training","canyon","8","{""ArrowUp,ArrowLeft"":23,""ArrowUp,ArrowRight"":10,""ArrowDown,ArrowLeft"":8,""ArrowDown,ArrowRight"":30}","false","ArrowDown,ArrowLeft","false","revaluation","2","8","","",""
"html-keyboard-response","304","1167484","0.0-4.0-2.1-1.54","spark_pilot_norest","9151","1","14","Male","","","","","","","null","<div style=""font-size:60px;"">+</div>","null","fixation","","","","","","","","","9","","",""
"revaluation","305","1173509","0.0-4.0-2.1-0.55","spark_pilot_norest","9151","1","14","Male","","false","","","","","[602.2000000476837,7.900000095367432]","./assets/img/canyon/memory/24.jpg","[""ArrowDown"",""ArrowRight""]","value training","canyon","30","{""ArrowUp,ArrowLeft"":23,""ArrowUp,ArrowRight"":10,""ArrowDown,ArrowLeft"":8,""ArrowDown,ArrowRight"":30}","true","ArrowDown,ArrowRight","false","revaluation","2","10","","",""
"html-keyboard-response","306","1174013","0.0-4.0-2.1-1.55","spark_pilot_norest","9151","1","14","Male","","","","","","","null","<div style=""font-size:60px;"">+</div>","null","fixation","","","","","","","","","11","","",""
"revaluation","307","1180023","0.0-4.0-2.1-0.56","spark_pilot_norest","9151","1","14","Male","","false","","","","","[495.5,611.5]","./assets/img/canyon/memory/29.jpg","[""ArrowDown"",""ArrowRight""]","value training","canyon","30","{""ArrowUp,ArrowLeft"":23,""ArrowUp,ArrowRight"":10,""ArrowDown,ArrowLeft"":8,""ArrowDown,ArrowRight"":30}","true","ArrowDown,ArrowRight","false","revaluation","2","12","","",""
"html-keyboard-response","308","1180525","0.0-4.0-2.1-1.56","spark_pilot_norest","9151","1","14","Male","","","","","","","null","<div style=""font-size:60px;"">+</div>","null","fixation","","","","","","","","","13","","",""
"revaluation","309","1186543","0.0-4.0-2.1-0.57","spark_pilot_norest","9151","1","14","Male","","false","","","","","[519.6999998092651,582]","./assets/img/canyon/memory/40.jpg","[""ArrowDown"",""ArrowRight""]","value training","canyon","30","{""ArrowUp,ArrowLeft"":23,""ArrowUp,ArrowRight"":10,""ArrowDown,ArrowLeft"":8,""ArrowDown,ArrowRight"":30}","true","ArrowDown,ArrowRight","false","revaluation","2","14","","",""
"html-keyboard-response","310","1187046","0.0-4.0-2.1-1.57","spark_pilot_norest","9151","1","14","Male","","","","","","","null","<div style=""font-size:60px;"">+</div>","null","fixation","","","","","","","","","15","","",""
"revaluation","311","1193066","0.0-4.0-2.1-0.58","spark_pilot_norest","9151","1","14","Male","","false","","","","","[553.7000000476837,156.09999990463257]","./assets/img/canyon/memory/35.jpg","[""ArrowDown"",""ArrowRight""]","value training","canyon","30","{""ArrowUp,ArrowLeft"":23,""ArrowUp,ArrowRight"":10,""ArrowDown,ArrowLeft"":8,""ArrowDown,ArrowRight"":30}","true","ArrowDown,ArrowRight","false","revaluation","2","16","","",""
"html-keyboard-response","312","1193569","0.0-4.0-2.1-1.58","spark_pilot_norest","9151","1","14","Male","","","","","","","null","<div style=""font-size:60px;"">+</div>","null","fixation","","","","","","","","","17","","",""
"revaluation","313","1197578","0.0-4.0-2.1-0.59","spark_pilot_norest","9151","1","14","Male","","false","","","","","[526.5999999046326]","./assets/img/canyon/catch/3.jpg","[""spaceBar""]","value training","canyon","0","{""ArrowUp,ArrowLeft"":23,""ArrowUp,ArrowRight"":10,""ArrowDown,ArrowLeft"":8,""ArrowDown,ArrowRight"":30}","true","spaceBar","true","revaluation","2","18","","",""
"html-keyboard-response","314","1198081","0.0-4.0-2.1-1.59","spark_pilot_norest","9151","1","14","Male","","","","","","","null","<div style=""font-size:60px;"">+</div>","null","fixation","","","","","","","","","19","","",""
