"trial_type","trial_index","time_elapsed","internal_node_id","task_version","subject_id","assigned_condition","age","gender","browser_interaction","success","timeout","failed_images","failed_audio","failed_video","rt","stimulus","response","task_part","environment","score","rewardMap","correct","fullState","isCatch","condition","order","trial_num","key_press","ground_truth","bonus"
"pavlovia","0","1644","0.0-0.0","spark_pilot_norest","9443","6","8","Male","[{""event"":""blur"",""trial"":1,""time"":20063},{""event"":""focus"",""trial"":1,""time"":30757},{""event"":""fullscreenenter"",""trial"":2,""time"":71300},{""event"":""blur"",""trial"":514,""time"":1815803},{""event"":""focus"",""trial"":516,""time"":1817865}]","","","","","","","","","","","","","","","","","","","","",""
"preload","1","68122","0.0-1.0","spark_pilot_norest","9443","6","8","Male","[{""event"":""blur"",""trial"":1,""time"":20063},{""event"":""focus"",""trial"":1,""time"":30757},{""event"":""fullscreenenter"",""trial"":2,""time"":71300},{""event"":""blur"",""trial"":514,""time"":1815803},{""event"":""focus"",""trial"":516,""time"":1817865}]","true","false","[]","[]","[]","","","","","","","","","","","","","","","",""
"fullscreen","2","72283","0.0-2.0","spark_pilot_norest","9443","6","8","Male","","true","","","","","","","","","","","","","","","","","","","",""
"audio-button-response","3","77278","0.0-3.0-0.0-0.0","spark_pilot_norest","9443","6","8","Male","","","","","","","4771","./assets/audio/audiotest/turtle.mp3","2","audio_test","","","","","","","","","","","",""
"learning-instructions","4","89003","0.0-3.0-1.0-0.0","spark_pilot_norest","9443","6","8","Male","","","","","","","4753.100000023842","<p> Welcome! Please remember to stay in fullscreen mode and don't click away from the experiment. </p>","","instructions","","","","","","","","","","","",""
"learning-instructions","5","99728","0.0-3.0-1.0-0.1","spark_pilot_norest","9443","6","8","Male","","","","","","","2321.3000000715256","<p> Today you will be playing a game to earn treasure. </p>
            <p> At the end of the experiment, you will earn a bonus based on how much treasure you find. </p>
            <img src='./assets/img/instructions/treasure.jpg' class='instructions-image'>","","instructions","","","","","","","","","","","",""
"learning-instructions","6","110750","0.0-3.0-1.0-0.2","spark_pilot_norest","9443","6","8","Male","","","","","","","2762.2999999523163","<p> Animals have hidden treasure in treasure chests. </p>
            <p> You need to first find an animal and then choose which of their treasure chests to search. </p>
            <img src='./assets/img/space/animals/cat.jpg' class='instructions-image'>","","instructions","","","","","","","","","","","",""
"learning-instructions","7","125731","0.0-3.0-1.0-0.3","spark_pilot_norest","9443","6","8","Male","","","","","","","1843","<p> In each round, you will search for treasure in a different place. In the real game, there will be two rounds. </p>
            <p> You will begin with a separate, practice round where you will search for treasure in outer space. </p>
            <img src='./assets/img/space/0.jpg' class='instructions-image'>","","instructions","","","","","","","","","","","",""
"learning-instructions","8","139229","0.0-3.0-1.0-0.4","spark_pilot_norest","9443","6","8","Male","","","","","","","2081.1999999284744","<p> On every turn, you will see a picture of the place that you are in, but the specific image may be different each time. </p>
            <p> For example, both of these images mean you are in outer space. </p>
            <img src='./assets/img/instructions/outerspace.jpg' class='instructions-image'>","","instructions","","","","","","","","","","","",""
"learning-instructions","9","149346","0.0-3.0-1.0-0.5","spark_pilot_norest","9443","6","8","Male","","","","","","","2297.2999999523163","<p> You need to decide which direction to travel in. </p>
            <p> You can choose between going <b>up or down</b> by using the arrow keys. </p>
            <img src='./assets/img/instructions/updown.jpg' class='instructions-image'>","","instructions","","","","","","","","","","","",""
"learning-instructions","10","161948","0.0-3.0-1.0-0.6","spark_pilot_norest","9443","6","8","Male","","","","","","","3789.2000000476837","<p> You will have <b>2 seconds</b> to make your choice. </p>
            <p> If you do not make a choice within 2 seconds, you will not find an animal or earn treasure. </p>
            <img src='./assets/img/instructions/2seconds.jpg' class='instructions-image'>","","instructions","","","","","","","","","","","",""
"learning-instructions","11","173065","0.0-3.0-1.0-0.7","spark_pilot_norest","9443","6","8","Male","","","","","","","4075.899999976158","<p> Let’s try practicing that now! </p>
            <p> When you see a picture of the place you are in, press the <b>up</b> key to travel up. </p>
            <img src='./assets/img/instructions/pressUp.jpg' class='instructions-image'>","","instructions","","","","","","","","","","","",""
"revaluation","12","177096","0.0-3.0-2.0-0.0","spark_pilot_norest","9443","6","8","Male","","","true","","","","[]","./assets/img/space/0.jpg","[]","first stage practice","space","-5","null","null","","false","","","","","",""
"html-keyboard-response","13","177608","0.0-3.0-2.0-1.0","spark_pilot_norest","9443","6","8","Male","","","","","","","null","<div style=""font-size:60px;"">+</div>","null","fixation","","","","","","","","","","","",""
"revaluation","14","181629","0.0-3.0-2.0-0.1","spark_pilot_norest","9443","6","8","Male","","","false","","","","[625.1000000238419]","./assets/img/space/1.jpg","[""ArrowUp""]","first stage practice","space","0","null","null","ArrowUp","false","","","","","",""
"html-keyboard-response","15","182130","0.0-3.0-2.0-1.1","spark_pilot_norest","9443","6","8","Male","","","","","","","null","<div style=""font-size:60px;"">+</div>","null","fixation","","","","","","","","","","","",""
"revaluation","16","186154","0.0-3.0-2.0-0.2","spark_pilot_norest","9443","6","8","Male","","","false","","","","[536.5]","./assets/img/space/2.jpg","[""ArrowUp""]","first stage practice","space","0","null","null","ArrowUp","false","","","","","",""
"html-keyboard-response","17","186669","0.0-3.0-2.0-1.2","spark_pilot_norest","9443","6","8","Male","","","","","","","null","<div style=""font-size:60px;"">+</div>","null","fixation","","","","","","","","","","","",""
"learning-instructions","18","194856","0.0-3.0-3.0-0.0","spark_pilot_norest","9443","6","8","Male","","","","","","","3497.0999999046326","<p> Great job! Now try pressing the <b>down</b> key to travel down. </p>
            <img src='./assets/img/instructions/pressDown.jpg' class='instructions-image'>","","instructions","","","","","","","","","","","",""
"revaluation","19","198868","0.0-3.0-4.0-0.0","spark_pilot_norest","9443","6","8","Male","","","false","","","","[362.5]","./assets/img/space/3.jpg","[""ArrowDown""]","first stage practice","space","0","null","null","ArrowDown","false","","","","","",""
"html-keyboard-response","20","199382","0.0-3.0-4.0-1.0","spark_pilot_norest","9443","6","8","Male","","","","","","","null","<div style=""font-size:60px;"">+</div>","null","fixation","","","","","","","","","","","",""
"revaluation","21","203403","0.0-3.0-4.0-0.1","spark_pilot_norest","9443","6","8","Male","","","false","","","","[340.60000002384186]","./assets/img/space/4.jpg","[""ArrowDown""]","first stage practice","space","0","null","null","ArrowDown","false","","","","","",""
"html-keyboard-response","22","203914","0.0-3.0-4.0-1.1","spark_pilot_norest","9443","6","8","Male","","","","","","","null","<div style=""font-size:60px;"">+</div>","null","fixation","","","","","","","","","","","",""
"revaluation","23","207942","0.0-3.0-4.0-0.2","spark_pilot_norest","9443","6","8","Male","","","false","","","","[569.3999999761581]","./assets/img/space/5.jpg","[""ArrowDown""]","first stage practice","space","0","null","null","ArrowDown","false","","","","","",""
"html-keyboard-response","24","208455","0.0-3.0-4.0-1.2","spark_pilot_norest","9443","6","8","Male","","","","","","","null","<div style=""font-size:60px;"">+</div>","null","fixation","","","","","","","","","","","",""
"learning-instructions","25","222467","0.0-3.0-5.0-0.0","spark_pilot_norest","9443","6","8","Male","","","","","","","4156.699999928474","<p> The animals don’t move, so the animal in the upper part of a place will stay in the upper part of a place, and the animal in the lower part of a place will stay in the lower part of a place. </p>","","instructions","","","","","","","","","","","",""
"learning-instructions","26","233772","0.0-3.0-5.0-0.1","spark_pilot_norest","9443","6","8","Male","","","","","","","2171.2999999523163","<p> Each animal has two treasure chests for you to choose from. </p>
            <p> The amount of treasure in each chest can range from <b> 0 to 40 pieces.</b></p>","","instructions","","","","","","","","","","","",""
"learning-instructions","27","246912","0.0-3.0-5.0-0.2","spark_pilot_norest","9443","6","8","Male","","","","","","","1960.6000000238419","<p> You should decide which chest to search for treasure by using the <b>left</b> and <b>right</b> arrow keys. </p>
            <p><b> Pay attention to which animal is on the screen, as the animals have different treasure chests. </b></p>
            <img src='./assets/img/instructions/leftright.jpg' class='instructions-image'>","","instructions","","","","","","","","","","","",""
"learning-instructions","28","254470","0.0-3.0-5.0-0.3","spark_pilot_norest","9443","6","8","Male","","","","","","","1198.2000000476837","<p> Let’s try practicing that now. </p>
            <p> When you see an animal, choose which chest to search for treasure. </p>
            <img src='./assets/img/instructions/chooseChest.jpg' class='instructions-image'>","","instructions","","","","","","","","","","","",""
"revaluation","29","258495","0.0-3.0-6.0-0.0","spark_pilot_norest","9443","6","8","Male","","","false","","","","[270.39999997615814]","./assets/img/space/animals/cat.jpg","[""ArrowLeft""]","second stage practice","space","3","{""ArrowUp,ArrowLeft"":3,""ArrowUp,ArrowRight"":36,""ArrowDown,ArrowLeft"":15,""ArrowDown,ArrowRight"":23}","false","ArrowUp,ArrowLeft","","","","","","",""
"html-keyboard-response","30","259008","0.0-3.0-6.0-1.0","spark_pilot_norest","9443","6","8","Male","","","","","","","null","<div style=""font-size:60px;"">+</div>","null","fixation","","","","","","","","","","","",""
"revaluation","31","263028","0.0-3.0-6.0-0.1","spark_pilot_norest","9443","6","8","Male","","","false","","","","[588.7000000476837]","./assets/img/space/animals/rabbit.jpg","[""ArrowRight""]","second stage practice","space","23","{""ArrowUp,ArrowLeft"":3,""ArrowUp,ArrowRight"":36,""ArrowDown,ArrowLeft"":15,""ArrowDown,ArrowRight"":23}","true","ArrowDown,ArrowRight","","","","","","",""
"html-keyboard-response","32","263530","0.0-3.0-6.0-1.1","spark_pilot_norest","9443","6","8","Male","","","","","","","null","<div style=""font-size:60px;"">+</div>","null","fixation","","","","","","","","","","","",""
"revaluation","33","267535","0.0-3.0-6.0-0.2","spark_pilot_norest","9443","6","8","Male","","","false","","","","[539.2000000476837]","./assets/img/space/animals/cat.jpg","[""ArrowLeft""]","second stage practice","space","3","{""ArrowUp,ArrowLeft"":3,""ArrowUp,ArrowRight"":36,""ArrowDown,ArrowLeft"":15,""ArrowDown,ArrowRight"":23}","false","ArrowUp,ArrowLeft","","","","","","",""
"html-keyboard-response","34","268044","0.0-3.0-6.0-1.2","spark_pilot_norest","9443","6","8","Male","","","","","","","null","<div style=""font-size:60px;"">+</div>","null","fixation","","","","","","","","","","","",""
"revaluation","35","272047","0.0-3.0-6.0-0.3","spark_pilot_norest","9443","6","8","Male","","","false","","","","[496.7000000476837]","./assets/img/space/animals/rabbit.jpg","[""ArrowRight""]","second stage practice","space","23","{""ArrowUp,ArrowLeft"":3,""ArrowUp,ArrowRight"":36,""ArrowDown,ArrowLeft"":15,""ArrowDown,ArrowRight"":23}","true","ArrowDown,ArrowRight","","","","","","",""
"html-keyboard-response","36","272549","0.0-3.0-6.0-1.3","spark_pilot_norest","9443","6","8","Male","","","","","","","null","<div style=""font-size:60px;"">+</div>","null","fixation","","","","","","","","","","","",""
"learning-instructions","37","290345","0.0-3.0-7.0-0.0","spark_pilot_norest","9443","6","8","Male","","","","","","","992.7000000476837","<p> Great job. Now let’s try putting it together. </p>
            <p> On each turn, you will first see a picture to remind you of the place you are in, and you need to choose whether to go up or down. </p>
            <p> Then you will see an animal and choose which of its chests to search for treasure. </p>","","instructions","","","","","","","","","","","",""
"learning-instructions","38","299580","0.0-3.0-7.0-0.1","spark_pilot_norest","9443","6","8","Male","","","","","","","977.2000000476837","<p> When you choose whether to go up or down, try to go to the animal with the chest with the most treasure. </p>
            <p> Try practicing that now! </p>","","instructions","","","","","","","","","","","",""
"revaluation","39","305598","0.0-3.0-8.0-0.0","spark_pilot_norest","9443","6","8","Male","","","false","","","","[1322.8000000715256,1555.6000000238419]","./assets/img/space/6.jpg","[""ArrowDown"",""ArrowRight""]","full practice","space","23","{""ArrowUp,ArrowLeft"":3,""ArrowUp,ArrowRight"":36,""ArrowDown,ArrowLeft"":15,""ArrowDown,ArrowRight"":23}","false","ArrowDown,ArrowRight","false","","","","","",""
"html-keyboard-response","40","306099","0.0-3.0-8.0-1.0","spark_pilot_norest","9443","6","8","Male","","","","","","","null","<div style=""font-size:60px;"">+</div>","null","fixation","","","","","","","","","","","",""
"revaluation","41","312128","0.0-3.0-8.0-0.1","spark_pilot_norest","9443","6","8","Male","","","false","","","","[524.3999999761581,536.3999999761581]","./assets/img/space/7.jpg","[""ArrowUp"",""ArrowLeft""]","full practice","space","3","{""ArrowUp,ArrowLeft"":3,""ArrowUp,ArrowRight"":36,""ArrowDown,ArrowLeft"":15,""ArrowDown,ArrowRight"":23}","false","ArrowUp,ArrowLeft","false","","","","","",""
"html-keyboard-response","42","312639","0.0-3.0-8.0-1.1","spark_pilot_norest","9443","6","8","Male","","","","","","","null","<div style=""font-size:60px;"">+</div>","null","fixation","","","","","","","","","","","",""
"revaluation","43","318662","0.0-3.0-8.0-0.2","spark_pilot_norest","9443","6","8","Male","","","false","","","","[552.3999999761581,1111.6000000238419]","./assets/img/space/8.jpg","[""ArrowDown"",""ArrowRight""]","full practice","space","23","{""ArrowUp,ArrowLeft"":3,""ArrowUp,ArrowRight"":36,""ArrowDown,ArrowLeft"":15,""ArrowDown,ArrowRight"":23}","false","ArrowDown,ArrowRight","false","","","","","",""
"html-keyboard-response","44","319170","0.0-3.0-8.0-1.2","spark_pilot_norest","9443","6","8","Male","","","","","","","null","<div style=""font-size:60px;"">+</div>","null","fixation","","","","","","","","","","","",""
"revaluation","45","325203","0.0-3.0-8.0-0.3","spark_pilot_norest","9443","6","8","Male","","","false","","","","[948.2999999523163,642.8999999761581]","./assets/img/space/9.jpg","[""ArrowUp"",""ArrowRight""]","full practice","space","36","{""ArrowUp,ArrowLeft"":3,""ArrowUp,ArrowRight"":36,""ArrowDown,ArrowLeft"":15,""ArrowDown,ArrowRight"":23}","true","ArrowUp,ArrowRight","false","","","","","",""
"html-keyboard-response","46","325719","0.0-3.0-8.0-1.3","spark_pilot_norest","9443","6","8","Male","","","","","","","null","<div style=""font-size:60px;"">+</div>","null","fixation","","","","","","","","","","","",""
"revaluation","47","331729","0.0-3.0-8.0-0.4","spark_pilot_norest","9443","6","8","Male","","","false","","","","[712.6000000238419,1010.6000000238419]","./assets/img/space/10.jpg","[""ArrowUp"",""ArrowRight""]","full practice","space","36","{""ArrowUp,ArrowLeft"":3,""ArrowUp,ArrowRight"":36,""ArrowDown,ArrowLeft"":15,""ArrowDown,ArrowRight"":23}","true","ArrowUp,ArrowRight","false","","","","","",""
"html-keyboard-response","48","332230","0.0-3.0-8.0-1.4","spark_pilot_norest","9443","6","8","Male","","","","","","","null","<div style=""font-size:60px;"">+</div>","null","fixation","","","","","","","","","","","",""
"learning-instructions","49","343714","0.0-3.0-9.0-0.0","spark_pilot_norest","9443","6","8","Male","","","","","","","1190.3999999761581","<p> One last thing: sometimes, you will see a robber. The robber can be anywhere in the picture. </p>
            <p> If you do not stop them, you will lose treasure. </p>
            <img src='./assets/img/instructions/robber.jpg' class='instructions-image'>","","instructions","","","","","","","","","","","",""
"learning-instructions","50","351650","0.0-3.0-9.0-0.1","spark_pilot_norest","9443","6","8","Male","","","","","","","776","<p> If you see the robber, you should <b>press the space bar</b> rather than using the arrow keys. </p>
            <p> Try practicing that now! </p>","","instructions","","","","","","","","","","","",""
"revaluation","51","355663","0.0-3.0-10.0-0.0","spark_pilot_norest","9443","6","8","Male","","","false","","","","[463.10000002384186]","./assets/img/space/catch/0.jpg","[""spaceBar""]","catch practice","space","0","{""ArrowUp,ArrowLeft"":3,""ArrowUp,ArrowRight"":36,""ArrowDown,ArrowLeft"":15,""ArrowDown,ArrowRight"":23}","true","spaceBar","true","","","","","",""
"html-keyboard-response","52","356176","0.0-3.0-10.0-1.0","spark_pilot_norest","9443","6","8","Male","","","","","","","null","<div style=""font-size:60px;"">+</div>","null","fixation","","","","","","","","","","","",""
"revaluation","53","360196","0.0-3.0-10.0-0.1","spark_pilot_norest","9443","6","8","Male","","","false","","","","[256.2000000476837]","./assets/img/space/catch/1.jpg","[""spaceBar""]","catch practice","space","0","{""ArrowUp,ArrowLeft"":3,""ArrowUp,ArrowRight"":36,""ArrowDown,ArrowLeft"":15,""ArrowDown,ArrowRight"":23}","true","spaceBar","true","","","","","",""
"html-keyboard-response","54","360707","0.0-3.0-10.0-1.1","spark_pilot_norest","9443","6","8","Male","","","","","","","null","<div style=""font-size:60px;"">+</div>","null","fixation","","","","","","","","","","","",""
"revaluation","55","364733","0.0-3.0-10.0-0.2","spark_pilot_norest","9443","6","8","Male","","","false","","","","[316.60000002384186]","./assets/img/space/catch/2.jpg","[""spaceBar""]","catch practice","space","0","{""ArrowUp,ArrowLeft"":3,""ArrowUp,ArrowRight"":36,""ArrowDown,ArrowLeft"":15,""ArrowDown,ArrowRight"":23}","true","spaceBar","true","","","","","",""
"html-keyboard-response","56","365236","0.0-3.0-10.0-1.2","spark_pilot_norest","9443","6","8","Male","","","","","","","null","<div style=""font-size:60px;"">+</div>","null","fixation","","","","","","","","","","","",""
"learning-instructions","57","373918","0.0-3.0-11.0-0.0-0.0","spark_pilot_norest","9443","6","8","Male","","","","","","","3443.100000023842","<p> Now, you will practice a shortened version of the game to get a sense of how it all fits together. </p>","","instructions","","","","","","","","","","","",""
"learning-instructions","58","380516","0.0-3.0-11.0-0.0-0.1","spark_pilot_norest","9443","6","8","Male","","","","","","","3421","<p>This time you are searching for treasure in outer space.</p>","","instructions","","","","","","","","","","","",""
"learning-instructions","59","396235","0.0-3.0-11.0-1.0-0.0","spark_pilot_norest","9443","6","8","Male","","","","","","","959.3999999761581","<p> Remember, when you see a picture of the place, use the up and down keys to <b>find an animal</b>.</p>
            <p> When you encounter an animal, you should use the left and right keys to <b>select a treasure chest</b>.</p>
            <p> Don't forget to look out for the robber! </p>","","instructions","","","","","","","","","","","",""
"revaluation","60","400246","0.0-3.0-11.0-2.0-0.0","spark_pilot_norest","9443","6","8","Male","","","true","","","","[]","./assets/img/space/11.jpg","[]","practice block","space","-5","{""ArrowUp,ArrowLeft"":3,""ArrowUp,ArrowRight"":36,""ArrowDown,ArrowLeft"":15,""ArrowDown,ArrowRight"":23}","false","","false","","","","","",""
"html-keyboard-response","61","400758","0.0-3.0-11.0-2.0-1.0","spark_pilot_norest","9443","6","8","Male","","","","","","","null","<div style=""font-size:60px;"">+</div>","null","fixation","","","","","","","","","","","",""
"revaluation","62","406789","0.0-3.0-11.0-2.0-0.1","spark_pilot_norest","9443","6","8","Male","","","false","","","","[557.3999999761581,500.7999999523163]","./assets/img/space/12.jpg","[""ArrowDown"",""ArrowRight""]","practice block","space","23","{""ArrowUp,ArrowLeft"":3,""ArrowUp,ArrowRight"":36,""ArrowDown,ArrowLeft"":15,""ArrowDown,ArrowRight"":23}","false","ArrowDown,ArrowRight","false","","","","","",""
"html-keyboard-response","63","407299","0.0-3.0-11.0-2.0-1.1","spark_pilot_norest","9443","6","8","Male","","","","","","","null","<div style=""font-size:60px;"">+</div>","null","fixation","","","","","","","","","","","",""
"revaluation","64","413323","0.0-3.0-11.0-2.0-0.2","spark_pilot_norest","9443","6","8","Male","","","false","","","","[998.2000000476837,547.5]","./assets/img/space/13.jpg","[""ArrowUp"",""ArrowRight""]","practice block","space","36","{""ArrowUp,ArrowLeft"":3,""ArrowUp,ArrowRight"":36,""ArrowDown,ArrowLeft"":15,""ArrowDown,ArrowRight"":23}","true","ArrowUp,ArrowRight","false","","","","","",""
"html-keyboard-response","65","413838","0.0-3.0-11.0-2.0-1.2","spark_pilot_norest","9443","6","8","Male","","","","","","","null","<div style=""font-size:60px;"">+</div>","null","fixation","","","","","","","","","","","",""
"revaluation","66","419858","0.0-3.0-11.0-2.0-0.3","spark_pilot_norest","9443","6","8","Male","","","false","","","","[820.7999999523163,434.5]","./assets/img/space/14.jpg","[""ArrowUp"",""ArrowRight""]","practice block","space","36","{""ArrowUp,ArrowLeft"":3,""ArrowUp,ArrowRight"":36,""ArrowDown,ArrowLeft"":15,""ArrowDown,ArrowRight"":23}","true","ArrowUp,ArrowRight","false","","","","","",""
"html-keyboard-response","67","420373","0.0-3.0-11.0-2.0-1.3","spark_pilot_norest","9443","6","8","Male","","","","","","","null","<div style=""font-size:60px;"">+</div>","null","fixation","","","","","","","","","","","",""
"revaluation","68","426394","0.0-3.0-11.0-2.0-0.4","spark_pilot_norest","9443","6","8","Male","","","false","","","","[861,1523.9000000953674]","./assets/img/space/11.jpg","[""ArrowUp"",""ArrowRight""]","practice block","space","36","{""ArrowUp,ArrowLeft"":3,""ArrowUp,ArrowRight"":36,""ArrowDown,ArrowLeft"":15,""ArrowDown,ArrowRight"":23}","true","ArrowUp,ArrowRight","false","","","","","",""
"html-keyboard-response","69","426896","0.0-3.0-11.0-2.0-1.4","spark_pilot_norest","9443","6","8","Male","","","","","","","null","<div style=""font-size:60px;"">+</div>","null","fixation","","","","","","","","","","","",""
"revaluation","70","432902","0.0-3.0-11.0-2.0-0.5","spark_pilot_norest","9443","6","8","Male","","","false","","","","[635.5,2001.1000000238419]","./assets/img/space/12.jpg","[""ArrowUp"",""ArrowRight""]","practice block","space","36","{""ArrowUp,ArrowLeft"":3,""ArrowUp,ArrowRight"":36,""ArrowDown,ArrowLeft"":15,""ArrowDown,ArrowRight"":23}","true","ArrowUp,ArrowRight","false","","","","","",""
"html-keyboard-response","71","433404","0.0-3.0-11.0-2.0-1.5","spark_pilot_norest","9443","6","8","Male","","","","","","","null","<div style=""font-size:60px;"">+</div>","null","fixation","","","","","","","","","","","",""
"revaluation","72","439409","0.0-3.0-11.0-2.0-0.6","spark_pilot_norest","9443","6","8","Male","","","false","","","","[869.6000000238419,374]","./assets/img/space/13.jpg","[""ArrowUp"",""ArrowRight""]","practice block","space","36","{""ArrowUp,ArrowLeft"":3,""ArrowUp,ArrowRight"":36,""ArrowDown,ArrowLeft"":15,""ArrowDown,ArrowRight"":23}","true","ArrowUp,ArrowRight","false","","","","","",""
"html-keyboard-response","73","439911","0.0-3.0-11.0-2.0-1.6","spark_pilot_norest","9443","6","8","Male","","","","","","","null","<div style=""font-size:60px;"">+</div>","null","fixation","","","","","","","","","","","",""
"revaluation","74","445919","0.0-3.0-11.0-2.0-0.7","spark_pilot_norest","9443","6","8","Male","","","false","","","","[692.8999999761581,356.1999999284744]","./assets/img/space/14.jpg","[""ArrowUp"",""ArrowRight""]","practice block","space","36","{""ArrowUp,ArrowLeft"":3,""ArrowUp,ArrowRight"":36,""ArrowDown,ArrowLeft"":15,""ArrowDown,ArrowRight"":23}","true","ArrowUp,ArrowRight","false","","","","","",""
"html-keyboard-response","75","446421","0.0-3.0-11.0-2.0-1.7","spark_pilot_norest","9443","6","8","Male","","","","","","","null","<div style=""font-size:60px;"">+</div>","null","fixation","","","","","","","","","","","",""
"revaluation","76","450425","0.0-3.0-11.0-2.0-0.8","spark_pilot_norest","9443","6","8","Male","","","false","","","","[1085.8000000715256]","./assets/img/space/catch/3.jpg","[""spaceBar""]","practice block","space","0","{""ArrowUp,ArrowLeft"":3,""ArrowUp,ArrowRight"":36,""ArrowDown,ArrowLeft"":15,""ArrowDown,ArrowRight"":23}","true","spaceBar","true","","","","","",""
"html-keyboard-response","77","450927","0.0-3.0-11.0-2.0-1.8","spark_pilot_norest","9443","6","8","Male","","","","","","","null","<div style=""font-size:60px;"">+</div>","null","fixation","","","","","","","","","","","",""
"learning-instructions","78","464667","0.0-3.0-11.0-3.0-0.0","spark_pilot_norest","9443","6","8","Male","","","","","","","804","<p> Now, you will travel with a friend who will choose whether you go up or down first. </p>
            <p> On these turns, you will just see the animal that they found. You will still get to choose which chest to search for treasure.</p>","","instructions","","","","","","","","","","","",""
"revaluation","79","468683","0.0-3.0-11.0-4.0-0.0","spark_pilot_norest","9443","6","8","Male","","","false","","","","[968]","./assets/img/space/animals/cat.jpg","[""ArrowRight""]","practice block","space","36","{""ArrowUp,ArrowLeft"":3,""ArrowUp,ArrowRight"":36,""ArrowDown,ArrowLeft"":15,""ArrowDown,ArrowRight"":23}","true","ArrowUp,ArrowRight","","","","","","",""
"html-keyboard-response","80","469194","0.0-3.0-11.0-4.0-1.0","spark_pilot_norest","9443","6","8","Male","","","","","","","null","<div style=""font-size:60px;"">+</div>","null","fixation","","","","","","","","","","","",""
"revaluation","81","473211","0.0-3.0-11.0-4.0-0.1","spark_pilot_norest","9443","6","8","Male","","","false","","","","[473.60000002384186]","./assets/img/space/animals/rabbit.jpg","[""ArrowRight""]","practice block","space","23","{""ArrowUp,ArrowLeft"":3,""ArrowUp,ArrowRight"":36,""ArrowDown,ArrowLeft"":15,""ArrowDown,ArrowRight"":23}","true","ArrowDown,ArrowRight","","","","","","",""
"html-keyboard-response","82","473723","0.0-3.0-11.0-4.0-1.1","spark_pilot_norest","9443","6","8","Male","","","","","","","null","<div style=""font-size:60px;"">+</div>","null","fixation","","","","","","","","","","","",""
"revaluation","83","477740","0.0-3.0-11.0-4.0-0.2","spark_pilot_norest","9443","6","8","Male","","","false","","","","[456.1999999284744]","./assets/img/space/animals/rabbit.jpg","[""ArrowRight""]","practice block","space","23","{""ArrowUp,ArrowLeft"":3,""ArrowUp,ArrowRight"":36,""ArrowDown,ArrowLeft"":15,""ArrowDown,ArrowRight"":23}","true","ArrowDown,ArrowRight","","","","","","",""
"html-keyboard-response","84","478252","0.0-3.0-11.0-4.0-1.2","spark_pilot_norest","9443","6","8","Male","","","","","","","null","<div style=""font-size:60px;"">+</div>","null","fixation","","","","","","","","","","","",""
"revaluation","85","482267","0.0-3.0-11.0-4.0-0.3","spark_pilot_norest","9443","6","8","Male","","","false","","","","[592.2999999523163]","./assets/img/space/animals/cat.jpg","[""ArrowRight""]","practice block","space","36","{""ArrowUp,ArrowLeft"":3,""ArrowUp,ArrowRight"":36,""ArrowDown,ArrowLeft"":15,""ArrowDown,ArrowRight"":23}","true","ArrowUp,ArrowRight","","","","","","",""
"html-keyboard-response","86","482777","0.0-3.0-11.0-4.0-1.3","spark_pilot_norest","9443","6","8","Male","","","","","","","null","<div style=""font-size:60px;"">+</div>","null","fixation","","","","","","","","","","","",""
"learning-instructions","87","490893","0.0-3.0-11.0-5.0-0.0","spark_pilot_norest","9443","6","8","Male","","","","","","","null","<p> You have almost finished this part of the game! </p>
            <p> We are going to ask you to make a few more choices. </p>","","instructions","","","","","","","","","","","",""
"learning-instructions","88","506907","0.0-3.0-11.0-5.0-0.1","spark_pilot_norest","9443","6","8","Male","","","","","","","null","<p> First, you need to decide whether to go up or down. When you see each picture, use the arrow keys to make your choice. </p>
            <p><b>You will not see which animal you found, but try to get to the one that will give you the most treasure.</b></p>","","instructions","","","","","","","","","","","",""
"html-keyboard-response","89","507921","0.0-3.0-11.0-6.0-0.0","spark_pilot_norest","9443","6","8","Male","","","","","","","null","<div style=""font-size:100px;color:red;"">Starting in...</div>","null","","","","","","","","","","","","",""
"html-keyboard-response","90","508935","0.0-3.0-11.0-6.0-1.0","spark_pilot_norest","9443","6","8","Male","","","","","","","null","<div style=""font-size:200px;color:red;"">3</div>","null","","","","","","","","","","","","",""
"html-keyboard-response","91","509945","0.0-3.0-11.0-6.0-2.0","spark_pilot_norest","9443","6","8","Male","","","","","","","null","<div style=""font-size:200px;color:red;"">2</div>","null","","","","","","","","","","","","",""
"html-keyboard-response","92","510953","0.0-3.0-11.0-6.0-3.0","spark_pilot_norest","9443","6","8","Male","","","","","","","null","<div style=""font-size:200px;color:red;"">1</div>","null","","","","","","","","","","","","",""
"revaluation","93","511543","0.0-3.0-11.0-7.0","spark_pilot_norest","9443","6","8","Male","","","false","","","","[587.3999999761581]","./assets/img/space/15.jpg","[""ArrowUp""]","practice block","space","0","{""ArrowUp,ArrowLeft"":3,""ArrowUp,ArrowRight"":36,""ArrowDown,ArrowLeft"":15,""ArrowDown,ArrowRight"":23}","true","ArrowUp","false","","","","","",""
"html-keyboard-response","94","512049","0.0-3.0-11.0-8.0","spark_pilot_norest","9443","6","8","Male","","","","","","","null","<div style=""font-size:60px;"">+</div>","null","fixation","","","","","","","","","","","",""
"learning-instructions","95","525422","0.0-3.0-11.0-9.0-0.0","spark_pilot_norest","9443","6","8","Male","","","","","","","null","<p> Now you will see the animals again and can search their chests for treasure. </p>
            <p> This time, you will not see how much treasure you earned, but you will earn more bonus money for making better choices. </p>","","instructions","","","","","","","","","","","",""
"html-keyboard-response","96","526434","0.0-3.0-11.0-10.0-0.0","spark_pilot_norest","9443","6","8","Male","","","","","","","null","<div style=""font-size:100px;color:red;"">Starting in...</div>","null","","","","","","","","","","","","",""
"html-keyboard-response","97","527448","0.0-3.0-11.0-10.0-1.0","spark_pilot_norest","9443","6","8","Male","","","","","","","null","<div style=""font-size:200px;color:red;"">3</div>","null","","","","","","","","","","","","",""
"html-keyboard-response","98","528463","0.0-3.0-11.0-10.0-2.0","spark_pilot_norest","9443","6","8","Male","","","","","","","null","<div style=""font-size:200px;color:red;"">2</div>","null","","","","","","","","","","","","",""
"html-keyboard-response","99","529476","0.0-3.0-11.0-10.0-3.0","spark_pilot_norest","9443","6","8","Male","","","","","","","null","<div style=""font-size:200px;color:red;"">1</div>","null","","","","","","","","","","","","",""
"revaluation","100","529929","0.0-3.0-11.0-11.0-0.0","spark_pilot_norest","9443","6","8","Male","","","false","","","","[451.5]","./assets/img/space/animals/cat.jpg","[""ArrowRight""]","practice block","space","0","{""ArrowUp,ArrowLeft"":3,""ArrowUp,ArrowRight"":36,""ArrowDown,ArrowLeft"":15,""ArrowDown,ArrowRight"":23}","true","ArrowUp,ArrowRight","","","","","","",""
"html-keyboard-response","101","530437","0.0-3.0-11.0-11.0-1.0","spark_pilot_norest","9443","6","8","Male","","","","","","","null","<div style=""font-size:60px;"">+</div>","null","fixation","","","","","","","","","","","",""
"revaluation","102","531871","0.0-3.0-11.0-11.0-0.1","spark_pilot_norest","9443","6","8","Male","","","false","","","","[1431.6999999284744]","./assets/img/space/animals/rabbit.jpg","[""ArrowRight""]","practice block","space","0","{""ArrowUp,ArrowLeft"":3,""ArrowUp,ArrowRight"":36,""ArrowDown,ArrowLeft"":15,""ArrowDown,ArrowRight"":23}","true","ArrowDown,ArrowRight","","","","","","",""
"html-keyboard-response","103","532385","0.0-3.0-11.0-11.0-1.1","spark_pilot_norest","9443","6","8","Male","","","","","","","null","<div style=""font-size:60px;"">+</div>","null","fixation","","","","","","","","","","","",""
"learning-instructions","104","539526","0.0-3.0-12.0-0.0","spark_pilot_norest","9443","6","8","Male","","","","","","","2570.3000000715256","<p> Before you start, we're going to ask you a few questions about how the game works. </p>","","instructions","","","","","","","","","","","",""
"comp-q","105","547576","0.0-3.0-13.0-0.0-0.0","spark_pilot_norest","9443","6","8","Male","","","","","","","2467.399999976158","<p> <b> True or False? </b> </p>
            <p> There can be 50 pieces of treasure in a given animal's chest. </p>","1","comp_question","","","","true","","","","","","","",""
"comp-q","106","555555","0.0-3.0-13.0-0.0-1.0","spark_pilot_norest","9443","6","8","Male","","","","","","","1338","<p> <b> That's right! </b> The amount of treasure in each chest can range from 0 to 40 pieces. </p>","0","comp_answer","","","","","","","","","","","",""
"comp-q","107","563793","0.0-3.0-13.0-0.1-0.1","spark_pilot_norest","9443","6","8","Male","","","","","","","1136.5","<p> <b> True or False? </b> </p><p> In this game, all animals have the same amount of treasure in their left and right chests. </p>","1","comp_question","","","","true","","","","","","","",""
"comp-q","108","570409","0.0-3.0-13.0-0.1-1.1","spark_pilot_norest","9443","6","8","Male","","","","","","","1391.6000000238419","<p> <b> That's right! </b> Animals have different amounts of treasure in their treasure chests. </p>","0","comp_answer","","","","","","","","","","","",""
"comp-q","109","580429","0.0-3.0-13.0-0.2-0.2","spark_pilot_norest","9443","6","8","Male","","","","","","","4181.600000023842","<p> <b> True or False? </b> </p><p> The same animal will always be there if you go up in the same place. </p>","0","comp_question","","","","true","","","","","","","",""
"comp-q","110","589240","0.0-3.0-13.0-0.2-1.2","spark_pilot_norest","9443","6","8","Male","","","","","","","2361.5","<p> <b> That's right! </b> One animal lives in the upper part and one lives in the lower part of every place. </p>","0","comp_answer","","","","","","","","","","","",""
"comp-q","111","596580","0.0-3.0-13.0-0.3-0.3","spark_pilot_norest","9443","6","8","Male","","","","","","","1822","<p> <b> True or False? </b> </p><p> If you see a different picture, it means you are in a new place. </p>","0","comp_question","","","","false","","","","","","","",""
"comp-q","112","608912","0.0-3.0-13.0-0.3-1.3","spark_pilot_norest","9443","6","8","Male","","","","","","","1224.3999999761581","<p> <b>Incorrect.</b> Lots of different images may show the same place. For example,  you may see three different images that all remind you that you are in outer space. </p>","0","comp_answer","","","","","","","","","","","",""
"comp-q","113","615469","0.0-3.0-13.0-0.4-0.4","spark_pilot_norest","9443","6","8","Male","","","","","","","1061.8999999761581","<p> <b> True or False? </b> </p><p> If you see a different picture, it means you are in a new place. </p>","1","comp_question","","","","true","","","","","","","",""
"comp-q","114","627934","0.0-3.0-13.0-0.4-1.4","spark_pilot_norest","9443","6","8","Male","","","","","","","1246.3000000715256","<p> <b> That's right! </b> Lots of different images may show the same place. For example,  you may see three different images that all remind you that you are in outer space. </p>","0","comp_answer","","","","","","","","","","","",""
"learning-instructions","115","639230","0.0-3.0-14.0-0.0","spark_pilot_norest","9443","6","8","Male","","","","","","","1451.6000000238419","<p> Good job. Remember to do your best because the amount of treasure you earn will be converted into bonus money. </p>
            <p> It’s time to start the real game! </p>","","instructions","","","","","","","","","","","",""
"learning-instructions","116","644680","0.0-4.0-0.0-0.0","spark_pilot_norest","9443","6","8","Male","","","","","","","2681.5","<p> This time you are searching for treasure in the <b>canyon</b>.</p>","","instructions","","","","","","","","","","","",""
"learning-instructions","117","663735","0.0-4.0-0.0-0.1","spark_pilot_norest","9443","6","8","Male","","","","","","","1776.3999999761581","<p><b>New</b> animals with <b>new</b> treasure chests live here. You need to explore to discover where the animal with the best treasure chest is.</p>
                    <p> Like before, once you figure out which animal has the chest with the most treasure, you should try to get to that animal and select that chest! </p>","","instructions","","","","","","","","","","","",""
"learning-instructions","118","679709","0.0-4.0-1.0-0.0","spark_pilot_norest","9443","6","8","Male","","","","","","","1248.7999999523163","<p> Remember, when you see a picture of the place, use the up and down keys to <b>find an animal</b>.</p>
            <p> When you encounter an animal, you should use the left and right keys to <b>select a treasure chest</b>.</p>
            <p> Don't forget to look out for the robber! </p>","","instructions","","","","","","","","","","","",""
"revaluation","119","685743","0.0-4.0-2.0-0.0","spark_pilot_norest","9443","6","8","Male","","","false","","","","[1766.7999999523163,1141.3999999761581]","./assets/img/canyon/memory/37.jpg","[""ArrowUp"",""ArrowRight""]","value training","canyon","10","{""ArrowUp,ArrowLeft"":23,""ArrowUp,ArrowRight"":10,""ArrowDown,ArrowLeft"":8,""ArrowDown,ArrowRight"":30}","false","ArrowUp,ArrowRight","false","revaluation","1","0","","",""
"html-keyboard-response","120","686257","0.0-4.0-2.0-1.0","spark_pilot_norest","9443","6","8","Male","","","","","","","null","<div style=""font-size:60px;"">+</div>","null","fixation","","","","","","","","","1","","",""
"revaluation","121","692285","0.0-4.0-2.0-0.1","spark_pilot_norest","9443","6","8","Male","","","false","","","","[762.3999999761581,465.39999997615814]","./assets/img/canyon/memory/36.jpg","[""ArrowUp"",""ArrowLeft""]","value training","canyon","23","{""ArrowUp,ArrowLeft"":23,""ArrowUp,ArrowRight"":10,""ArrowDown,ArrowLeft"":8,""ArrowDown,ArrowRight"":30}","false","ArrowUp,ArrowLeft","false","revaluation","1","2","","",""
"html-keyboard-response","122","692788","0.0-4.0-2.0-1.1","spark_pilot_norest","9443","6","8","Male","","","","","","","null","<div style=""font-size:60px;"">+</div>","null","fixation","","","","","","","","","3","","",""
"revaluation","123","698814","0.0-4.0-2.0-0.2","spark_pilot_norest","9443","6","8","Male","","","false","","","","[479.89999997615814,753.0999999046326]","./assets/img/canyon/memory/3.jpg","[""ArrowDown"",""ArrowLeft""]","value training","canyon","8","{""ArrowUp,ArrowLeft"":23,""ArrowUp,ArrowRight"":10,""ArrowDown,ArrowLeft"":8,""ArrowDown,ArrowRight"":30}","false","ArrowDown,ArrowLeft","false","revaluation","1","4","","",""
"html-keyboard-response","124","699324","0.0-4.0-2.0-1.2","spark_pilot_norest","9443","6","8","Male","","","","","","","null","<div style=""font-size:60px;"">+</div>","null","fixation","","","","","","","","","5","","",""
"revaluation","125","705351","0.0-4.0-2.0-0.3","spark_pilot_norest","9443","6","8","Male","","","false","","","","[615.6000000238419,334.2999999523163]","./assets/img/canyon/memory/20.jpg","[""ArrowDown"",""ArrowRight""]","value training","canyon","30","{""ArrowUp,ArrowLeft"":23,""ArrowUp,ArrowRight"":10,""ArrowDown,ArrowLeft"":8,""ArrowDown,ArrowRight"":30}","true","ArrowDown,ArrowRight","false","revaluation","1","6","","",""
"html-keyboard-response","126","705863","0.0-4.0-2.0-1.3","spark_pilot_norest","9443","6","8","Male","","","","","","","null","<div style=""font-size:60px;"">+</div>","null","fixation","","","","","","","","","7","","",""
"revaluation","127","711870","0.0-4.0-2.0-0.4","spark_pilot_norest","9443","6","8","Male","","","false","","","","[678.0999999046326,810.1000000238419]","./assets/img/canyon/memory/18.jpg","[""ArrowUp"",""ArrowRight""]","value training","canyon","10","{""ArrowUp,ArrowLeft"":23,""ArrowUp,ArrowRight"":10,""ArrowDown,ArrowLeft"":8,""ArrowDown,ArrowRight"":30}","false","ArrowUp,ArrowRight","false","revaluation","1","8","","",""
"html-keyboard-response","128","712372","0.0-4.0-2.0-1.4","spark_pilot_norest","9443","6","8","Male","","","","","","","null","<div style=""font-size:60px;"">+</div>","null","fixation","","","","","","","","","9","","",""
"revaluation","129","718378","0.0-4.0-2.0-0.5","spark_pilot_norest","9443","6","8","Male","","","false","","","","[408,527.6000000238419]","./assets/img/canyon/memory/29.jpg","[""ArrowDown"",""ArrowRight""]","value training","canyon","30","{""ArrowUp,ArrowLeft"":23,""ArrowUp,ArrowRight"":10,""ArrowDown,ArrowLeft"":8,""ArrowDown,ArrowRight"":30}","true","ArrowDown,ArrowRight","false","revaluation","1","10","","",""
"html-keyboard-response","130","718880","0.0-4.0-2.0-1.5","spark_pilot_norest","9443","6","8","Male","","","","","","","null","<div style=""font-size:60px;"">+</div>","null","fixation","","","","","","","","","11","","",""
"revaluation","131","724885","0.0-4.0-2.0-0.6","spark_pilot_norest","9443","6","8","Male","","","false","","","","[349.09999990463257,794.6000000238419]","./assets/img/canyon/memory/1.jpg","[""ArrowDown"",""ArrowRight""]","value training","canyon","30","{""ArrowUp,ArrowLeft"":23,""ArrowUp,ArrowRight"":10,""ArrowDown,ArrowLeft"":8,""ArrowDown,ArrowRight"":30}","true","ArrowDown,ArrowRight","false","revaluation","1","12","","",""
"html-keyboard-response","132","725387","0.0-4.0-2.0-1.6","spark_pilot_norest","9443","6","8","Male","","","","","","","null","<div style=""font-size:60px;"">+</div>","null","fixation","","","","","","","","","13","","",""
"revaluation","133","731393","0.0-4.0-2.0-0.7","spark_pilot_norest","9443","6","8","Male","","","false","","","","[930.5,631.8000000715256]","./assets/img/canyon/memory/3.jpg","[""ArrowDown"",""ArrowRight""]","value training","canyon","30","{""ArrowUp,ArrowLeft"":23,""ArrowUp,ArrowRight"":10,""ArrowDown,ArrowLeft"":8,""ArrowDown,ArrowRight"":30}","true","ArrowDown,ArrowRight","false","revaluation","1","14","","",""
"html-keyboard-response","134","731894","0.0-4.0-2.0-1.7","spark_pilot_norest","9443","6","8","Male","","","","","","","null","<div style=""font-size:60px;"">+</div>","null","fixation","","","","","","","","","15","","",""
"revaluation","135","737899","0.0-4.0-2.0-0.8","spark_pilot_norest","9443","6","8","Male","","","false","","","","[798.5,1101.2999999523163]","./assets/img/canyon/memory/29.jpg","[""ArrowDown"",""ArrowRight""]","value training","canyon","30","{""ArrowUp,ArrowLeft"":23,""ArrowUp,ArrowRight"":10,""ArrowDown,ArrowLeft"":8,""ArrowDown,ArrowRight"":30}","true","ArrowDown,ArrowRight","false","revaluation","1","16","","",""
"html-keyboard-response","136","738401","0.0-4.0-2.0-1.8","spark_pilot_norest","9443","6","8","Male","","","","","","","null","<div style=""font-size:60px;"">+</div>","null","fixation","","","","","","","","","17","","",""
"revaluation","137","744422","0.0-4.0-2.0-0.9","spark_pilot_norest","9443","6","8","Male","","","false","","","","[860.1000000238419,1163.8999999761581]","./assets/img/canyon/memory/14.jpg","[""ArrowDown"",""ArrowRight""]","value training","canyon","30","{""ArrowUp,ArrowLeft"":23,""ArrowUp,ArrowRight"":10,""ArrowDown,ArrowLeft"":8,""ArrowDown,ArrowRight"":30}","true","ArrowDown,ArrowRight","false","revaluation","1","18","","",""
"html-keyboard-response","138","744924","0.0-4.0-2.0-1.9","spark_pilot_norest","9443","6","8","Male","","","","","","","null","<div style=""font-size:60px;"">+</div>","null","fixation","","","","","","","","","19","","",""
"revaluation","139","748930","0.0-4.0-2.0-0.10","spark_pilot_norest","9443","6","8","Male","","","false","","","","[592.7999999523163]","./assets/img/canyon/catch/6.jpg","[""spaceBar""]","value training","canyon","0","{""ArrowUp,ArrowLeft"":23,""ArrowUp,ArrowRight"":10,""ArrowDown,ArrowLeft"":8,""ArrowDown,ArrowRight"":30}","true","spaceBar","true","revaluation","1","20","","",""
"html-keyboard-response","140","749432","0.0-4.0-2.0-1.10","spark_pilot_norest","9443","6","8","Male","","","","","","","null","<div style=""font-size:60px;"">+</div>","null","fixation","","","","","","","","","21","","",""
"revaluation","141","755438","0.0-4.0-2.0-0.11","spark_pilot_norest","9443","6","8","Male","","","false","","","","[749.1999999284744,323.2000000476837]","./assets/img/canyon/memory/0.jpg","[""ArrowDown"",""ArrowRight""]","value training","canyon","30","{""ArrowUp,ArrowLeft"":23,""ArrowUp,ArrowRight"":10,""ArrowDown,ArrowLeft"":8,""ArrowDown,ArrowRight"":30}","true","ArrowDown,ArrowRight","false","revaluation","1","22","","",""
"html-keyboard-response","142","755939","0.0-4.0-2.0-1.11","spark_pilot_norest","9443","6","8","Male","","","","","","","null","<div style=""font-size:60px;"">+</div>","null","fixation","","","","","","","","","23","","",""
"revaluation","143","761944","0.0-4.0-2.0-0.12","spark_pilot_norest","9443","6","8","Male","","","true","","","","[955.1000000238419]","./assets/img/canyon/memory/0.jpg","[""ArrowDown""]","value training","canyon","-5","{""ArrowUp,ArrowLeft"":23,""ArrowUp,ArrowRight"":10,""ArrowDown,ArrowLeft"":8,""ArrowDown,ArrowRight"":30}","false","ArrowDown","false","revaluation","1","24","","",""
"html-keyboard-response","144","762445","0.0-4.0-2.0-1.12","spark_pilot_norest","9443","6","8","Male","","","","","","","null","<div style=""font-size:60px;"">+</div>","null","fixation","","","","","","","","","25","","",""
"revaluation","145","768451","0.0-4.0-2.0-0.13","spark_pilot_norest","9443","6","8","Male","","","false","","","","[1240.6999999284744,303.2000000476837]","./assets/img/canyon/memory/34.jpg","[""ArrowDown"",""ArrowRight""]","value training","canyon","30","{""ArrowUp,ArrowLeft"":23,""ArrowUp,ArrowRight"":10,""ArrowDown,ArrowLeft"":8,""ArrowDown,ArrowRight"":30}","true","ArrowDown,ArrowRight","false","revaluation","1","26","","",""
"html-keyboard-response","146","768953","0.0-4.0-2.0-1.13","spark_pilot_norest","9443","6","8","Male","","","","","","","null","<div style=""font-size:60px;"">+</div>","null","fixation","","","","","","","","","27","","",""
"revaluation","147","774956","0.0-4.0-2.0-0.14","spark_pilot_norest","9443","6","8","Male","","","false","","","","[398.39999997615814,492.7000000476837]","./assets/img/canyon/memory/20.jpg","[""ArrowDown"",""ArrowRight""]","value training","canyon","30","{""ArrowUp,ArrowLeft"":23,""ArrowUp,ArrowRight"":10,""ArrowDown,ArrowLeft"":8,""ArrowDown,ArrowRight"":30}","true","ArrowDown,ArrowRight","false","revaluation","1","28","","",""
"html-keyboard-response","148","775459","0.0-4.0-2.0-1.14","spark_pilot_norest","9443","6","8","Male","","","","","","","null","<div style=""font-size:60px;"">+</div>","null","fixation","","","","","","","","","29","","",""
"revaluation","149","781464","0.0-4.0-2.0-0.15","spark_pilot_norest","9443","6","8","Male","","","false","","","","[619.8000000715256,282.90000009536743]","./assets/img/canyon/memory/4.jpg","[""ArrowDown"",""ArrowRight""]","value training","canyon","30","{""ArrowUp,ArrowLeft"":23,""ArrowUp,ArrowRight"":10,""ArrowDown,ArrowLeft"":8,""ArrowDown,ArrowRight"":30}","true","ArrowDown,ArrowRight","false","revaluation","1","30","","",""
"html-keyboard-response","150","781966","0.0-4.0-2.0-1.15","spark_pilot_norest","9443","6","8","Male","","","","","","","null","<div style=""font-size:60px;"">+</div>","null","fixation","","","","","","","","","31","","",""
"revaluation","151","787973","0.0-4.0-2.0-0.16","spark_pilot_norest","9443","6","8","Male","","","false","","","","[537.5,407.89999997615814]","./assets/img/canyon/memory/31.jpg","[""ArrowDown"",""ArrowRight""]","value training","canyon","30","{""ArrowUp,ArrowLeft"":23,""ArrowUp,ArrowRight"":10,""ArrowDown,ArrowLeft"":8,""ArrowDown,ArrowRight"":30}","true","ArrowDown,ArrowRight","false","revaluation","1","32","","",""
"html-keyboard-response","152","788475","0.0-4.0-2.0-1.16","spark_pilot_norest","9443","6","8","Male","","","","","","","null","<div style=""font-size:60px;"">+</div>","null","fixation","","","","","","","","","33","","",""
"revaluation","153","794478","0.0-4.0-2.0-0.17","spark_pilot_norest","9443","6","8","Male","","","false","","","","[780.9000000953674,484.3000000715256]","./assets/img/canyon/memory/41.jpg","[""ArrowDown"",""ArrowRight""]","value training","canyon","30","{""ArrowUp,ArrowLeft"":23,""ArrowUp,ArrowRight"":10,""ArrowDown,ArrowLeft"":8,""ArrowDown,ArrowRight"":30}","true","ArrowDown,ArrowRight","false","revaluation","1","34","","",""
"html-keyboard-response","154","794979","0.0-4.0-2.0-1.17","spark_pilot_norest","9443","6","8","Male","","","","","","","null","<div style=""font-size:60px;"">+</div>","null","fixation","","","","","","","","","35","","",""
"revaluation","155","798982","0.0-4.0-2.0-0.18","spark_pilot_norest","9443","6","8","Male","","","false","","","","[628.9000000953674]","./assets/img/canyon/catch/7.jpg","[""ArrowDown""]","value training","canyon","-10","{""ArrowUp,ArrowLeft"":23,""ArrowUp,ArrowRight"":10,""ArrowDown,ArrowLeft"":8,""ArrowDown,ArrowRight"":30}","false","ArrowDown","true","revaluation","1","36","","",""
"html-keyboard-response","156","799484","0.0-4.0-2.0-1.18","spark_pilot_norest","9443","6","8","Male","","","","","","","null","<div style=""font-size:60px;"">+</div>","null","fixation","","","","","","","","","37","","",""
"revaluation","157","803488","0.0-4.0-2.0-0.19","spark_pilot_norest","9443","6","8","Male","","","true","","","","[]","./assets/img/canyon/memory/18.jpg","[]","value training","canyon","-5","{""ArrowUp,ArrowLeft"":23,""ArrowUp,ArrowRight"":10,""ArrowDown,ArrowLeft"":8,""ArrowDown,ArrowRight"":30}","false","","false","revaluation","1","38","","",""
"html-keyboard-response","158","803989","0.0-4.0-2.0-1.19","spark_pilot_norest","9443","6","8","Male","","","","","","","null","<div style=""font-size:60px;"">+</div>","null","fixation","","","","","","","","","39","","",""
"revaluation","159","807994","0.0-4.0-2.0-0.20","spark_pilot_norest","9443","6","8","Male","","","false","","","","[418]","./assets/img/canyon/catch/3.jpg","[""ArrowDown""]","value training","canyon","-10","{""ArrowUp,ArrowLeft"":23,""ArrowUp,ArrowRight"":10,""ArrowDown,ArrowLeft"":8,""ArrowDown,ArrowRight"":30}","false","ArrowDown","true","revaluation","1","40","","",""
"html-keyboard-response","160","808495","0.0-4.0-2.0-1.20","spark_pilot_norest","9443","6","8","Male","","","","","","","null","<div style=""font-size:60px;"">+</div>","null","fixation","","","","","","","","","41","","",""
"revaluation","161","814500","0.0-4.0-2.0-0.21","spark_pilot_norest","9443","6","8","Male","","","false","","","","[1000.1999999284744,43.89999997615814]","./assets/img/canyon/memory/22.jpg","[""ArrowDown"",""ArrowRight""]","value training","canyon","30","{""ArrowUp,ArrowLeft"":23,""ArrowUp,ArrowRight"":10,""ArrowDown,ArrowLeft"":8,""ArrowDown,ArrowRight"":30}","true","ArrowDown,ArrowRight","false","revaluation","1","42","","",""
"html-keyboard-response","162","815002","0.0-4.0-2.0-1.21","spark_pilot_norest","9443","6","8","Male","","","","","","","null","<div style=""font-size:60px;"">+</div>","null","fixation","","","","","","","","","43","","",""
"revaluation","163","821006","0.0-4.0-2.0-0.22","spark_pilot_norest","9443","6","8","Male","","","false","","","","[766.5,1301.2000000476837]","./assets/img/canyon/memory/36.jpg","[""ArrowDown"",""ArrowRight""]","value training","canyon","30","{""ArrowUp,ArrowLeft"":23,""ArrowUp,ArrowRight"":10,""ArrowDown,ArrowLeft"":8,""ArrowDown,ArrowRight"":30}","true","ArrowDown,ArrowRight","false","revaluation","1","44","","",""
"html-keyboard-response","164","821508","0.0-4.0-2.0-1.22","spark_pilot_norest","9443","6","8","Male","","","","","","","null","<div style=""font-size:60px;"">+</div>","null","fixation","","","","","","","","","45","","",""
"revaluation","165","827514","0.0-4.0-2.0-0.23","spark_pilot_norest","9443","6","8","Male","","","false","","","","[787.3999999761581,10.299999952316284]","./assets/img/canyon/memory/38.jpg","[""ArrowDown"",""ArrowRight""]","value training","canyon","30","{""ArrowUp,ArrowLeft"":23,""ArrowUp,ArrowRight"":10,""ArrowDown,ArrowLeft"":8,""ArrowDown,ArrowRight"":30}","true","ArrowDown,ArrowRight","false","revaluation","1","46","","",""
"html-keyboard-response","166","828015","0.0-4.0-2.0-1.23","spark_pilot_norest","9443","6","8","Male","","","","","","","null","<div style=""font-size:60px;"">+</div>","null","fixation","","","","","","","","","47","","",""
"revaluation","167","834025","0.0-4.0-2.0-0.24","spark_pilot_norest","9443","6","8","Male","","","false","","","","[608.2000000476837,1218.2999999523163]","./assets/img/canyon/memory/7.jpg","[""ArrowDown"",""ArrowRight""]","value training","canyon","30","{""ArrowUp,ArrowLeft"":23,""ArrowUp,ArrowRight"":10,""ArrowDown,ArrowLeft"":8,""ArrowDown,ArrowRight"":30}","true","ArrowDown,ArrowRight","false","revaluation","1","48","","",""
"html-keyboard-response","168","834528","0.0-4.0-2.0-1.24","spark_pilot_norest","9443","6","8","Male","","","","","","","null","<div style=""font-size:60px;"">+</div>","null","fixation","","","","","","","","","49","","",""
"revaluation","169","840533","0.0-4.0-2.0-0.25","spark_pilot_norest","9443","6","8","Male","","","false","","","","[704.3999999761581,303.60000002384186]","./assets/img/canyon/memory/25.jpg","[""ArrowDown"",""ArrowRight""]","value training","canyon","30","{""ArrowUp,ArrowLeft"":23,""ArrowUp,ArrowRight"":10,""ArrowDown,ArrowLeft"":8,""ArrowDown,ArrowRight"":30}","true","ArrowDown,ArrowRight","false","revaluation","1","50","","",""
"html-keyboard-response","170","841033","0.0-4.0-2.0-1.25","spark_pilot_norest","9443","6","8","Male","","","","","","","null","<div style=""font-size:60px;"">+</div>","null","fixation","","","","","","","","","51","","",""
"revaluation","171","847038","0.0-4.0-2.0-0.26","spark_pilot_norest","9443","6","8","Male","","","false","","","","[895.1999999284744,814.2000000476837]","./assets/img/canyon/memory/9.jpg","[""ArrowDown"",""ArrowRight""]","value training","canyon","30","{""ArrowUp,ArrowLeft"":23,""ArrowUp,ArrowRight"":10,""ArrowDown,ArrowLeft"":8,""ArrowDown,ArrowRight"":30}","true","ArrowDown,ArrowRight","false","revaluation","1","52","","",""
"html-keyboard-response","172","847540","0.0-4.0-2.0-1.26","spark_pilot_norest","9443","6","8","Male","","","","","","","null","<div style=""font-size:60px;"">+</div>","null","fixation","","","","","","","","","53","","",""
"revaluation","173","853558","0.0-4.0-2.0-0.27","spark_pilot_norest","9443","6","8","Male","","","false","","","","[732.2999999523163,750.3999999761581]","./assets/img/canyon/memory/15.jpg","[""ArrowDown"",""ArrowRight""]","value training","canyon","30","{""ArrowUp,ArrowLeft"":23,""ArrowUp,ArrowRight"":10,""ArrowDown,ArrowLeft"":8,""ArrowDown,ArrowRight"":30}","true","ArrowDown,ArrowRight","false","revaluation","1","54","","",""
"html-keyboard-response","174","854060","0.0-4.0-2.0-1.27","spark_pilot_norest","9443","6","8","Male","","","","","","","null","<div style=""font-size:60px;"">+</div>","null","fixation","","","","","","","","","55","","",""
"revaluation","175","860066","0.0-4.0-2.0-0.28","spark_pilot_norest","9443","6","8","Male","","","false","","","","[788.9000000953674,755.2000000476837]","./assets/img/canyon/memory/37.jpg","[""ArrowDown"",""ArrowRight""]","value training","canyon","30","{""ArrowUp,ArrowLeft"":23,""ArrowUp,ArrowRight"":10,""ArrowDown,ArrowLeft"":8,""ArrowDown,ArrowRight"":30}","true","ArrowDown,ArrowRight","false","revaluation","1","56","","",""
"html-keyboard-response","176","860567","0.0-4.0-2.0-1.28","spark_pilot_norest","9443","6","8","Male","","","","","","","null","<div style=""font-size:60px;"">+</div>","null","fixation","","","","","","","","","57","","",""
"revaluation","177","864570","0.0-4.0-2.0-0.29","spark_pilot_norest","9443","6","8","Male","","","false","","","","[658.2999999523163]","./assets/img/canyon/catch/2.jpg","[""ArrowDown""]","value training","canyon","-10","{""ArrowUp,ArrowLeft"":23,""ArrowUp,ArrowRight"":10,""ArrowDown,ArrowLeft"":8,""ArrowDown,ArrowRight"":30}","false","ArrowDown","true","revaluation","1","58","","",""
"html-keyboard-response","178","865072","0.0-4.0-2.0-1.29","spark_pilot_norest","9443","6","8","Male","","","","","","","null","<div style=""font-size:60px;"">+</div>","null","fixation","","","","","","","","","59","","",""
"revaluation","179","871078","0.0-4.0-2.0-0.30","spark_pilot_norest","9443","6","8","Male","","","false","","","","[1641.1999999284744,48.40000009536743]","./assets/img/canyon/memory/41.jpg","[""ArrowDown"",""ArrowRight""]","value training","canyon","30","{""ArrowUp,ArrowLeft"":23,""ArrowUp,ArrowRight"":10,""ArrowDown,ArrowLeft"":8,""ArrowDown,ArrowRight"":30}","true","ArrowDown,ArrowRight","false","revaluation","1","60","","",""
"html-keyboard-response","180","871580","0.0-4.0-2.0-1.30","spark_pilot_norest","9443","6","8","Male","","","","","","","null","<div style=""font-size:60px;"">+</div>","null","fixation","","","","","","","","","61","","",""
"revaluation","181","877585","0.0-4.0-2.0-0.31","spark_pilot_norest","9443","6","8","Male","","","false","","","","[413.39999997615814,676.7999999523163]","./assets/img/canyon/memory/6.jpg","[""ArrowDown"",""ArrowRight""]","value training","canyon","30","{""ArrowUp,ArrowLeft"":23,""ArrowUp,ArrowRight"":10,""ArrowDown,ArrowLeft"":8,""ArrowDown,ArrowRight"":30}","true","ArrowDown,ArrowRight","false","revaluation","1","62","","",""
"html-keyboard-response","182","878087","0.0-4.0-2.0-1.31","spark_pilot_norest","9443","6","8","Male","","","","","","","null","<div style=""font-size:60px;"">+</div>","null","fixation","","","","","","","","","63","","",""
"revaluation","183","884090","0.0-4.0-2.0-0.32","spark_pilot_norest","9443","6","8","Male","","","false","","","","[1546.8999999761581,627.4000000953674]","./assets/img/canyon/memory/5.jpg","[""ArrowDown"",""ArrowRight""]","value training","canyon","30","{""ArrowUp,ArrowLeft"":23,""ArrowUp,ArrowRight"":10,""ArrowDown,ArrowLeft"":8,""ArrowDown,ArrowRight"":30}","true","ArrowDown,ArrowRight","false","revaluation","1","64","","",""
"html-keyboard-response","184","884592","0.0-4.0-2.0-1.32","spark_pilot_norest","9443","6","8","Male","","","","","","","null","<div style=""font-size:60px;"">+</div>","null","fixation","","","","","","","","","65","","",""
"revaluation","185","890598","0.0-4.0-2.0-0.33","spark_pilot_norest","9443","6","8","Male","","","false","","","","[649.6000000238419,1016.2999999523163]","./assets/img/canyon/memory/7.jpg","[""ArrowDown"",""ArrowRight""]","value training","canyon","30","{""ArrowUp,ArrowLeft"":23,""ArrowUp,ArrowRight"":10,""ArrowDown,ArrowLeft"":8,""ArrowDown,ArrowRight"":30}","true","ArrowDown,ArrowRight","false","revaluation","1","66","","",""
"html-keyboard-response","186","891099","0.0-4.0-2.0-1.33","spark_pilot_norest","9443","6","8","Male","","","","","","","null","<div style=""font-size:60px;"">+</div>","null","fixation","","","","","","","","","67","","",""
"revaluation","187","897118","0.0-4.0-2.0-0.34","spark_pilot_norest","9443","6","8","Male","","","false","","","","[1486.5999999046326,260.89999997615814]","./assets/img/canyon/memory/22.jpg","[""ArrowDown"",""ArrowRight""]","value training","canyon","30","{""ArrowUp,ArrowLeft"":23,""ArrowUp,ArrowRight"":10,""ArrowDown,ArrowLeft"":8,""ArrowDown,ArrowRight"":30}","true","ArrowDown,ArrowRight","false","revaluation","1","68","","",""
"html-keyboard-response","188","897620","0.0-4.0-2.0-1.34","spark_pilot_norest","9443","6","8","Male","","","","","","","null","<div style=""font-size:60px;"">+</div>","null","fixation","","","","","","","","","69","","",""
"revaluation","189","903637","0.0-4.0-2.0-0.35","spark_pilot_norest","9443","6","8","Male","","","false","","","","[614.3999999761581,482.89999997615814]","./assets/img/canyon/memory/14.jpg","[""ArrowDown"",""ArrowRight""]","value training","canyon","30","{""ArrowUp,ArrowLeft"":23,""ArrowUp,ArrowRight"":10,""ArrowDown,ArrowLeft"":8,""ArrowDown,ArrowRight"":30}","true","ArrowDown,ArrowRight","false","revaluation","1","70","","",""
"html-keyboard-response","190","904139","0.0-4.0-2.0-1.35","spark_pilot_norest","9443","6","8","Male","","","","","","","null","<div style=""font-size:60px;"">+</div>","null","fixation","","","","","","","","","71","","",""
"revaluation","191","910143","0.0-4.0-2.0-0.36","spark_pilot_norest","9443","6","8","Male","","","false","","","","[582.7999999523163,518.7999999523163]","./assets/img/canyon/memory/31.jpg","[""ArrowDown"",""ArrowRight""]","value training","canyon","30","{""ArrowUp,ArrowLeft"":23,""ArrowUp,ArrowRight"":10,""ArrowDown,ArrowLeft"":8,""ArrowDown,ArrowRight"":30}","true","ArrowDown,ArrowRight","false","revaluation","1","72","","",""
"html-keyboard-response","192","910645","0.0-4.0-2.0-1.36","spark_pilot_norest","9443","6","8","Male","","","","","","","null","<div style=""font-size:60px;"">+</div>","null","fixation","","","","","","","","","73","","",""
"revaluation","193","916655","0.0-4.0-2.0-0.37","spark_pilot_norest","9443","6","8","Male","","","false","","","","[1005.3000000715256,390]","./assets/img/canyon/memory/34.jpg","[""ArrowDown"",""ArrowRight""]","value training","canyon","30","{""ArrowUp,ArrowLeft"":23,""ArrowUp,ArrowRight"":10,""ArrowDown,ArrowLeft"":8,""ArrowDown,ArrowRight"":30}","true","ArrowDown,ArrowRight","false","revaluation","1","74","","",""
"html-keyboard-response","194","917157","0.0-4.0-2.0-1.37","spark_pilot_norest","9443","6","8","Male","","","","","","","null","<div style=""font-size:60px;"">+</div>","null","fixation","","","","","","","","","75","","",""
"revaluation","195","921161","0.0-4.0-2.0-0.38","spark_pilot_norest","9443","6","8","Male","","","false","","","","[997.1000000238419]","./assets/img/canyon/catch/4.jpg","[""spaceBar""]","value training","canyon","0","{""ArrowUp,ArrowLeft"":23,""ArrowUp,ArrowRight"":10,""ArrowDown,ArrowLeft"":8,""ArrowDown,ArrowRight"":30}","true","spaceBar","true","revaluation","1","76","","",""
"html-keyboard-response","196","921663","0.0-4.0-2.0-1.38","spark_pilot_norest","9443","6","8","Male","","","","","","","null","<div style=""font-size:60px;"">+</div>","null","fixation","","","","","","","","","77","","",""
"revaluation","197","927669","0.0-4.0-2.0-0.39","spark_pilot_norest","9443","6","8","Male","","","false","","","","[635.5,529.8999999761581]","./assets/img/canyon/memory/1.jpg","[""ArrowDown"",""ArrowRight""]","value training","canyon","30","{""ArrowUp,ArrowLeft"":23,""ArrowUp,ArrowRight"":10,""ArrowDown,ArrowLeft"":8,""ArrowDown,ArrowRight"":30}","true","ArrowDown,ArrowRight","false","revaluation","1","78","","",""
"html-keyboard-response","198","928170","0.0-4.0-2.0-1.39","spark_pilot_norest","9443","6","8","Male","","","","","","","null","<div style=""font-size:60px;"">+</div>","null","fixation","","","","","","","","","79","","",""
"revaluation","199","934175","0.0-4.0-2.0-0.40","spark_pilot_norest","9443","6","8","Male","","","false","","","","[1025.5,584.8999999761581]","./assets/img/canyon/memory/9.jpg","[""ArrowDown"",""ArrowRight""]","value training","canyon","30","{""ArrowUp,ArrowLeft"":23,""ArrowUp,ArrowRight"":10,""ArrowDown,ArrowLeft"":8,""ArrowDown,ArrowRight"":30}","true","ArrowDown,ArrowRight","false","revaluation","1","80","","",""
"html-keyboard-response","200","934675","0.0-4.0-2.0-1.40","spark_pilot_norest","9443","6","8","Male","","","","","","","null","<div style=""font-size:60px;"">+</div>","null","fixation","","","","","","","","","81","","",""
"revaluation","201","940682","0.0-4.0-2.0-0.41","spark_pilot_norest","9443","6","8","Male","","","false","","","","[904,783.2000000476837]","./assets/img/canyon/memory/6.jpg","[""ArrowDown"",""ArrowRight""]","value training","canyon","30","{""ArrowUp,ArrowLeft"":23,""ArrowUp,ArrowRight"":10,""ArrowDown,ArrowLeft"":8,""ArrowDown,ArrowRight"":30}","true","ArrowDown,ArrowRight","false","revaluation","1","82","","",""
"html-keyboard-response","202","941184","0.0-4.0-2.0-1.41","spark_pilot_norest","9443","6","8","Male","","","","","","","null","<div style=""font-size:60px;"">+</div>","null","fixation","","","","","","","","","83","","",""
"revaluation","203","947189","0.0-4.0-2.0-0.42","spark_pilot_norest","9443","6","8","Male","","","false","","","","[708,586.5]","./assets/img/canyon/memory/5.jpg","[""ArrowDown"",""ArrowRight""]","value training","canyon","30","{""ArrowUp,ArrowLeft"":23,""ArrowUp,ArrowRight"":10,""ArrowDown,ArrowLeft"":8,""ArrowDown,ArrowRight"":30}","true","ArrowDown,ArrowRight","false","revaluation","1","84","","",""
"html-keyboard-response","204","947690","0.0-4.0-2.0-1.42","spark_pilot_norest","9443","6","8","Male","","","","","","","null","<div style=""font-size:60px;"">+</div>","null","fixation","","","","","","","","","85","","",""
"revaluation","205","953695","0.0-4.0-2.0-0.43","spark_pilot_norest","9443","6","8","Male","","","false","","","","[777.1000000238419,847.5]","./assets/img/canyon/memory/38.jpg","[""ArrowDown"",""ArrowRight""]","value training","canyon","30","{""ArrowUp,ArrowLeft"":23,""ArrowUp,ArrowRight"":10,""ArrowDown,ArrowLeft"":8,""ArrowDown,ArrowRight"":30}","true","ArrowDown,ArrowRight","false","revaluation","1","86","","",""
"html-keyboard-response","206","954197","0.0-4.0-2.0-1.43","spark_pilot_norest","9443","6","8","Male","","","","","","","null","<div style=""font-size:60px;"">+</div>","null","fixation","","","","","","","","","87","","",""
"revaluation","207","960201","0.0-4.0-2.0-0.44","spark_pilot_norest","9443","6","8","Male","","","false","","","","[822.6000000238419,1053.5]","./assets/img/canyon/memory/4.jpg","[""ArrowDown"",""ArrowRight""]","value training","canyon","30","{""ArrowUp,ArrowLeft"":23,""ArrowUp,ArrowRight"":10,""ArrowDown,ArrowLeft"":8,""ArrowDown,ArrowRight"":30}","true","ArrowDown,ArrowRight","false","revaluation","1","88","","",""
"html-keyboard-response","208","960703","0.0-4.0-2.0-1.44","spark_pilot_norest","9443","6","8","Male","","","","","","","null","<div style=""font-size:60px;"">+</div>","null","fixation","","","","","","","","","89","","",""
"revaluation","209","964706","0.0-4.0-2.0-0.45","spark_pilot_norest","9443","6","8","Male","","","false","","","","[733.2000000476837]","./assets/img/canyon/catch/5.jpg","[""spaceBar""]","value training","canyon","0","{""ArrowUp,ArrowLeft"":23,""ArrowUp,ArrowRight"":10,""ArrowDown,ArrowLeft"":8,""ArrowDown,ArrowRight"":30}","true","spaceBar","true","revaluation","1","90","","",""
"html-keyboard-response","210","965208","0.0-4.0-2.0-1.45","spark_pilot_norest","9443","6","8","Male","","","","","","","null","<div style=""font-size:60px;"">+</div>","null","fixation","","","","","","","","","91","","",""
"revaluation","211","971213","0.0-4.0-2.0-0.46","spark_pilot_norest","9443","6","8","Male","","","false","","","","[659.6000000238419,1219.3999999761581]","./assets/img/canyon/memory/25.jpg","[""ArrowDown"",""ArrowRight""]","value training","canyon","30","{""ArrowUp,ArrowLeft"":23,""ArrowUp,ArrowRight"":10,""ArrowDown,ArrowLeft"":8,""ArrowDown,ArrowRight"":30}","true","ArrowDown,ArrowRight","false","revaluation","1","92","","",""
"html-keyboard-response","212","971715","0.0-4.0-2.0-1.46","spark_pilot_norest","9443","6","8","Male","","","","","","","null","<div style=""font-size:60px;"">+</div>","null","fixation","","","","","","","","","93","","",""
"revaluation","213","977721","0.0-4.0-2.0-0.47","spark_pilot_norest","9443","6","8","Male","","","false","","","","[673.5,608.1999999284744]","./assets/img/canyon/memory/15.jpg","[""ArrowDown"",""ArrowRight""]","value training","canyon","30","{""ArrowUp,ArrowLeft"":23,""ArrowUp,ArrowRight"":10,""ArrowDown,ArrowLeft"":8,""ArrowDown,ArrowRight"":30}","true","ArrowDown,ArrowRight","false","revaluation","1","94","","",""
"html-keyboard-response","214","978222","0.0-4.0-2.0-1.47","spark_pilot_norest","9443","6","8","Male","","","","","","","null","<div style=""font-size:60px;"">+</div>","null","fixation","","","","","","","","","95","","",""
"revaluation","215","982227","0.0-4.0-2.0-0.48","spark_pilot_norest","9443","6","8","Male","","","false","","","","[686.1000000238419]","./assets/img/canyon/catch/1.jpg","[""ArrowDown""]","value training","canyon","-10","{""ArrowUp,ArrowLeft"":23,""ArrowUp,ArrowRight"":10,""ArrowDown,ArrowLeft"":8,""ArrowDown,ArrowRight"":30}","false","ArrowDown","true","revaluation","1","96","","",""
"html-keyboard-response","216","982729","0.0-4.0-2.0-1.48","spark_pilot_norest","9443","6","8","Male","","","","","","","null","<div style=""font-size:60px;"">+</div>","null","fixation","","","","","","","","","97","","",""
"revaluation","217","986733","0.0-4.0-2.0-0.49","spark_pilot_norest","9443","6","8","Male","","","false","","","","[883.5]","./assets/img/canyon/catch/0.jpg","[""ArrowDown""]","value training","canyon","-10","{""ArrowUp,ArrowLeft"":23,""ArrowUp,ArrowRight"":10,""ArrowDown,ArrowLeft"":8,""ArrowDown,ArrowRight"":30}","false","ArrowDown","true","revaluation","1","98","","",""
"html-keyboard-response","218","987235","0.0-4.0-2.0-1.49","spark_pilot_norest","9443","6","8","Male","","","","","","","null","<div style=""font-size:60px;"">+</div>","null","fixation","","","","","","","","","99","","",""
"learning-instructions","219","1003895","0.0-4.0-3.0-0.0","spark_pilot_norest","9443","6","8","Male","","","","","","","3595.5","<p> Now, you will travel with a friend who will choose whether you go up or down first. </p>
            <p> On these turns, you will just see the animal that they found. You will still get to choose which chest to search for treasure.</p>","","instructions","","","","","","","","","","","",""
"revaluation","220","1007911","0.0-4.0-4.0-0.0","spark_pilot_norest","9443","6","8","Male","","","false","","","","[782.6999999284744]","./assets/img/canyon/animals/lion.jpg","[""ArrowRight""]","revaluation","canyon","7","{""ArrowUp,ArrowLeft"":27,""ArrowUp,ArrowRight"":15,""ArrowDown,ArrowLeft"":21,""ArrowDown,ArrowRight"":7}","false","ArrowDown,ArrowRight","","revaluation","1","0","","",""
"html-keyboard-response","221","1008424","0.0-4.0-4.0-1.0","spark_pilot_norest","9443","6","8","Male","","","","","","","null","<div style=""font-size:60px;"">+</div>","null","fixation","","","","","","","","","1","","",""
"revaluation","222","1012437","0.0-4.0-4.0-0.1","spark_pilot_norest","9443","6","8","Male","","","false","","","","[1037.5]","./assets/img/canyon/animals/giraffe.jpg","[""ArrowLeft""]","revaluation","canyon","27","{""ArrowUp,ArrowLeft"":27,""ArrowUp,ArrowRight"":15,""ArrowDown,ArrowLeft"":21,""ArrowDown,ArrowRight"":7}","true","ArrowUp,ArrowLeft","","revaluation","1","2","","",""
"html-keyboard-response","223","1012953","0.0-4.0-4.0-1.1","spark_pilot_norest","9443","6","8","Male","","","","","","","null","<div style=""font-size:60px;"">+</div>","null","fixation","","","","","","","","","3","","",""
"revaluation","224","1016966","0.0-4.0-4.0-0.2","spark_pilot_norest","9443","6","8","Male","","","false","","","","[901.8999999761581]","./assets/img/canyon/animals/giraffe.jpg","[""ArrowLeft""]","revaluation","canyon","27","{""ArrowUp,ArrowLeft"":27,""ArrowUp,ArrowRight"":15,""ArrowDown,ArrowLeft"":21,""ArrowDown,ArrowRight"":7}","true","ArrowUp,ArrowLeft","","revaluation","1","4","","",""
"html-keyboard-response","225","1017480","0.0-4.0-4.0-1.2","spark_pilot_norest","9443","6","8","Male","","","","","","","null","<div style=""font-size:60px;"">+</div>","null","fixation","","","","","","","","","5","","",""
"revaluation","226","1021499","0.0-4.0-4.0-0.3","spark_pilot_norest","9443","6","8","Male","","","false","","","","[333.7000000476837]","./assets/img/canyon/animals/giraffe.jpg","[""ArrowLeft""]","revaluation","canyon","27","{""ArrowUp,ArrowLeft"":27,""ArrowUp,ArrowRight"":15,""ArrowDown,ArrowLeft"":21,""ArrowDown,ArrowRight"":7}","true","ArrowUp,ArrowLeft","","revaluation","1","6","","",""
"html-keyboard-response","227","1022010","0.0-4.0-4.0-1.3","spark_pilot_norest","9443","6","8","Male","","","","","","","null","<div style=""font-size:60px;"">+</div>","null","fixation","","","","","","","","","7","","",""
"revaluation","228","1026038","0.0-4.0-4.0-0.4","spark_pilot_norest","9443","6","8","Male","","","false","","","","[428.09999990463257]","./assets/img/canyon/animals/lion.jpg","[""ArrowLeft""]","revaluation","canyon","21","{""ArrowUp,ArrowLeft"":27,""ArrowUp,ArrowRight"":15,""ArrowDown,ArrowLeft"":21,""ArrowDown,ArrowRight"":7}","true","ArrowDown,ArrowLeft","","revaluation","1","8","","",""
"html-keyboard-response","229","1026553","0.0-4.0-4.0-1.4","spark_pilot_norest","9443","6","8","Male","","","","","","","null","<div style=""font-size:60px;"">+</div>","null","fixation","","","","","","","","","9","","",""
"revaluation","230","1030572","0.0-4.0-4.0-0.5","spark_pilot_norest","9443","6","8","Male","","","false","","","","[1102.7999999523163]","./assets/img/canyon/animals/giraffe.jpg","[""ArrowLeft""]","revaluation","canyon","27","{""ArrowUp,ArrowLeft"":27,""ArrowUp,ArrowRight"":15,""ArrowDown,ArrowLeft"":21,""ArrowDown,ArrowRight"":7}","true","ArrowUp,ArrowLeft","","revaluation","1","10","","",""
"html-keyboard-response","231","1031074","0.0-4.0-4.0-1.5","spark_pilot_norest","9443","6","8","Male","","","","","","","null","<div style=""font-size:60px;"">+</div>","null","fixation","","","","","","","","","11","","",""
"revaluation","232","1035078","0.0-4.0-4.0-0.6","spark_pilot_norest","9443","6","8","Male","","","false","","","","[860.3000000715256]","./assets/img/canyon/animals/lion.jpg","[""ArrowRight""]","revaluation","canyon","7","{""ArrowUp,ArrowLeft"":27,""ArrowUp,ArrowRight"":15,""ArrowDown,ArrowLeft"":21,""ArrowDown,ArrowRight"":7}","false","ArrowDown,ArrowRight","","revaluation","1","12","","",""
"html-keyboard-response","233","1035580","0.0-4.0-4.0-1.6","spark_pilot_norest","9443","6","8","Male","","","","","","","null","<div style=""font-size:60px;"">+</div>","null","fixation","","","","","","","","","13","","",""
"revaluation","234","1039584","0.0-4.0-4.0-0.7","spark_pilot_norest","9443","6","8","Male","","","false","","","","[1058.1000000238419]","./assets/img/canyon/animals/lion.jpg","[""ArrowLeft""]","revaluation","canyon","21","{""ArrowUp,ArrowLeft"":27,""ArrowUp,ArrowRight"":15,""ArrowDown,ArrowLeft"":21,""ArrowDown,ArrowRight"":7}","true","ArrowDown,ArrowLeft","","revaluation","1","14","","",""
"html-keyboard-response","235","1040085","0.0-4.0-4.0-1.7","spark_pilot_norest","9443","6","8","Male","","","","","","","null","<div style=""font-size:60px;"">+</div>","null","fixation","","","","","","","","","15","","",""
"revaluation","236","1044096","0.0-4.0-4.0-0.8","spark_pilot_norest","9443","6","8","Male","","","false","","","","[145.10000002384186]","./assets/img/canyon/animals/lion.jpg","[""ArrowLeft""]","revaluation","canyon","21","{""ArrowUp,ArrowLeft"":27,""ArrowUp,ArrowRight"":15,""ArrowDown,ArrowLeft"":21,""ArrowDown,ArrowRight"":7}","true","ArrowDown,ArrowLeft","","revaluation","1","16","","",""
"html-keyboard-response","237","1044598","0.0-4.0-4.0-1.8","spark_pilot_norest","9443","6","8","Male","","","","","","","null","<div style=""font-size:60px;"">+</div>","null","fixation","","","","","","","","","17","","",""
"revaluation","238","1048602","0.0-4.0-4.0-0.9","spark_pilot_norest","9443","6","8","Male","","","false","","","","[633.1000000238419]","./assets/img/canyon/animals/giraffe.jpg","[""ArrowLeft""]","revaluation","canyon","27","{""ArrowUp,ArrowLeft"":27,""ArrowUp,ArrowRight"":15,""ArrowDown,ArrowLeft"":21,""ArrowDown,ArrowRight"":7}","true","ArrowUp,ArrowLeft","","revaluation","1","18","","",""
"html-keyboard-response","239","1049104","0.0-4.0-4.0-1.9","spark_pilot_norest","9443","6","8","Male","","","","","","","null","<div style=""font-size:60px;"">+</div>","null","fixation","","","","","","","","","19","","",""
"revaluation","240","1053109","0.0-4.0-4.0-0.10","spark_pilot_norest","9443","6","8","Male","","","false","","","","[413.90000009536743]","./assets/img/canyon/animals/giraffe.jpg","[""ArrowRight""]","revaluation","canyon","15","{""ArrowUp,ArrowLeft"":27,""ArrowUp,ArrowRight"":15,""ArrowDown,ArrowLeft"":21,""ArrowDown,ArrowRight"":7}","false","ArrowUp,ArrowRight","","revaluation","1","20","","",""
"html-keyboard-response","241","1053611","0.0-4.0-4.0-1.10","spark_pilot_norest","9443","6","8","Male","","","","","","","null","<div style=""font-size:60px;"">+</div>","null","fixation","","","","","","","","","21","","",""
"revaluation","242","1057616","0.0-4.0-4.0-0.11","spark_pilot_norest","9443","6","8","Male","","","false","","","","[508.39999997615814]","./assets/img/canyon/animals/lion.jpg","[""ArrowLeft""]","revaluation","canyon","21","{""ArrowUp,ArrowLeft"":27,""ArrowUp,ArrowRight"":15,""ArrowDown,ArrowLeft"":21,""ArrowDown,ArrowRight"":7}","true","ArrowDown,ArrowLeft","","revaluation","1","22","","",""
"html-keyboard-response","243","1058117","0.0-4.0-4.0-1.11","spark_pilot_norest","9443","6","8","Male","","","","","","","null","<div style=""font-size:60px;"">+</div>","null","fixation","","","","","","","","","23","","",""
"revaluation","244","1062120","0.0-4.0-4.0-0.12","spark_pilot_norest","9443","6","8","Male","","","false","","","","[530.6000000238419]","./assets/img/canyon/animals/lion.jpg","[""ArrowLeft""]","revaluation","canyon","21","{""ArrowUp,ArrowLeft"":27,""ArrowUp,ArrowRight"":15,""ArrowDown,ArrowLeft"":21,""ArrowDown,ArrowRight"":7}","true","ArrowDown,ArrowLeft","","revaluation","1","24","","",""
"html-keyboard-response","245","1062621","0.0-4.0-4.0-1.12","spark_pilot_norest","9443","6","8","Male","","","","","","","null","<div style=""font-size:60px;"">+</div>","null","fixation","","","","","","","","","25","","",""
"revaluation","246","1066626","0.0-4.0-4.0-0.13","spark_pilot_norest","9443","6","8","Male","","","false","","","","[505.10000002384186]","./assets/img/canyon/animals/lion.jpg","[""ArrowLeft""]","revaluation","canyon","21","{""ArrowUp,ArrowLeft"":27,""ArrowUp,ArrowRight"":15,""ArrowDown,ArrowLeft"":21,""ArrowDown,ArrowRight"":7}","true","ArrowDown,ArrowLeft","","revaluation","1","26","","",""
"html-keyboard-response","247","1067132","0.0-4.0-4.0-1.13","spark_pilot_norest","9443","6","8","Male","","","","","","","null","<div style=""font-size:60px;"">+</div>","null","fixation","","","","","","","","","27","","",""
"revaluation","248","1071135","0.0-4.0-4.0-0.14","spark_pilot_norest","9443","6","8","Male","","","false","","","","[683.8999999761581]","./assets/img/canyon/animals/lion.jpg","[""ArrowLeft""]","revaluation","canyon","21","{""ArrowUp,ArrowLeft"":27,""ArrowUp,ArrowRight"":15,""ArrowDown,ArrowLeft"":21,""ArrowDown,ArrowRight"":7}","true","ArrowDown,ArrowLeft","","revaluation","1","28","","",""
"html-keyboard-response","249","1071636","0.0-4.0-4.0-1.14","spark_pilot_norest","9443","6","8","Male","","","","","","","null","<div style=""font-size:60px;"">+</div>","null","fixation","","","","","","","","","29","","",""
"revaluation","250","1075641","0.0-4.0-4.0-0.15","spark_pilot_norest","9443","6","8","Male","","","false","","","","[1251.2999999523163]","./assets/img/canyon/animals/giraffe.jpg","[""ArrowLeft""]","revaluation","canyon","27","{""ArrowUp,ArrowLeft"":27,""ArrowUp,ArrowRight"":15,""ArrowDown,ArrowLeft"":21,""ArrowDown,ArrowRight"":7}","true","ArrowUp,ArrowLeft","","revaluation","1","30","","",""
"html-keyboard-response","251","1076143","0.0-4.0-4.0-1.15","spark_pilot_norest","9443","6","8","Male","","","","","","","null","<div style=""font-size:60px;"">+</div>","null","fixation","","","","","","","","","31","","",""
"revaluation","252","1080148","0.0-4.0-4.0-0.16","spark_pilot_norest","9443","6","8","Male","","","false","","","","[816.1000000238419]","./assets/img/canyon/animals/giraffe.jpg","[""ArrowLeft""]","revaluation","canyon","27","{""ArrowUp,ArrowLeft"":27,""ArrowUp,ArrowRight"":15,""ArrowDown,ArrowLeft"":21,""ArrowDown,ArrowRight"":7}","true","ArrowUp,ArrowLeft","","revaluation","1","32","","",""
"html-keyboard-response","253","1080650","0.0-4.0-4.0-1.16","spark_pilot_norest","9443","6","8","Male","","","","","","","null","<div style=""font-size:60px;"">+</div>","null","fixation","","","","","","","","","33","","",""
"revaluation","254","1084654","0.0-4.0-4.0-0.17","spark_pilot_norest","9443","6","8","Male","","","false","","","","[790.5]","./assets/img/canyon/animals/giraffe.jpg","[""ArrowLeft""]","revaluation","canyon","27","{""ArrowUp,ArrowLeft"":27,""ArrowUp,ArrowRight"":15,""ArrowDown,ArrowLeft"":21,""ArrowDown,ArrowRight"":7}","true","ArrowUp,ArrowLeft","","revaluation","1","34","","",""
"html-keyboard-response","255","1085156","0.0-4.0-4.0-1.17","spark_pilot_norest","9443","6","8","Male","","","","","","","null","<div style=""font-size:60px;"">+</div>","null","fixation","","","","","","","","","35","","",""
"learning-instructions","256","1093453","0.0-4.0-5.0-0.0","spark_pilot_norest","9443","6","8","Male","","","","","","","null","<p> You have almost finished this part of the game! </p>
            <p> We are going to ask you to make a few more choices. </p>","","instructions","","","","","","","","","","","",""
"learning-instructions","257","1109421","0.0-4.0-5.0-0.1","spark_pilot_norest","9443","6","8","Male","","","","","","","null","<p> First, you need to decide whether to go up or down. When you see each picture, use the arrow keys to make your choice. </p>
            <p><b>You will not see which animal you found, but try to get to the one that will give you the most treasure.</b></p>","","instructions","","","","","","","","","","","",""
"html-keyboard-response","258","1110426","0.0-4.0-6.0-0.0","spark_pilot_norest","9443","6","8","Male","","","","","","","null","<div style=""font-size:100px;color:red;"">Starting in...</div>","null","","","","","","","","","","","","",""
"html-keyboard-response","259","1111439","0.0-4.0-6.0-1.0","spark_pilot_norest","9443","6","8","Male","","","","","","","null","<div style=""font-size:200px;color:red;"">3</div>","null","","","","","","","","","","","","",""
"html-keyboard-response","260","1112453","0.0-4.0-6.0-2.0","spark_pilot_norest","9443","6","8","Male","","","","","","","null","<div style=""font-size:200px;color:red;"">2</div>","null","","","","","","","","","","","","",""
"html-keyboard-response","261","1113462","0.0-4.0-6.0-3.0","spark_pilot_norest","9443","6","8","Male","","","","","","","null","<div style=""font-size:200px;color:red;"">1</div>","null","","","","","","","","","","","","",""
"revaluation","262","1114123","0.0-4.0-7.0-0.0","spark_pilot_norest","9443","6","8","Male","","","false","","","","[658.2000000476837]","./assets/img/canyon/test/3.jpg","[""ArrowDown""]","first stage test","canyon","0","{""ArrowUp,ArrowLeft"":27,""ArrowUp,ArrowRight"":15,""ArrowDown,ArrowLeft"":21,""ArrowDown,ArrowRight"":7}","false","ArrowDown","false","revaluation","1","","","",""
"html-keyboard-response","263","1114632","0.0-4.0-7.0-1.0","spark_pilot_norest","9443","6","8","Male","","","","","","","null","<div style=""font-size:60px;"">+</div>","null","fixation","","","","","","","","","","","",""
"revaluation","264","1115691","0.0-4.0-7.0-0.1","spark_pilot_norest","9443","6","8","Male","","","false","","","","[1057.3999999761581]","./assets/img/canyon/test/1.jpg","[""ArrowDown""]","first stage test","canyon","0","{""ArrowUp,ArrowLeft"":27,""ArrowUp,ArrowRight"":15,""ArrowDown,ArrowLeft"":21,""ArrowDown,ArrowRight"":7}","false","ArrowDown","false","revaluation","1","","","",""
"html-keyboard-response","265","1116205","0.0-4.0-7.0-1.1","spark_pilot_norest","9443","6","8","Male","","","","","","","null","<div style=""font-size:60px;"">+</div>","null","fixation","","","","","","","","","","","",""
"revaluation","266","1116643","0.0-4.0-7.0-0.2","spark_pilot_norest","9443","6","8","Male","","","false","","","","[435.6999999284744]","./assets/img/canyon/test/2.jpg","[""ArrowDown""]","first stage test","canyon","0","{""ArrowUp,ArrowLeft"":27,""ArrowUp,ArrowRight"":15,""ArrowDown,ArrowLeft"":21,""ArrowDown,ArrowRight"":7}","false","ArrowDown","false","revaluation","1","","","",""
"html-keyboard-response","267","1117157","0.0-4.0-7.0-1.2","spark_pilot_norest","9443","6","8","Male","","","","","","","null","<div style=""font-size:60px;"">+</div>","null","fixation","","","","","","","","","","","",""
"revaluation","268","1117627","0.0-4.0-7.0-0.3","spark_pilot_norest","9443","6","8","Male","","","false","","","","[468.5]","./assets/img/canyon/test/0.jpg","[""ArrowDown""]","first stage test","canyon","0","{""ArrowUp,ArrowLeft"":27,""ArrowUp,ArrowRight"":15,""ArrowDown,ArrowLeft"":21,""ArrowDown,ArrowRight"":7}","false","ArrowDown","false","revaluation","1","","","",""
"html-keyboard-response","269","1118137","0.0-4.0-7.0-1.3","spark_pilot_norest","9443","6","8","Male","","","","","","","null","<div style=""font-size:60px;"">+</div>","null","fixation","","","","","","","","","","","",""
"learning-instructions","270","1131498","0.0-4.0-8.0-0.0","spark_pilot_norest","9443","6","8","Male","","","","","","","null","<p> Now you will see the animals again and can search their chests for treasure. </p>
            <p> This time, you will not see how much treasure you earned, but you will earn more bonus money for making better choices. </p>","","instructions","","","","","","","","","","","",""
"html-keyboard-response","271","1132512","0.0-4.0-9.0-0.0","spark_pilot_norest","9443","6","8","Male","","","","","","","null","<div style=""font-size:100px;color:red;"">Starting in...</div>","null","","","","","","","","","","","","",""
"html-keyboard-response","272","1133518","0.0-4.0-9.0-1.0","spark_pilot_norest","9443","6","8","Male","","","","","","","null","<div style=""font-size:200px;color:red;"">3</div>","null","","","","","","","","","","","","",""
"html-keyboard-response","273","1134527","0.0-4.0-9.0-2.0","spark_pilot_norest","9443","6","8","Male","","","","","","","null","<div style=""font-size:200px;color:red;"">2</div>","null","","","","","","","","","","","","",""
"html-keyboard-response","274","1135542","0.0-4.0-9.0-3.0","spark_pilot_norest","9443","6","8","Male","","","","","","","null","<div style=""font-size:200px;color:red;"">1</div>","null","","","","","","","","","","","","",""
"revaluation","275","1136308","0.0-4.0-10.0-0.0","spark_pilot_norest","9443","6","8","Male","","","false","","","","[764.2999999523163]","./assets/img/canyon/animals/giraffe.jpg","[""ArrowRight""]","second stage test","canyon","0","{""ArrowUp,ArrowLeft"":27,""ArrowUp,ArrowRight"":15,""ArrowDown,ArrowLeft"":21,""ArrowDown,ArrowRight"":7}","false","ArrowUp,ArrowRight","","revaluation","1","","","",""
"html-keyboard-response","276","1136818","0.0-4.0-10.0-1.0","spark_pilot_norest","9443","6","8","Male","","","","","","","null","<div style=""font-size:60px;"">+</div>","null","fixation","","","","","","","","","","","",""
"revaluation","277","1137468","0.0-4.0-10.0-0.1","spark_pilot_norest","9443","6","8","Male","","","false","","","","[648.6000000238419]","./assets/img/canyon/animals/giraffe.jpg","[""ArrowRight""]","second stage test","canyon","0","{""ArrowUp,ArrowLeft"":27,""ArrowUp,ArrowRight"":15,""ArrowDown,ArrowLeft"":21,""ArrowDown,ArrowRight"":7}","false","ArrowUp,ArrowRight","","revaluation","1","","","",""
"html-keyboard-response","278","1137973","0.0-4.0-10.0-1.1","spark_pilot_norest","9443","6","8","Male","","","","","","","null","<div style=""font-size:60px;"">+</div>","null","fixation","","","","","","","","","","","",""
"revaluation","279","1138220","0.0-4.0-10.0-0.2","spark_pilot_norest","9443","6","8","Male","","","false","","","","[244.89999997615814]","./assets/img/canyon/animals/giraffe.jpg","[""ArrowRight""]","second stage test","canyon","0","{""ArrowUp,ArrowLeft"":27,""ArrowUp,ArrowRight"":15,""ArrowDown,ArrowLeft"":21,""ArrowDown,ArrowRight"":7}","false","ArrowUp,ArrowRight","","revaluation","1","","","",""
"html-keyboard-response","280","1138722","0.0-4.0-10.0-1.2","spark_pilot_norest","9443","6","8","Male","","","","","","","null","<div style=""font-size:60px;"">+</div>","null","fixation","","","","","","","","","","","",""
"revaluation","281","1138980","0.0-4.0-10.0-0.3","spark_pilot_norest","9443","6","8","Male","","","false","","","","[256.2999999523163]","./assets/img/canyon/animals/giraffe.jpg","[""ArrowRight""]","second stage test","canyon","0","{""ArrowUp,ArrowLeft"":27,""ArrowUp,ArrowRight"":15,""ArrowDown,ArrowLeft"":21,""ArrowDown,ArrowRight"":7}","false","ArrowUp,ArrowRight","","revaluation","1","","","",""
"html-keyboard-response","282","1139485","0.0-4.0-10.0-1.3","spark_pilot_norest","9443","6","8","Male","","","","","","","null","<div style=""font-size:60px;"">+</div>","null","fixation","","","","","","","","","","","",""
"revaluation","283","1140172","0.0-4.0-10.0-0.4","spark_pilot_norest","9443","6","8","Male","","","false","","","","[684.6000000238419]","./assets/img/canyon/animals/lion.jpg","[""ArrowLeft""]","second stage test","canyon","0","{""ArrowUp,ArrowLeft"":27,""ArrowUp,ArrowRight"":15,""ArrowDown,ArrowLeft"":21,""ArrowDown,ArrowRight"":7}","true","ArrowDown,ArrowLeft","","revaluation","1","","","",""
"html-keyboard-response","284","1140684","0.0-4.0-10.0-1.4","spark_pilot_norest","9443","6","8","Male","","","","","","","null","<div style=""font-size:60px;"">+</div>","null","fixation","","","","","","","","","","","",""
"revaluation","285","1140980","0.0-4.0-10.0-0.5","spark_pilot_norest","9443","6","8","Male","","","false","","","","[294]","./assets/img/canyon/animals/lion.jpg","[""ArrowRight""]","second stage test","canyon","0","{""ArrowUp,ArrowLeft"":27,""ArrowUp,ArrowRight"":15,""ArrowDown,ArrowLeft"":21,""ArrowDown,ArrowRight"":7}","false","ArrowDown,ArrowRight","","revaluation","1","","","",""
"html-keyboard-response","286","1141495","0.0-4.0-10.0-1.5","spark_pilot_norest","9443","6","8","Male","","","","","","","null","<div style=""font-size:60px;"">+</div>","null","fixation","","","","","","","","","","","",""
"revaluation","287","1141500","0.0-4.0-10.0-0.6","spark_pilot_norest","9443","6","8","Male","","","false","","","","[2.799999952316284]","./assets/img/canyon/animals/lion.jpg","[""ArrowLeft""]","second stage test","canyon","0","{""ArrowUp,ArrowLeft"":27,""ArrowUp,ArrowRight"":15,""ArrowDown,ArrowLeft"":21,""ArrowDown,ArrowRight"":7}","true","ArrowDown,ArrowLeft","","revaluation","1","","","",""
"html-keyboard-response","288","1142010","0.0-4.0-10.0-1.6","spark_pilot_norest","9443","6","8","Male","","","","","","","null","<div style=""font-size:60px;"">+</div>","null","fixation","","","","","","","","","","","",""
"revaluation","289","1142268","0.0-4.0-10.0-0.7","spark_pilot_norest","9443","6","8","Male","","","false","","","","[256.60000002384186]","./assets/img/canyon/animals/lion.jpg","[""ArrowLeft""]","second stage test","canyon","0","{""ArrowUp,ArrowLeft"":27,""ArrowUp,ArrowRight"":15,""ArrowDown,ArrowLeft"":21,""ArrowDown,ArrowRight"":7}","true","ArrowDown,ArrowLeft","","revaluation","1","","","",""
"html-keyboard-response","290","1142773","0.0-4.0-10.0-1.7","spark_pilot_norest","9443","6","8","Male","","","","","","","null","<div style=""font-size:60px;"">+</div>","null","fixation","","","","","","","","","","","",""
"learning-instructions","291","1149802","0.0-4.0-0.1-0.2","spark_pilot_norest","9443","6","8","Male","","","","","","","4319.199999928474","<p> This time you are searching for treasure in the <b>ocean</b>.</p>","","instructions","","","","","","","","","","","",""
"learning-instructions","292","1168266","0.0-4.0-0.1-0.3","spark_pilot_norest","9443","6","8","Male","","","","","","","1213.2000000476837","<p><b>New</b> animals with <b>new</b> treasure chests live here. You need to explore to discover where the animal with the best treasure chest is.</p>
                    <p> Like before, once you figure out which animal has the chest with the most treasure, you should try to get to that animal and select that chest! </p>","","instructions","","","","","","","","","","","",""
"learning-instructions","293","1192483","0.0-4.0-1.1-0.1","spark_pilot_norest","9443","6","8","Male","","","","","","","9479","<p> Remember, when you see a picture of the place, use the up and down keys to <b>find an animal</b>.</p>
            <p> When you encounter an animal, you should use the left and right keys to <b>select a treasure chest</b>.</p>
            <p> Don't forget to look out for the robber! </p>","","instructions","","","","","","","","","","","",""
"revaluation","294","1198513","0.0-4.0-2.1-0.50","spark_pilot_norest","9443","6","8","Male","","","false","","","","[697,548.1999999284744]","./assets/img/ocean/memory/14.jpg","[""ArrowDown"",""ArrowRight""]","value training","ocean","17","{""ArrowUp,ArrowLeft"":26,""ArrowUp,ArrowRight"":10,""ArrowDown,ArrowLeft"":5,""ArrowDown,ArrowRight"":17}","false","ArrowDown,ArrowRight","false","original","2","0","","",""
"html-keyboard-response","295","1199024","0.0-4.0-2.1-1.50","spark_pilot_norest","9443","6","8","Male","","","","","","","null","<div style=""font-size:60px;"">+</div>","null","fixation","","","","","","","","","1","","",""
"revaluation","296","1205045","0.0-4.0-2.1-0.51","spark_pilot_norest","9443","6","8","Male","","","false","","","","[373.60000002384186,431.1999999284744]","./assets/img/ocean/memory/0.jpg","[""ArrowDown"",""ArrowLeft""]","value training","ocean","5","{""ArrowUp,ArrowLeft"":26,""ArrowUp,ArrowRight"":10,""ArrowDown,ArrowLeft"":5,""ArrowDown,ArrowRight"":17}","false","ArrowDown,ArrowLeft","false","original","2","2","","",""
"html-keyboard-response","297","1205546","0.0-4.0-2.1-1.51","spark_pilot_norest","9443","6","8","Male","","","","","","","null","<div style=""font-size:60px;"">+</div>","null","fixation","","","","","","","","","3","","",""
"revaluation","298","1211555","0.0-4.0-2.1-0.52","spark_pilot_norest","9443","6","8","Male","","","false","","","","[570.8999999761581,919.3999999761581]","./assets/img/ocean/memory/41.jpg","[""ArrowUp"",""ArrowLeft""]","value training","ocean","26","{""ArrowUp,ArrowLeft"":26,""ArrowUp,ArrowRight"":10,""ArrowDown,ArrowLeft"":5,""ArrowDown,ArrowRight"":17}","true","ArrowUp,ArrowLeft","false","original","2","4","","",""
"html-keyboard-response","299","1212067","0.0-4.0-2.1-1.52","spark_pilot_norest","9443","6","8","Male","","","","","","","null","<div style=""font-size:60px;"">+</div>","null","fixation","","","","","","","","","5","","",""
"revaluation","300","1218077","0.0-4.0-2.1-0.53","spark_pilot_norest","9443","6","8","Male","","","false","","","","[496.1999999284744,443.6999999284744]","./assets/img/ocean/memory/18.jpg","[""ArrowUp"",""ArrowRight""]","value training","ocean","10","{""ArrowUp,ArrowLeft"":26,""ArrowUp,ArrowRight"":10,""ArrowDown,ArrowLeft"":5,""ArrowDown,ArrowRight"":17}","false","ArrowUp,ArrowRight","false","original","2","6","","",""
"html-keyboard-response","301","1218579","0.0-4.0-2.1-1.53","spark_pilot_norest","9443","6","8","Male","","","","","","","null","<div style=""font-size:60px;"">+</div>","null","fixation","","","","","","","","","7","","",""
"revaluation","302","1224584","0.0-4.0-2.1-0.54","spark_pilot_norest","9443","6","8","Male","","","false","","","","[296.89999997615814,584]","./assets/img/ocean/memory/15.jpg","[""ArrowUp"",""ArrowLeft""]","value training","ocean","26","{""ArrowUp,ArrowLeft"":26,""ArrowUp,ArrowRight"":10,""ArrowDown,ArrowLeft"":5,""ArrowDown,ArrowRight"":17}","true","ArrowUp,ArrowLeft","false","original","2","8","","",""
"html-keyboard-response","303","1225087","0.0-4.0-2.1-1.54","spark_pilot_norest","9443","6","8","Male","","","","","","","null","<div style=""font-size:60px;"">+</div>","null","fixation","","","","","","","","","9","","",""
"revaluation","304","1229091","0.0-4.0-2.1-0.55","spark_pilot_norest","9443","6","8","Male","","","false","","","","[740.8000000715256]","./assets/img/ocean/catch/6.jpg","[""ArrowUp""]","value training","ocean","-10","{""ArrowUp,ArrowLeft"":26,""ArrowUp,ArrowRight"":10,""ArrowDown,ArrowLeft"":5,""ArrowDown,ArrowRight"":17}","false","ArrowUp","true","original","2","10","","",""
"html-keyboard-response","305","1229593","0.0-4.0-2.1-1.55","spark_pilot_norest","9443","6","8","Male","","","","","","","null","<div style=""font-size:60px;"">+</div>","null","fixation","","","","","","","","","11","","",""
"revaluation","306","1233597","0.0-4.0-2.1-0.56","spark_pilot_norest","9443","6","8","Male","","","true","","","","[]","./assets/img/ocean/memory/14.jpg","[]","value training","ocean","-5","{""ArrowUp,ArrowLeft"":26,""ArrowUp,ArrowRight"":10,""ArrowDown,ArrowLeft"":5,""ArrowDown,ArrowRight"":17}","false","","false","original","2","12","","",""
"html-keyboard-response","307","1234099","0.0-4.0-2.1-1.56","spark_pilot_norest","9443","6","8","Male","","","","","","","null","<div style=""font-size:60px;"">+</div>","null","fixation","","","","","","","","","13","","",""
"revaluation","308","1240106","0.0-4.0-2.1-0.57","spark_pilot_norest","9443","6","8","Male","","","false","","","","[593.1000000238419,319.5]","./assets/img/ocean/memory/7.jpg","[""ArrowUp"",""ArrowLeft""]","value training","ocean","26","{""ArrowUp,ArrowLeft"":26,""ArrowUp,ArrowRight"":10,""ArrowDown,ArrowLeft"":5,""ArrowDown,ArrowRight"":17}","true","ArrowUp,ArrowLeft","false","original","2","14","","",""
"html-keyboard-response","309","1240606","0.0-4.0-2.1-1.57","spark_pilot_norest","9443","6","8","Male","","","","","","","null","<div style=""font-size:60px;"">+</div>","null","fixation","","","","","","","","","15","","",""
"revaluation","310","1246612","0.0-4.0-2.1-0.58","spark_pilot_norest","9443","6","8","Male","","","false","","","","[1295.4000000953674,534]","./assets/img/ocean/memory/3.jpg","[""ArrowUp"",""ArrowLeft""]","value training","ocean","26","{""ArrowUp,ArrowLeft"":26,""ArrowUp,ArrowRight"":10,""ArrowDown,ArrowLeft"":5,""ArrowDown,ArrowRight"":17}","true","ArrowUp,ArrowLeft","false","original","2","16","","",""
"html-keyboard-response","311","1247115","0.0-4.0-2.1-1.58","spark_pilot_norest","9443","6","8","Male","","","","","","","null","<div style=""font-size:60px;"">+</div>","null","fixation","","","","","","","","","17","","",""
"revaluation","312","1253119","0.0-4.0-2.1-0.59","spark_pilot_norest","9443","6","8","Male","","","false","","","","[538.5,1273.7999999523163]","./assets/img/ocean/memory/38.jpg","[""ArrowUp"",""ArrowLeft""]","value training","ocean","26","{""ArrowUp,ArrowLeft"":26,""ArrowUp,ArrowRight"":10,""ArrowDown,ArrowLeft"":5,""ArrowDown,ArrowRight"":17}","true","ArrowUp,ArrowLeft","false","original","2","18","","",""
