"trial_type","trial_index","time_elapsed","internal_node_id","task_version","subject_id","assigned_condition","age","gender","success","timeout","failed_images","failed_audio","failed_video","browser_interaction","rt","stimulus","response","task_part","environment","score","rewardMap","correct","fullState","isCatch","condition","order","trial_num","key_press","ground_truth","bonus"
"pavlovia","0","766","0.0-0.0","spark_pilot_norest","8552","8","8","Male","","","","","","","","","","","","","","","","","","","","","",""
"preload","1","12879","0.0-1.0","spark_pilot_norest","8552","8","8","Male","true","false","[]","[]","[]","[{""event"":""fullscreenenter"",""trial"":2,""time"":19286}]","","","","","","","","","","","","","","","",""
"fullscreen","2","20277","0.0-2.0","spark_pilot_norest","8552","8","8","Male","true","","","","","","","","","","","","","","","","","","","","",""
"audio-button-response","3","25103","0.0-3.0-0.0-0.0","spark_pilot_norest","8552","8","8","Male","","","","","","","4690","./assets/audio/audiotest/turtle.mp3","0","audio_test","","","","","","","","","","","",""
"audio-button-response","4","28672","0.0-3.0-0.1-0.1","spark_pilot_norest","8552","8","8","Male","","","","","","","2566","./assets/audio/audiotest/turtle.mp3","1","audio_test","","","","","","","","","","","",""
"audio-button-response","5","34559","0.0-3.0-0.2-0.2","spark_pilot_norest","8552","8","8","Male","","","","","","","4882","./assets/audio/audiotest/turtle.mp3","2","audio_test","","","","","","","","","","","",""
"learning-instructions","6","53812","0.0-3.0-1.0-0.0","spark_pilot_norest","8552","8","8","Male","","","","","","","12256.100000023842","<p> Welcome! Please remember to stay in fullscreen mode and don't click away from the experiment. </p>","","instructions","","","","","","","","","","","",""
"learning-instructions","7","64297","0.0-3.0-1.0-0.1","spark_pilot_norest","8552","8","8","Male","","","","","","","2034.5999999642372","<p> Today you will be playing a game to earn treasure. </p>
            <p> At the end of the experiment, you will earn a bonus based on how much treasure you find. </p>
            <img src='./assets/img/instructions/treasure.jpg' class='instructions-image'>","","instructions","","","","","","","","","","","",""
"learning-instructions","8","73578","0.0-3.0-1.0-0.2","spark_pilot_norest","8552","8","8","Male","","","","","","","993.3999999761581","<p> Animals have hidden treasure in treasure chests. </p>
            <p> You need to first find an animal and then choose which of their treasure chests to search. </p>
            <img src='./assets/img/space/animals/cat.jpg' class='instructions-image'>","","instructions","","","","","","","","","","","",""
"learning-instructions","9","87794","0.0-3.0-1.0-0.3","spark_pilot_norest","8552","8","8","Male","","","","","","","1021.6999999880791","<p> In each round, you will search for treasure in a different place. In the real game, there will be two rounds. </p>
            <p> You will begin with a separate, practice round where you will search for treasure in outer space. </p>
            <img src='./assets/img/space/0.jpg' class='instructions-image'>","","instructions","","","","","","","","","","","",""
"learning-instructions","10","100344","0.0-3.0-1.0-0.4","spark_pilot_norest","8552","8","8","Male","","","","","","","1090.3999999761581","<p> On every turn, you will see a picture of the place that you are in, but the specific image may be different each time. </p>
            <p> For example, both of these images mean you are in outer space. </p>
            <img src='./assets/img/instructions/outerspace.jpg' class='instructions-image'>","","instructions","","","","","","","","","","","",""
"learning-instructions","11","109376","0.0-3.0-1.0-0.5","spark_pilot_norest","8552","8","8","Male","","","","","","","1171.300000011921","<p> You need to decide which direction to travel in. </p>
            <p> You can choose between going <b>up or down</b> by using the arrow keys. </p>
            <img src='./assets/img/instructions/updown.jpg' class='instructions-image'>","","instructions","","","","","","","","","","","",""
"learning-instructions","12","120042","0.0-3.0-1.0-0.6","spark_pilot_norest","8552","8","8","Male","","","","","","","1823.800000011921","<p> You will have <b>2 seconds</b> to make your choice. </p>
            <p> If you do not make a choice within 2 seconds, you will not find an animal or earn treasure. </p>
            <img src='./assets/img/instructions/2seconds.jpg' class='instructions-image'>","","instructions","","","","","","","","","","","",""
"learning-instructions","13","135077","0.0-3.0-1.0-0.7","spark_pilot_norest","8552","8","8","Male","","","","","","","7970.899999976158","<p> Let’s try practicing that now! </p>
            <p> When you see a picture of the place you are in, press the <b>up</b> key to travel up. </p>
            <img src='./assets/img/instructions/pressUp.jpg' class='instructions-image'>","","instructions","","","","","","","","","","","",""
"revaluation","14","139111","0.0-3.0-2.0-0.0","spark_pilot_norest","8552","8","8","Male","","true","","","","","[]","./assets/img/space/0.jpg","[]","first stage practice","space","-5","null","null","","false","","","","","",""
"html-keyboard-response","15","139620","0.0-3.0-2.0-1.0","spark_pilot_norest","8552","8","8","Male","","","","","","","null","<div style=""font-size:60px;"">+</div>","null","fixation","","","","","","","","","","","",""
"revaluation","16","143639","0.0-3.0-2.0-0.1","spark_pilot_norest","8552","8","8","Male","","false","","","","","[911]","./assets/img/space/1.jpg","[""ArrowUp""]","first stage practice","space","0","null","null","ArrowUp","false","","","","","",""
"html-keyboard-response","17","144149","0.0-3.0-2.0-1.1","spark_pilot_norest","8552","8","8","Male","","","","","","","null","<div style=""font-size:60px;"">+</div>","null","fixation","","","","","","","","","","","",""
"revaluation","18","148167","0.0-3.0-2.0-0.2","spark_pilot_norest","8552","8","8","Male","","false","","","","","[948.6000000238419]","./assets/img/space/2.jpg","[""ArrowUp""]","first stage practice","space","0","null","null","ArrowUp","false","","","","","",""
"html-keyboard-response","19","148671","0.0-3.0-2.0-1.2","spark_pilot_norest","8552","8","8","Male","","","","","","","null","<div style=""font-size:60px;"">+</div>","null","fixation","","","","","","","","","","","",""
"learning-instructions","20","155981","0.0-3.0-3.0-0.0","spark_pilot_norest","8552","8","8","Male","","","","","","","2594.900000035763","<p> Great job! Now try pressing the <b>down</b> key to travel down. </p>
            <img src='./assets/img/instructions/pressDown.jpg' class='instructions-image'>","","instructions","","","","","","","","","","","",""
"revaluation","21","159998","0.0-3.0-4.0-0.0","spark_pilot_norest","8552","8","8","Male","","false","","","","","[1048.8999999761581]","./assets/img/space/3.jpg","[""ArrowDown""]","first stage practice","space","0","null","null","ArrowDown","false","","","","","",""
"html-keyboard-response","22","160502","0.0-3.0-4.0-1.0","spark_pilot_norest","8552","8","8","Male","","","","","","","null","<div style=""font-size:60px;"">+</div>","null","fixation","","","","","","","","","","","",""
"revaluation","23","164515","0.0-3.0-4.0-0.1","spark_pilot_norest","8552","8","8","Male","","false","","","","","[798.1000000238419]","./assets/img/space/4.jpg","[""ArrowDown""]","first stage practice","space","0","null","null","ArrowDown","false","","","","","",""
"html-keyboard-response","24","165025","0.0-3.0-4.0-1.1","spark_pilot_norest","8552","8","8","Male","","","","","","","null","<div style=""font-size:60px;"">+</div>","null","fixation","","","","","","","","","","","",""
"revaluation","25","169036","0.0-3.0-4.0-0.2","spark_pilot_norest","8552","8","8","Male","","false","","","","","[708.4000000357628]","./assets/img/space/5.jpg","[""ArrowDown""]","first stage practice","space","0","null","null","ArrowDown","false","","","","","",""
"html-keyboard-response","26","169541","0.0-3.0-4.0-1.2","spark_pilot_norest","8552","8","8","Male","","","","","","","null","<div style=""font-size:60px;"">+</div>","null","fixation","","","","","","","","","","","",""
"learning-instructions","27","180818","0.0-3.0-5.0-0.0","spark_pilot_norest","8552","8","8","Male","","","","","","","1396","<p> The animals don’t move, so the animal in the upper part of a place will stay in the upper part of a place, and the animal in the lower part of a place will stay in the lower part of a place. </p>","","instructions","","","","","","","","","","","",""
"learning-instructions","28","191436","0.0-3.0-5.0-0.1","spark_pilot_norest","8552","8","8","Male","","","","","","","1443.199999988079","<p> Each animal has two treasure chests for you to choose from. </p>
            <p> The amount of treasure in each chest can range from <b> 0 to 40 pieces.</b></p>","","instructions","","","","","","","","","","","",""
"learning-instructions","29","203833","0.0-3.0-5.0-0.2","spark_pilot_norest","8552","8","8","Male","","","","","","","1172.6000000238419","<p> You should decide which chest to search for treasure by using the <b>left</b> and <b>right</b> arrow keys. </p>
            <p><b> Pay attention to which animal is on the screen, as the animals have different treasure chests. </b></p>
            <img src='./assets/img/instructions/leftright.jpg' class='instructions-image'>","","instructions","","","","","","","","","","","",""
"learning-instructions","30","212245","0.0-3.0-5.0-0.3","spark_pilot_norest","8552","8","8","Male","","","","","","","2020.8999999761581","<p> Let’s try practicing that now. </p>
            <p> When you see an animal, choose which chest to search for treasure. </p>
            <img src='./assets/img/instructions/chooseChest.jpg' class='instructions-image'>","","instructions","","","","","","","","","","","",""
"revaluation","31","216259","0.0-3.0-6.0-0.0","spark_pilot_norest","8552","8","8","Male","","true","","","","","[]","./assets/img/space/animals/cat.jpg","[]","second stage practice","space","-5","{""ArrowUp,ArrowLeft"":3,""ArrowUp,ArrowRight"":36,""ArrowDown,ArrowLeft"":15,""ArrowDown,ArrowRight"":23}","false","ArrowUp","","","","","","",""
"html-keyboard-response","32","216766","0.0-3.0-6.0-1.0","spark_pilot_norest","8552","8","8","Male","","","","","","","null","<div style=""font-size:60px;"">+</div>","null","fixation","","","","","","","","","","","",""
"revaluation","33","220783","0.0-3.0-6.0-0.1","spark_pilot_norest","8552","8","8","Male","","false","","","","","[571]","./assets/img/space/animals/rabbit.jpg","[""ArrowRight""]","second stage practice","space","23","{""ArrowUp,ArrowLeft"":3,""ArrowUp,ArrowRight"":36,""ArrowDown,ArrowLeft"":15,""ArrowDown,ArrowRight"":23}","true","ArrowDown,ArrowRight","","","","","","",""
"html-keyboard-response","34","221288","0.0-3.0-6.0-1.1","spark_pilot_norest","8552","8","8","Male","","","","","","","null","<div style=""font-size:60px;"">+</div>","null","fixation","","","","","","","","","","","",""
"revaluation","35","225306","0.0-3.0-6.0-0.2","spark_pilot_norest","8552","8","8","Male","","false","","","","","[1035.199999988079]","./assets/img/space/animals/rabbit.jpg","[""ArrowRight""]","second stage practice","space","23","{""ArrowUp,ArrowLeft"":3,""ArrowUp,ArrowRight"":36,""ArrowDown,ArrowLeft"":15,""ArrowDown,ArrowRight"":23}","true","ArrowDown,ArrowRight","","","","","","",""
"html-keyboard-response","36","225816","0.0-3.0-6.0-1.2","spark_pilot_norest","8552","8","8","Male","","","","","","","null","<div style=""font-size:60px;"">+</div>","null","fixation","","","","","","","","","","","",""
"revaluation","37","229834","0.0-3.0-6.0-0.3","spark_pilot_norest","8552","8","8","Male","","false","","","","","[533.6000000238419]","./assets/img/space/animals/cat.jpg","[""ArrowLeft""]","second stage practice","space","3","{""ArrowUp,ArrowLeft"":3,""ArrowUp,ArrowRight"":36,""ArrowDown,ArrowLeft"":15,""ArrowDown,ArrowRight"":23}","false","ArrowUp,ArrowLeft","","","","","","",""
"html-keyboard-response","38","230344","0.0-3.0-6.0-1.3","spark_pilot_norest","8552","8","8","Male","","","","","","","null","<div style=""font-size:60px;"">+</div>","null","fixation","","","","","","","","","","","",""
"learning-instructions","39","251387","0.0-3.0-7.0-0.0","spark_pilot_norest","8552","8","8","Male","","","","","","","4177.699999988079","<p> Great job. Now let’s try putting it together. </p>
            <p> On each turn, you will first see a picture to remind you of the place you are in, and you need to choose whether to go up or down. </p>
            <p> Then you will see an animal and choose which of its chests to search for treasure. </p>","","instructions","","","","","","","","","","","",""
"learning-instructions","40","260906","0.0-3.0-7.0-0.1","spark_pilot_norest","8552","8","8","Male","","","","","","","1216.5","<p> When you choose whether to go up or down, try to go to the animal with the chest with the most treasure. </p>
            <p> Try practicing that now! </p>","","instructions","","","","","","","","","","","",""
"revaluation","41","266929","0.0-3.0-8.0-0.0","spark_pilot_norest","8552","8","8","Male","","false","","","","","[938.5,582.5999999642372]","./assets/img/space/6.jpg","[""ArrowUp"",""ArrowRight""]","full practice","space","36","{""ArrowUp,ArrowLeft"":3,""ArrowUp,ArrowRight"":36,""ArrowDown,ArrowLeft"":15,""ArrowDown,ArrowRight"":23}","true","ArrowUp,ArrowRight","false","","","","","",""
"html-keyboard-response","42","267432","0.0-3.0-8.0-1.0","spark_pilot_norest","8552","8","8","Male","","","","","","","null","<div style=""font-size:60px;"">+</div>","null","fixation","","","","","","","","","","","",""
"revaluation","43","273443","0.0-3.0-8.0-0.1","spark_pilot_norest","8552","8","8","Male","","false","","","","","[1983,846.5]","./assets/img/space/7.jpg","[""ArrowDown"",""ArrowRight""]","full practice","space","23","{""ArrowUp,ArrowLeft"":3,""ArrowUp,ArrowRight"":36,""ArrowDown,ArrowLeft"":15,""ArrowDown,ArrowRight"":23}","false","ArrowDown,ArrowRight","false","","","","","",""
"html-keyboard-response","44","273944","0.0-3.0-8.0-1.1","spark_pilot_norest","8552","8","8","Male","","","","","","","null","<div style=""font-size:60px;"">+</div>","null","fixation","","","","","","","","","","","",""
"revaluation","45","279973","0.0-3.0-8.0-0.2","spark_pilot_norest","8552","8","8","Male","","false","","","","","[551.1000000238419,989.6999999880791]","./assets/img/space/8.jpg","[""ArrowUp"",""ArrowLeft""]","full practice","space","3","{""ArrowUp,ArrowLeft"":3,""ArrowUp,ArrowRight"":36,""ArrowDown,ArrowLeft"":15,""ArrowDown,ArrowRight"":23}","false","ArrowUp,ArrowLeft","false","","","","","",""
"html-keyboard-response","46","280484","0.0-3.0-8.0-1.2","spark_pilot_norest","8552","8","8","Male","","","","","","","null","<div style=""font-size:60px;"">+</div>","null","fixation","","","","","","","","","","","",""
"revaluation","47","286504","0.0-3.0-8.0-0.3","spark_pilot_norest","8552","8","8","Male","","false","","","","","[765.9000000357628,543.3000000119209]","./assets/img/space/9.jpg","[""ArrowUp"",""ArrowRight""]","full practice","space","36","{""ArrowUp,ArrowLeft"":3,""ArrowUp,ArrowRight"":36,""ArrowDown,ArrowLeft"":15,""ArrowDown,ArrowRight"":23}","true","ArrowUp,ArrowRight","false","","","","","",""
"html-keyboard-response","48","287008","0.0-3.0-8.0-1.3","spark_pilot_norest","8552","8","8","Male","","","","","","","null","<div style=""font-size:60px;"">+</div>","null","fixation","","","","","","","","","","","",""
"revaluation","49","293036","0.0-3.0-8.0-0.4","spark_pilot_norest","8552","8","8","Male","","false","","","","","[716.3000000119209,653.3000000119209]","./assets/img/space/10.jpg","[""ArrowUp"",""ArrowRight""]","full practice","space","36","{""ArrowUp,ArrowLeft"":3,""ArrowUp,ArrowRight"":36,""ArrowDown,ArrowLeft"":15,""ArrowDown,ArrowRight"":23}","true","ArrowUp,ArrowRight","false","","","","","",""
"html-keyboard-response","50","293547","0.0-3.0-8.0-1.4","spark_pilot_norest","8552","8","8","Male","","","","","","","null","<div style=""font-size:60px;"">+</div>","null","fixation","","","","","","","","","","","",""
"learning-instructions","51","306017","0.0-3.0-9.0-0.0","spark_pilot_norest","8552","8","8","Male","","","","","","","2122","<p> One last thing: sometimes, you will see a robber. The robber can be anywhere in the picture. </p>
            <p> If you do not stop them, you will lose treasure. </p>
            <img src='./assets/img/instructions/robber.jpg' class='instructions-image'>","","instructions","","","","","","","","","","","",""
"learning-instructions","52","315483","0.0-3.0-9.0-0.1","spark_pilot_norest","8552","8","8","Male","","","","","","","2265.599999964237","<p> If you see the robber, you should <b>press the space bar</b> rather than using the arrow keys. </p>
            <p> Try practicing that now! </p>","","instructions","","","","","","","","","","","",""
"revaluation","53","319499","0.0-3.0-10.0-0.0","spark_pilot_norest","8552","8","8","Male","","false","","","","","[660.2999999523163]","./assets/img/space/catch/0.jpg","[""ArrowDown""]","catch practice","space","-10","{""ArrowUp,ArrowLeft"":3,""ArrowUp,ArrowRight"":36,""ArrowDown,ArrowLeft"":15,""ArrowDown,ArrowRight"":23}","false","ArrowDown","true","","","","","",""
"html-keyboard-response","54","320003","0.0-3.0-10.0-1.0","spark_pilot_norest","8552","8","8","Male","","","","","","","null","<div style=""font-size:60px;"">+</div>","null","fixation","","","","","","","","","","","",""
"revaluation","55","324021","0.0-3.0-10.0-0.1","spark_pilot_norest","8552","8","8","Male","","false","","","","","[843.8000000119209]","./assets/img/space/catch/1.jpg","[""spaceBar""]","catch practice","space","0","{""ArrowUp,ArrowLeft"":3,""ArrowUp,ArrowRight"":36,""ArrowDown,ArrowLeft"":15,""ArrowDown,ArrowRight"":23}","true","spaceBar","true","","","","","",""
"html-keyboard-response","56","324531","0.0-3.0-10.0-1.1","spark_pilot_norest","8552","8","8","Male","","","","","","","null","<div style=""font-size:60px;"">+</div>","null","fixation","","","","","","","","","","","",""
"revaluation","57","328546","0.0-3.0-10.0-0.2","spark_pilot_norest","8552","8","8","Male","","false","","","","","[730.6000000238419]","./assets/img/space/catch/2.jpg","[""spaceBar""]","catch practice","space","0","{""ArrowUp,ArrowLeft"":3,""ArrowUp,ArrowRight"":36,""ArrowDown,ArrowLeft"":15,""ArrowDown,ArrowRight"":23}","true","spaceBar","true","","","","","",""
"html-keyboard-response","58","329050","0.0-3.0-10.0-1.2","spark_pilot_norest","8552","8","8","Male","","","","","","","null","<div style=""font-size:60px;"">+</div>","null","fixation","","","","","","","","","","","",""
"learning-instructions","59","336178","0.0-3.0-11.0-0.0-0.0","spark_pilot_norest","8552","8","8","Male","","","","","","","1882.199999988079","<p> Now, you will practice a shortened version of the game to get a sense of how it all fits together. </p>","","instructions","","","","","","","","","","","",""
"learning-instructions","60","340683","0.0-3.0-11.0-0.0-0.1","spark_pilot_norest","8552","8","8","Male","","","","","","","1295.3999999761581","<p>This time you are searching for treasure in outer space.</p>","","instructions","","","","","","","","","","","",""
"learning-instructions","61","357503","0.0-3.0-11.0-1.0-0.0","spark_pilot_norest","8552","8","8","Male","","","","","","","1982.7999999523163","<p> Remember, when you see a picture of the place, use the up and down keys to <b>find an animal</b>.</p>
            <p> When you encounter an animal, you should use the left and right keys to <b>select a treasure chest</b>.</p>
            <p> Don't forget to look out for the robber! </p>","","instructions","","","","","","","","","","","",""
"revaluation","62","363525","0.0-3.0-11.0-2.0-0.0","spark_pilot_norest","8552","8","8","Male","","false","","","","","[666,559.6000000238419]","./assets/img/space/11.jpg","[""ArrowUp"",""ArrowRight""]","practice block","space","36","{""ArrowUp,ArrowLeft"":3,""ArrowUp,ArrowRight"":36,""ArrowDown,ArrowLeft"":15,""ArrowDown,ArrowRight"":23}","true","ArrowUp,ArrowRight","false","","","","","",""
"html-keyboard-response","63","364027","0.0-3.0-11.0-2.0-1.0","spark_pilot_norest","8552","8","8","Male","","","","","","","null","<div style=""font-size:60px;"">+</div>","null","fixation","","","","","","","","","","","",""
"revaluation","64","370055","0.0-3.0-11.0-2.0-0.1","spark_pilot_norest","8552","8","8","Male","","false","","","","","[933.5,963.8000000119209]","./assets/img/space/12.jpg","[""ArrowUp"",""ArrowRight""]","practice block","space","36","{""ArrowUp,ArrowLeft"":3,""ArrowUp,ArrowRight"":36,""ArrowDown,ArrowLeft"":15,""ArrowDown,ArrowRight"":23}","true","ArrowUp,ArrowRight","false","","","","","",""
"html-keyboard-response","65","370566","0.0-3.0-11.0-2.0-1.1","spark_pilot_norest","8552","8","8","Male","","","","","","","null","<div style=""font-size:60px;"">+</div>","null","fixation","","","","","","","","","","","",""
"revaluation","66","376587","0.0-3.0-11.0-2.0-0.2","spark_pilot_norest","8552","8","8","Male","","false","","","","","[1299.9000000357628,876]","./assets/img/space/13.jpg","[""ArrowDown"",""ArrowLeft""]","practice block","space","15","{""ArrowUp,ArrowLeft"":3,""ArrowUp,ArrowRight"":36,""ArrowDown,ArrowLeft"":15,""ArrowDown,ArrowRight"":23}","false","ArrowDown,ArrowLeft","false","","","","","",""
"html-keyboard-response","67","377091","0.0-3.0-11.0-2.0-1.2","spark_pilot_norest","8552","8","8","Male","","","","","","","null","<div style=""font-size:60px;"">+</div>","null","fixation","","","","","","","","","","","",""
"revaluation","68","383117","0.0-3.0-11.0-2.0-0.3","spark_pilot_norest","8552","8","8","Male","","false","","","","","[967.8000000119209,856.8999999761581]","./assets/img/space/14.jpg","[""ArrowUp"",""ArrowRight""]","practice block","space","36","{""ArrowUp,ArrowLeft"":3,""ArrowUp,ArrowRight"":36,""ArrowDown,ArrowLeft"":15,""ArrowDown,ArrowRight"":23}","true","ArrowUp,ArrowRight","false","","","","","",""
"html-keyboard-response","69","383622","0.0-3.0-11.0-2.0-1.3","spark_pilot_norest","8552","8","8","Male","","","","","","","null","<div style=""font-size:60px;"">+</div>","null","fixation","","","","","","","","","","","",""
"revaluation","70","389644","0.0-3.0-11.0-2.0-0.4","spark_pilot_norest","8552","8","8","Male","","false","","","","","[1804.199999988079,778.2999999523163]","./assets/img/space/11.jpg","[""ArrowDown"",""ArrowLeft""]","practice block","space","15","{""ArrowUp,ArrowLeft"":3,""ArrowUp,ArrowRight"":36,""ArrowDown,ArrowLeft"":15,""ArrowDown,ArrowRight"":23}","false","ArrowDown,ArrowLeft","false","","","","","",""
"html-keyboard-response","71","390149","0.0-3.0-11.0-2.0-1.4","spark_pilot_norest","8552","8","8","Male","","","","","","","null","<div style=""font-size:60px;"">+</div>","null","fixation","","","","","","","","","","","",""
"revaluation","72","396175","0.0-3.0-11.0-2.0-0.5","spark_pilot_norest","8552","8","8","Male","","false","","","","","[842.8000000119209,677.0999999642372]","./assets/img/space/12.jpg","[""ArrowUp"",""ArrowRight""]","practice block","space","36","{""ArrowUp,ArrowLeft"":3,""ArrowUp,ArrowRight"":36,""ArrowDown,ArrowLeft"":15,""ArrowDown,ArrowRight"":23}","true","ArrowUp,ArrowRight","false","","","","","",""
"html-keyboard-response","73","396685","0.0-3.0-11.0-2.0-1.5","spark_pilot_norest","8552","8","8","Male","","","","","","","null","<div style=""font-size:60px;"">+</div>","null","fixation","","","","","","","","","","","",""
"revaluation","74","402711","0.0-3.0-11.0-2.0-0.6","spark_pilot_norest","8552","8","8","Male","","false","","","","","[855.6999999880791,601.3999999761581]","./assets/img/space/13.jpg","[""ArrowUp"",""ArrowLeft""]","practice block","space","3","{""ArrowUp,ArrowLeft"":3,""ArrowUp,ArrowRight"":36,""ArrowDown,ArrowLeft"":15,""ArrowDown,ArrowRight"":23}","false","ArrowUp,ArrowLeft","false","","","","","",""
"html-keyboard-response","75","403222","0.0-3.0-11.0-2.0-1.6","spark_pilot_norest","8552","8","8","Male","","","","","","","null","<div style=""font-size:60px;"">+</div>","null","fixation","","","","","","","","","","","",""
"revaluation","76","409248","0.0-3.0-11.0-2.0-0.7","spark_pilot_norest","8552","8","8","Male","","false","","","","","[830.3000000119209,784.5999999642372]","./assets/img/space/14.jpg","[""ArrowUp"",""ArrowRight""]","practice block","space","36","{""ArrowUp,ArrowLeft"":3,""ArrowUp,ArrowRight"":36,""ArrowDown,ArrowLeft"":15,""ArrowDown,ArrowRight"":23}","true","ArrowUp,ArrowRight","false","","","","","",""
"html-keyboard-response","77","409758","0.0-3.0-11.0-2.0-1.7","spark_pilot_norest","8552","8","8","Male","","","","","","","null","<div style=""font-size:60px;"">+</div>","null","fixation","","","","","","","","","","","",""
"revaluation","78","413772","0.0-3.0-11.0-2.0-0.8","spark_pilot_norest","8552","8","8","Male","","false","","","","","[1985.300000011921]","./assets/img/space/catch/3.jpg","[""spaceBar""]","practice block","space","0","{""ArrowUp,ArrowLeft"":3,""ArrowUp,ArrowRight"":36,""ArrowDown,ArrowLeft"":15,""ArrowDown,ArrowRight"":23}","true","spaceBar","true","","","","","",""
"html-keyboard-response","79","414281","0.0-3.0-11.0-2.0-1.8","spark_pilot_norest","8552","8","8","Male","","","","","","","null","<div style=""font-size:60px;"">+</div>","null","fixation","","","","","","","","","","","",""
"learning-instructions","80","429839","0.0-3.0-11.0-3.0-0.0","spark_pilot_norest","8552","8","8","Male","","","","","","","2596","<p> Now, you will travel with a friend who will choose whether you go up or down first. </p>
            <p> On these turns, you will just see the animal that they found. You will still get to choose which chest to search for treasure.</p>","","instructions","","","","","","","","","","","",""
"revaluation","81","433854","0.0-3.0-11.0-4.0-0.0","spark_pilot_norest","8552","8","8","Male","","false","","","","","[746.3999999761581]","./assets/img/space/animals/rabbit.jpg","[""ArrowRight""]","practice block","space","23","{""ArrowUp,ArrowLeft"":3,""ArrowUp,ArrowRight"":36,""ArrowDown,ArrowLeft"":15,""ArrowDown,ArrowRight"":23}","true","ArrowDown,ArrowRight","","","","","","",""
"html-keyboard-response","82","434357","0.0-3.0-11.0-4.0-1.0","spark_pilot_norest","8552","8","8","Male","","","","","","","null","<div style=""font-size:60px;"">+</div>","null","fixation","","","","","","","","","","","",""
"revaluation","83","438377","0.0-3.0-11.0-4.0-0.1","spark_pilot_norest","8552","8","8","Male","","false","","","","","[1250.4000000357628]","./assets/img/space/animals/cat.jpg","[""ArrowRight""]","practice block","space","36","{""ArrowUp,ArrowLeft"":3,""ArrowUp,ArrowRight"":36,""ArrowDown,ArrowLeft"":15,""ArrowDown,ArrowRight"":23}","true","ArrowUp,ArrowRight","","","","","","",""
"html-keyboard-response","84","438887","0.0-3.0-11.0-4.0-1.1","spark_pilot_norest","8552","8","8","Male","","","","","","","null","<div style=""font-size:60px;"">+</div>","null","fixation","","","","","","","","","","","",""
"revaluation","85","442905","0.0-3.0-11.0-4.0-0.2","spark_pilot_norest","8552","8","8","Male","","false","","","","","[1921.6000000238419]","./assets/img/space/animals/cat.jpg","[""ArrowRight""]","practice block","space","36","{""ArrowUp,ArrowLeft"":3,""ArrowUp,ArrowRight"":36,""ArrowDown,ArrowLeft"":15,""ArrowDown,ArrowRight"":23}","true","ArrowUp,ArrowRight","","","","","","",""
"html-keyboard-response","86","443413","0.0-3.0-11.0-4.0-1.2","spark_pilot_norest","8552","8","8","Male","","","","","","","null","<div style=""font-size:60px;"">+</div>","null","fixation","","","","","","","","","","","",""
"revaluation","87","447433","0.0-3.0-11.0-4.0-0.3","spark_pilot_norest","8552","8","8","Male","","false","","","","","[1368.2999999523163]","./assets/img/space/animals/rabbit.jpg","[""ArrowLeft""]","practice block","space","15","{""ArrowUp,ArrowLeft"":3,""ArrowUp,ArrowRight"":36,""ArrowDown,ArrowLeft"":15,""ArrowDown,ArrowRight"":23}","false","ArrowDown,ArrowLeft","","","","","","",""
"html-keyboard-response","88","447943","0.0-3.0-11.0-4.0-1.3","spark_pilot_norest","8552","8","8","Male","","","","","","","null","<div style=""font-size:60px;"">+</div>","null","fixation","","","","","","","","","","","",""
"learning-instructions","89","456094","0.0-3.0-11.0-5.0-0.0","spark_pilot_norest","8552","8","8","Male","","","","","","","null","<p> You have almost finished this part of the game! </p>
            <p> We are going to ask you to make a few more choices. </p>","","instructions","","","","","","","","","","","",""
"learning-instructions","90","472151","0.0-3.0-11.0-5.0-0.1","spark_pilot_norest","8552","8","8","Male","","","","","","","null","<p> First, you need to decide whether to go up or down. When you see each picture, use the arrow keys to make your choice. </p>
            <p><b>You will not see which animal you found, but try to get to the one that will give you the most treasure.</b></p>","","instructions","","","","","","","","","","","",""
"html-keyboard-response","91","473158","0.0-3.0-11.0-6.0-0.0","spark_pilot_norest","8552","8","8","Male","","","","","","","null","<div style=""font-size:100px;color:red;"">Starting in...</div>","null","","","","","","","","","","","","",""
"html-keyboard-response","92","474165","0.0-3.0-11.0-6.0-1.0","spark_pilot_norest","8552","8","8","Male","","","","","","","null","<div style=""font-size:200px;color:red;"">3</div>","null","","","","","","","","","","","","",""
"html-keyboard-response","93","475175","0.0-3.0-11.0-6.0-2.0","spark_pilot_norest","8552","8","8","Male","","","","","","","null","<div style=""font-size:200px;color:red;"">2</div>","null","","","","","","","","","","","","",""
"html-keyboard-response","94","476185","0.0-3.0-11.0-6.0-3.0","spark_pilot_norest","8552","8","8","Male","","","","","","","null","<div style=""font-size:200px;color:red;"">1</div>","null","","","","","","","","","","","","",""
"revaluation","95","477463","0.0-3.0-11.0-7.0","spark_pilot_norest","8552","8","8","Male","","false","","","","","[1275.2999999523163]","./assets/img/space/15.jpg","[""ArrowUp""]","practice block","space","0","{""ArrowUp,ArrowLeft"":3,""ArrowUp,ArrowRight"":36,""ArrowDown,ArrowLeft"":15,""ArrowDown,ArrowRight"":23}","true","ArrowUp","false","","","","","",""
"html-keyboard-response","96","477967","0.0-3.0-11.0-8.0","spark_pilot_norest","8552","8","8","Male","","","","","","","null","<div style=""font-size:60px;"">+</div>","null","fixation","","","","","","","","","","","",""
"learning-instructions","97","491383","0.0-3.0-11.0-9.0-0.0","spark_pilot_norest","8552","8","8","Male","","","","","","","null","<p> Now you will see the animals again and can search their chests for treasure. </p>
            <p> This time, you will not see how much treasure you earned, but you will earn more bonus money for making better choices. </p>","","instructions","","","","","","","","","","","",""
"html-keyboard-response","98","492391","0.0-3.0-11.0-10.0-0.0","spark_pilot_norest","8552","8","8","Male","","","","","","","null","<div style=""font-size:100px;color:red;"">Starting in...</div>","null","","","","","","","","","","","","",""
"html-keyboard-response","99","493398","0.0-3.0-11.0-10.0-1.0","spark_pilot_norest","8552","8","8","Male","","","","","","","null","<div style=""font-size:200px;color:red;"">3</div>","null","","","","","","","","","","","","",""
"html-keyboard-response","100","494407","0.0-3.0-11.0-10.0-2.0","spark_pilot_norest","8552","8","8","Male","","","","","","","null","<div style=""font-size:200px;color:red;"">2</div>","null","","","","","","","","","","","","",""
"html-keyboard-response","101","495415","0.0-3.0-11.0-10.0-3.0","spark_pilot_norest","8552","8","8","Male","","","","","","","null","<div style=""font-size:200px;color:red;"">1</div>","null","","","","","","","","","","","","",""
"revaluation","102","496281","0.0-3.0-11.0-11.0-0.0","spark_pilot_norest","8552","8","8","Male","","false","","","","","[863.5]","./assets/img/space/animals/cat.jpg","[""ArrowRight""]","practice block","space","0","{""ArrowUp,ArrowLeft"":3,""ArrowUp,ArrowRight"":36,""ArrowDown,ArrowLeft"":15,""ArrowDown,ArrowRight"":23}","true","ArrowUp,ArrowRight","","","","","","",""
"html-keyboard-response","103","496782","0.0-3.0-11.0-11.0-1.0","spark_pilot_norest","8552","8","8","Male","","","","","","","null","<div style=""font-size:60px;"">+</div>","null","fixation","","","","","","","","","","","",""
"revaluation","104","497865","0.0-3.0-11.0-11.0-0.1","spark_pilot_norest","8552","8","8","Male","","false","","","","","[1080.5999999642372]","./assets/img/space/animals/rabbit.jpg","[""ArrowRight""]","practice block","space","0","{""ArrowUp,ArrowLeft"":3,""ArrowUp,ArrowRight"":36,""ArrowDown,ArrowLeft"":15,""ArrowDown,ArrowRight"":23}","true","ArrowDown,ArrowRight","","","","","","",""
"html-keyboard-response","105","498367","0.0-3.0-11.0-11.0-1.1","spark_pilot_norest","8552","8","8","Male","","","","","","","null","<div style=""font-size:60px;"">+</div>","null","fixation","","","","","","","","","","","",""
"learning-instructions","106","504814","0.0-3.0-12.0-0.0","spark_pilot_norest","8552","8","8","Male","","","","","","","1854.3999999761581","<p> Before you start, we're going to ask you a few questions about how the game works. </p>","","instructions","","","","","","","","","","","",""
"comp-q","107","513919","0.0-3.0-13.0-0.0-0.0","spark_pilot_norest","8552","8","8","Male","","","","","","","3491.100000023842","<p> <b> True or False? </b> </p>
            <p> There can be 50 pieces of treasure in a given animal's chest. </p>","1","comp_question","","","","true","","","","","","","",""
"comp-q","108","523848","0.0-3.0-13.0-0.0-1.0","spark_pilot_norest","8552","8","8","Male","","","","","","","3247.199999988079","<p> <b> That's right! </b> The amount of treasure in each chest can range from 0 to 40 pieces. </p>","0","comp_answer","","","","","","","","","","","",""
"comp-q","109","533935","0.0-3.0-13.0-0.1-0.1","spark_pilot_norest","8552","8","8","Male","","","","","","","2942.2000000476837","<p> <b> True or False? </b> </p><p> In this game, all animals have the same amount of treasure in their left and right chests. </p>","1","comp_question","","","","true","","","","","","","",""
"comp-q","110","541463","0.0-3.0-13.0-0.1-1.1","spark_pilot_norest","8552","8","8","Male","","","","","","","2279.399999976158","<p> <b> That's right! </b> Animals have different amounts of treasure in their treasure chests. </p>","0","comp_answer","","","","","","","","","","","",""
"comp-q","111","550315","0.0-3.0-13.0-0.2-0.2","spark_pilot_norest","8552","8","8","Male","","","","","","","2987.099999964237","<p> <b> True or False? </b> </p><p> The same animal will always be there if you go up in the same place. </p>","1","comp_question","","","","false","","","","","","","",""
"comp-q","112","559954","0.0-3.0-13.0-0.2-1.2","spark_pilot_norest","8552","8","8","Male","","","","","","","3313.600000023842","<p> <b>Incorrect.</b> One animal lives in the upper part and one lives in the lower part of every place. </p>","0","comp_answer","","","","","","","","","","","",""
"comp-q","113","566980","0.0-3.0-13.0-0.3-0.3","spark_pilot_norest","8552","8","8","Male","","","","","","","1203","<p> <b> True or False? </b> </p><p> The same animal will always be there if you go up in the same place. </p>","0","comp_question","","","","true","","","","","","","",""
"comp-q","114","575940","0.0-3.0-13.0-0.3-1.3","spark_pilot_norest","8552","8","8","Male","","","","","","","2482.600000023842","<p> <b> That's right! </b> One animal lives in the upper part and one lives in the lower part of every place. </p>","0","comp_answer","","","","","","","","","","","",""
"comp-q","115","585124","0.0-3.0-13.0-0.4-0.4","spark_pilot_norest","8552","8","8","Male","","","","","","","3644.2000000476837","<p> <b> True or False? </b> </p><p> If you see a different picture, it means you are in a new place. </p>","0","comp_question","","","","false","","","","","","","",""
"comp-q","116","598835","0.0-3.0-13.0-0.4-1.4","spark_pilot_norest","8552","8","8","Male","","","","","","","2575.300000011921","<p> <b>Incorrect.</b> Lots of different images may show the same place. For example,  you may see three different images that all remind you that you are in outer space. </p>","0","comp_answer","","","","","","","","","","","",""
"comp-q","117","605605","0.0-3.0-13.0-0.5-0.5","spark_pilot_norest","8552","8","8","Male","","","","","","","1270.5","<p> <b> True or False? </b> </p><p> If you see a different picture, it means you are in a new place. </p>","1","comp_question","","","","true","","","","","","","",""
"comp-q","118","618125","0.0-3.0-13.0-0.5-1.5","spark_pilot_norest","8552","8","8","Male","","","","","","","1257.199999988079","<p> <b> That's right! </b> Lots of different images may show the same place. For example,  you may see three different images that all remind you that you are in outer space. </p>","0","comp_answer","","","","","","","","","","","",""
"learning-instructions","119","629400","0.0-3.0-14.0-0.0","spark_pilot_norest","8552","8","8","Male","","","","","","","1385.8999999761581","<p> Good job. Remember to do your best because the amount of treasure you earn will be converted into bonus money. </p>
            <p> It’s time to start the real game! </p>","","instructions","","","","","","","","","","","",""
"learning-instructions","120","633650","0.0-4.0-0.0-0.0","spark_pilot_norest","8552","8","8","Male","","","","","","","1467.7999999523163","<p> This time you are searching for treasure in the <b>canyon</b>.</p>","","instructions","","","","","","","","","","","",""
"learning-instructions","121","652385","0.0-4.0-0.0-0.1","spark_pilot_norest","8552","8","8","Male","","","","","","","1383","<p><b>New</b> animals with <b>new</b> treasure chests live here. You need to explore to discover where the animal with the best treasure chest is.</p>
                    <p> Like before, once you figure out which animal has the chest with the most treasure, you should try to get to that animal and select that chest! </p>","","instructions","","","","","","","","","","","",""
"learning-instructions","122","668746","0.0-4.0-1.0-0.0","spark_pilot_norest","8552","8","8","Male","","","","","","","1628.3999999761581","<p> Remember, when you see a picture of the place, use the up and down keys to <b>find an animal</b>.</p>
            <p> When you encounter an animal, you should use the left and right keys to <b>select a treasure chest</b>.</p>
            <p> Don't forget to look out for the robber! </p>","","instructions","","","","","","","","","","","",""
"revaluation","123","674774","0.0-4.0-2.0-0.0","spark_pilot_norest","8552","8","8","Male","","false","","","","","[1211.6000000238419,662.0999999642372]","./assets/img/canyon/memory/35.jpg","[""ArrowUp"",""ArrowRight""]","value training","canyon","10","{""ArrowUp,ArrowLeft"":26,""ArrowUp,ArrowRight"":10,""ArrowDown,ArrowLeft"":5,""ArrowDown,ArrowRight"":17}","false","ArrowUp,ArrowRight","false","revaluation","1","0","","",""
"html-keyboard-response","124","675285","0.0-4.0-2.0-1.0","spark_pilot_norest","8552","8","8","Male","","","","","","","null","<div style=""font-size:60px;"">+</div>","null","fixation","","","","","","","","","1","","",""
"revaluation","125","681311","0.0-4.0-2.0-0.1","spark_pilot_norest","8552","8","8","Male","","false","","","","","[651.3000000119209,516.6999999880791]","./assets/img/canyon/memory/16.jpg","[""ArrowUp"",""ArrowLeft""]","value training","canyon","26","{""ArrowUp,ArrowLeft"":26,""ArrowUp,ArrowRight"":10,""ArrowDown,ArrowLeft"":5,""ArrowDown,ArrowRight"":17}","true","ArrowUp,ArrowLeft","false","revaluation","1","2","","",""
"html-keyboard-response","126","681821","0.0-4.0-2.0-1.1","spark_pilot_norest","8552","8","8","Male","","","","","","","null","<div style=""font-size:60px;"">+</div>","null","fixation","","","","","","","","","3","","",""
"revaluation","127","685839","0.0-4.0-2.0-0.2","spark_pilot_norest","8552","8","8","Male","","false","","","","","[901.8999999761581]","./assets/img/canyon/catch/2.jpg","[""ArrowUp""]","value training","canyon","-10","{""ArrowUp,ArrowLeft"":26,""ArrowUp,ArrowRight"":10,""ArrowDown,ArrowLeft"":5,""ArrowDown,ArrowRight"":17}","false","ArrowUp","true","revaluation","1","4","","",""
"html-keyboard-response","128","686349","0.0-4.0-2.0-1.2","spark_pilot_norest","8552","8","8","Male","","","","","","","null","<div style=""font-size:60px;"">+</div>","null","fixation","","","","","","","","","5","","",""
"revaluation","129","692373","0.0-4.0-2.0-0.3","spark_pilot_norest","8552","8","8","Male","","false","","","","","[738,915.1999999880791]","./assets/img/canyon/memory/34.jpg","[""ArrowUp"",""ArrowLeft""]","value training","canyon","26","{""ArrowUp,ArrowLeft"":26,""ArrowUp,ArrowRight"":10,""ArrowDown,ArrowLeft"":5,""ArrowDown,ArrowRight"":17}","true","ArrowUp,ArrowLeft","false","revaluation","1","6","","",""
"html-keyboard-response","130","692877","0.0-4.0-2.0-1.3","spark_pilot_norest","8552","8","8","Male","","","","","","","null","<div style=""font-size:60px;"">+</div>","null","fixation","","","","","","","","","7","","",""
"revaluation","131","698901","0.0-4.0-2.0-0.4","spark_pilot_norest","8552","8","8","Male","","false","","","","","[787.1999999880791,1008.6000000238419]","./assets/img/canyon/memory/8.jpg","[""ArrowUp"",""ArrowLeft""]","value training","canyon","26","{""ArrowUp,ArrowLeft"":26,""ArrowUp,ArrowRight"":10,""ArrowDown,ArrowLeft"":5,""ArrowDown,ArrowRight"":17}","true","ArrowUp,ArrowLeft","false","revaluation","1","8","","",""
"html-keyboard-response","132","699407","0.0-4.0-2.0-1.4","spark_pilot_norest","8552","8","8","Male","","","","","","","null","<div style=""font-size:60px;"">+</div>","null","fixation","","","","","","","","","9","","",""
"revaluation","133","705433","0.0-4.0-2.0-0.5","spark_pilot_norest","8552","8","8","Male","","false","","","","","[1149.5999999642372,1198.300000011921]","./assets/img/canyon/memory/5.jpg","[""ArrowUp"",""ArrowLeft""]","value training","canyon","26","{""ArrowUp,ArrowLeft"":26,""ArrowUp,ArrowRight"":10,""ArrowDown,ArrowLeft"":5,""ArrowDown,ArrowRight"":17}","true","ArrowUp,ArrowLeft","false","revaluation","1","10","","",""
"html-keyboard-response","134","705943","0.0-4.0-2.0-1.5","spark_pilot_norest","8552","8","8","Male","","","","","","","null","<div style=""font-size:60px;"">+</div>","null","fixation","","","","","","","","","11","","",""
"revaluation","135","711969","0.0-4.0-2.0-0.6","spark_pilot_norest","8552","8","8","Male","","false","","","","","[1888,811]","./assets/img/canyon/memory/34.jpg","[""ArrowDown"",""ArrowRight""]","value training","canyon","17","{""ArrowUp,ArrowLeft"":26,""ArrowUp,ArrowRight"":10,""ArrowDown,ArrowLeft"":5,""ArrowDown,ArrowRight"":17}","false","ArrowDown,ArrowRight","false","revaluation","1","12","","",""
"html-keyboard-response","136","712480","0.0-4.0-2.0-1.6","spark_pilot_norest","8552","8","8","Male","","","","","","","null","<div style=""font-size:60px;"">+</div>","null","fixation","","","","","","","","","13","","",""
"revaluation","137","718506","0.0-4.0-2.0-0.7","spark_pilot_norest","8552","8","8","Male","","false","","","","","[669.1000000238419,734.8999999761581]","./assets/img/canyon/memory/12.jpg","[""ArrowDown"",""ArrowLeft""]","value training","canyon","5","{""ArrowUp,ArrowLeft"":26,""ArrowUp,ArrowRight"":10,""ArrowDown,ArrowLeft"":5,""ArrowDown,ArrowRight"":17}","false","ArrowDown,ArrowLeft","false","revaluation","1","14","","",""
"html-keyboard-response","138","719017","0.0-4.0-2.0-1.7","spark_pilot_norest","8552","8","8","Male","","","","","","","null","<div style=""font-size:60px;"">+</div>","null","fixation","","","","","","","","","15","","",""
"revaluation","139","723030","0.0-4.0-2.0-0.8","spark_pilot_norest","8552","8","8","Male","","false","","","","","[1075]","./assets/img/canyon/catch/4.jpg","[""spaceBar""]","value training","canyon","0","{""ArrowUp,ArrowLeft"":26,""ArrowUp,ArrowRight"":10,""ArrowDown,ArrowLeft"":5,""ArrowDown,ArrowRight"":17}","true","spaceBar","true","revaluation","1","16","","",""
"html-keyboard-response","140","723538","0.0-4.0-2.0-1.8","spark_pilot_norest","8552","8","8","Male","","","","","","","null","<div style=""font-size:60px;"">+</div>","null","fixation","","","","","","","","","17","","",""
"revaluation","141","729559","0.0-4.0-2.0-0.9","spark_pilot_norest","8552","8","8","Male","","false","","","","","[1667.8999999761581,1491.199999988079]","./assets/img/canyon/memory/33.jpg","[""ArrowUp"",""ArrowLeft""]","value training","canyon","26","{""ArrowUp,ArrowLeft"":26,""ArrowUp,ArrowRight"":10,""ArrowDown,ArrowLeft"":5,""ArrowDown,ArrowRight"":17}","true","ArrowUp,ArrowLeft","false","revaluation","1","18","","",""
"html-keyboard-response","142","730066","0.0-4.0-2.0-1.9","spark_pilot_norest","8552","8","8","Male","","","","","","","null","<div style=""font-size:60px;"">+</div>","null","fixation","","","","","","","","","19","","",""
"revaluation","143","734081","0.0-4.0-2.0-0.10","spark_pilot_norest","8552","8","8","Male","","false","","","","","[1417.3999999761581]","./assets/img/canyon/catch/5.jpg","[""spaceBar""]","value training","canyon","0","{""ArrowUp,ArrowLeft"":26,""ArrowUp,ArrowRight"":10,""ArrowDown,ArrowLeft"":5,""ArrowDown,ArrowRight"":17}","true","spaceBar","true","revaluation","1","20","","",""
"html-keyboard-response","144","734592","0.0-4.0-2.0-1.10","spark_pilot_norest","8552","8","8","Male","","","","","","","null","<div style=""font-size:60px;"">+</div>","null","fixation","","","","","","","","","21","","",""
"revaluation","145","740618","0.0-4.0-2.0-0.11","spark_pilot_norest","8552","8","8","Male","","false","","","","","[803.1000000238419,717.1999999880791]","./assets/img/canyon/memory/32.jpg","[""ArrowUp"",""ArrowLeft""]","value training","canyon","26","{""ArrowUp,ArrowLeft"":26,""ArrowUp,ArrowRight"":10,""ArrowDown,ArrowLeft"":5,""ArrowDown,ArrowRight"":17}","true","ArrowUp,ArrowLeft","false","revaluation","1","22","","",""
"html-keyboard-response","146","741128","0.0-4.0-2.0-1.11","spark_pilot_norest","8552","8","8","Male","","","","","","","null","<div style=""font-size:60px;"">+</div>","null","fixation","","","","","","","","","23","","",""
"revaluation","147","747154","0.0-4.0-2.0-0.12","spark_pilot_norest","8552","8","8","Male","","false","","","","","[672.5999999642372,1490.4000000357628]","./assets/img/canyon/memory/25.jpg","[""ArrowUp"",""ArrowLeft""]","value training","canyon","26","{""ArrowUp,ArrowLeft"":26,""ArrowUp,ArrowRight"":10,""ArrowDown,ArrowLeft"":5,""ArrowDown,ArrowRight"":17}","true","ArrowUp,ArrowLeft","false","revaluation","1","24","","",""
"html-keyboard-response","148","747665","0.0-4.0-2.0-1.12","spark_pilot_norest","8552","8","8","Male","","","","","","","null","<div style=""font-size:60px;"">+</div>","null","fixation","","","","","","","","","25","","",""
"revaluation","149","753691","0.0-4.0-2.0-0.13","spark_pilot_norest","8552","8","8","Male","","false","","","","","[812.1000000238419,1157.5999999642372]","./assets/img/canyon/memory/9.jpg","[""ArrowUp"",""ArrowLeft""]","value training","canyon","26","{""ArrowUp,ArrowLeft"":26,""ArrowUp,ArrowRight"":10,""ArrowDown,ArrowLeft"":5,""ArrowDown,ArrowRight"":17}","true","ArrowUp,ArrowLeft","false","revaluation","1","26","","",""
"html-keyboard-response","150","754202","0.0-4.0-2.0-1.13","spark_pilot_norest","8552","8","8","Male","","","","","","","null","<div style=""font-size:60px;"">+</div>","null","fixation","","","","","","","","","27","","",""
"revaluation","151","760222","0.0-4.0-2.0-0.14","spark_pilot_norest","8552","8","8","Male","","false","","","","","[729.2000000476837,746.6999999880791]","./assets/img/canyon/memory/12.jpg","[""ArrowUp"",""ArrowRight""]","value training","canyon","10","{""ArrowUp,ArrowLeft"":26,""ArrowUp,ArrowRight"":10,""ArrowDown,ArrowLeft"":5,""ArrowDown,ArrowRight"":17}","false","ArrowUp,ArrowRight","false","revaluation","1","28","","",""
"html-keyboard-response","152","760727","0.0-4.0-2.0-1.14","spark_pilot_norest","8552","8","8","Male","","","","","","","null","<div style=""font-size:60px;"">+</div>","null","fixation","","","","","","","","","29","","",""
"revaluation","153","766753","0.0-4.0-2.0-0.15","spark_pilot_norest","8552","8","8","Male","","false","","","","","[940.1999999880791,1158.5999999642372]","./assets/img/canyon/memory/35.jpg","[""ArrowDown"",""ArrowRight""]","value training","canyon","17","{""ArrowUp,ArrowLeft"":26,""ArrowUp,ArrowRight"":10,""ArrowDown,ArrowLeft"":5,""ArrowDown,ArrowRight"":17}","false","ArrowDown,ArrowRight","false","revaluation","1","30","","",""
"html-keyboard-response","154","767257","0.0-4.0-2.0-1.15","spark_pilot_norest","8552","8","8","Male","","","","","","","null","<div style=""font-size:60px;"">+</div>","null","fixation","","","","","","","","","31","","",""
"revaluation","155","773283","0.0-4.0-2.0-0.16","spark_pilot_norest","8552","8","8","Male","","false","","","","","[1071.800000011921,712.8999999761581]","./assets/img/canyon/memory/29.jpg","[""ArrowUp"",""ArrowLeft""]","value training","canyon","26","{""ArrowUp,ArrowLeft"":26,""ArrowUp,ArrowRight"":10,""ArrowDown,ArrowLeft"":5,""ArrowDown,ArrowRight"":17}","true","ArrowUp,ArrowLeft","false","revaluation","1","32","","",""
"html-keyboard-response","156","773794","0.0-4.0-2.0-1.16","spark_pilot_norest","8552","8","8","Male","","","","","","","null","<div style=""font-size:60px;"">+</div>","null","fixation","","","","","","","","","33","","",""
"revaluation","157","779814","0.0-4.0-2.0-0.17","spark_pilot_norest","8552","8","8","Male","","false","","","","","[859,540.1999999880791]","./assets/img/canyon/memory/37.jpg","[""ArrowUp"",""ArrowLeft""]","value training","canyon","26","{""ArrowUp,ArrowLeft"":26,""ArrowUp,ArrowRight"":10,""ArrowDown,ArrowLeft"":5,""ArrowDown,ArrowRight"":17}","true","ArrowUp,ArrowLeft","false","revaluation","1","34","","",""
"html-keyboard-response","158","780319","0.0-4.0-2.0-1.17","spark_pilot_norest","8552","8","8","Male","","","","","","","null","<div style=""font-size:60px;"">+</div>","null","fixation","","","","","","","","","35","","",""
"revaluation","159","784336","0.0-4.0-2.0-0.18","spark_pilot_norest","8552","8","8","Male","","false","","","","","[1666.699999988079]","./assets/img/canyon/catch/7.jpg","[""ArrowUp""]","value training","canyon","-10","{""ArrowUp,ArrowLeft"":26,""ArrowUp,ArrowRight"":10,""ArrowDown,ArrowLeft"":5,""ArrowDown,ArrowRight"":17}","false","ArrowUp","true","revaluation","1","36","","",""
"html-keyboard-response","160","784841","0.0-4.0-2.0-1.18","spark_pilot_norest","8552","8","8","Male","","","","","","","null","<div style=""font-size:60px;"">+</div>","null","fixation","","","","","","","","","37","","",""
"revaluation","161","790867","0.0-4.0-2.0-0.19","spark_pilot_norest","8552","8","8","Male","","false","","","","","[1233.300000011921,595.6999999880791]","./assets/img/canyon/memory/17.jpg","[""ArrowUp"",""ArrowLeft""]","value training","canyon","26","{""ArrowUp,ArrowLeft"":26,""ArrowUp,ArrowRight"":10,""ArrowDown,ArrowLeft"":5,""ArrowDown,ArrowRight"":17}","true","ArrowUp,ArrowLeft","false","revaluation","1","38","","",""
"html-keyboard-response","162","791378","0.0-4.0-2.0-1.19","spark_pilot_norest","8552","8","8","Male","","","","","","","null","<div style=""font-size:60px;"">+</div>","null","fixation","","","","","","","","","39","","",""
"revaluation","163","797404","0.0-4.0-2.0-0.20","spark_pilot_norest","8552","8","8","Male","","false","","","","","[529.5,1467.2999999523163]","./assets/img/canyon/memory/40.jpg","[""ArrowUp"",""ArrowLeft""]","value training","canyon","26","{""ArrowUp,ArrowLeft"":26,""ArrowUp,ArrowRight"":10,""ArrowDown,ArrowLeft"":5,""ArrowDown,ArrowRight"":17}","true","ArrowUp,ArrowLeft","false","revaluation","1","40","","",""
"html-keyboard-response","164","797914","0.0-4.0-2.0-1.20","spark_pilot_norest","8552","8","8","Male","","","","","","","null","<div style=""font-size:60px;"">+</div>","null","fixation","","","","","","","","","41","","",""
"revaluation","165","801932","0.0-4.0-2.0-0.21","spark_pilot_norest","8552","8","8","Male","","true","","","","","[]","./assets/img/canyon/catch/1.jpg","[]","value training","canyon","-5","{""ArrowUp,ArrowLeft"":26,""ArrowUp,ArrowRight"":10,""ArrowDown,ArrowLeft"":5,""ArrowDown,ArrowRight"":17}","false","","true","revaluation","1","42","","",""
"html-keyboard-response","166","802442","0.0-4.0-2.0-1.21","spark_pilot_norest","8552","8","8","Male","","","","","","","null","<div style=""font-size:60px;"">+</div>","null","fixation","","","","","","","","","43","","",""
"revaluation","167","808468","0.0-4.0-2.0-0.22","spark_pilot_norest","8552","8","8","Male","","false","","","","","[1348.3999999761581,965.6999999880791]","./assets/img/canyon/memory/20.jpg","[""ArrowUp"",""ArrowLeft""]","value training","canyon","26","{""ArrowUp,ArrowLeft"":26,""ArrowUp,ArrowRight"":10,""ArrowDown,ArrowLeft"":5,""ArrowDown,ArrowRight"":17}","true","ArrowUp,ArrowLeft","false","revaluation","1","44","","",""
"html-keyboard-response","168","808977","0.0-4.0-2.0-1.22","spark_pilot_norest","8552","8","8","Male","","","","","","","null","<div style=""font-size:60px;"">+</div>","null","fixation","","","","","","","","","45","","",""
"revaluation","169","815003","0.0-4.0-2.0-0.23","spark_pilot_norest","8552","8","8","Male","","false","","","","","[1221.9000000357628,861.4000000357628]","./assets/img/canyon/memory/29.jpg","[""ArrowUp"",""ArrowLeft""]","value training","canyon","26","{""ArrowUp,ArrowLeft"":26,""ArrowUp,ArrowRight"":10,""ArrowDown,ArrowLeft"":5,""ArrowDown,ArrowRight"":17}","true","ArrowUp,ArrowLeft","false","revaluation","1","46","","",""
"html-keyboard-response","170","815516","0.0-4.0-2.0-1.23","spark_pilot_norest","8552","8","8","Male","","","","","","","null","<div style=""font-size:60px;"">+</div>","null","fixation","","","","","","","","","47","","",""
"revaluation","171","819527","0.0-4.0-2.0-0.24","spark_pilot_norest","8552","8","8","Male","","false","","","","","[1727.3999999761581]","./assets/img/canyon/catch/6.jpg","[""spaceBar""]","value training","canyon","0","{""ArrowUp,ArrowLeft"":26,""ArrowUp,ArrowRight"":10,""ArrowDown,ArrowLeft"":5,""ArrowDown,ArrowRight"":17}","true","spaceBar","true","revaluation","1","48","","",""
"html-keyboard-response","172","820032","0.0-4.0-2.0-1.24","spark_pilot_norest","8552","8","8","Male","","","","","","","null","<div style=""font-size:60px;"">+</div>","null","fixation","","","","","","","","","49","","",""
"revaluation","173","826057","0.0-4.0-2.0-0.25","spark_pilot_norest","8552","8","8","Male","","false","","","","","[1925.6000000238419,975.3999999761581]","./assets/img/canyon/memory/7.jpg","[""ArrowUp"",""ArrowLeft""]","value training","canyon","26","{""ArrowUp,ArrowLeft"":26,""ArrowUp,ArrowRight"":10,""ArrowDown,ArrowLeft"":5,""ArrowDown,ArrowRight"":17}","true","ArrowUp,ArrowLeft","false","revaluation","1","50","","",""
"html-keyboard-response","174","826563","0.0-4.0-2.0-1.25","spark_pilot_norest","8552","8","8","Male","","","","","","","null","<div style=""font-size:60px;"">+</div>","null","fixation","","","","","","","","","51","","",""
"revaluation","175","832589","0.0-4.0-2.0-0.26","spark_pilot_norest","8552","8","8","Male","","false","","","","","[1992.4000000357628,819.1999999880791]","./assets/img/canyon/memory/19.jpg","[""ArrowUp"",""ArrowRight""]","value training","canyon","10","{""ArrowUp,ArrowLeft"":26,""ArrowUp,ArrowRight"":10,""ArrowDown,ArrowLeft"":5,""ArrowDown,ArrowRight"":17}","false","ArrowUp,ArrowRight","false","revaluation","1","52","","",""
"html-keyboard-response","176","833100","0.0-4.0-2.0-1.26","spark_pilot_norest","8552","8","8","Male","","","","","","","null","<div style=""font-size:60px;"">+</div>","null","fixation","","","","","","","","","53","","",""
"revaluation","177","839125","0.0-4.0-2.0-0.27","spark_pilot_norest","8552","8","8","Male","","false","","","","","[1581.5,1927.5]","./assets/img/canyon/memory/17.jpg","[""ArrowUp"",""ArrowLeft""]","value training","canyon","26","{""ArrowUp,ArrowLeft"":26,""ArrowUp,ArrowRight"":10,""ArrowDown,ArrowLeft"":5,""ArrowDown,ArrowRight"":17}","true","ArrowUp,ArrowLeft","false","revaluation","1","54","","",""
"html-keyboard-response","178","839636","0.0-4.0-2.0-1.27","spark_pilot_norest","8552","8","8","Male","","","","","","","null","<div style=""font-size:60px;"">+</div>","null","fixation","","","","","","","","","55","","",""
"revaluation","179","845656","0.0-4.0-2.0-0.28","spark_pilot_norest","8552","8","8","Male","","false","","","","","[1061.3999999761581,1511.199999988079]","./assets/img/canyon/memory/40.jpg","[""ArrowUp"",""ArrowLeft""]","value training","canyon","26","{""ArrowUp,ArrowLeft"":26,""ArrowUp,ArrowRight"":10,""ArrowDown,ArrowLeft"":5,""ArrowDown,ArrowRight"":17}","true","ArrowUp,ArrowLeft","false","revaluation","1","56","","",""
"html-keyboard-response","180","846161","0.0-4.0-2.0-1.28","spark_pilot_norest","8552","8","8","Male","","","","","","","null","<div style=""font-size:60px;"">+</div>","null","fixation","","","","","","","","","57","","",""
"revaluation","181","852187","0.0-4.0-2.0-0.29","spark_pilot_norest","8552","8","8","Male","","false","","","","","[1022.2999999523163,568.1999999880791]","./assets/img/canyon/memory/5.jpg","[""ArrowUp"",""ArrowLeft""]","value training","canyon","26","{""ArrowUp,ArrowLeft"":26,""ArrowUp,ArrowRight"":10,""ArrowDown,ArrowLeft"":5,""ArrowDown,ArrowRight"":17}","true","ArrowUp,ArrowLeft","false","revaluation","1","58","","",""
"html-keyboard-response","182","852692","0.0-4.0-2.0-1.29","spark_pilot_norest","8552","8","8","Male","","","","","","","null","<div style=""font-size:60px;"">+</div>","null","fixation","","","","","","","","","59","","",""
"revaluation","183","858714","0.0-4.0-2.0-0.30","spark_pilot_norest","8552","8","8","Male","","false","","","","","[435.69999998807907,701.5]","./assets/img/canyon/memory/1.jpg","[""ArrowUp"",""ArrowRight""]","value training","canyon","10","{""ArrowUp,ArrowLeft"":26,""ArrowUp,ArrowRight"":10,""ArrowDown,ArrowLeft"":5,""ArrowDown,ArrowRight"":17}","false","ArrowUp,ArrowRight","false","revaluation","1","60","","",""
"html-keyboard-response","184","859217","0.0-4.0-2.0-1.30","spark_pilot_norest","8552","8","8","Male","","","","","","","null","<div style=""font-size:60px;"">+</div>","null","fixation","","","","","","","","","61","","",""
"revaluation","185","865243","0.0-4.0-2.0-0.31","spark_pilot_norest","8552","8","8","Male","","false","","","","","[674,468.19999998807907]","./assets/img/canyon/memory/0.jpg","[""ArrowUp"",""ArrowRight""]","value training","canyon","10","{""ArrowUp,ArrowLeft"":26,""ArrowUp,ArrowRight"":10,""ArrowDown,ArrowLeft"":5,""ArrowDown,ArrowRight"":17}","false","ArrowUp,ArrowRight","false","revaluation","1","62","","",""
"html-keyboard-response","186","865748","0.0-4.0-2.0-1.31","spark_pilot_norest","8552","8","8","Male","","","","","","","null","<div style=""font-size:60px;"">+</div>","null","fixation","","","","","","","","","63","","",""
"revaluation","187","871774","0.0-4.0-2.0-0.32","spark_pilot_norest","8552","8","8","Male","","false","","","","","[499.89999997615814,636.8000000119209]","./assets/img/canyon/memory/16.jpg","[""ArrowUp"",""ArrowLeft""]","value training","canyon","26","{""ArrowUp,ArrowLeft"":26,""ArrowUp,ArrowRight"":10,""ArrowDown,ArrowLeft"":5,""ArrowDown,ArrowRight"":17}","true","ArrowUp,ArrowLeft","false","revaluation","1","64","","",""
"html-keyboard-response","188","872284","0.0-4.0-2.0-1.32","spark_pilot_norest","8552","8","8","Male","","","","","","","null","<div style=""font-size:60px;"">+</div>","null","fixation","","","","","","","","","65","","",""
"revaluation","189","876302","0.0-4.0-2.0-0.33","spark_pilot_norest","8552","8","8","Male","","false","","","","","[736]","./assets/img/canyon/catch/3.jpg","[""ArrowUp""]","value training","canyon","-10","{""ArrowUp,ArrowLeft"":26,""ArrowUp,ArrowRight"":10,""ArrowDown,ArrowLeft"":5,""ArrowDown,ArrowRight"":17}","false","ArrowUp","true","revaluation","1","66","","",""
"html-keyboard-response","190","876812","0.0-4.0-2.0-1.33","spark_pilot_norest","8552","8","8","Male","","","","","","","null","<div style=""font-size:60px;"">+</div>","null","fixation","","","","","","","","","67","","",""
"revaluation","191","882838","0.0-4.0-2.0-0.34","spark_pilot_norest","8552","8","8","Male","","false","","","","","[929.3000000119209,659.3000000119209]","./assets/img/canyon/memory/1.jpg","[""ArrowUp"",""ArrowLeft""]","value training","canyon","26","{""ArrowUp,ArrowLeft"":26,""ArrowUp,ArrowRight"":10,""ArrowDown,ArrowLeft"":5,""ArrowDown,ArrowRight"":17}","true","ArrowUp,ArrowLeft","false","revaluation","1","68","","",""
"html-keyboard-response","192","883349","0.0-4.0-2.0-1.34","spark_pilot_norest","8552","8","8","Male","","","","","","","null","<div style=""font-size:60px;"">+</div>","null","fixation","","","","","","","","","69","","",""
"revaluation","193","889375","0.0-4.0-2.0-0.35","spark_pilot_norest","8552","8","8","Male","","false","","","","","[575.1999999880791,865]","./assets/img/canyon/memory/32.jpg","[""ArrowUp"",""ArrowLeft""]","value training","canyon","26","{""ArrowUp,ArrowLeft"":26,""ArrowUp,ArrowRight"":10,""ArrowDown,ArrowLeft"":5,""ArrowDown,ArrowRight"":17}","true","ArrowUp,ArrowLeft","false","revaluation","1","70","","",""
"html-keyboard-response","194","889886","0.0-4.0-2.0-1.35","spark_pilot_norest","8552","8","8","Male","","","","","","","null","<div style=""font-size:60px;"">+</div>","null","fixation","","","","","","","","","71","","",""
"revaluation","195","895906","0.0-4.0-2.0-0.36","spark_pilot_norest","8552","8","8","Male","","false","","","","","[832.3999999761581,1394.5]","./assets/img/canyon/memory/19.jpg","[""ArrowUp"",""ArrowLeft""]","value training","canyon","26","{""ArrowUp,ArrowLeft"":26,""ArrowUp,ArrowRight"":10,""ArrowDown,ArrowLeft"":5,""ArrowDown,ArrowRight"":17}","true","ArrowUp,ArrowLeft","false","revaluation","1","72","","",""
"html-keyboard-response","196","896411","0.0-4.0-2.0-1.36","spark_pilot_norest","8552","8","8","Male","","","","","","","null","<div style=""font-size:60px;"">+</div>","null","fixation","","","","","","","","","73","","",""
"revaluation","197","902437","0.0-4.0-2.0-0.37","spark_pilot_norest","8552","8","8","Male","","false","","","","","[538.0999999642372,499.5999999642372]","./assets/img/canyon/memory/9.jpg","[""ArrowUp"",""ArrowLeft""]","value training","canyon","26","{""ArrowUp,ArrowLeft"":26,""ArrowUp,ArrowRight"":10,""ArrowDown,ArrowLeft"":5,""ArrowDown,ArrowRight"":17}","true","ArrowUp,ArrowLeft","false","revaluation","1","74","","",""
"html-keyboard-response","198","902941","0.0-4.0-2.0-1.37","spark_pilot_norest","8552","8","8","Male","","","","","","","null","<div style=""font-size:60px;"">+</div>","null","fixation","","","","","","","","","75","","",""
"revaluation","199","908967","0.0-4.0-2.0-0.38","spark_pilot_norest","8552","8","8","Male","","false","","","","","[597.1999999880791,1046.6000000238419]","./assets/img/canyon/memory/25.jpg","[""ArrowUp"",""ArrowLeft""]","value training","canyon","26","{""ArrowUp,ArrowLeft"":26,""ArrowUp,ArrowRight"":10,""ArrowDown,ArrowLeft"":5,""ArrowDown,ArrowRight"":17}","true","ArrowUp,ArrowLeft","false","revaluation","1","76","","",""
"html-keyboard-response","200","909478","0.0-4.0-2.0-1.38","spark_pilot_norest","8552","8","8","Male","","","","","","","null","<div style=""font-size:60px;"">+</div>","null","fixation","","","","","","","","","77","","",""
"revaluation","201","915498","0.0-4.0-2.0-0.39","spark_pilot_norest","8552","8","8","Male","","false","","","","","[532.6000000238419,1079.800000011921]","./assets/img/canyon/memory/7.jpg","[""ArrowDown"",""ArrowLeft""]","value training","canyon","5","{""ArrowUp,ArrowLeft"":26,""ArrowUp,ArrowRight"":10,""ArrowDown,ArrowLeft"":5,""ArrowDown,ArrowRight"":17}","false","ArrowDown,ArrowLeft","false","revaluation","1","78","","",""
"html-keyboard-response","202","916002","0.0-4.0-2.0-1.39","spark_pilot_norest","8552","8","8","Male","","","","","","","null","<div style=""font-size:60px;"">+</div>","null","fixation","","","","","","","","","79","","",""
"revaluation","203","922028","0.0-4.0-2.0-0.40","spark_pilot_norest","8552","8","8","Male","","false","","","","","[1399.800000011921,1178.699999988079]","./assets/img/canyon/memory/37.jpg","[""ArrowDown"",""ArrowRight""]","value training","canyon","17","{""ArrowUp,ArrowLeft"":26,""ArrowUp,ArrowRight"":10,""ArrowDown,ArrowLeft"":5,""ArrowDown,ArrowRight"":17}","false","ArrowDown,ArrowRight","false","revaluation","1","80","","",""
"html-keyboard-response","204","922534","0.0-4.0-2.0-1.40","spark_pilot_norest","8552","8","8","Male","","","","","","","null","<div style=""font-size:60px;"">+</div>","null","fixation","","","","","","","","","81","","",""
"revaluation","205","928548","0.0-4.0-2.0-0.41","spark_pilot_norest","8552","8","8","Male","","false","","","","","[945.5,1811.300000011921]","./assets/img/canyon/memory/8.jpg","[""ArrowUp"",""ArrowRight""]","value training","canyon","10","{""ArrowUp,ArrowLeft"":26,""ArrowUp,ArrowRight"":10,""ArrowDown,ArrowLeft"":5,""ArrowDown,ArrowRight"":17}","false","ArrowUp,ArrowRight","false","revaluation","1","82","","",""
"html-keyboard-response","206","929053","0.0-4.0-2.0-1.41","spark_pilot_norest","8552","8","8","Male","","","","","","","null","<div style=""font-size:60px;"">+</div>","null","fixation","","","","","","","","","83","","",""
"revaluation","207","935079","0.0-4.0-2.0-0.42","spark_pilot_norest","8552","8","8","Male","","false","","","","","[633.8000000119209,1796.199999988079]","./assets/img/canyon/memory/31.jpg","[""ArrowUp"",""ArrowLeft""]","value training","canyon","26","{""ArrowUp,ArrowLeft"":26,""ArrowUp,ArrowRight"":10,""ArrowDown,ArrowLeft"":5,""ArrowDown,ArrowRight"":17}","true","ArrowUp,ArrowLeft","false","revaluation","1","84","","",""
"html-keyboard-response","208","935590","0.0-4.0-2.0-1.42","spark_pilot_norest","8552","8","8","Male","","","","","","","null","<div style=""font-size:60px;"">+</div>","null","fixation","","","","","","","","","85","","",""
"revaluation","209","941616","0.0-4.0-2.0-0.43","spark_pilot_norest","8552","8","8","Male","","false","","","","","[808.6999999880791,826.3000000119209]","./assets/img/canyon/memory/33.jpg","[""ArrowUp"",""ArrowRight""]","value training","canyon","10","{""ArrowUp,ArrowLeft"":26,""ArrowUp,ArrowRight"":10,""ArrowDown,ArrowLeft"":5,""ArrowDown,ArrowRight"":17}","false","ArrowUp,ArrowRight","false","revaluation","1","86","","",""
"html-keyboard-response","210","942126","0.0-4.0-2.0-1.43","spark_pilot_norest","8552","8","8","Male","","","","","","","null","<div style=""font-size:60px;"">+</div>","null","fixation","","","","","","","","","87","","",""
"revaluation","211","946144","0.0-4.0-2.0-0.44","spark_pilot_norest","8552","8","8","Male","","true","","","","","[]","./assets/img/canyon/catch/0.jpg","[]","value training","canyon","-5","{""ArrowUp,ArrowLeft"":26,""ArrowUp,ArrowRight"":10,""ArrowDown,ArrowLeft"":5,""ArrowDown,ArrowRight"":17}","false","","true","revaluation","1","88","","",""
"html-keyboard-response","212","946654","0.0-4.0-2.0-1.44","spark_pilot_norest","8552","8","8","Male","","","","","","","null","<div style=""font-size:60px;"">+</div>","null","fixation","","","","","","","","","89","","",""
"revaluation","213","950672","0.0-4.0-2.0-0.45","spark_pilot_norest","8552","8","8","Male","","true","","","","","[]","./assets/img/canyon/memory/20.jpg","[]","value training","canyon","-5","{""ArrowUp,ArrowLeft"":26,""ArrowUp,ArrowRight"":10,""ArrowDown,ArrowLeft"":5,""ArrowDown,ArrowRight"":17}","false","","false","revaluation","1","90","","",""
"html-keyboard-response","214","951182","0.0-4.0-2.0-1.45","spark_pilot_norest","8552","8","8","Male","","","","","","","null","<div style=""font-size:60px;"">+</div>","null","fixation","","","","","","","","","91","","",""
"revaluation","215","957208","0.0-4.0-2.0-0.46","spark_pilot_norest","8552","8","8","Male","","false","","","","","[470.5999999642372,976.1000000238419]","./assets/img/canyon/memory/15.jpg","[""ArrowUp"",""ArrowLeft""]","value training","canyon","26","{""ArrowUp,ArrowLeft"":26,""ArrowUp,ArrowRight"":10,""ArrowDown,ArrowLeft"":5,""ArrowDown,ArrowRight"":17}","true","ArrowUp,ArrowLeft","false","revaluation","1","92","","",""
"html-keyboard-response","216","957719","0.0-4.0-2.0-1.46","spark_pilot_norest","8552","8","8","Male","","","","","","","null","<div style=""font-size:60px;"">+</div>","null","fixation","","","","","","","","","93","","",""
"revaluation","217","963745","0.0-4.0-2.0-0.47","spark_pilot_norest","8552","8","8","Male","","false","","","","","[507.5,645.8000000119209]","./assets/img/canyon/memory/15.jpg","[""ArrowUp"",""ArrowLeft""]","value training","canyon","26","{""ArrowUp,ArrowLeft"":26,""ArrowUp,ArrowRight"":10,""ArrowDown,ArrowLeft"":5,""ArrowDown,ArrowRight"":17}","true","ArrowUp,ArrowLeft","false","revaluation","1","94","","",""
"html-keyboard-response","218","964256","0.0-4.0-2.0-1.47","spark_pilot_norest","8552","8","8","Male","","","","","","","null","<div style=""font-size:60px;"">+</div>","null","fixation","","","","","","","","","95","","",""
"revaluation","219","968273","0.0-4.0-2.0-0.48","spark_pilot_norest","8552","8","8","Male","","true","","","","","[]","./assets/img/canyon/memory/31.jpg","[]","value training","canyon","-5","{""ArrowUp,ArrowLeft"":26,""ArrowUp,ArrowRight"":10,""ArrowDown,ArrowLeft"":5,""ArrowDown,ArrowRight"":17}","false","","false","revaluation","1","96","","",""
"html-keyboard-response","220","968784","0.0-4.0-2.0-1.48","spark_pilot_norest","8552","8","8","Male","","","","","","","null","<div style=""font-size:60px;"">+</div>","null","fixation","","","","","","","","","97","","",""
"revaluation","221","974809","0.0-4.0-2.0-0.49","spark_pilot_norest","8552","8","8","Male","","false","","","","","[660.1000000238419,645.7999999523163]","./assets/img/canyon/memory/0.jpg","[""ArrowUp"",""ArrowLeft""]","value training","canyon","26","{""ArrowUp,ArrowLeft"":26,""ArrowUp,ArrowRight"":10,""ArrowDown,ArrowLeft"":5,""ArrowDown,ArrowRight"":17}","true","ArrowUp,ArrowLeft","false","revaluation","1","98","","",""
"html-keyboard-response","222","975320","0.0-4.0-2.0-1.49","spark_pilot_norest","8552","8","8","Male","","","","","","","null","<div style=""font-size:60px;"">+</div>","null","fixation","","","","","","","","","99","","",""
"learning-instructions","223","993227","0.0-4.0-3.0-0.0","spark_pilot_norest","8552","8","8","Male","","","","","","","4907.199999988079","<p> Now, you will travel with a friend who will choose whether you go up or down first. </p>
            <p> On these turns, you will just see the animal that they found. You will still get to choose which chest to search for treasure.</p>","","instructions","","","","","","","","","","","",""
"revaluation","224","997246","0.0-4.0-4.0-0.0","spark_pilot_norest","8552","8","8","Male","","true","","","","","[]","./assets/img/canyon/animals/giraffe.jpg","[]","revaluation","canyon","-5","{""ArrowUp,ArrowLeft"":2,""ArrowUp,ArrowRight"":11,""ArrowDown,ArrowLeft"":8,""ArrowDown,ArrowRight"":27}","false","ArrowDown","","revaluation","1","0","","",""
"html-keyboard-response","225","997759","0.0-4.0-4.0-1.0","spark_pilot_norest","8552","8","8","Male","","","","","","","null","<div style=""font-size:60px;"">+</div>","null","fixation","","","","","","","","","1","","",""
"revaluation","226","1001776","0.0-4.0-4.0-0.1","spark_pilot_norest","8552","8","8","Male","","false","","","","","[1066.800000011921]","./assets/img/canyon/animals/giraffe.jpg","[""ArrowLeft""]","revaluation","canyon","8","{""ArrowUp,ArrowLeft"":2,""ArrowUp,ArrowRight"":11,""ArrowDown,ArrowLeft"":8,""ArrowDown,ArrowRight"":27}","false","ArrowDown,ArrowLeft","","revaluation","1","2","","",""
"html-keyboard-response","227","1002281","0.0-4.0-4.0-1.1","spark_pilot_norest","8552","8","8","Male","","","","","","","null","<div style=""font-size:60px;"">+</div>","null","fixation","","","","","","","","","3","","",""
"revaluation","228","1006294","0.0-4.0-4.0-0.2","spark_pilot_norest","8552","8","8","Male","","false","","","","","[920.5]","./assets/img/canyon/animals/lion.jpg","[""ArrowLeft""]","revaluation","canyon","2","{""ArrowUp,ArrowLeft"":2,""ArrowUp,ArrowRight"":11,""ArrowDown,ArrowLeft"":8,""ArrowDown,ArrowRight"":27}","false","ArrowUp,ArrowLeft","","revaluation","1","4","","",""
"html-keyboard-response","229","1006797","0.0-4.0-4.0-1.2","spark_pilot_norest","8552","8","8","Male","","","","","","","null","<div style=""font-size:60px;"">+</div>","null","fixation","","","","","","","","","5","","",""
"revaluation","230","1010815","0.0-4.0-4.0-0.3","spark_pilot_norest","8552","8","8","Male","","false","","","","","[1851.7000000476837]","./assets/img/canyon/animals/lion.jpg","[""ArrowRight""]","revaluation","canyon","11","{""ArrowUp,ArrowLeft"":2,""ArrowUp,ArrowRight"":11,""ArrowDown,ArrowLeft"":8,""ArrowDown,ArrowRight"":27}","true","ArrowUp,ArrowRight","","revaluation","1","6","","",""
"html-keyboard-response","231","1011319","0.0-4.0-4.0-1.3","spark_pilot_norest","8552","8","8","Male","","","","","","","null","<div style=""font-size:60px;"">+</div>","null","fixation","","","","","","","","","7","","",""
"revaluation","232","1015337","0.0-4.0-4.0-0.4","spark_pilot_norest","8552","8","8","Male","","false","","","","","[1064.2000000476837]","./assets/img/canyon/animals/lion.jpg","[""ArrowRight""]","revaluation","canyon","11","{""ArrowUp,ArrowLeft"":2,""ArrowUp,ArrowRight"":11,""ArrowDown,ArrowLeft"":8,""ArrowDown,ArrowRight"":27}","true","ArrowUp,ArrowRight","","revaluation","1","8","","",""
"html-keyboard-response","233","1015847","0.0-4.0-4.0-1.4","spark_pilot_norest","8552","8","8","Male","","","","","","","null","<div style=""font-size:60px;"">+</div>","null","fixation","","","","","","","","","9","","",""
"revaluation","234","1019855","0.0-4.0-4.0-0.5","spark_pilot_norest","8552","8","8","Male","","false","","","","","[1763.2000000476837]","./assets/img/canyon/animals/giraffe.jpg","[""ArrowRight""]","revaluation","canyon","27","{""ArrowUp,ArrowLeft"":2,""ArrowUp,ArrowRight"":11,""ArrowDown,ArrowLeft"":8,""ArrowDown,ArrowRight"":27}","true","ArrowDown,ArrowRight","","revaluation","1","10","","",""
"html-keyboard-response","235","1020359","0.0-4.0-4.0-1.5","spark_pilot_norest","8552","8","8","Male","","","","","","","null","<div style=""font-size:60px;"">+</div>","null","fixation","","","","","","","","","11","","",""
"revaluation","236","1024377","0.0-4.0-4.0-0.6","spark_pilot_norest","8552","8","8","Male","","false","","","","","[1671.1000000238419]","./assets/img/canyon/animals/giraffe.jpg","[""ArrowRight""]","revaluation","canyon","27","{""ArrowUp,ArrowLeft"":2,""ArrowUp,ArrowRight"":11,""ArrowDown,ArrowLeft"":8,""ArrowDown,ArrowRight"":27}","true","ArrowDown,ArrowRight","","revaluation","1","12","","",""
"html-keyboard-response","237","1024888","0.0-4.0-4.0-1.6","spark_pilot_norest","8552","8","8","Male","","","","","","","null","<div style=""font-size:60px;"">+</div>","null","fixation","","","","","","","","","13","","",""
"revaluation","238","1028905","0.0-4.0-4.0-0.7","spark_pilot_norest","8552","8","8","Male","","false","","","","","[1120.5999999642372]","./assets/img/canyon/animals/lion.jpg","[""ArrowLeft""]","revaluation","canyon","2","{""ArrowUp,ArrowLeft"":2,""ArrowUp,ArrowRight"":11,""ArrowDown,ArrowLeft"":8,""ArrowDown,ArrowRight"":27}","false","ArrowUp,ArrowLeft","","revaluation","1","14","","",""
"html-keyboard-response","239","1029415","0.0-4.0-4.0-1.7","spark_pilot_norest","8552","8","8","Male","","","","","","","null","<div style=""font-size:60px;"">+</div>","null","fixation","","","","","","","","","15","","",""
"revaluation","240","1033433","0.0-4.0-4.0-0.8","spark_pilot_norest","8552","8","8","Male","","false","","","","","[924.1999999880791]","./assets/img/canyon/animals/giraffe.jpg","[""ArrowRight""]","revaluation","canyon","27","{""ArrowUp,ArrowLeft"":2,""ArrowUp,ArrowRight"":11,""ArrowDown,ArrowLeft"":8,""ArrowDown,ArrowRight"":27}","true","ArrowDown,ArrowRight","","revaluation","1","16","","",""
"html-keyboard-response","241","1033944","0.0-4.0-4.0-1.8","spark_pilot_norest","8552","8","8","Male","","","","","","","null","<div style=""font-size:60px;"">+</div>","null","fixation","","","","","","","","","17","","",""
"revaluation","242","1037961","0.0-4.0-4.0-0.9","spark_pilot_norest","8552","8","8","Male","","false","","","","","[1779.699999988079]","./assets/img/canyon/animals/giraffe.jpg","[""ArrowRight""]","revaluation","canyon","27","{""ArrowUp,ArrowLeft"":2,""ArrowUp,ArrowRight"":11,""ArrowDown,ArrowLeft"":8,""ArrowDown,ArrowRight"":27}","true","ArrowDown,ArrowRight","","revaluation","1","18","","",""
"html-keyboard-response","243","1038471","0.0-4.0-4.0-1.9","spark_pilot_norest","8552","8","8","Male","","","","","","","null","<div style=""font-size:60px;"">+</div>","null","fixation","","","","","","","","","19","","",""
"revaluation","244","1042489","0.0-4.0-4.0-0.10","spark_pilot_norest","8552","8","8","Male","","false","","","","","[1265.8999999761581]","./assets/img/canyon/animals/lion.jpg","[""ArrowRight""]","revaluation","canyon","11","{""ArrowUp,ArrowLeft"":2,""ArrowUp,ArrowRight"":11,""ArrowDown,ArrowLeft"":8,""ArrowDown,ArrowRight"":27}","true","ArrowUp,ArrowRight","","revaluation","1","20","","",""
"html-keyboard-response","245","1042994","0.0-4.0-4.0-1.10","spark_pilot_norest","8552","8","8","Male","","","","","","","null","<div style=""font-size:60px;"">+</div>","null","fixation","","","","","","","","","21","","",""
"revaluation","246","1047011","0.0-4.0-4.0-0.11","spark_pilot_norest","8552","8","8","Male","","true","","","","","[]","./assets/img/canyon/animals/lion.jpg","[]","revaluation","canyon","-5","{""ArrowUp,ArrowLeft"":2,""ArrowUp,ArrowRight"":11,""ArrowDown,ArrowLeft"":8,""ArrowDown,ArrowRight"":27}","false","ArrowUp","","revaluation","1","22","","",""
"html-keyboard-response","247","1047521","0.0-4.0-4.0-1.11","spark_pilot_norest","8552","8","8","Male","","","","","","","null","<div style=""font-size:60px;"">+</div>","null","fixation","","","","","","","","","23","","",""
"revaluation","248","1051539","0.0-4.0-4.0-0.12","spark_pilot_norest","8552","8","8","Male","","false","","","","","[1157.800000011921]","./assets/img/canyon/animals/lion.jpg","[""ArrowRight""]","revaluation","canyon","11","{""ArrowUp,ArrowLeft"":2,""ArrowUp,ArrowRight"":11,""ArrowDown,ArrowLeft"":8,""ArrowDown,ArrowRight"":27}","true","ArrowUp,ArrowRight","","revaluation","1","24","","",""
"html-keyboard-response","249","1052050","0.0-4.0-4.0-1.12","spark_pilot_norest","8552","8","8","Male","","","","","","","null","<div style=""font-size:60px;"">+</div>","null","fixation","","","","","","","","","25","","",""
"revaluation","250","1056067","0.0-4.0-4.0-0.13","spark_pilot_norest","8552","8","8","Male","","false","","","","","[910.8999999761581]","./assets/img/canyon/animals/giraffe.jpg","[""ArrowRight""]","revaluation","canyon","27","{""ArrowUp,ArrowLeft"":2,""ArrowUp,ArrowRight"":11,""ArrowDown,ArrowLeft"":8,""ArrowDown,ArrowRight"":27}","true","ArrowDown,ArrowRight","","revaluation","1","26","","",""
"html-keyboard-response","251","1056578","0.0-4.0-4.0-1.13","spark_pilot_norest","8552","8","8","Male","","","","","","","null","<div style=""font-size:60px;"">+</div>","null","fixation","","","","","","","","","27","","",""
"revaluation","252","1060595","0.0-4.0-4.0-0.14","spark_pilot_norest","8552","8","8","Male","","false","","","","","[510.0999999642372]","./assets/img/canyon/animals/giraffe.jpg","[""ArrowRight""]","revaluation","canyon","27","{""ArrowUp,ArrowLeft"":2,""ArrowUp,ArrowRight"":11,""ArrowDown,ArrowLeft"":8,""ArrowDown,ArrowRight"":27}","true","ArrowDown,ArrowRight","","revaluation","1","28","","",""
"html-keyboard-response","253","1061106","0.0-4.0-4.0-1.14","spark_pilot_norest","8552","8","8","Male","","","","","","","null","<div style=""font-size:60px;"">+</div>","null","fixation","","","","","","","","","29","","",""
"revaluation","254","1065123","0.0-4.0-4.0-0.15","spark_pilot_norest","8552","8","8","Male","","false","","","","","[485.69999998807907]","./assets/img/canyon/animals/lion.jpg","[""ArrowRight""]","revaluation","canyon","11","{""ArrowUp,ArrowLeft"":2,""ArrowUp,ArrowRight"":11,""ArrowDown,ArrowLeft"":8,""ArrowDown,ArrowRight"":27}","true","ArrowUp,ArrowRight","","revaluation","1","30","","",""
"html-keyboard-response","255","1065634","0.0-4.0-4.0-1.15","spark_pilot_norest","8552","8","8","Male","","","","","","","null","<div style=""font-size:60px;"">+</div>","null","fixation","","","","","","","","","31","","",""
"revaluation","256","1069651","0.0-4.0-4.0-0.16","spark_pilot_norest","8552","8","8","Male","","false","","","","","[1496.3999999761581]","./assets/img/canyon/animals/giraffe.jpg","[""ArrowLeft""]","revaluation","canyon","8","{""ArrowUp,ArrowLeft"":2,""ArrowUp,ArrowRight"":11,""ArrowDown,ArrowLeft"":8,""ArrowDown,ArrowRight"":27}","false","ArrowDown,ArrowLeft","","revaluation","1","32","","",""
"html-keyboard-response","257","1070162","0.0-4.0-4.0-1.16","spark_pilot_norest","8552","8","8","Male","","","","","","","null","<div style=""font-size:60px;"">+</div>","null","fixation","","","","","","","","","33","","",""
"revaluation","258","1074179","0.0-4.0-4.0-0.17","spark_pilot_norest","8552","8","8","Male","","false","","","","","[1254.0999999642372]","./assets/img/canyon/animals/lion.jpg","[""ArrowRight""]","revaluation","canyon","11","{""ArrowUp,ArrowLeft"":2,""ArrowUp,ArrowRight"":11,""ArrowDown,ArrowLeft"":8,""ArrowDown,ArrowRight"":27}","true","ArrowUp,ArrowRight","","revaluation","1","34","","",""
"html-keyboard-response","259","1074690","0.0-4.0-4.0-1.17","spark_pilot_norest","8552","8","8","Male","","","","","","","null","<div style=""font-size:60px;"">+</div>","null","fixation","","","","","","","","","35","","",""
"learning-instructions","260","1082911","0.0-4.0-5.0-0.0","spark_pilot_norest","8552","8","8","Male","","","","","","","null","<p> You have almost finished this part of the game! </p>
            <p> We are going to ask you to make a few more choices. </p>","","instructions","","","","","","","","","","","",""
"learning-instructions","261","1098892","0.0-4.0-5.0-0.1","spark_pilot_norest","8552","8","8","Male","","","","","","","null","<p> First, you need to decide whether to go up or down. When you see each picture, use the arrow keys to make your choice. </p>
            <p><b>You will not see which animal you found, but try to get to the one that will give you the most treasure.</b></p>","","instructions","","","","","","","","","","","",""
"html-keyboard-response","262","1099897","0.0-4.0-6.0-0.0","spark_pilot_norest","8552","8","8","Male","","","","","","","null","<div style=""font-size:100px;color:red;"">Starting in...</div>","null","","","","","","","","","","","","",""
"html-keyboard-response","263","1100907","0.0-4.0-6.0-1.0","spark_pilot_norest","8552","8","8","Male","","","","","","","null","<div style=""font-size:200px;color:red;"">3</div>","null","","","","","","","","","","","","",""
"html-keyboard-response","264","1101917","0.0-4.0-6.0-2.0","spark_pilot_norest","8552","8","8","Male","","","","","","","null","<div style=""font-size:200px;color:red;"">2</div>","null","","","","","","","","","","","","",""
"html-keyboard-response","265","1102921","0.0-4.0-6.0-3.0","spark_pilot_norest","8552","8","8","Male","","","","","","","null","<div style=""font-size:200px;color:red;"">1</div>","null","","","","","","","","","","","","",""
"revaluation","266","1104346","0.0-4.0-7.0-0.0","spark_pilot_norest","8552","8","8","Male","","false","","","","","[1422.3999999761581]","./assets/img/canyon/test/2.jpg","[""ArrowDown""]","first stage test","canyon","0","{""ArrowUp,ArrowLeft"":2,""ArrowUp,ArrowRight"":11,""ArrowDown,ArrowLeft"":8,""ArrowDown,ArrowRight"":27}","true","ArrowDown","false","revaluation","1","","","",""
"html-keyboard-response","267","1104848","0.0-4.0-7.0-1.0","spark_pilot_norest","8552","8","8","Male","","","","","","","null","<div style=""font-size:60px;"">+</div>","null","fixation","","","","","","","","","","","",""
"revaluation","268","1105873","0.0-4.0-7.0-0.1","spark_pilot_norest","8552","8","8","Male","","false","","","","","[1022.6999999880791]","./assets/img/canyon/test/1.jpg","[""ArrowDown""]","first stage test","canyon","0","{""ArrowUp,ArrowLeft"":2,""ArrowUp,ArrowRight"":11,""ArrowDown,ArrowLeft"":8,""ArrowDown,ArrowRight"":27}","true","ArrowDown","false","revaluation","1","","","",""
"html-keyboard-response","269","1106381","0.0-4.0-7.0-1.1","spark_pilot_norest","8552","8","8","Male","","","","","","","null","<div style=""font-size:60px;"">+</div>","null","fixation","","","","","","","","","","","",""
"revaluation","270","1107619","0.0-4.0-7.0-0.2","spark_pilot_norest","8552","8","8","Male","","false","","","","","[1235.699999988079]","./assets/img/canyon/test/0.jpg","[""ArrowDown""]","first stage test","canyon","0","{""ArrowUp,ArrowLeft"":2,""ArrowUp,ArrowRight"":11,""ArrowDown,ArrowLeft"":8,""ArrowDown,ArrowRight"":27}","true","ArrowDown","false","revaluation","1","","","",""
"html-keyboard-response","271","1108123","0.0-4.0-7.0-1.2","spark_pilot_norest","8552","8","8","Male","","","","","","","null","<div style=""font-size:60px;"">+</div>","null","fixation","","","","","","","","","","","",""
"revaluation","272","1109153","0.0-4.0-7.0-0.3","spark_pilot_norest","8552","8","8","Male","","false","","","","","[1028.7000000476837]","./assets/img/canyon/test/3.jpg","[""ArrowDown""]","first stage test","canyon","0","{""ArrowUp,ArrowLeft"":2,""ArrowUp,ArrowRight"":11,""ArrowDown,ArrowLeft"":8,""ArrowDown,ArrowRight"":27}","true","ArrowDown","false","revaluation","1","","","",""
"html-keyboard-response","273","1109661","0.0-4.0-7.0-1.3","spark_pilot_norest","8552","8","8","Male","","","","","","","null","<div style=""font-size:60px;"">+</div>","null","fixation","","","","","","","","","","","",""
"learning-instructions","274","1123013","0.0-4.0-8.0-0.0","spark_pilot_norest","8552","8","8","Male","","","","","","","null","<p> Now you will see the animals again and can search their chests for treasure. </p>
            <p> This time, you will not see how much treasure you earned, but you will earn more bonus money for making better choices. </p>","","instructions","","","","","","","","","","","",""
"html-keyboard-response","275","1124017","0.0-4.0-9.0-0.0","spark_pilot_norest","8552","8","8","Male","","","","","","","null","<div style=""font-size:100px;color:red;"">Starting in...</div>","null","","","","","","","","","","","","",""
"html-keyboard-response","276","1125027","0.0-4.0-9.0-1.0","spark_pilot_norest","8552","8","8","Male","","","","","","","null","<div style=""font-size:200px;color:red;"">3</div>","null","","","","","","","","","","","","",""
"html-keyboard-response","277","1126037","0.0-4.0-9.0-2.0","spark_pilot_norest","8552","8","8","Male","","","","","","","null","<div style=""font-size:200px;color:red;"">2</div>","null","","","","","","","","","","","","",""
"html-keyboard-response","278","1127042","0.0-4.0-9.0-3.0","spark_pilot_norest","8552","8","8","Male","","","","","","","null","<div style=""font-size:200px;color:red;"">1</div>","null","","","","","","","","","","","","",""
"revaluation","279","1127753","0.0-4.0-10.0-0.0","spark_pilot_norest","8552","8","8","Male","","false","","","","","[709.2000000476837]","./assets/img/canyon/animals/lion.jpg","[""ArrowRight""]","second stage test","canyon","0","{""ArrowUp,ArrowLeft"":2,""ArrowUp,ArrowRight"":11,""ArrowDown,ArrowLeft"":8,""ArrowDown,ArrowRight"":27}","true","ArrowUp,ArrowRight","","revaluation","1","","","",""
"html-keyboard-response","280","1128261","0.0-4.0-10.0-1.0","spark_pilot_norest","8552","8","8","Male","","","","","","","null","<div style=""font-size:60px;"">+</div>","null","fixation","","","","","","","","","","","",""
"revaluation","281","1129129","0.0-4.0-10.0-0.1","spark_pilot_norest","8552","8","8","Male","","false","","","","","[866.2999999523163]","./assets/img/canyon/animals/lion.jpg","[""ArrowRight""]","second stage test","canyon","0","{""ArrowUp,ArrowLeft"":2,""ArrowUp,ArrowRight"":11,""ArrowDown,ArrowLeft"":8,""ArrowDown,ArrowRight"":27}","true","ArrowUp,ArrowRight","","revaluation","1","","","",""
"html-keyboard-response","282","1129636","0.0-4.0-10.0-1.1","spark_pilot_norest","8552","8","8","Male","","","","","","","null","<div style=""font-size:60px;"">+</div>","null","fixation","","","","","","","","","","","",""
"revaluation","283","1130529","0.0-4.0-10.0-0.2","spark_pilot_norest","8552","8","8","Male","","false","","","","","[890.5]","./assets/img/canyon/animals/lion.jpg","[""ArrowRight""]","second stage test","canyon","0","{""ArrowUp,ArrowLeft"":2,""ArrowUp,ArrowRight"":11,""ArrowDown,ArrowLeft"":8,""ArrowDown,ArrowRight"":27}","true","ArrowUp,ArrowRight","","revaluation","1","","","",""
"html-keyboard-response","284","1131033","0.0-4.0-10.0-1.2","spark_pilot_norest","8552","8","8","Male","","","","","","","null","<div style=""font-size:60px;"">+</div>","null","fixation","","","","","","","","","","","",""
"revaluation","285","1132697","0.0-4.0-10.0-0.3","spark_pilot_norest","8552","8","8","Male","","false","","","","","[1661.699999988079]","./assets/img/canyon/animals/lion.jpg","[""ArrowRight""]","second stage test","canyon","0","{""ArrowUp,ArrowLeft"":2,""ArrowUp,ArrowRight"":11,""ArrowDown,ArrowLeft"":8,""ArrowDown,ArrowRight"":27}","true","ArrowUp,ArrowRight","","revaluation","1","","","",""
"html-keyboard-response","286","1133201","0.0-4.0-10.0-1.3","spark_pilot_norest","8552","8","8","Male","","","","","","","null","<div style=""font-size:60px;"">+</div>","null","fixation","","","","","","","","","","","",""
"revaluation","287","1137329","0.0-4.0-10.0-0.4","spark_pilot_norest","8552","8","8","Male","","false","","","","","[4125.800000011921]","./assets/img/canyon/animals/giraffe.jpg","[""ArrowRight""]","second stage test","canyon","0","{""ArrowUp,ArrowLeft"":2,""ArrowUp,ArrowRight"":11,""ArrowDown,ArrowLeft"":8,""ArrowDown,ArrowRight"":27}","true","ArrowDown,ArrowRight","","revaluation","1","","","",""
"html-keyboard-response","288","1137833","0.0-4.0-10.0-1.4","spark_pilot_norest","8552","8","8","Male","","","","","","","null","<div style=""font-size:60px;"">+</div>","null","fixation","","","","","","","","","","","",""
"revaluation","289","1138585","0.0-4.0-10.0-0.5","spark_pilot_norest","8552","8","8","Male","","false","","","","","[750.0999999642372]","./assets/img/canyon/animals/giraffe.jpg","[""ArrowRight""]","second stage test","canyon","0","{""ArrowUp,ArrowLeft"":2,""ArrowUp,ArrowRight"":11,""ArrowDown,ArrowLeft"":8,""ArrowDown,ArrowRight"":27}","true","ArrowDown,ArrowRight","","revaluation","1","","","",""
"html-keyboard-response","290","1139093","0.0-4.0-10.0-1.5","spark_pilot_norest","8552","8","8","Male","","","","","","","null","<div style=""font-size:60px;"">+</div>","null","fixation","","","","","","","","","","","",""
"revaluation","291","1140226","0.0-4.0-10.0-0.6","spark_pilot_norest","8552","8","8","Male","","false","","","","","[1130.699999988079]","./assets/img/canyon/animals/giraffe.jpg","[""ArrowRight""]","second stage test","canyon","0","{""ArrowUp,ArrowLeft"":2,""ArrowUp,ArrowRight"":11,""ArrowDown,ArrowLeft"":8,""ArrowDown,ArrowRight"":27}","true","ArrowDown,ArrowRight","","revaluation","1","","","",""
"html-keyboard-response","292","1140730","0.0-4.0-10.0-1.6","spark_pilot_norest","8552","8","8","Male","","","","","","","null","<div style=""font-size:60px;"">+</div>","null","fixation","","","","","","","","","","","",""
"revaluation","293","1142385","0.0-4.0-10.0-0.7","spark_pilot_norest","8552","8","8","Male","","false","","","","","[1653.5]","./assets/img/canyon/animals/giraffe.jpg","[""ArrowRight""]","second stage test","canyon","0","{""ArrowUp,ArrowLeft"":2,""ArrowUp,ArrowRight"":11,""ArrowDown,ArrowLeft"":8,""ArrowDown,ArrowRight"":27}","true","ArrowDown,ArrowRight","","revaluation","1","","","",""
"html-keyboard-response","294","1142890","0.0-4.0-10.0-1.7","spark_pilot_norest","8552","8","8","Male","","","","","","","null","<div style=""font-size:60px;"">+</div>","null","fixation","","","","","","","","","","","",""
"learning-instructions","295","1149155","0.0-4.0-0.1-0.2","spark_pilot_norest","8552","8","8","Male","","","","","","","3547.7999999523163","<p> This time you are searching for treasure in the <b>ocean</b>.</p>","","instructions","","","","","","","","","","","",""
"learning-instructions","296","1173434","0.0-4.0-0.1-0.3","spark_pilot_norest","8552","8","8","Male","","","","","","","7027.200000047684","<p><b>New</b> animals with <b>new</b> treasure chests live here. You need to explore to discover where the animal with the best treasure chest is.</p>
                    <p> Like before, once you figure out which animal has the chest with the most treasure, you should try to get to that animal and select that chest! </p>","","instructions","","","","","","","","","","","",""
"learning-instructions","297","1196354","0.0-4.0-1.1-0.1","spark_pilot_norest","8552","8","8","Male","","","","","","","8188.900000035763","<p> Remember, when you see a picture of the place, use the up and down keys to <b>find an animal</b>.</p>
            <p> When you encounter an animal, you should use the left and right keys to <b>select a treasure chest</b>.</p>
            <p> Don't forget to look out for the robber! </p>","","instructions","","","","","","","","","","","",""
"revaluation","298","1200372","0.0-4.0-2.1-0.50","spark_pilot_norest","8552","8","8","Male","","true","","","","","[]","./assets/img/ocean/memory/25.jpg","[]","value training","ocean","-5","{""ArrowUp,ArrowLeft"":23,""ArrowUp,ArrowRight"":10,""ArrowDown,ArrowLeft"":8,""ArrowDown,ArrowRight"":30}","false","","false","original","2","0","","",""
"html-keyboard-response","299","1200877","0.0-4.0-2.1-1.50","spark_pilot_norest","8552","8","8","Male","","","","","","","null","<div style=""font-size:60px;"">+</div>","null","fixation","","","","","","","","","1","","",""
"revaluation","300","1206900","0.0-4.0-2.1-0.51","spark_pilot_norest","8552","8","8","Male","","false","","","","","[762,979.2999999523163]","./assets/img/ocean/memory/7.jpg","[""ArrowUp"",""ArrowRight""]","value training","ocean","10","{""ArrowUp,ArrowLeft"":23,""ArrowUp,ArrowRight"":10,""ArrowDown,ArrowLeft"":8,""ArrowDown,ArrowRight"":30}","false","ArrowUp,ArrowRight","false","original","2","2","","",""
"html-keyboard-response","301","1207403","0.0-4.0-2.1-1.51","spark_pilot_norest","8552","8","8","Male","","","","","","","null","<div style=""font-size:60px;"">+</div>","null","fixation","","","","","","","","","3","","",""
"revaluation","302","1213428","0.0-4.0-2.1-0.52","spark_pilot_norest","8552","8","8","Male","","false","","","","","[899,763.9000000357628]","./assets/img/ocean/memory/17.jpg","[""ArrowUp"",""ArrowLeft""]","value training","ocean","23","{""ArrowUp,ArrowLeft"":23,""ArrowUp,ArrowRight"":10,""ArrowDown,ArrowLeft"":8,""ArrowDown,ArrowRight"":30}","false","ArrowUp,ArrowLeft","false","original","2","4","","",""
"html-keyboard-response","303","1213933","0.0-4.0-2.1-1.52","spark_pilot_norest","8552","8","8","Male","","","","","","","null","<div style=""font-size:60px;"">+</div>","null","fixation","","","","","","","","","5","","",""
"revaluation","304","1219955","0.0-4.0-2.1-0.53","spark_pilot_norest","8552","8","8","Male","","false","","","","","[888.0999999642372,1489.5999999642372]","./assets/img/ocean/memory/35.jpg","[""ArrowUp"",""ArrowLeft""]","value training","ocean","23","{""ArrowUp,ArrowLeft"":23,""ArrowUp,ArrowRight"":10,""ArrowDown,ArrowLeft"":8,""ArrowDown,ArrowRight"":30}","false","ArrowUp,ArrowLeft","false","original","2","6","","",""
"html-keyboard-response","305","1220460","0.0-4.0-2.1-1.53","spark_pilot_norest","8552","8","8","Male","","","","","","","null","<div style=""font-size:60px;"">+</div>","null","fixation","","","","","","","","","7","","",""
"revaluation","306","1226486","0.0-4.0-2.1-0.54","spark_pilot_norest","8552","8","8","Male","","false","","","","","[1028.300000011921,1541.8999999761581]","./assets/img/ocean/memory/12.jpg","[""ArrowDown"",""ArrowRight""]","value training","ocean","30","{""ArrowUp,ArrowLeft"":23,""ArrowUp,ArrowRight"":10,""ArrowDown,ArrowLeft"":8,""ArrowDown,ArrowRight"":30}","true","ArrowDown,ArrowRight","false","original","2","8","","",""
"html-keyboard-response","307","1226991","0.0-4.0-2.1-1.54","spark_pilot_norest","8552","8","8","Male","","","","","","","null","<div style=""font-size:60px;"">+</div>","null","fixation","","","","","","","","","9","","",""
"revaluation","308","1233017","0.0-4.0-2.1-0.55","spark_pilot_norest","8552","8","8","Male","","false","","","","","[1817.8999999761581,1099.8999999761581]","./assets/img/ocean/memory/32.jpg","[""ArrowDown"",""ArrowLeft""]","value training","ocean","8","{""ArrowUp,ArrowLeft"":23,""ArrowUp,ArrowRight"":10,""ArrowDown,ArrowLeft"":8,""ArrowDown,ArrowRight"":30}","false","ArrowDown,ArrowLeft","false","original","2","10","","",""
"html-keyboard-response","309","1233527","0.0-4.0-2.1-1.55","spark_pilot_norest","8552","8","8","Male","","","","","","","null","<div style=""font-size:60px;"">+</div>","null","fixation","","","","","","","","","11","","",""
"revaluation","310","1239553","0.0-4.0-2.1-0.56","spark_pilot_norest","8552","8","8","Male","","false","","","","","[643.4000000357628,525]","./assets/img/ocean/memory/40.jpg","[""ArrowDown"",""ArrowLeft""]","value training","ocean","8","{""ArrowUp,ArrowLeft"":23,""ArrowUp,ArrowRight"":10,""ArrowDown,ArrowLeft"":8,""ArrowDown,ArrowRight"":30}","false","ArrowDown,ArrowLeft","false","original","2","12","","",""
"html-keyboard-response","311","1240064","0.0-4.0-2.1-1.56","spark_pilot_norest","8552","8","8","Male","","","","","","","null","<div style=""font-size:60px;"">+</div>","null","fixation","","","","","","","","","13","","",""
"revaluation","312","1246084","0.0-4.0-2.1-0.57","spark_pilot_norest","8552","8","8","Male","","false","","","","","[519.5,649.8000000119209]","./assets/img/ocean/memory/40.jpg","[""ArrowDown"",""ArrowRight""]","value training","ocean","30","{""ArrowUp,ArrowLeft"":23,""ArrowUp,ArrowRight"":10,""ArrowDown,ArrowLeft"":8,""ArrowDown,ArrowRight"":30}","true","ArrowDown,ArrowRight","false","original","2","14","","",""
"html-keyboard-response","313","1246589","0.0-4.0-2.1-1.57","spark_pilot_norest","8552","8","8","Male","","","","","","","null","<div style=""font-size:60px;"">+</div>","null","fixation","","","","","","","","","15","","",""
"revaluation","314","1252615","0.0-4.0-2.1-0.58","spark_pilot_norest","8552","8","8","Male","","false","","","","","[435.89999997615814,653.3999999761581]","./assets/img/ocean/memory/16.jpg","[""ArrowDown"",""ArrowRight""]","value training","ocean","30","{""ArrowUp,ArrowLeft"":23,""ArrowUp,ArrowRight"":10,""ArrowDown,ArrowLeft"":8,""ArrowDown,ArrowRight"":30}","true","ArrowDown,ArrowRight","false","original","2","16","","",""
"html-keyboard-response","315","1253120","0.0-4.0-2.1-1.58","spark_pilot_norest","8552","8","8","Male","","","","","","","null","<div style=""font-size:60px;"">+</div>","null","fixation","","","","","","","","","17","","",""
