"trial_type","trial_index","time_elapsed","internal_node_id","task_version","subject_id","assigned_condition","age","gender","success","timeout","failed_images","failed_audio","failed_video","browser_interaction","rt","stimulus","response","task_part","environment","score","rewardMap","correct","fullState","isCatch","condition","order","trial_num","key_press","ground_truth","bonus"
"pavlovia","0","1751","0.0-0.0","spark_pilot_norest","8687","4","19","Male","","","","","","","","","","","","","","","","","","","","","",""
"preload","1","23520","0.0-1.0","spark_pilot_norest","8687","4","19","Male","true","false","[]","[]","[]","[{""event"":""fullscreenenter"",""trial"":2,""time"":29078}]","","","","","","","","","","","","","","","",""
"fullscreen","2","30072","0.0-2.0","spark_pilot_norest","8687","4","19","Male","true","","","","","","","","","","","","","","","","","","","","",""
"audio-button-response","3","31850","0.0-3.0-0.0-0.0","spark_pilot_norest","8687","4","19","Male","","","","","","","1397","./assets/audio/audiotest/turtle.mp3","2","audio_test","","","","","","","","","","","",""
"learning-instructions","4","42404","0.0-3.0-1.0-0.0","spark_pilot_norest","8687","4","19","Male","","","","","","","3571.2999999970198","<p> Welcome! Please remember to stay in fullscreen mode and don't click away from the experiment. </p>","","instructions","","","","","","","","","","","",""
"learning-instructions","5","51864","0.0-3.0-1.0-0.1","spark_pilot_norest","8687","4","19","Male","","","","","","","1052.9000000059605","<p> Today you will be playing a game to earn treasure. </p>
            <p> At the end of the experiment, you will earn a bonus based on how much treasure you find. </p>
            <img src='./assets/img/instructions/treasure.jpg' class='instructions-image'>","","instructions","","","","","","","","","","","",""
"learning-instructions","6","64463","0.0-3.0-1.0-0.2","spark_pilot_norest","8687","4","19","Male","","","","","","","4340.0999999940395","<p> Animals have hidden treasure in treasure chests. </p>
            <p> You need to first find an animal and then choose which of their treasure chests to search. </p>
            <img src='./assets/img/space/animals/cat.jpg' class='instructions-image'>","","instructions","","","","","","","","","","","",""
"learning-instructions","7","82715","0.0-3.0-1.0-0.3","spark_pilot_norest","8687","4","19","Male","","","","","","","5104.9000000059605","<p> In each round, you will search for treasure in a different place. In the real game, there will be two rounds. </p>
            <p> You will begin with a separate, practice round where you will search for treasure in outer space. </p>
            <img src='./assets/img/space/0.jpg' class='instructions-image'>","","instructions","","","","","","","","","","","",""
"learning-instructions","8","94835","0.0-3.0-1.0-0.4","spark_pilot_norest","8687","4","19","Male","","","","","","","707.2000000029802","<p> On every turn, you will see a picture of the place that you are in, but the specific image may be different each time. </p>
            <p> For example, both of these images mean you are in outer space. </p>
            <img src='./assets/img/instructions/outerspace.jpg' class='instructions-image'>","","instructions","","","","","","","","","","","",""
"learning-instructions","9","103509","0.0-3.0-1.0-0.5","spark_pilot_norest","8687","4","19","Male","","","","","","","846.7000000029802","<p> You need to decide which direction to travel in. </p>
            <p> You can choose between going <b>up or down</b> by using the arrow keys. </p>
            <img src='./assets/img/instructions/updown.jpg' class='instructions-image'>","","instructions","","","","","","","","","","","",""
"learning-instructions","10","113300","0.0-3.0-1.0-0.6","spark_pilot_norest","8687","4","19","Male","","","","","","","980.3999999910593","<p> You will have <b>2 seconds</b> to make your choice. </p>
            <p> If you do not make a choice within 2 seconds, you will not find an animal or earn treasure. </p>
            <img src='./assets/img/instructions/2seconds.jpg' class='instructions-image'>","","instructions","","","","","","","","","","","",""
"learning-instructions","11","122028","0.0-3.0-1.0-0.7","spark_pilot_norest","8687","4","19","Male","","","","","","","1692.699999988079","<p> Let’s try practicing that now! </p>
            <p> When you see a picture of the place you are in, press the <b>up</b> key to travel up. </p>
            <img src='./assets/img/instructions/pressUp.jpg' class='instructions-image'>","","instructions","","","","","","","","","","","",""
"revaluation","12","126047","0.0-3.0-2.0-0.0","spark_pilot_norest","8687","4","19","Male","","false","","","","","[470.09999999403954]","./assets/img/space/0.jpg","[""ArrowUp""]","first stage practice","space","0","null","null","ArrowUp","false","","","","","",""
"html-keyboard-response","13","126559","0.0-3.0-2.0-1.0","spark_pilot_norest","8687","4","19","Male","","","","","","","null","<div style=""font-size:60px;"">+</div>","null","fixation","","","","","","","","","","","",""
"revaluation","14","130582","0.0-3.0-2.0-0.1","spark_pilot_norest","8687","4","19","Male","","false","","","","","[1341.4000000059605]","./assets/img/space/1.jpg","[""ArrowUp""]","first stage practice","space","0","null","null","ArrowUp","false","","","","","",""
"html-keyboard-response","15","131094","0.0-3.0-2.0-1.1","spark_pilot_norest","8687","4","19","Male","","","","","","","null","<div style=""font-size:60px;"">+</div>","null","fixation","","","","","","","","","","","",""
"revaluation","16","135111","0.0-3.0-2.0-0.2","spark_pilot_norest","8687","4","19","Male","","false","","","","","[365.79999999701977]","./assets/img/space/2.jpg","[""ArrowUp""]","first stage practice","space","0","null","null","ArrowUp","false","","","","","",""
"html-keyboard-response","17","135622","0.0-3.0-2.0-1.2","spark_pilot_norest","8687","4","19","Male","","","","","","","null","<div style=""font-size:60px;"">+</div>","null","fixation","","","","","","","","","","","",""
"learning-instructions","18","141843","0.0-3.0-3.0-0.0","spark_pilot_norest","8687","4","19","Male","","","","","","","1523.7000000029802","<p> Great job! Now try pressing the <b>down</b> key to travel down. </p>
            <img src='./assets/img/instructions/pressDown.jpg' class='instructions-image'>","","instructions","","","","","","","","","","","",""
"revaluation","19","145859","0.0-3.0-4.0-0.0","spark_pilot_norest","8687","4","19","Male","","false","","","","","[468.20000000298023]","./assets/img/space/3.jpg","[""ArrowDown""]","first stage practice","space","0","null","null","ArrowDown","false","","","","","",""
"html-keyboard-response","20","146362","0.0-3.0-4.0-1.0","spark_pilot_norest","8687","4","19","Male","","","","","","","null","<div style=""font-size:60px;"">+</div>","null","fixation","","","","","","","","","","","",""
"revaluation","21","150381","0.0-3.0-4.0-0.1","spark_pilot_norest","8687","4","19","Male","","false","","","","","[311.1000000089407]","./assets/img/space/4.jpg","[""ArrowDown""]","first stage practice","space","0","null","null","ArrowDown","false","","","","","",""
"html-keyboard-response","22","150894","0.0-3.0-4.0-1.1","spark_pilot_norest","8687","4","19","Male","","","","","","","null","<div style=""font-size:60px;"">+</div>","null","fixation","","","","","","","","","","","",""
"revaluation","23","154919","0.0-3.0-4.0-0.2","spark_pilot_norest","8687","4","19","Male","","false","","","","","[679.1000000089407]","./assets/img/space/5.jpg","[""ArrowDown""]","first stage practice","space","0","null","null","ArrowDown","false","","","","","",""
"html-keyboard-response","24","155430","0.0-3.0-4.0-1.2","spark_pilot_norest","8687","4","19","Male","","","","","","","null","<div style=""font-size:60px;"">+</div>","null","fixation","","","","","","","","","","","",""
"learning-instructions","25","166866","0.0-3.0-5.0-0.0","spark_pilot_norest","8687","4","19","Male","","","","","","","1576.7999999970198","<p> The animals don’t move, so the animal in the upper part of a place will stay in the upper part of a place, and the animal in the lower part of a place will stay in the lower part of a place. </p>","","instructions","","","","","","","","","","","",""
"learning-instructions","26","176907","0.0-3.0-5.0-0.1","spark_pilot_norest","8687","4","19","Male","","","","","","","908.2999999970198","<p> Each animal has two treasure chests for you to choose from. </p>
            <p> The amount of treasure in each chest can range from <b> 0 to 40 pieces.</b></p>","","instructions","","","","","","","","","","","",""
"learning-instructions","27","189513","0.0-3.0-5.0-0.2","spark_pilot_norest","8687","4","19","Male","","","","","","","1423.2999999970198","<p> You should decide which chest to search for treasure by using the <b>left</b> and <b>right</b> arrow keys. </p>
            <p><b> Pay attention to which animal is on the screen, as the animals have different treasure chests. </b></p>
            <img src='./assets/img/instructions/leftright.jpg' class='instructions-image'>","","instructions","","","","","","","","","","","",""
"learning-instructions","28","196838","0.0-3.0-5.0-0.3","spark_pilot_norest","8687","4","19","Male","","","","","","","961.3999999910593","<p> Let’s try practicing that now. </p>
            <p> When you see an animal, choose which chest to search for treasure. </p>
            <img src='./assets/img/instructions/chooseChest.jpg' class='instructions-image'>","","instructions","","","","","","","","","","","",""
"revaluation","29","200853","0.0-3.0-6.0-0.0","spark_pilot_norest","8687","4","19","Male","","false","","","","","[710.6000000089407]","./assets/img/space/animals/rabbit.jpg","[""ArrowRight""]","second stage practice","space","23","{""ArrowUp,ArrowLeft"":3,""ArrowUp,ArrowRight"":36,""ArrowDown,ArrowLeft"":15,""ArrowDown,ArrowRight"":23}","true","ArrowDown,ArrowRight","","","","","","",""
"html-keyboard-response","30","201366","0.0-3.0-6.0-1.0","spark_pilot_norest","8687","4","19","Male","","","","","","","null","<div style=""font-size:60px;"">+</div>","null","fixation","","","","","","","","","","","",""
"revaluation","31","205391","0.0-3.0-6.0-0.1","spark_pilot_norest","8687","4","19","Male","","false","","","","","[727]","./assets/img/space/animals/cat.jpg","[""ArrowRight""]","second stage practice","space","36","{""ArrowUp,ArrowLeft"":3,""ArrowUp,ArrowRight"":36,""ArrowDown,ArrowLeft"":15,""ArrowDown,ArrowRight"":23}","true","ArrowUp,ArrowRight","","","","","","",""
"html-keyboard-response","32","205900","0.0-3.0-6.0-1.1","spark_pilot_norest","8687","4","19","Male","","","","","","","null","<div style=""font-size:60px;"">+</div>","null","fixation","","","","","","","","","","","",""
"revaluation","33","209919","0.0-3.0-6.0-0.2","spark_pilot_norest","8687","4","19","Male","","false","","","","","[558.9000000059605]","./assets/img/space/animals/cat.jpg","[""ArrowLeft""]","second stage practice","space","3","{""ArrowUp,ArrowLeft"":3,""ArrowUp,ArrowRight"":36,""ArrowDown,ArrowLeft"":15,""ArrowDown,ArrowRight"":23}","false","ArrowUp,ArrowLeft","","","","","","",""
"html-keyboard-response","34","210429","0.0-3.0-6.0-1.2","spark_pilot_norest","8687","4","19","Male","","","","","","","null","<div style=""font-size:60px;"">+</div>","null","fixation","","","","","","","","","","","",""
"revaluation","35","214443","0.0-3.0-6.0-0.3","spark_pilot_norest","8687","4","19","Male","","false","","","","","[439]","./assets/img/space/animals/rabbit.jpg","[""ArrowLeft""]","second stage practice","space","15","{""ArrowUp,ArrowLeft"":3,""ArrowUp,ArrowRight"":36,""ArrowDown,ArrowLeft"":15,""ArrowDown,ArrowRight"":23}","false","ArrowDown,ArrowLeft","","","","","","",""
"html-keyboard-response","36","214945","0.0-3.0-6.0-1.3","spark_pilot_norest","8687","4","19","Male","","","","","","","null","<div style=""font-size:60px;"">+</div>","null","fixation","","","","","","","","","","","",""
"learning-instructions","37","233971","0.0-3.0-7.0-0.0","spark_pilot_norest","8687","4","19","Male","","","","","","","2212.699999988079","<p> Great job. Now let’s try putting it together. </p>
            <p> On each turn, you will first see a picture to remind you of the place you are in, and you need to choose whether to go up or down. </p>
            <p> Then you will see an animal and choose which of its chests to search for treasure. </p>","","instructions","","","","","","","","","","","",""
"learning-instructions","38","242949","0.0-3.0-7.0-0.1","spark_pilot_norest","8687","4","19","Male","","","","","","","721.7999999970198","<p> When you choose whether to go up or down, try to go to the animal with the chest with the most treasure. </p>
            <p> Try practicing that now! </p>","","instructions","","","","","","","","","","","",""
"revaluation","39","248971","0.0-3.0-8.0-0.0","spark_pilot_norest","8687","4","19","Male","","false","","","","","[951.8999999910593,744.8999999910593]","./assets/img/space/6.jpg","[""ArrowUp"",""ArrowRight""]","full practice","space","36","{""ArrowUp,ArrowLeft"":3,""ArrowUp,ArrowRight"":36,""ArrowDown,ArrowLeft"":15,""ArrowDown,ArrowRight"":23}","true","ArrowUp,ArrowRight","false","","","","","",""
"html-keyboard-response","40","249477","0.0-3.0-8.0-1.0","spark_pilot_norest","8687","4","19","Male","","","","","","","null","<div style=""font-size:60px;"">+</div>","null","fixation","","","","","","","","","","","",""
"revaluation","41","255509","0.0-3.0-8.0-0.1","spark_pilot_norest","8687","4","19","Male","","false","","","","","[518.4000000059605,520.8999999910593]","./assets/img/space/7.jpg","[""ArrowUp"",""ArrowRight""]","full practice","space","36","{""ArrowUp,ArrowLeft"":3,""ArrowUp,ArrowRight"":36,""ArrowDown,ArrowLeft"":15,""ArrowDown,ArrowRight"":23}","true","ArrowUp,ArrowRight","false","","","","","",""
"html-keyboard-response","42","256018","0.0-3.0-8.0-1.1","spark_pilot_norest","8687","4","19","Male","","","","","","","null","<div style=""font-size:60px;"">+</div>","null","fixation","","","","","","","","","","","",""
"revaluation","43","262046","0.0-3.0-8.0-0.2","spark_pilot_norest","8687","4","19","Male","","false","","","","","[407.70000000298023,586.7000000029802]","./assets/img/space/8.jpg","[""ArrowUp"",""ArrowRight""]","full practice","space","36","{""ArrowUp,ArrowLeft"":3,""ArrowUp,ArrowRight"":36,""ArrowDown,ArrowLeft"":15,""ArrowDown,ArrowRight"":23}","true","ArrowUp,ArrowRight","false","","","","","",""
"html-keyboard-response","44","262558","0.0-3.0-8.0-1.2","spark_pilot_norest","8687","4","19","Male","","","","","","","null","<div style=""font-size:60px;"">+</div>","null","fixation","","","","","","","","","","","",""
"revaluation","45","268590","0.0-3.0-8.0-0.3","spark_pilot_norest","8687","4","19","Male","","false","","","","","[344.80000001192093,409.3999999910593]","./assets/img/space/9.jpg","[""ArrowUp"",""ArrowRight""]","full practice","space","36","{""ArrowUp,ArrowLeft"":3,""ArrowUp,ArrowRight"":36,""ArrowDown,ArrowLeft"":15,""ArrowDown,ArrowRight"":23}","true","ArrowUp,ArrowRight","false","","","","","",""
"html-keyboard-response","46","269101","0.0-3.0-8.0-1.3","spark_pilot_norest","8687","4","19","Male","","","","","","","null","<div style=""font-size:60px;"">+</div>","null","fixation","","","","","","","","","","","",""
"revaluation","47","275129","0.0-3.0-8.0-0.4","spark_pilot_norest","8687","4","19","Male","","false","","","","","[427.80000001192093,331.90000000596046]","./assets/img/space/10.jpg","[""ArrowUp"",""ArrowRight""]","full practice","space","36","{""ArrowUp,ArrowLeft"":3,""ArrowUp,ArrowRight"":36,""ArrowDown,ArrowLeft"":15,""ArrowDown,ArrowRight"":23}","true","ArrowUp,ArrowRight","false","","","","","",""
"html-keyboard-response","48","275635","0.0-3.0-8.0-1.4","spark_pilot_norest","8687","4","19","Male","","","","","","","null","<div style=""font-size:60px;"">+</div>","null","fixation","","","","","","","","","","","",""
"learning-instructions","49","287814","0.0-3.0-9.0-0.0","spark_pilot_norest","8687","4","19","Male","","","","","","","1674.9000000059605","<p> One last thing: sometimes, you will see a robber. The robber can be anywhere in the picture. </p>
            <p> If you do not stop them, you will lose treasure. </p>
            <img src='./assets/img/instructions/robber.jpg' class='instructions-image'>","","instructions","","","","","","","","","","","",""
"learning-instructions","50","296610","0.0-3.0-9.0-0.1","spark_pilot_norest","8687","4","19","Male","","","","","","","1640.4000000059605","<p> If you see the robber, you should <b>press the space bar</b> rather than using the arrow keys. </p>
            <p> Try practicing that now! </p>","","instructions","","","","","","","","","","","",""
"revaluation","51","300630","0.0-3.0-10.0-0.0","spark_pilot_norest","8687","4","19","Male","","false","","","","","[619.5999999940395]","./assets/img/space/catch/0.jpg","[""spaceBar""]","catch practice","space","0","{""ArrowUp,ArrowLeft"":3,""ArrowUp,ArrowRight"":36,""ArrowDown,ArrowLeft"":15,""ArrowDown,ArrowRight"":23}","true","spaceBar","true","","","","","",""
"html-keyboard-response","52","301137","0.0-3.0-10.0-1.0","spark_pilot_norest","8687","4","19","Male","","","","","","","null","<div style=""font-size:60px;"">+</div>","null","fixation","","","","","","","","","","","",""
"revaluation","53","305155","0.0-3.0-10.0-0.1","spark_pilot_norest","8687","4","19","Male","","false","","","","","[468.90000000596046]","./assets/img/space/catch/1.jpg","[""spaceBar""]","catch practice","space","0","{""ArrowUp,ArrowLeft"":3,""ArrowUp,ArrowRight"":36,""ArrowDown,ArrowLeft"":15,""ArrowDown,ArrowRight"":23}","true","spaceBar","true","","","","","",""
"html-keyboard-response","54","305669","0.0-3.0-10.0-1.1","spark_pilot_norest","8687","4","19","Male","","","","","","","null","<div style=""font-size:60px;"">+</div>","null","fixation","","","","","","","","","","","",""
"revaluation","55","309690","0.0-3.0-10.0-0.2","spark_pilot_norest","8687","4","19","Male","","false","","","","","[477.29999999701977]","./assets/img/space/catch/2.jpg","[""spaceBar""]","catch practice","space","0","{""ArrowUp,ArrowLeft"":3,""ArrowUp,ArrowRight"":36,""ArrowDown,ArrowLeft"":15,""ArrowDown,ArrowRight"":23}","true","spaceBar","true","","","","","",""
"html-keyboard-response","56","310197","0.0-3.0-10.0-1.2","spark_pilot_norest","8687","4","19","Male","","","","","","","null","<div style=""font-size:60px;"">+</div>","null","fixation","","","","","","","","","","","",""
"learning-instructions","57","317024","0.0-3.0-11.0-0.0-0.0","spark_pilot_norest","8687","4","19","Male","","","","","","","1568.9000000059605","<p> Now, you will practice a shortened version of the game to get a sense of how it all fits together. </p>","","instructions","","","","","","","","","","","",""
"learning-instructions","58","321643","0.0-3.0-11.0-0.0-0.1","spark_pilot_norest","8687","4","19","Male","","","","","","","1430.2999999970198","<p>This time you are searching for treasure in outer space.</p>","","instructions","","","","","","","","","","","",""
"learning-instructions","59","337502","0.0-3.0-11.0-1.0-0.0","spark_pilot_norest","8687","4","19","Male","","","","","","","1091.5999999940395","<p> Remember, when you see a picture of the place, use the up and down keys to <b>find an animal</b>.</p>
            <p> When you encounter an animal, you should use the left and right keys to <b>select a treasure chest</b>.</p>
            <p> Don't forget to look out for the robber! </p>","","instructions","","","","","","","","","","","",""
"revaluation","60","343533","0.0-3.0-11.0-2.0-0.0","spark_pilot_norest","8687","4","19","Male","","false","","","","","[871.9000000059605,314.8999999910593]","./assets/img/space/11.jpg","[""ArrowUp"",""ArrowRight""]","practice block","space","36","{""ArrowUp,ArrowLeft"":3,""ArrowUp,ArrowRight"":36,""ArrowDown,ArrowLeft"":15,""ArrowDown,ArrowRight"":23}","true","ArrowUp,ArrowRight","false","","","","","",""
"html-keyboard-response","61","344045","0.0-3.0-11.0-2.0-1.0","spark_pilot_norest","8687","4","19","Male","","","","","","","null","<div style=""font-size:60px;"">+</div>","null","fixation","","","","","","","","","","","",""
"revaluation","62","350078","0.0-3.0-11.0-2.0-0.1","spark_pilot_norest","8687","4","19","Male","","false","","","","","[615.9000000059605,329.79999999701977]","./assets/img/space/12.jpg","[""ArrowUp"",""ArrowRight""]","practice block","space","36","{""ArrowUp,ArrowLeft"":3,""ArrowUp,ArrowRight"":36,""ArrowDown,ArrowLeft"":15,""ArrowDown,ArrowRight"":23}","true","ArrowUp,ArrowRight","false","","","","","",""
"html-keyboard-response","63","350587","0.0-3.0-11.0-2.0-1.1","spark_pilot_norest","8687","4","19","Male","","","","","","","null","<div style=""font-size:60px;"">+</div>","null","fixation","","","","","","","","","","","",""
"revaluation","64","356609","0.0-3.0-11.0-2.0-0.2","spark_pilot_norest","8687","4","19","Male","","false","","","","","[541.7000000029802,415.29999999701977]","./assets/img/space/13.jpg","[""ArrowUp"",""ArrowRight""]","practice block","space","36","{""ArrowUp,ArrowLeft"":3,""ArrowUp,ArrowRight"":36,""ArrowDown,ArrowLeft"":15,""ArrowDown,ArrowRight"":23}","true","ArrowUp,ArrowRight","false","","","","","",""
"html-keyboard-response","65","357117","0.0-3.0-11.0-2.0-1.2","spark_pilot_norest","8687","4","19","Male","","","","","","","null","<div style=""font-size:60px;"">+</div>","null","fixation","","","","","","","","","","","",""
"revaluation","66","363149","0.0-3.0-11.0-2.0-0.3","spark_pilot_norest","8687","4","19","Male","","false","","","","","[490.90000000596046,345.3999999910593]","./assets/img/space/14.jpg","[""ArrowUp"",""ArrowRight""]","practice block","space","36","{""ArrowUp,ArrowLeft"":3,""ArrowUp,ArrowRight"":36,""ArrowDown,ArrowLeft"":15,""ArrowDown,ArrowRight"":23}","true","ArrowUp,ArrowRight","false","","","","","",""
"html-keyboard-response","67","363656","0.0-3.0-11.0-2.0-1.3","spark_pilot_norest","8687","4","19","Male","","","","","","","null","<div style=""font-size:60px;"">+</div>","null","fixation","","","","","","","","","","","",""
"revaluation","68","369685","0.0-3.0-11.0-2.0-0.4","spark_pilot_norest","8687","4","19","Male","","false","","","","","[698.6000000089407,393.70000000298023]","./assets/img/space/11.jpg","[""ArrowUp"",""ArrowRight""]","practice block","space","36","{""ArrowUp,ArrowLeft"":3,""ArrowUp,ArrowRight"":36,""ArrowDown,ArrowLeft"":15,""ArrowDown,ArrowRight"":23}","true","ArrowUp,ArrowRight","false","","","","","",""
"html-keyboard-response","69","370197","0.0-3.0-11.0-2.0-1.4","spark_pilot_norest","8687","4","19","Male","","","","","","","null","<div style=""font-size:60px;"">+</div>","null","fixation","","","","","","","","","","","",""
"revaluation","70","376229","0.0-3.0-11.0-2.0-0.5","spark_pilot_norest","8687","4","19","Male","","false","","","","","[571.0999999940395,292.70000000298023]","./assets/img/space/12.jpg","[""ArrowUp"",""ArrowRight""]","practice block","space","36","{""ArrowUp,ArrowLeft"":3,""ArrowUp,ArrowRight"":36,""ArrowDown,ArrowLeft"":15,""ArrowDown,ArrowRight"":23}","true","ArrowUp,ArrowRight","false","","","","","",""
"html-keyboard-response","71","376741","0.0-3.0-11.0-2.0-1.5","spark_pilot_norest","8687","4","19","Male","","","","","","","null","<div style=""font-size:60px;"">+</div>","null","fixation","","","","","","","","","","","",""
"revaluation","72","382773","0.0-3.0-11.0-2.0-0.6","spark_pilot_norest","8687","4","19","Male","","false","","","","","[646.1999999880791,383]","./assets/img/space/13.jpg","[""ArrowUp"",""ArrowRight""]","practice block","space","36","{""ArrowUp,ArrowLeft"":3,""ArrowUp,ArrowRight"":36,""ArrowDown,ArrowLeft"":15,""ArrowDown,ArrowRight"":23}","true","ArrowUp,ArrowRight","false","","","","","",""
"html-keyboard-response","73","383285","0.0-3.0-11.0-2.0-1.6","spark_pilot_norest","8687","4","19","Male","","","","","","","null","<div style=""font-size:60px;"">+</div>","null","fixation","","","","","","","","","","","",""
"revaluation","74","389317","0.0-3.0-11.0-2.0-0.7","spark_pilot_norest","8687","4","19","Male","","false","","","","","[463.90000000596046,297.70000000298023]","./assets/img/space/14.jpg","[""ArrowUp"",""ArrowRight""]","practice block","space","36","{""ArrowUp,ArrowLeft"":3,""ArrowUp,ArrowRight"":36,""ArrowDown,ArrowLeft"":15,""ArrowDown,ArrowRight"":23}","true","ArrowUp,ArrowRight","false","","","","","",""
"html-keyboard-response","75","389829","0.0-3.0-11.0-2.0-1.7","spark_pilot_norest","8687","4","19","Male","","","","","","","null","<div style=""font-size:60px;"">+</div>","null","fixation","","","","","","","","","","","",""
"revaluation","76","393850","0.0-3.0-11.0-2.0-0.8","spark_pilot_norest","8687","4","19","Male","","false","","","","","[604.6999999880791]","./assets/img/space/catch/3.jpg","[""spaceBar""]","practice block","space","0","{""ArrowUp,ArrowLeft"":3,""ArrowUp,ArrowRight"":36,""ArrowDown,ArrowLeft"":15,""ArrowDown,ArrowRight"":23}","true","spaceBar","true","","","","","",""
"html-keyboard-response","77","394362","0.0-3.0-11.0-2.0-1.8","spark_pilot_norest","8687","4","19","Male","","","","","","","null","<div style=""font-size:60px;"">+</div>","null","fixation","","","","","","","","","","","",""
"learning-instructions","78","409647","0.0-3.0-11.0-3.0-0.0","spark_pilot_norest","8687","4","19","Male","","","","","","","2008.2000000029802","<p> Now, you will travel with a friend who will choose whether you go up or down first. </p>
            <p> On these turns, you will just see the animal that they found. You will still get to choose which chest to search for treasure.</p>","","instructions","","","","","","","","","","","",""
"revaluation","79","413669","0.0-3.0-11.0-4.0-0.0","spark_pilot_norest","8687","4","19","Male","","false","","","","","[988.5]","./assets/img/space/animals/cat.jpg","[""ArrowRight""]","practice block","space","36","{""ArrowUp,ArrowLeft"":3,""ArrowUp,ArrowRight"":36,""ArrowDown,ArrowLeft"":15,""ArrowDown,ArrowRight"":23}","true","ArrowUp,ArrowRight","","","","","","",""
"html-keyboard-response","80","414180","0.0-3.0-11.0-4.0-1.0","spark_pilot_norest","8687","4","19","Male","","","","","","","null","<div style=""font-size:60px;"">+</div>","null","fixation","","","","","","","","","","","",""
"revaluation","81","418201","0.0-3.0-11.0-4.0-0.1","spark_pilot_norest","8687","4","19","Male","","false","","","","","[572.2999999970198]","./assets/img/space/animals/rabbit.jpg","[""ArrowLeft""]","practice block","space","15","{""ArrowUp,ArrowLeft"":3,""ArrowUp,ArrowRight"":36,""ArrowDown,ArrowLeft"":15,""ArrowDown,ArrowRight"":23}","false","ArrowDown,ArrowLeft","","","","","","",""
"html-keyboard-response","82","418709","0.0-3.0-11.0-4.0-1.1","spark_pilot_norest","8687","4","19","Male","","","","","","","null","<div style=""font-size:60px;"">+</div>","null","fixation","","","","","","","","","","","",""
"revaluation","83","422733","0.0-3.0-11.0-4.0-0.2","spark_pilot_norest","8687","4","19","Male","","false","","","","","[606]","./assets/img/space/animals/cat.jpg","[""ArrowRight""]","practice block","space","36","{""ArrowUp,ArrowLeft"":3,""ArrowUp,ArrowRight"":36,""ArrowDown,ArrowLeft"":15,""ArrowDown,ArrowRight"":23}","true","ArrowUp,ArrowRight","","","","","","",""
"html-keyboard-response","84","423245","0.0-3.0-11.0-4.0-1.2","spark_pilot_norest","8687","4","19","Male","","","","","","","null","<div style=""font-size:60px;"">+</div>","null","fixation","","","","","","","","","","","",""
"revaluation","85","427264","0.0-3.0-11.0-4.0-0.3","spark_pilot_norest","8687","4","19","Male","","false","","","","","[387.6000000089407]","./assets/img/space/animals/rabbit.jpg","[""ArrowRight""]","practice block","space","23","{""ArrowUp,ArrowLeft"":3,""ArrowUp,ArrowRight"":36,""ArrowDown,ArrowLeft"":15,""ArrowDown,ArrowRight"":23}","true","ArrowDown,ArrowRight","","","","","","",""
"html-keyboard-response","86","427772","0.0-3.0-11.0-4.0-1.3","spark_pilot_norest","8687","4","19","Male","","","","","","","null","<div style=""font-size:60px;"">+</div>","null","fixation","","","","","","","","","","","",""
"learning-instructions","87","435900","0.0-3.0-11.0-5.0-0.0","spark_pilot_norest","8687","4","19","Male","","","","","","","null","<p> You have almost finished this part of the game! </p>
            <p> We are going to ask you to make a few more choices. </p>","","instructions","","","","","","","","","","","",""
"learning-instructions","88","451913","0.0-3.0-11.0-5.0-0.1","spark_pilot_norest","8687","4","19","Male","","","","","","","null","<p> First, you need to decide whether to go up or down. When you see each picture, use the arrow keys to make your choice. </p>
            <p><b>You will not see which animal you found, but try to get to the one that will give you the most treasure.</b></p>","","instructions","","","","","","","","","","","",""
"html-keyboard-response","89","452924","0.0-3.0-11.0-6.0-0.0","spark_pilot_norest","8687","4","19","Male","","","","","","","null","<div style=""font-size:100px;color:red;"">Starting in...</div>","null","","","","","","","","","","","","",""
"html-keyboard-response","90","453932","0.0-3.0-11.0-6.0-1.0","spark_pilot_norest","8687","4","19","Male","","","","","","","null","<div style=""font-size:200px;color:red;"">3</div>","null","","","","","","","","","","","","",""
"html-keyboard-response","91","454940","0.0-3.0-11.0-6.0-2.0","spark_pilot_norest","8687","4","19","Male","","","","","","","null","<div style=""font-size:200px;color:red;"">2</div>","null","","","","","","","","","","","","",""
"html-keyboard-response","92","455946","0.0-3.0-11.0-6.0-3.0","spark_pilot_norest","8687","4","19","Male","","","","","","","null","<div style=""font-size:200px;color:red;"">1</div>","null","","","","","","","","","","","","",""
"revaluation","93","456340","0.0-3.0-11.0-7.0","spark_pilot_norest","8687","4","19","Male","","false","","","","","[388.8999999910593]","./assets/img/space/15.jpg","[""ArrowUp""]","practice block","space","0","{""ArrowUp,ArrowLeft"":3,""ArrowUp,ArrowRight"":36,""ArrowDown,ArrowLeft"":15,""ArrowDown,ArrowRight"":23}","true","ArrowUp","false","","","","","",""
"html-keyboard-response","94","456851","0.0-3.0-11.0-8.0","spark_pilot_norest","8687","4","19","Male","","","","","","","null","<div style=""font-size:60px;"">+</div>","null","fixation","","","","","","","","","","","",""
"learning-instructions","95","470236","0.0-3.0-11.0-9.0-0.0","spark_pilot_norest","8687","4","19","Male","","","","","","","null","<p> Now you will see the animals again and can search their chests for treasure. </p>
            <p> This time, you will not see how much treasure you earned, but you will earn more bonus money for making better choices. </p>","","instructions","","","","","","","","","","","",""
"html-keyboard-response","96","471244","0.0-3.0-11.0-10.0-0.0","spark_pilot_norest","8687","4","19","Male","","","","","","","null","<div style=""font-size:100px;color:red;"">Starting in...</div>","null","","","","","","","","","","","","",""
"html-keyboard-response","97","472251","0.0-3.0-11.0-10.0-1.0","spark_pilot_norest","8687","4","19","Male","","","","","","","null","<div style=""font-size:200px;color:red;"">3</div>","null","","","","","","","","","","","","",""
"html-keyboard-response","98","473259","0.0-3.0-11.0-10.0-2.0","spark_pilot_norest","8687","4","19","Male","","","","","","","null","<div style=""font-size:200px;color:red;"">2</div>","null","","","","","","","","","","","","",""
"html-keyboard-response","99","474268","0.0-3.0-11.0-10.0-3.0","spark_pilot_norest","8687","4","19","Male","","","","","","","null","<div style=""font-size:200px;color:red;"">1</div>","null","","","","","","","","","","","","",""
"revaluation","100","474661","0.0-3.0-11.0-11.0-0.0","spark_pilot_norest","8687","4","19","Male","","false","","","","","[388.79999999701977]","./assets/img/space/animals/cat.jpg","[""ArrowRight""]","practice block","space","0","{""ArrowUp,ArrowLeft"":3,""ArrowUp,ArrowRight"":36,""ArrowDown,ArrowLeft"":15,""ArrowDown,ArrowRight"":23}","true","ArrowUp,ArrowRight","","","","","","",""
"html-keyboard-response","101","475171","0.0-3.0-11.0-11.0-1.0","spark_pilot_norest","8687","4","19","Male","","","","","","","null","<div style=""font-size:60px;"">+</div>","null","fixation","","","","","","","","","","","",""
"revaluation","102","476213","0.0-3.0-11.0-11.0-0.1","spark_pilot_norest","8687","4","19","Male","","false","","","","","[1038.7000000029802]","./assets/img/space/animals/rabbit.jpg","[""ArrowLeft""]","practice block","space","0","{""ArrowUp,ArrowLeft"":3,""ArrowUp,ArrowRight"":36,""ArrowDown,ArrowLeft"":15,""ArrowDown,ArrowRight"":23}","false","ArrowDown,ArrowLeft","","","","","","",""
"html-keyboard-response","103","476724","0.0-3.0-11.0-11.0-1.1","spark_pilot_norest","8687","4","19","Male","","","","","","","null","<div style=""font-size:60px;"">+</div>","null","fixation","","","","","","","","","","","",""
"learning-instructions","104","482515","0.0-3.0-12.0-0.0","spark_pilot_norest","8687","4","19","Male","","","","","","","1218.9000000059605","<p> Before you start, we're going to ask you a few questions about how the game works. </p>","","instructions","","","","","","","","","","","",""
"comp-q","105","489538","0.0-3.0-13.0-0.0-0.0","spark_pilot_norest","8687","4","19","Male","","","","","","","1436.5","<p> <b> True or False? </b> </p>
            <p> There can be 50 pieces of treasure in a given animal's chest. </p>","1","comp_question","","","","true","","","","","","","",""
"comp-q","106","497210","0.0-3.0-13.0-0.0-1.0","spark_pilot_norest","8687","4","19","Male","","","","","","","1017.5","<p> <b> That's right! </b> The amount of treasure in each chest can range from 0 to 40 pieces. </p>","0","comp_answer","","","","","","","","","","","",""
"comp-q","107","506008","0.0-3.0-13.0-0.1-0.1","spark_pilot_norest","8687","4","19","Male","","","","","","","1681.5","<p> <b> True or False? </b> </p><p> In this game, all animals have the same amount of treasure in their left and right chests. </p>","1","comp_question","","","","true","","","","","","","",""
"comp-q","108","512658","0.0-3.0-13.0-0.1-1.1","spark_pilot_norest","8687","4","19","Male","","","","","","","1419.7000000029802","<p> <b> That's right! </b> Animals have different amounts of treasure in their treasure chests. </p>","0","comp_answer","","","","","","","","","","","",""
"comp-q","109","519259","0.0-3.0-13.0-0.2-0.2","spark_pilot_norest","8687","4","19","Male","","","","","","","756.6000000089407","<p> <b> True or False? </b> </p><p> The same animal will always be there if you go up in the same place. </p>","0","comp_question","","","","true","","","","","","","",""
"comp-q","110","527232","0.0-3.0-13.0-0.2-1.2","spark_pilot_norest","8687","4","19","Male","","","","","","","1530.2999999970198","<p> <b> That's right! </b> One animal lives in the upper part and one lives in the lower part of every place. </p>","0","comp_answer","","","","","","","","","","","",""
"comp-q","111","534043","0.0-3.0-13.0-0.3-0.3","spark_pilot_norest","8687","4","19","Male","","","","","","","1290.9000000059605","<p> <b> True or False? </b> </p><p> If you see a different picture, it means you are in a new place. </p>","1","comp_question","","","","true","","","","","","","",""
"comp-q","112","546850","0.0-3.0-13.0-0.3-1.3","spark_pilot_norest","8687","4","19","Male","","","","","","","1580.4000000059605","<p> <b> That's right! </b> Lots of different images may show the same place. For example,  you may see three different images that all remind you that you are in outer space. </p>","0","comp_answer","","","","","","","","","","","",""
"learning-instructions","113","558127","0.0-3.0-14.0-0.0","spark_pilot_norest","8687","4","19","Male","","","","","","","1428","<p> Good job. Remember to do your best because the amount of treasure you earn will be converted into bonus money. </p>
            <p> It’s time to start the real game! </p>","","instructions","","","","","","","","","","","",""
"learning-instructions","114","562017","0.0-4.0-0.0-0.0","spark_pilot_norest","8687","4","19","Male","","","","","","","1185.6000000089407","<p> This time you are searching for treasure in the <b>ocean</b>.</p>","","instructions","","","","","","","","","","","",""
"learning-instructions","115","580239","0.0-4.0-0.0-0.1","spark_pilot_norest","8687","4","19","Male","","","","","","","927.3000000119209","<p><b>New</b> animals with <b>new</b> treasure chests live here. You need to explore to discover where the animal with the best treasure chest is.</p>
                    <p> Like before, once you figure out which animal has the chest with the most treasure, you should try to get to that animal and select that chest! </p>","","instructions","","","","","","","","","","","",""
"learning-instructions","116","595768","0.0-4.0-1.0-0.0","spark_pilot_norest","8687","4","19","Male","","","","","","","797.9000000059605","<p> Remember, when you see a picture of the place, use the up and down keys to <b>find an animal</b>.</p>
            <p> When you encounter an animal, you should use the left and right keys to <b>select a treasure chest</b>.</p>
            <p> Don't forget to look out for the robber! </p>","","instructions","","","","","","","","","","","",""
"revaluation","117","599788","0.0-4.0-2.0-0.0","spark_pilot_norest","8687","4","19","Male","","false","","","","","[1009.9000000059605]","./assets/img/ocean/catch/4.jpg","[""ArrowUp""]","value training","ocean","-10","{""ArrowUp,ArrowLeft"":26,""ArrowUp,ArrowRight"":10,""ArrowDown,ArrowLeft"":5,""ArrowDown,ArrowRight"":17}","false","ArrowUp","true","revaluation","1","0","","",""
"html-keyboard-response","118","600300","0.0-4.0-2.0-1.0","spark_pilot_norest","8687","4","19","Male","","","","","","","null","<div style=""font-size:60px;"">+</div>","null","fixation","","","","","","","","","1","","",""
"revaluation","119","606332","0.0-4.0-2.0-0.1","spark_pilot_norest","8687","4","19","Male","","false","","","","","[471.29999999701977,467.8999999910593]","./assets/img/ocean/memory/17.jpg","[""ArrowUp"",""ArrowRight""]","value training","ocean","10","{""ArrowUp,ArrowLeft"":26,""ArrowUp,ArrowRight"":10,""ArrowDown,ArrowLeft"":5,""ArrowDown,ArrowRight"":17}","false","ArrowUp,ArrowRight","false","revaluation","1","2","","",""
"html-keyboard-response","120","606840","0.0-4.0-2.0-1.1","spark_pilot_norest","8687","4","19","Male","","","","","","","null","<div style=""font-size:60px;"">+</div>","null","fixation","","","","","","","","","3","","",""
"revaluation","121","610860","0.0-4.0-2.0-0.2","spark_pilot_norest","8687","4","19","Male","","false","","","","","[849.8999999910593]","./assets/img/ocean/catch/0.jpg","[""spaceBar""]","value training","ocean","0","{""ArrowUp,ArrowLeft"":26,""ArrowUp,ArrowRight"":10,""ArrowDown,ArrowLeft"":5,""ArrowDown,ArrowRight"":17}","true","spaceBar","true","revaluation","1","4","","",""
"html-keyboard-response","122","611371","0.0-4.0-2.0-1.2","spark_pilot_norest","8687","4","19","Male","","","","","","","null","<div style=""font-size:60px;"">+</div>","null","fixation","","","","","","","","","5","","",""
"revaluation","123","617404","0.0-4.0-2.0-0.3","spark_pilot_norest","8687","4","19","Male","","false","","","","","[423.09999999403954,348.90000000596046]","./assets/img/ocean/memory/12.jpg","[""ArrowUp"",""ArrowLeft""]","value training","ocean","26","{""ArrowUp,ArrowLeft"":26,""ArrowUp,ArrowRight"":10,""ArrowDown,ArrowLeft"":5,""ArrowDown,ArrowRight"":17}","true","ArrowUp,ArrowLeft","false","revaluation","1","6","","",""
"html-keyboard-response","124","617913","0.0-4.0-2.0-1.3","spark_pilot_norest","8687","4","19","Male","","","","","","","null","<div style=""font-size:60px;"">+</div>","null","fixation","","","","","","","","","7","","",""
"revaluation","125","623936","0.0-4.0-2.0-0.4","spark_pilot_norest","8687","4","19","Male","","false","","","","","[739.2000000029802,452.29999999701977]","./assets/img/ocean/memory/20.jpg","[""ArrowUp"",""ArrowLeft""]","value training","ocean","26","{""ArrowUp,ArrowLeft"":26,""ArrowUp,ArrowRight"":10,""ArrowDown,ArrowLeft"":5,""ArrowDown,ArrowRight"":17}","true","ArrowUp,ArrowLeft","false","revaluation","1","8","","",""
"html-keyboard-response","126","624440","0.0-4.0-2.0-1.4","spark_pilot_norest","8687","4","19","Male","","","","","","","null","<div style=""font-size:60px;"">+</div>","null","fixation","","","","","","","","","9","","",""
"revaluation","127","630465","0.0-4.0-2.0-0.5","spark_pilot_norest","8687","4","19","Male","","false","","","","","[440.79999999701977,442.29999999701977]","./assets/img/ocean/memory/3.jpg","[""ArrowDown"",""ArrowRight""]","value training","ocean","17","{""ArrowUp,ArrowLeft"":26,""ArrowUp,ArrowRight"":10,""ArrowDown,ArrowLeft"":5,""ArrowDown,ArrowRight"":17}","false","ArrowDown,ArrowRight","false","revaluation","1","10","","",""
"html-keyboard-response","128","630971","0.0-4.0-2.0-1.5","spark_pilot_norest","8687","4","19","Male","","","","","","","null","<div style=""font-size:60px;"">+</div>","null","fixation","","","","","","","","","11","","",""
"revaluation","129","636993","0.0-4.0-2.0-0.6","spark_pilot_norest","8687","4","19","Male","","false","","","","","[513.8999999910593,323.3999999910593]","./assets/img/ocean/memory/19.jpg","[""ArrowDown"",""ArrowLeft""]","value training","ocean","5","{""ArrowUp,ArrowLeft"":26,""ArrowUp,ArrowRight"":10,""ArrowDown,ArrowLeft"":5,""ArrowDown,ArrowRight"":17}","false","ArrowDown,ArrowLeft","false","revaluation","1","12","","",""
"html-keyboard-response","130","637504","0.0-4.0-2.0-1.6","spark_pilot_norest","8687","4","19","Male","","","","","","","null","<div style=""font-size:60px;"">+</div>","null","fixation","","","","","","","","","13","","",""
"revaluation","131","643531","0.0-4.0-2.0-0.7","spark_pilot_norest","8687","4","19","Male","","false","","","","","[477.8999999910593,340.79999999701977]","./assets/img/ocean/memory/22.jpg","[""ArrowUp"",""ArrowLeft""]","value training","ocean","26","{""ArrowUp,ArrowLeft"":26,""ArrowUp,ArrowRight"":10,""ArrowDown,ArrowLeft"":5,""ArrowDown,ArrowRight"":17}","true","ArrowUp,ArrowLeft","false","revaluation","1","14","","",""
"html-keyboard-response","132","644043","0.0-4.0-2.0-1.7","spark_pilot_norest","8687","4","19","Male","","","","","","","null","<div style=""font-size:60px;"">+</div>","null","fixation","","","","","","","","","15","","",""
"revaluation","133","650075","0.0-4.0-2.0-0.8","spark_pilot_norest","8687","4","19","Male","","false","","","","","[516.0999999940395,412.09999999403954]","./assets/img/ocean/memory/22.jpg","[""ArrowUp"",""ArrowLeft""]","value training","ocean","26","{""ArrowUp,ArrowLeft"":26,""ArrowUp,ArrowRight"":10,""ArrowDown,ArrowLeft"":5,""ArrowDown,ArrowRight"":17}","true","ArrowUp,ArrowLeft","false","revaluation","1","16","","",""
"html-keyboard-response","134","650586","0.0-4.0-2.0-1.8","spark_pilot_norest","8687","4","19","Male","","","","","","","null","<div style=""font-size:60px;"">+</div>","null","fixation","","","","","","","","","17","","",""
"revaluation","135","656619","0.0-4.0-2.0-0.9","spark_pilot_norest","8687","4","19","Male","","false","","","","","[611.4000000059605,343.70000000298023]","./assets/img/ocean/memory/24.jpg","[""ArrowUp"",""ArrowLeft""]","value training","ocean","26","{""ArrowUp,ArrowLeft"":26,""ArrowUp,ArrowRight"":10,""ArrowDown,ArrowLeft"":5,""ArrowDown,ArrowRight"":17}","true","ArrowUp,ArrowLeft","false","revaluation","1","18","","",""
"html-keyboard-response","136","657130","0.0-4.0-2.0-1.9","spark_pilot_norest","8687","4","19","Male","","","","","","","null","<div style=""font-size:60px;"">+</div>","null","fixation","","","","","","","","","19","","",""
"revaluation","137","661152","0.0-4.0-2.0-0.10","spark_pilot_norest","8687","4","19","Male","","false","","","","","[563.4000000059605]","./assets/img/ocean/catch/3.jpg","[""spaceBar""]","value training","ocean","0","{""ArrowUp,ArrowLeft"":26,""ArrowUp,ArrowRight"":10,""ArrowDown,ArrowLeft"":5,""ArrowDown,ArrowRight"":17}","true","spaceBar","true","revaluation","1","20","","",""
"html-keyboard-response","138","661658","0.0-4.0-2.0-1.10","spark_pilot_norest","8687","4","19","Male","","","","","","","null","<div style=""font-size:60px;"">+</div>","null","fixation","","","","","","","","","21","","",""
"revaluation","139","667680","0.0-4.0-2.0-0.11","spark_pilot_norest","8687","4","19","Male","","false","","","","","[751.5,425.80000001192093]","./assets/img/ocean/memory/15.jpg","[""ArrowUp"",""ArrowLeft""]","value training","ocean","26","{""ArrowUp,ArrowLeft"":26,""ArrowUp,ArrowRight"":10,""ArrowDown,ArrowLeft"":5,""ArrowDown,ArrowRight"":17}","true","ArrowUp,ArrowLeft","false","revaluation","1","22","","",""
"html-keyboard-response","140","668186","0.0-4.0-2.0-1.11","spark_pilot_norest","8687","4","19","Male","","","","","","","null","<div style=""font-size:60px;"">+</div>","null","fixation","","","","","","","","","23","","",""
"revaluation","141","674208","0.0-4.0-2.0-0.12","spark_pilot_norest","8687","4","19","Male","","false","","","","","[567.2999999970198,343.3999999910593]","./assets/img/ocean/memory/27.jpg","[""ArrowUp"",""ArrowLeft""]","value training","ocean","26","{""ArrowUp,ArrowLeft"":26,""ArrowUp,ArrowRight"":10,""ArrowDown,ArrowLeft"":5,""ArrowDown,ArrowRight"":17}","true","ArrowUp,ArrowLeft","false","revaluation","1","24","","",""
"html-keyboard-response","142","674714","0.0-4.0-2.0-1.12","spark_pilot_norest","8687","4","19","Male","","","","","","","null","<div style=""font-size:60px;"">+</div>","null","fixation","","","","","","","","","25","","",""
"revaluation","143","678731","0.0-4.0-2.0-0.13","spark_pilot_norest","8687","4","19","Male","","false","","","","","[610.7999999970198]","./assets/img/ocean/catch/7.jpg","[""spaceBar""]","value training","ocean","0","{""ArrowUp,ArrowLeft"":26,""ArrowUp,ArrowRight"":10,""ArrowDown,ArrowLeft"":5,""ArrowDown,ArrowRight"":17}","true","spaceBar","true","revaluation","1","26","","",""
"html-keyboard-response","144","679242","0.0-4.0-2.0-1.13","spark_pilot_norest","8687","4","19","Male","","","","","","","null","<div style=""font-size:60px;"">+</div>","null","fixation","","","","","","","","","27","","",""
"revaluation","145","685275","0.0-4.0-2.0-0.14","spark_pilot_norest","8687","4","19","Male","","false","","","","","[440.20000000298023,285.79999999701977]","./assets/img/ocean/memory/13.jpg","[""ArrowUp"",""ArrowLeft""]","value training","ocean","26","{""ArrowUp,ArrowLeft"":26,""ArrowUp,ArrowRight"":10,""ArrowDown,ArrowLeft"":5,""ArrowDown,ArrowRight"":17}","true","ArrowUp,ArrowLeft","false","revaluation","1","28","","",""
"html-keyboard-response","146","685786","0.0-4.0-2.0-1.14","spark_pilot_norest","8687","4","19","Male","","","","","","","null","<div style=""font-size:60px;"">+</div>","null","fixation","","","","","","","","","29","","",""
"revaluation","147","691808","0.0-4.0-2.0-0.15","spark_pilot_norest","8687","4","19","Male","","false","","","","","[571.2999999970198,266.70000000298023]","./assets/img/ocean/memory/30.jpg","[""ArrowUp"",""ArrowLeft""]","value training","ocean","26","{""ArrowUp,ArrowLeft"":26,""ArrowUp,ArrowRight"":10,""ArrowDown,ArrowLeft"":5,""ArrowDown,ArrowRight"":17}","true","ArrowUp,ArrowLeft","false","revaluation","1","30","","",""
"html-keyboard-response","148","692314","0.0-4.0-2.0-1.15","spark_pilot_norest","8687","4","19","Male","","","","","","","null","<div style=""font-size:60px;"">+</div>","null","fixation","","","","","","","","","31","","",""
"revaluation","149","698336","0.0-4.0-2.0-0.16","spark_pilot_norest","8687","4","19","Male","","false","","","","","[509.20000000298023,280.40000000596046]","./assets/img/ocean/memory/32.jpg","[""ArrowUp"",""ArrowLeft""]","value training","ocean","26","{""ArrowUp,ArrowLeft"":26,""ArrowUp,ArrowRight"":10,""ArrowDown,ArrowLeft"":5,""ArrowDown,ArrowRight"":17}","true","ArrowUp,ArrowLeft","false","revaluation","1","32","","",""
"html-keyboard-response","150","698842","0.0-4.0-2.0-1.16","spark_pilot_norest","8687","4","19","Male","","","","","","","null","<div style=""font-size:60px;"">+</div>","null","fixation","","","","","","","","","33","","",""
"revaluation","151","704863","0.0-4.0-2.0-0.17","spark_pilot_norest","8687","4","19","Male","","false","","","","","[548.4000000059605,418.19999998807907]","./assets/img/ocean/memory/40.jpg","[""ArrowUp"",""ArrowLeft""]","value training","ocean","26","{""ArrowUp,ArrowLeft"":26,""ArrowUp,ArrowRight"":10,""ArrowDown,ArrowLeft"":5,""ArrowDown,ArrowRight"":17}","true","ArrowUp,ArrowLeft","false","revaluation","1","34","","",""
"html-keyboard-response","152","705370","0.0-4.0-2.0-1.17","spark_pilot_norest","8687","4","19","Male","","","","","","","null","<div style=""font-size:60px;"">+</div>","null","fixation","","","","","","","","","35","","",""
"revaluation","153","711392","0.0-4.0-2.0-0.18","spark_pilot_norest","8687","4","19","Male","","false","","","","","[591.2999999970198,332.90000000596046]","./assets/img/ocean/memory/41.jpg","[""ArrowUp"",""ArrowLeft""]","value training","ocean","26","{""ArrowUp,ArrowLeft"":26,""ArrowUp,ArrowRight"":10,""ArrowDown,ArrowLeft"":5,""ArrowDown,ArrowRight"":17}","true","ArrowUp,ArrowLeft","false","revaluation","1","36","","",""
"html-keyboard-response","154","711898","0.0-4.0-2.0-1.18","spark_pilot_norest","8687","4","19","Male","","","","","","","null","<div style=""font-size:60px;"">+</div>","null","fixation","","","","","","","","","37","","",""
"revaluation","155","717930","0.0-4.0-2.0-0.19","spark_pilot_norest","8687","4","19","Male","","false","","","","","[534.7000000029802,288.40000000596046]","./assets/img/ocean/memory/38.jpg","[""ArrowUp"",""ArrowLeft""]","value training","ocean","26","{""ArrowUp,ArrowLeft"":26,""ArrowUp,ArrowRight"":10,""ArrowDown,ArrowLeft"":5,""ArrowDown,ArrowRight"":17}","true","ArrowUp,ArrowLeft","false","revaluation","1","38","","",""
"html-keyboard-response","156","718442","0.0-4.0-2.0-1.19","spark_pilot_norest","8687","4","19","Male","","","","","","","null","<div style=""font-size:60px;"">+</div>","null","fixation","","","","","","","","","39","","",""
"revaluation","157","724464","0.0-4.0-2.0-0.20","spark_pilot_norest","8687","4","19","Male","","false","","","","","[746.3999999910593,335.70000000298023]","./assets/img/ocean/memory/21.jpg","[""ArrowUp"",""ArrowLeft""]","value training","ocean","26","{""ArrowUp,ArrowLeft"":26,""ArrowUp,ArrowRight"":10,""ArrowDown,ArrowLeft"":5,""ArrowDown,ArrowRight"":17}","true","ArrowUp,ArrowLeft","false","revaluation","1","40","","",""
"html-keyboard-response","158","724970","0.0-4.0-2.0-1.20","spark_pilot_norest","8687","4","19","Male","","","","","","","null","<div style=""font-size:60px;"">+</div>","null","fixation","","","","","","","","","41","","",""
"revaluation","159","730991","0.0-4.0-2.0-0.21","spark_pilot_norest","8687","4","19","Male","","false","","","","","[591.2999999970198,288.8999999910593]","./assets/img/ocean/memory/26.jpg","[""ArrowUp"",""ArrowLeft""]","value training","ocean","26","{""ArrowUp,ArrowLeft"":26,""ArrowUp,ArrowRight"":10,""ArrowDown,ArrowLeft"":5,""ArrowDown,ArrowRight"":17}","true","ArrowUp,ArrowLeft","false","revaluation","1","42","","",""
"html-keyboard-response","160","731497","0.0-4.0-2.0-1.21","spark_pilot_norest","8687","4","19","Male","","","","","","","null","<div style=""font-size:60px;"">+</div>","null","fixation","","","","","","","","","43","","",""
"revaluation","161","735515","0.0-4.0-2.0-0.22","spark_pilot_norest","8687","4","19","Male","","false","","","","","[685.5999999940395]","./assets/img/ocean/catch/2.jpg","[""spaceBar""]","value training","ocean","0","{""ArrowUp,ArrowLeft"":26,""ArrowUp,ArrowRight"":10,""ArrowDown,ArrowLeft"":5,""ArrowDown,ArrowRight"":17}","true","spaceBar","true","revaluation","1","44","","",""
"html-keyboard-response","162","736026","0.0-4.0-2.0-1.22","spark_pilot_norest","8687","4","19","Male","","","","","","","null","<div style=""font-size:60px;"">+</div>","null","fixation","","","","","","","","","45","","",""
"revaluation","163","742048","0.0-4.0-2.0-0.23","spark_pilot_norest","8687","4","19","Male","","false","","","","","[485,316.19999998807907]","./assets/img/ocean/memory/21.jpg","[""ArrowUp"",""ArrowLeft""]","value training","ocean","26","{""ArrowUp,ArrowLeft"":26,""ArrowUp,ArrowRight"":10,""ArrowDown,ArrowLeft"":5,""ArrowDown,ArrowRight"":17}","true","ArrowUp,ArrowLeft","false","revaluation","1","46","","",""
"html-keyboard-response","164","742554","0.0-4.0-2.0-1.23","spark_pilot_norest","8687","4","19","Male","","","","","","","null","<div style=""font-size:60px;"">+</div>","null","fixation","","","","","","","","","47","","",""
"revaluation","165","748576","0.0-4.0-2.0-0.24","spark_pilot_norest","8687","4","19","Male","","false","","","","","[608.4000000059605,361.40000000596046]","./assets/img/ocean/memory/37.jpg","[""ArrowUp"",""ArrowLeft""]","value training","ocean","26","{""ArrowUp,ArrowLeft"":26,""ArrowUp,ArrowRight"":10,""ArrowDown,ArrowLeft"":5,""ArrowDown,ArrowRight"":17}","true","ArrowUp,ArrowLeft","false","revaluation","1","48","","",""
"html-keyboard-response","166","749082","0.0-4.0-2.0-1.24","spark_pilot_norest","8687","4","19","Male","","","","","","","null","<div style=""font-size:60px;"">+</div>","null","fixation","","","","","","","","","49","","",""
"revaluation","167","755104","0.0-4.0-2.0-0.25","spark_pilot_norest","8687","4","19","Male","","false","","","","","[696.9000000059605,297.70000000298023]","./assets/img/ocean/memory/30.jpg","[""ArrowUp"",""ArrowLeft""]","value training","ocean","26","{""ArrowUp,ArrowLeft"":26,""ArrowUp,ArrowRight"":10,""ArrowDown,ArrowLeft"":5,""ArrowDown,ArrowRight"":17}","true","ArrowUp,ArrowLeft","false","revaluation","1","50","","",""
"html-keyboard-response","168","755610","0.0-4.0-2.0-1.25","spark_pilot_norest","8687","4","19","Male","","","","","","","null","<div style=""font-size:60px;"">+</div>","null","fixation","","","","","","","","","51","","",""
"revaluation","169","761632","0.0-4.0-2.0-0.26","spark_pilot_norest","8687","4","19","Male","","false","","","","","[516.2000000029802,298.09999999403954]","./assets/img/ocean/memory/25.jpg","[""ArrowUp"",""ArrowLeft""]","value training","ocean","26","{""ArrowUp,ArrowLeft"":26,""ArrowUp,ArrowRight"":10,""ArrowDown,ArrowLeft"":5,""ArrowDown,ArrowRight"":17}","true","ArrowUp,ArrowLeft","false","revaluation","1","52","","",""
"html-keyboard-response","170","762138","0.0-4.0-2.0-1.26","spark_pilot_norest","8687","4","19","Male","","","","","","","null","<div style=""font-size:60px;"">+</div>","null","fixation","","","","","","","","","53","","",""
"revaluation","171","768160","0.0-4.0-2.0-0.27","spark_pilot_norest","8687","4","19","Male","","false","","","","","[598.5,243.20000000298023]","./assets/img/ocean/memory/27.jpg","[""ArrowUp"",""ArrowLeft""]","value training","ocean","26","{""ArrowUp,ArrowLeft"":26,""ArrowUp,ArrowRight"":10,""ArrowDown,ArrowLeft"":5,""ArrowDown,ArrowRight"":17}","true","ArrowUp,ArrowLeft","false","revaluation","1","54","","",""
"html-keyboard-response","172","768666","0.0-4.0-2.0-1.27","spark_pilot_norest","8687","4","19","Male","","","","","","","null","<div style=""font-size:60px;"">+</div>","null","fixation","","","","","","","","","55","","",""
"revaluation","173","772682","0.0-4.0-2.0-0.28","spark_pilot_norest","8687","4","19","Male","","false","","","","","[717.3999999910593]","./assets/img/ocean/catch/1.jpg","[""spaceBar""]","value training","ocean","0","{""ArrowUp,ArrowLeft"":26,""ArrowUp,ArrowRight"":10,""ArrowDown,ArrowLeft"":5,""ArrowDown,ArrowRight"":17}","true","spaceBar","true","revaluation","1","56","","",""
"html-keyboard-response","174","773194","0.0-4.0-2.0-1.28","spark_pilot_norest","8687","4","19","Male","","","","","","","null","<div style=""font-size:60px;"">+</div>","null","fixation","","","","","","","","","57","","",""
"revaluation","175","779216","0.0-4.0-2.0-0.29","spark_pilot_norest","8687","4","19","Male","","false","","","","","[491.1000000089407,301.5]","./assets/img/ocean/memory/28.jpg","[""ArrowUp"",""ArrowLeft""]","value training","ocean","26","{""ArrowUp,ArrowLeft"":26,""ArrowUp,ArrowRight"":10,""ArrowDown,ArrowLeft"":5,""ArrowDown,ArrowRight"":17}","true","ArrowUp,ArrowLeft","false","revaluation","1","58","","",""
"html-keyboard-response","176","779722","0.0-4.0-2.0-1.29","spark_pilot_norest","8687","4","19","Male","","","","","","","null","<div style=""font-size:60px;"">+</div>","null","fixation","","","","","","","","","59","","",""
"revaluation","177","785743","0.0-4.0-2.0-0.30","spark_pilot_norest","8687","4","19","Male","","false","","","","","[480.79999999701977,301.79999999701977]","./assets/img/ocean/memory/17.jpg","[""ArrowUp"",""ArrowLeft""]","value training","ocean","26","{""ArrowUp,ArrowLeft"":26,""ArrowUp,ArrowRight"":10,""ArrowDown,ArrowLeft"":5,""ArrowDown,ArrowRight"":17}","true","ArrowUp,ArrowLeft","false","revaluation","1","60","","",""
"html-keyboard-response","178","786250","0.0-4.0-2.0-1.30","spark_pilot_norest","8687","4","19","Male","","","","","","","null","<div style=""font-size:60px;"">+</div>","null","fixation","","","","","","","","","61","","",""
"revaluation","179","792282","0.0-4.0-2.0-0.31","spark_pilot_norest","8687","4","19","Male","","false","","","","","[480.29999999701977,328.59999999403954]","./assets/img/ocean/memory/32.jpg","[""ArrowUp"",""ArrowLeft""]","value training","ocean","26","{""ArrowUp,ArrowLeft"":26,""ArrowUp,ArrowRight"":10,""ArrowDown,ArrowLeft"":5,""ArrowDown,ArrowRight"":17}","true","ArrowUp,ArrowLeft","false","revaluation","1","62","","",""
"html-keyboard-response","180","792793","0.0-4.0-2.0-1.31","spark_pilot_norest","8687","4","19","Male","","","","","","","null","<div style=""font-size:60px;"">+</div>","null","fixation","","","","","","","","","63","","",""
"revaluation","181","798815","0.0-4.0-2.0-0.32","spark_pilot_norest","8687","4","19","Male","","false","","","","","[496.70000000298023,318.69999998807907]","./assets/img/ocean/memory/38.jpg","[""ArrowUp"",""ArrowLeft""]","value training","ocean","26","{""ArrowUp,ArrowLeft"":26,""ArrowUp,ArrowRight"":10,""ArrowDown,ArrowLeft"":5,""ArrowDown,ArrowRight"":17}","true","ArrowUp,ArrowLeft","false","revaluation","1","64","","",""
"html-keyboard-response","182","799321","0.0-4.0-2.0-1.32","spark_pilot_norest","8687","4","19","Male","","","","","","","null","<div style=""font-size:60px;"">+</div>","null","fixation","","","","","","","","","65","","",""
"revaluation","183","805343","0.0-4.0-2.0-0.33","spark_pilot_norest","8687","4","19","Male","","false","","","","","[558.5,448.6000000089407]","./assets/img/ocean/memory/19.jpg","[""ArrowUp"",""ArrowLeft""]","value training","ocean","26","{""ArrowUp,ArrowLeft"":26,""ArrowUp,ArrowRight"":10,""ArrowDown,ArrowLeft"":5,""ArrowDown,ArrowRight"":17}","true","ArrowUp,ArrowLeft","false","revaluation","1","66","","",""
"html-keyboard-response","184","805850","0.0-4.0-2.0-1.33","spark_pilot_norest","8687","4","19","Male","","","","","","","null","<div style=""font-size:60px;"">+</div>","null","fixation","","","","","","","","","67","","",""
"revaluation","185","811882","0.0-4.0-2.0-0.34","spark_pilot_norest","8687","4","19","Male","","false","","","","","[454,248.90000000596046]","./assets/img/ocean/memory/40.jpg","[""ArrowUp"",""ArrowLeft""]","value training","ocean","26","{""ArrowUp,ArrowLeft"":26,""ArrowUp,ArrowRight"":10,""ArrowDown,ArrowLeft"":5,""ArrowDown,ArrowRight"":17}","true","ArrowUp,ArrowLeft","false","revaluation","1","68","","",""
"html-keyboard-response","186","812393","0.0-4.0-2.0-1.34","spark_pilot_norest","8687","4","19","Male","","","","","","","null","<div style=""font-size:60px;"">+</div>","null","fixation","","","","","","","","","69","","",""
"revaluation","187","816415","0.0-4.0-2.0-0.35","spark_pilot_norest","8687","4","19","Male","","false","","","","","[557.6000000089407]","./assets/img/ocean/catch/6.jpg","[""spaceBar""]","value training","ocean","0","{""ArrowUp,ArrowLeft"":26,""ArrowUp,ArrowRight"":10,""ArrowDown,ArrowLeft"":5,""ArrowDown,ArrowRight"":17}","true","spaceBar","true","revaluation","1","70","","",""
"html-keyboard-response","188","816922","0.0-4.0-2.0-1.35","spark_pilot_norest","8687","4","19","Male","","","","","","","null","<div style=""font-size:60px;"">+</div>","null","fixation","","","","","","","","","71","","",""
"revaluation","189","822943","0.0-4.0-2.0-0.36","spark_pilot_norest","8687","4","19","Male","","false","","","","","[848.2999999970198,272.3999999910593]","./assets/img/ocean/memory/20.jpg","[""ArrowUp"",""ArrowLeft""]","value training","ocean","26","{""ArrowUp,ArrowLeft"":26,""ArrowUp,ArrowRight"":10,""ArrowDown,ArrowLeft"":5,""ArrowDown,ArrowRight"":17}","true","ArrowUp,ArrowLeft","false","revaluation","1","72","","",""
"html-keyboard-response","190","823449","0.0-4.0-2.0-1.36","spark_pilot_norest","8687","4","19","Male","","","","","","","null","<div style=""font-size:60px;"">+</div>","null","fixation","","","","","","","","","73","","",""
"revaluation","191","829471","0.0-4.0-2.0-0.37","spark_pilot_norest","8687","4","19","Male","","false","","","","","[678.4000000059605,392.70000000298023]","./assets/img/ocean/memory/3.jpg","[""ArrowUp"",""ArrowLeft""]","value training","ocean","26","{""ArrowUp,ArrowLeft"":26,""ArrowUp,ArrowRight"":10,""ArrowDown,ArrowLeft"":5,""ArrowDown,ArrowRight"":17}","true","ArrowUp,ArrowLeft","false","revaluation","1","74","","",""
"html-keyboard-response","192","829977","0.0-4.0-2.0-1.37","spark_pilot_norest","8687","4","19","Male","","","","","","","null","<div style=""font-size:60px;"">+</div>","null","fixation","","","","","","","","","75","","",""
"revaluation","193","836010","0.0-4.0-2.0-0.38","spark_pilot_norest","8687","4","19","Male","","false","","","","","[556.3999999910593,363.30000001192093]","./assets/img/ocean/memory/15.jpg","[""ArrowUp"",""ArrowLeft""]","value training","ocean","26","{""ArrowUp,ArrowLeft"":26,""ArrowUp,ArrowRight"":10,""ArrowDown,ArrowLeft"":5,""ArrowDown,ArrowRight"":17}","true","ArrowUp,ArrowLeft","false","revaluation","1","76","","",""
"html-keyboard-response","194","836521","0.0-4.0-2.0-1.38","spark_pilot_norest","8687","4","19","Male","","","","","","","null","<div style=""font-size:60px;"">+</div>","null","fixation","","","","","","","","","77","","",""
"revaluation","195","842543","0.0-4.0-2.0-0.39","spark_pilot_norest","8687","4","19","Male","","false","","","","","[498.90000000596046,245.1000000089407]","./assets/img/ocean/memory/28.jpg","[""ArrowUp"",""ArrowLeft""]","value training","ocean","26","{""ArrowUp,ArrowLeft"":26,""ArrowUp,ArrowRight"":10,""ArrowDown,ArrowLeft"":5,""ArrowDown,ArrowRight"":17}","true","ArrowUp,ArrowLeft","false","revaluation","1","78","","",""
"html-keyboard-response","196","843049","0.0-4.0-2.0-1.39","spark_pilot_norest","8687","4","19","Male","","","","","","","null","<div style=""font-size:60px;"">+</div>","null","fixation","","","","","","","","","79","","",""
"revaluation","197","849071","0.0-4.0-2.0-0.40","spark_pilot_norest","8687","4","19","Male","","false","","","","","[551.6000000089407,300.29999999701977]","./assets/img/ocean/memory/26.jpg","[""ArrowUp"",""ArrowLeft""]","value training","ocean","26","{""ArrowUp,ArrowLeft"":26,""ArrowUp,ArrowRight"":10,""ArrowDown,ArrowLeft"":5,""ArrowDown,ArrowRight"":17}","true","ArrowUp,ArrowLeft","false","revaluation","1","80","","",""
"html-keyboard-response","198","849577","0.0-4.0-2.0-1.40","spark_pilot_norest","8687","4","19","Male","","","","","","","null","<div style=""font-size:60px;"">+</div>","null","fixation","","","","","","","","","81","","",""
"revaluation","199","855599","0.0-4.0-2.0-0.41","spark_pilot_norest","8687","4","19","Male","","false","","","","","[512.5,303.5]","./assets/img/ocean/memory/37.jpg","[""ArrowUp"",""ArrowLeft""]","value training","ocean","26","{""ArrowUp,ArrowLeft"":26,""ArrowUp,ArrowRight"":10,""ArrowDown,ArrowLeft"":5,""ArrowDown,ArrowRight"":17}","true","ArrowUp,ArrowLeft","false","revaluation","1","82","","",""
"html-keyboard-response","200","856105","0.0-4.0-2.0-1.41","spark_pilot_norest","8687","4","19","Male","","","","","","","null","<div style=""font-size:60px;"">+</div>","null","fixation","","","","","","","","","83","","",""
"revaluation","201","862137","0.0-4.0-2.0-0.42","spark_pilot_norest","8687","4","19","Male","","false","","","","","[569,291.69999998807907]","./assets/img/ocean/memory/18.jpg","[""ArrowUp"",""ArrowLeft""]","value training","ocean","26","{""ArrowUp,ArrowLeft"":26,""ArrowUp,ArrowRight"":10,""ArrowDown,ArrowLeft"":5,""ArrowDown,ArrowRight"":17}","true","ArrowUp,ArrowLeft","false","revaluation","1","84","","",""
"html-keyboard-response","202","862649","0.0-4.0-2.0-1.42","spark_pilot_norest","8687","4","19","Male","","","","","","","null","<div style=""font-size:60px;"">+</div>","null","fixation","","","","","","","","","85","","",""
"revaluation","203","868670","0.0-4.0-2.0-0.43","spark_pilot_norest","8687","4","19","Male","","false","","","","","[868.9000000059605,533.1999999880791]","./assets/img/ocean/memory/25.jpg","[""ArrowUp"",""ArrowLeft""]","value training","ocean","26","{""ArrowUp,ArrowLeft"":26,""ArrowUp,ArrowRight"":10,""ArrowDown,ArrowLeft"":5,""ArrowDown,ArrowRight"":17}","true","ArrowUp,ArrowLeft","false","revaluation","1","86","","",""
"html-keyboard-response","204","869177","0.0-4.0-2.0-1.43","spark_pilot_norest","8687","4","19","Male","","","","","","","null","<div style=""font-size:60px;"">+</div>","null","fixation","","","","","","","","","87","","",""
"revaluation","205","875199","0.0-4.0-2.0-0.44","spark_pilot_norest","8687","4","19","Male","","false","","","","","[688.1000000089407,594]","./assets/img/ocean/memory/41.jpg","[""ArrowUp"",""ArrowLeft""]","value training","ocean","26","{""ArrowUp,ArrowLeft"":26,""ArrowUp,ArrowRight"":10,""ArrowDown,ArrowLeft"":5,""ArrowDown,ArrowRight"":17}","true","ArrowUp,ArrowLeft","false","revaluation","1","88","","",""
"html-keyboard-response","206","875705","0.0-4.0-2.0-1.44","spark_pilot_norest","8687","4","19","Male","","","","","","","null","<div style=""font-size:60px;"">+</div>","null","fixation","","","","","","","","","89","","",""
"revaluation","207","879727","0.0-4.0-2.0-0.45","spark_pilot_norest","8687","4","19","Male","","false","","","","","[601.4000000059605]","./assets/img/ocean/catch/5.jpg","[""ArrowDown""]","value training","ocean","-10","{""ArrowUp,ArrowLeft"":26,""ArrowUp,ArrowRight"":10,""ArrowDown,ArrowLeft"":5,""ArrowDown,ArrowRight"":17}","false","ArrowDown","true","revaluation","1","90","","",""
"html-keyboard-response","208","880233","0.0-4.0-2.0-1.45","spark_pilot_norest","8687","4","19","Male","","","","","","","null","<div style=""font-size:60px;"">+</div>","null","fixation","","","","","","","","","91","","",""
"revaluation","209","886255","0.0-4.0-2.0-0.46","spark_pilot_norest","8687","4","19","Male","","false","","","","","[698.7999999970198,455.70000000298023]","./assets/img/ocean/memory/24.jpg","[""ArrowDown"",""ArrowRight""]","value training","ocean","17","{""ArrowUp,ArrowLeft"":26,""ArrowUp,ArrowRight"":10,""ArrowDown,ArrowLeft"":5,""ArrowDown,ArrowRight"":17}","false","ArrowDown,ArrowRight","false","revaluation","1","92","","",""
"html-keyboard-response","210","886761","0.0-4.0-2.0-1.46","spark_pilot_norest","8687","4","19","Male","","","","","","","null","<div style=""font-size:60px;"">+</div>","null","fixation","","","","","","","","","93","","",""
"revaluation","211","892783","0.0-4.0-2.0-0.47","spark_pilot_norest","8687","4","19","Male","","false","","","","","[615.7000000029802,277.5]","./assets/img/ocean/memory/12.jpg","[""ArrowUp"",""ArrowLeft""]","value training","ocean","26","{""ArrowUp,ArrowLeft"":26,""ArrowUp,ArrowRight"":10,""ArrowDown,ArrowLeft"":5,""ArrowDown,ArrowRight"":17}","true","ArrowUp,ArrowLeft","false","revaluation","1","94","","",""
"html-keyboard-response","212","893289","0.0-4.0-2.0-1.47","spark_pilot_norest","8687","4","19","Male","","","","","","","null","<div style=""font-size:60px;"">+</div>","null","fixation","","","","","","","","","95","","",""
"revaluation","213","899311","0.0-4.0-2.0-0.48","spark_pilot_norest","8687","4","19","Male","","false","","","","","[551.1999999880791,349.5]","./assets/img/ocean/memory/13.jpg","[""ArrowUp"",""ArrowLeft""]","value training","ocean","26","{""ArrowUp,ArrowLeft"":26,""ArrowUp,ArrowRight"":10,""ArrowDown,ArrowLeft"":5,""ArrowDown,ArrowRight"":17}","true","ArrowUp,ArrowLeft","false","revaluation","1","96","","",""
"html-keyboard-response","214","899817","0.0-4.0-2.0-1.48","spark_pilot_norest","8687","4","19","Male","","","","","","","null","<div style=""font-size:60px;"">+</div>","null","fixation","","","","","","","","","97","","",""
"revaluation","215","905839","0.0-4.0-2.0-0.49","spark_pilot_norest","8687","4","19","Male","","false","","","","","[447.8999999910593,446.6000000089407]","./assets/img/ocean/memory/18.jpg","[""ArrowUp"",""ArrowLeft""]","value training","ocean","26","{""ArrowUp,ArrowLeft"":26,""ArrowUp,ArrowRight"":10,""ArrowDown,ArrowLeft"":5,""ArrowDown,ArrowRight"":17}","true","ArrowUp,ArrowLeft","false","revaluation","1","98","","",""
"html-keyboard-response","216","906345","0.0-4.0-2.0-1.49","spark_pilot_norest","8687","4","19","Male","","","","","","","null","<div style=""font-size:60px;"">+</div>","null","fixation","","","","","","","","","99","","",""
"learning-instructions","217","921420","0.0-4.0-3.0-0.0","spark_pilot_norest","8687","4","19","Male","","","","","","","1945.4000000059605","<p> Now, you will travel with a friend who will choose whether you go up or down first. </p>
            <p> On these turns, you will just see the animal that they found. You will still get to choose which chest to search for treasure.</p>","","instructions","","","","","","","","","","","",""
"revaluation","218","925442","0.0-4.0-4.0-0.0","spark_pilot_norest","8687","4","19","Male","","false","","","","","[747.9000000059605]","./assets/img/ocean/animals/octopus.jpg","[""ArrowLeft""]","revaluation","ocean","2","{""ArrowUp,ArrowLeft"":2,""ArrowUp,ArrowRight"":11,""ArrowDown,ArrowLeft"":8,""ArrowDown,ArrowRight"":27}","false","ArrowUp,ArrowLeft","","revaluation","1","0","","",""
"html-keyboard-response","219","925950","0.0-4.0-4.0-1.0","spark_pilot_norest","8687","4","19","Male","","","","","","","null","<div style=""font-size:60px;"">+</div>","null","fixation","","","","","","","","","1","","",""
"revaluation","220","929970","0.0-4.0-4.0-0.1","spark_pilot_norest","8687","4","19","Male","","false","","","","","[1010]","./assets/img/ocean/animals/seahorse.jpg","[""ArrowLeft""]","revaluation","ocean","8","{""ArrowUp,ArrowLeft"":2,""ArrowUp,ArrowRight"":11,""ArrowDown,ArrowLeft"":8,""ArrowDown,ArrowRight"":27}","false","ArrowDown,ArrowLeft","","revaluation","1","2","","",""
"html-keyboard-response","221","930482","0.0-4.0-4.0-1.1","spark_pilot_norest","8687","4","19","Male","","","","","","","null","<div style=""font-size:60px;"">+</div>","null","fixation","","","","","","","","","3","","",""
"revaluation","222","934506","0.0-4.0-4.0-0.2","spark_pilot_norest","8687","4","19","Male","","false","","","","","[1017.7000000029802]","./assets/img/ocean/animals/octopus.jpg","[""ArrowRight""]","revaluation","ocean","11","{""ArrowUp,ArrowLeft"":2,""ArrowUp,ArrowRight"":11,""ArrowDown,ArrowLeft"":8,""ArrowDown,ArrowRight"":27}","true","ArrowUp,ArrowRight","","revaluation","1","4","","",""
"html-keyboard-response","223","935018","0.0-4.0-4.0-1.2","spark_pilot_norest","8687","4","19","Male","","","","","","","null","<div style=""font-size:60px;"">+</div>","null","fixation","","","","","","","","","5","","",""
"revaluation","224","939042","0.0-4.0-4.0-0.3","spark_pilot_norest","8687","4","19","Male","","false","","","","","[439]","./assets/img/ocean/animals/seahorse.jpg","[""ArrowRight""]","revaluation","ocean","27","{""ArrowUp,ArrowLeft"":2,""ArrowUp,ArrowRight"":11,""ArrowDown,ArrowLeft"":8,""ArrowDown,ArrowRight"":27}","true","ArrowDown,ArrowRight","","revaluation","1","6","","",""
"html-keyboard-response","225","939549","0.0-4.0-4.0-1.3","spark_pilot_norest","8687","4","19","Male","","","","","","","null","<div style=""font-size:60px;"">+</div>","null","fixation","","","","","","","","","7","","",""
"revaluation","226","943570","0.0-4.0-4.0-0.4","spark_pilot_norest","8687","4","19","Male","","false","","","","","[652.8999999910593]","./assets/img/ocean/animals/seahorse.jpg","[""ArrowRight""]","revaluation","ocean","27","{""ArrowUp,ArrowLeft"":2,""ArrowUp,ArrowRight"":11,""ArrowDown,ArrowLeft"":8,""ArrowDown,ArrowRight"":27}","true","ArrowDown,ArrowRight","","revaluation","1","8","","",""
"html-keyboard-response","227","944078","0.0-4.0-4.0-1.4","spark_pilot_norest","8687","4","19","Male","","","","","","","null","<div style=""font-size:60px;"">+</div>","null","fixation","","","","","","","","","9","","",""
"revaluation","228","948098","0.0-4.0-4.0-0.5","spark_pilot_norest","8687","4","19","Male","","false","","","","","[463.19999998807907]","./assets/img/ocean/animals/seahorse.jpg","[""ArrowRight""]","revaluation","ocean","27","{""ArrowUp,ArrowLeft"":2,""ArrowUp,ArrowRight"":11,""ArrowDown,ArrowLeft"":8,""ArrowDown,ArrowRight"":27}","true","ArrowDown,ArrowRight","","revaluation","1","10","","",""
"html-keyboard-response","229","948609","0.0-4.0-4.0-1.5","spark_pilot_norest","8687","4","19","Male","","","","","","","null","<div style=""font-size:60px;"">+</div>","null","fixation","","","","","","","","","11","","",""
"revaluation","230","952632","0.0-4.0-4.0-0.6","spark_pilot_norest","8687","4","19","Male","","false","","","","","[510.40000000596046]","./assets/img/ocean/animals/seahorse.jpg","[""ArrowRight""]","revaluation","ocean","27","{""ArrowUp,ArrowLeft"":2,""ArrowUp,ArrowRight"":11,""ArrowDown,ArrowLeft"":8,""ArrowDown,ArrowRight"":27}","true","ArrowDown,ArrowRight","","revaluation","1","12","","",""
"html-keyboard-response","231","953144","0.0-4.0-4.0-1.6","spark_pilot_norest","8687","4","19","Male","","","","","","","null","<div style=""font-size:60px;"">+</div>","null","fixation","","","","","","","","","13","","",""
"revaluation","232","957160","0.0-4.0-4.0-0.7","spark_pilot_norest","8687","4","19","Male","","false","","","","","[525.2999999970198]","./assets/img/ocean/animals/seahorse.jpg","[""ArrowRight""]","revaluation","ocean","27","{""ArrowUp,ArrowLeft"":2,""ArrowUp,ArrowRight"":11,""ArrowDown,ArrowLeft"":8,""ArrowDown,ArrowRight"":27}","true","ArrowDown,ArrowRight","","revaluation","1","14","","",""
"html-keyboard-response","233","957672","0.0-4.0-4.0-1.7","spark_pilot_norest","8687","4","19","Male","","","","","","","null","<div style=""font-size:60px;"">+</div>","null","fixation","","","","","","","","","15","","",""
"revaluation","234","961688","0.0-4.0-4.0-0.8","spark_pilot_norest","8687","4","19","Male","","false","","","","","[522.5]","./assets/img/ocean/animals/octopus.jpg","[""ArrowRight""]","revaluation","ocean","11","{""ArrowUp,ArrowLeft"":2,""ArrowUp,ArrowRight"":11,""ArrowDown,ArrowLeft"":8,""ArrowDown,ArrowRight"":27}","true","ArrowUp,ArrowRight","","revaluation","1","16","","",""
"html-keyboard-response","235","962199","0.0-4.0-4.0-1.8","spark_pilot_norest","8687","4","19","Male","","","","","","","null","<div style=""font-size:60px;"">+</div>","null","fixation","","","","","","","","","17","","",""
"revaluation","236","966215","0.0-4.0-4.0-0.9","spark_pilot_norest","8687","4","19","Male","","false","","","","","[648.4000000059605]","./assets/img/ocean/animals/seahorse.jpg","[""ArrowRight""]","revaluation","ocean","27","{""ArrowUp,ArrowLeft"":2,""ArrowUp,ArrowRight"":11,""ArrowDown,ArrowLeft"":8,""ArrowDown,ArrowRight"":27}","true","ArrowDown,ArrowRight","","revaluation","1","18","","",""
"html-keyboard-response","237","966727","0.0-4.0-4.0-1.9","spark_pilot_norest","8687","4","19","Male","","","","","","","null","<div style=""font-size:60px;"">+</div>","null","fixation","","","","","","","","","19","","",""
"revaluation","238","970746","0.0-4.0-4.0-0.10","spark_pilot_norest","8687","4","19","Male","","false","","","","","[523]","./assets/img/ocean/animals/seahorse.jpg","[""ArrowRight""]","revaluation","ocean","27","{""ArrowUp,ArrowLeft"":2,""ArrowUp,ArrowRight"":11,""ArrowDown,ArrowLeft"":8,""ArrowDown,ArrowRight"":27}","true","ArrowDown,ArrowRight","","revaluation","1","20","","",""
"html-keyboard-response","239","971255","0.0-4.0-4.0-1.10","spark_pilot_norest","8687","4","19","Male","","","","","","","null","<div style=""font-size:60px;"">+</div>","null","fixation","","","","","","","","","21","","",""
"revaluation","240","975272","0.0-4.0-4.0-0.11","spark_pilot_norest","8687","4","19","Male","","false","","","","","[1027.2000000029802]","./assets/img/ocean/animals/octopus.jpg","[""ArrowRight""]","revaluation","ocean","11","{""ArrowUp,ArrowLeft"":2,""ArrowUp,ArrowRight"":11,""ArrowDown,ArrowLeft"":8,""ArrowDown,ArrowRight"":27}","true","ArrowUp,ArrowRight","","revaluation","1","22","","",""
"html-keyboard-response","241","975783","0.0-4.0-4.0-1.11","spark_pilot_norest","8687","4","19","Male","","","","","","","null","<div style=""font-size:60px;"">+</div>","null","fixation","","","","","","","","","23","","",""
"revaluation","242","979800","0.0-4.0-4.0-0.12","spark_pilot_norest","8687","4","19","Male","","false","","","","","[756.8999999910593]","./assets/img/ocean/animals/octopus.jpg","[""ArrowRight""]","revaluation","ocean","11","{""ArrowUp,ArrowLeft"":2,""ArrowUp,ArrowRight"":11,""ArrowDown,ArrowLeft"":8,""ArrowDown,ArrowRight"":27}","true","ArrowUp,ArrowRight","","revaluation","1","24","","",""
"html-keyboard-response","243","980311","0.0-4.0-4.0-1.12","spark_pilot_norest","8687","4","19","Male","","","","","","","null","<div style=""font-size:60px;"">+</div>","null","fixation","","","","","","","","","25","","",""
"revaluation","244","984328","0.0-4.0-4.0-0.13","spark_pilot_norest","8687","4","19","Male","","false","","","","","[556.2999999970198]","./assets/img/ocean/animals/octopus.jpg","[""ArrowRight""]","revaluation","ocean","11","{""ArrowUp,ArrowLeft"":2,""ArrowUp,ArrowRight"":11,""ArrowDown,ArrowLeft"":8,""ArrowDown,ArrowRight"":27}","true","ArrowUp,ArrowRight","","revaluation","1","26","","",""
"html-keyboard-response","245","984839","0.0-4.0-4.0-1.13","spark_pilot_norest","8687","4","19","Male","","","","","","","null","<div style=""font-size:60px;"">+</div>","null","fixation","","","","","","","","","27","","",""
"revaluation","246","988856","0.0-4.0-4.0-0.14","spark_pilot_norest","8687","4","19","Male","","false","","","","","[841.9000000059605]","./assets/img/ocean/animals/seahorse.jpg","[""ArrowRight""]","revaluation","ocean","27","{""ArrowUp,ArrowLeft"":2,""ArrowUp,ArrowRight"":11,""ArrowDown,ArrowLeft"":8,""ArrowDown,ArrowRight"":27}","true","ArrowDown,ArrowRight","","revaluation","1","28","","",""
"html-keyboard-response","247","989367","0.0-4.0-4.0-1.14","spark_pilot_norest","8687","4","19","Male","","","","","","","null","<div style=""font-size:60px;"">+</div>","null","fixation","","","","","","","","","29","","",""
"revaluation","248","993384","0.0-4.0-4.0-0.15","spark_pilot_norest","8687","4","19","Male","","false","","","","","[649.2999999970198]","./assets/img/ocean/animals/octopus.jpg","[""ArrowRight""]","revaluation","ocean","11","{""ArrowUp,ArrowLeft"":2,""ArrowUp,ArrowRight"":11,""ArrowDown,ArrowLeft"":8,""ArrowDown,ArrowRight"":27}","true","ArrowUp,ArrowRight","","revaluation","1","30","","",""
"html-keyboard-response","249","993895","0.0-4.0-4.0-1.15","spark_pilot_norest","8687","4","19","Male","","","","","","","null","<div style=""font-size:60px;"">+</div>","null","fixation","","","","","","","","","31","","",""
"revaluation","250","997912","0.0-4.0-4.0-0.16","spark_pilot_norest","8687","4","19","Male","","false","","","","","[740.2000000029802]","./assets/img/ocean/animals/octopus.jpg","[""ArrowRight""]","revaluation","ocean","11","{""ArrowUp,ArrowLeft"":2,""ArrowUp,ArrowRight"":11,""ArrowDown,ArrowLeft"":8,""ArrowDown,ArrowRight"":27}","true","ArrowUp,ArrowRight","","revaluation","1","32","","",""
"html-keyboard-response","251","998423","0.0-4.0-4.0-1.16","spark_pilot_norest","8687","4","19","Male","","","","","","","null","<div style=""font-size:60px;"">+</div>","null","fixation","","","","","","","","","33","","",""
"revaluation","252","1002440","0.0-4.0-4.0-0.17","spark_pilot_norest","8687","4","19","Male","","false","","","","","[532.9000000059605]","./assets/img/ocean/animals/octopus.jpg","[""ArrowRight""]","revaluation","ocean","11","{""ArrowUp,ArrowLeft"":2,""ArrowUp,ArrowRight"":11,""ArrowDown,ArrowLeft"":8,""ArrowDown,ArrowRight"":27}","true","ArrowUp,ArrowRight","","revaluation","1","34","","",""
"html-keyboard-response","253","1002951","0.0-4.0-4.0-1.17","spark_pilot_norest","8687","4","19","Male","","","","","","","null","<div style=""font-size:60px;"">+</div>","null","fixation","","","","","","","","","35","","",""
"learning-instructions","254","1011397","0.0-4.0-5.0-0.0","spark_pilot_norest","8687","4","19","Male","","","","","","","null","<p> You have almost finished this part of the game! </p>
            <p> We are going to ask you to make a few more choices. </p>","","instructions","","","","","","","","","","","",""
"learning-instructions","255","1027377","0.0-4.0-5.0-0.1","spark_pilot_norest","8687","4","19","Male","","","","","","","null","<p> First, you need to decide whether to go up or down. When you see each picture, use the arrow keys to make your choice. </p>
            <p><b>You will not see which animal you found, but try to get to the one that will give you the most treasure.</b></p>","","instructions","","","","","","","","","","","",""
"html-keyboard-response","256","1028383","0.0-4.0-6.0-0.0","spark_pilot_norest","8687","4","19","Male","","","","","","","null","<div style=""font-size:100px;color:red;"">Starting in...</div>","null","","","","","","","","","","","","",""
"html-keyboard-response","257","1029388","0.0-4.0-6.0-1.0","spark_pilot_norest","8687","4","19","Male","","","","","","","null","<div style=""font-size:200px;color:red;"">3</div>","null","","","","","","","","","","","","",""
"html-keyboard-response","258","1030401","0.0-4.0-6.0-2.0","spark_pilot_norest","8687","4","19","Male","","","","","","","null","<div style=""font-size:200px;color:red;"">2</div>","null","","","","","","","","","","","","",""
"html-keyboard-response","259","1031409","0.0-4.0-6.0-3.0","spark_pilot_norest","8687","4","19","Male","","","","","","","null","<div style=""font-size:200px;color:red;"">1</div>","null","","","","","","","","","","","","",""
"revaluation","260","1032030","0.0-4.0-7.0-0.0","spark_pilot_norest","8687","4","19","Male","","false","","","","","[617.5999999940395]","./assets/img/ocean/test/1.jpg","[""ArrowUp""]","first stage test","ocean","0","{""ArrowUp,ArrowLeft"":2,""ArrowUp,ArrowRight"":11,""ArrowDown,ArrowLeft"":8,""ArrowDown,ArrowRight"":27}","false","ArrowUp","false","revaluation","1","","","",""
"html-keyboard-response","261","1032533","0.0-4.0-7.0-1.0","spark_pilot_norest","8687","4","19","Male","","","","","","","null","<div style=""font-size:60px;"">+</div>","null","fixation","","","","","","","","","","","",""
"revaluation","262","1033303","0.0-4.0-7.0-0.1","spark_pilot_norest","8687","4","19","Male","","false","","","","","[766]","./assets/img/ocean/test/0.jpg","[""ArrowUp""]","first stage test","ocean","0","{""ArrowUp,ArrowLeft"":2,""ArrowUp,ArrowRight"":11,""ArrowDown,ArrowLeft"":8,""ArrowDown,ArrowRight"":27}","false","ArrowUp","false","revaluation","1","","","",""
"html-keyboard-response","263","1033809","0.0-4.0-7.0-1.1","spark_pilot_norest","8687","4","19","Male","","","","","","","null","<div style=""font-size:60px;"">+</div>","null","fixation","","","","","","","","","","","",""
"revaluation","264","1034747","0.0-4.0-7.0-0.2","spark_pilot_norest","8687","4","19","Male","","false","","","","","[933.4000000059605]","./assets/img/ocean/test/3.jpg","[""ArrowUp""]","first stage test","ocean","0","{""ArrowUp,ArrowLeft"":2,""ArrowUp,ArrowRight"":11,""ArrowDown,ArrowLeft"":8,""ArrowDown,ArrowRight"":27}","false","ArrowUp","false","revaluation","1","","","",""
"html-keyboard-response","265","1035257","0.0-4.0-7.0-1.2","spark_pilot_norest","8687","4","19","Male","","","","","","","null","<div style=""font-size:60px;"">+</div>","null","fixation","","","","","","","","","","","",""
"revaluation","266","1036216","0.0-4.0-7.0-0.3","spark_pilot_norest","8687","4","19","Male","","false","","","","","[955]","./assets/img/ocean/test/2.jpg","[""ArrowUp""]","first stage test","ocean","0","{""ArrowUp,ArrowLeft"":2,""ArrowUp,ArrowRight"":11,""ArrowDown,ArrowLeft"":8,""ArrowDown,ArrowRight"":27}","false","ArrowUp","false","revaluation","1","","","",""
"html-keyboard-response","267","1036719","0.0-4.0-7.0-1.3","spark_pilot_norest","8687","4","19","Male","","","","","","","null","<div style=""font-size:60px;"">+</div>","null","fixation","","","","","","","","","","","",""
"learning-instructions","268","1050073","0.0-4.0-8.0-0.0","spark_pilot_norest","8687","4","19","Male","","","","","","","null","<p> Now you will see the animals again and can search their chests for treasure. </p>
            <p> This time, you will not see how much treasure you earned, but you will earn more bonus money for making better choices. </p>","","instructions","","","","","","","","","","","",""
"html-keyboard-response","269","1051081","0.0-4.0-9.0-0.0","spark_pilot_norest","8687","4","19","Male","","","","","","","null","<div style=""font-size:100px;color:red;"">Starting in...</div>","null","","","","","","","","","","","","",""
"html-keyboard-response","270","1052085","0.0-4.0-9.0-1.0","spark_pilot_norest","8687","4","19","Male","","","","","","","null","<div style=""font-size:200px;color:red;"">3</div>","null","","","","","","","","","","","","",""
"html-keyboard-response","271","1053097","0.0-4.0-9.0-2.0","spark_pilot_norest","8687","4","19","Male","","","","","","","null","<div style=""font-size:200px;color:red;"">2</div>","null","","","","","","","","","","","","",""
"html-keyboard-response","272","1054105","0.0-4.0-9.0-3.0","spark_pilot_norest","8687","4","19","Male","","","","","","","null","<div style=""font-size:200px;color:red;"">1</div>","null","","","","","","","","","","","","",""
"revaluation","273","1055341","0.0-4.0-10.0-0.0","spark_pilot_norest","8687","4","19","Male","","false","","","","","[1232.2000000029802]","./assets/img/ocean/animals/octopus.jpg","[""ArrowRight""]","second stage test","ocean","0","{""ArrowUp,ArrowLeft"":2,""ArrowUp,ArrowRight"":11,""ArrowDown,ArrowLeft"":8,""ArrowDown,ArrowRight"":27}","true","ArrowUp,ArrowRight","","revaluation","1","","","",""
"html-keyboard-response","274","1055846","0.0-4.0-10.0-1.0","spark_pilot_norest","8687","4","19","Male","","","","","","","null","<div style=""font-size:60px;"">+</div>","null","fixation","","","","","","","","","","","",""
"revaluation","275","1056685","0.0-4.0-10.0-0.1","spark_pilot_norest","8687","4","19","Male","","false","","","","","[835.4000000059605]","./assets/img/ocean/animals/octopus.jpg","[""ArrowRight""]","second stage test","ocean","0","{""ArrowUp,ArrowLeft"":2,""ArrowUp,ArrowRight"":11,""ArrowDown,ArrowLeft"":8,""ArrowDown,ArrowRight"":27}","true","ArrowUp,ArrowRight","","revaluation","1","","","",""
"html-keyboard-response","276","1057193","0.0-4.0-10.0-1.1","spark_pilot_norest","8687","4","19","Male","","","","","","","null","<div style=""font-size:60px;"">+</div>","null","fixation","","","","","","","","","","","",""
"revaluation","277","1057687","0.0-4.0-10.0-0.2","spark_pilot_norest","8687","4","19","Male","","false","","","","","[490.40000000596046]","./assets/img/ocean/animals/octopus.jpg","[""ArrowRight""]","second stage test","ocean","0","{""ArrowUp,ArrowLeft"":2,""ArrowUp,ArrowRight"":11,""ArrowDown,ArrowLeft"":8,""ArrowDown,ArrowRight"":27}","true","ArrowUp,ArrowRight","","revaluation","1","","","",""
"html-keyboard-response","278","1058193","0.0-4.0-10.0-1.2","spark_pilot_norest","8687","4","19","Male","","","","","","","null","<div style=""font-size:60px;"">+</div>","null","fixation","","","","","","","","","","","",""
"revaluation","279","1058666","0.0-4.0-10.0-0.3","spark_pilot_norest","8687","4","19","Male","","false","","","","","[469.40000000596046]","./assets/img/ocean/animals/octopus.jpg","[""ArrowRight""]","second stage test","ocean","0","{""ArrowUp,ArrowLeft"":2,""ArrowUp,ArrowRight"":11,""ArrowDown,ArrowLeft"":8,""ArrowDown,ArrowRight"":27}","true","ArrowUp,ArrowRight","","revaluation","1","","","",""
"html-keyboard-response","280","1059173","0.0-4.0-10.0-1.3","spark_pilot_norest","8687","4","19","Male","","","","","","","null","<div style=""font-size:60px;"">+</div>","null","fixation","","","","","","","","","","","",""
"revaluation","281","1059714","0.0-4.0-10.0-0.4","spark_pilot_norest","8687","4","19","Male","","false","","","","","[537.7000000029802]","./assets/img/ocean/animals/seahorse.jpg","[""ArrowRight""]","second stage test","ocean","0","{""ArrowUp,ArrowLeft"":2,""ArrowUp,ArrowRight"":11,""ArrowDown,ArrowLeft"":8,""ArrowDown,ArrowRight"":27}","true","ArrowDown,ArrowRight","","revaluation","1","","","",""
"html-keyboard-response","282","1060222","0.0-4.0-10.0-1.4","spark_pilot_norest","8687","4","19","Male","","","","","","","null","<div style=""font-size:60px;"">+</div>","null","fixation","","","","","","","","","","","",""
"revaluation","283","1060592","0.0-4.0-10.0-0.5","spark_pilot_norest","8687","4","19","Male","","false","","","","","[365.79999999701977]","./assets/img/ocean/animals/seahorse.jpg","[""ArrowRight""]","second stage test","ocean","0","{""ArrowUp,ArrowLeft"":2,""ArrowUp,ArrowRight"":11,""ArrowDown,ArrowLeft"":8,""ArrowDown,ArrowRight"":27}","true","ArrowDown,ArrowRight","","revaluation","1","","","",""
"html-keyboard-response","284","1061096","0.0-4.0-10.0-1.5","spark_pilot_norest","8687","4","19","Male","","","","","","","null","<div style=""font-size:60px;"">+</div>","null","fixation","","","","","","","","","","","",""
"revaluation","285","1061485","0.0-4.0-10.0-0.6","spark_pilot_norest","8687","4","19","Male","","false","","","","","[387.90000000596046]","./assets/img/ocean/animals/seahorse.jpg","[""ArrowRight""]","second stage test","ocean","0","{""ArrowUp,ArrowLeft"":2,""ArrowUp,ArrowRight"":11,""ArrowDown,ArrowLeft"":8,""ArrowDown,ArrowRight"":27}","true","ArrowDown,ArrowRight","","revaluation","1","","","",""
"html-keyboard-response","286","1061989","0.0-4.0-10.0-1.6","spark_pilot_norest","8687","4","19","Male","","","","","","","null","<div style=""font-size:60px;"">+</div>","null","fixation","","","","","","","","","","","",""
"revaluation","287","1062374","0.0-4.0-10.0-0.7","spark_pilot_norest","8687","4","19","Male","","false","","","","","[381.5]","./assets/img/ocean/animals/seahorse.jpg","[""ArrowRight""]","second stage test","ocean","0","{""ArrowUp,ArrowLeft"":2,""ArrowUp,ArrowRight"":11,""ArrowDown,ArrowLeft"":8,""ArrowDown,ArrowRight"":27}","true","ArrowDown,ArrowRight","","revaluation","1","","","",""
"html-keyboard-response","288","1062881","0.0-4.0-10.0-1.7","spark_pilot_norest","8687","4","19","Male","","","","","","","null","<div style=""font-size:60px;"">+</div>","null","fixation","","","","","","","","","","","",""
"learning-instructions","289","1068279","0.0-4.0-0.1-0.2","spark_pilot_norest","8687","4","19","Male","","","","","","","2633.7000000029802","<p> This time you are searching for treasure in the <b>canyon</b>.</p>","","instructions","","","","","","","","","","","",""
"learning-instructions","290","1086492","0.0-4.0-0.1-0.3","spark_pilot_norest","8687","4","19","Male","","","","","","","958.9000000059605","<p><b>New</b> animals with <b>new</b> treasure chests live here. You need to explore to discover where the animal with the best treasure chest is.</p>
                    <p> Like before, once you figure out which animal has the chest with the most treasure, you should try to get to that animal and select that chest! </p>","","instructions","","","","","","","","","","","",""
"learning-instructions","291","1105706","0.0-4.0-1.1-0.1","spark_pilot_norest","8687","4","19","Male","","","","","","","4481.5","<p> Remember, when you see a picture of the place, use the up and down keys to <b>find an animal</b>.</p>
            <p> When you encounter an animal, you should use the left and right keys to <b>select a treasure chest</b>.</p>
            <p> Don't forget to look out for the robber! </p>","","instructions","","","","","","","","","","","",""
"revaluation","292","1111733","0.0-4.0-2.1-0.50","spark_pilot_norest","8687","4","19","Male","","false","","","","","[960.4000000059605,561.1000000089407]","./assets/img/canyon/memory/3.jpg","[""ArrowUp"",""ArrowRight""]","value training","canyon","10","{""ArrowUp,ArrowLeft"":23,""ArrowUp,ArrowRight"":10,""ArrowDown,ArrowLeft"":8,""ArrowDown,ArrowRight"":30}","false","ArrowUp,ArrowRight","false","original","2","0","","",""
"html-keyboard-response","293","1112236","0.0-4.0-2.1-1.50","spark_pilot_norest","8687","4","19","Male","","","","","","","null","<div style=""font-size:60px;"">+</div>","null","fixation","","","","","","","","","1","","",""
"revaluation","294","1118265","0.0-4.0-2.1-0.51","spark_pilot_norest","8687","4","19","Male","","false","","","","","[431.5,290]","./assets/img/canyon/memory/13.jpg","[""ArrowUp"",""ArrowLeft""]","value training","canyon","23","{""ArrowUp,ArrowLeft"":23,""ArrowUp,ArrowRight"":10,""ArrowDown,ArrowLeft"":8,""ArrowDown,ArrowRight"":30}","false","ArrowUp,ArrowLeft","false","original","2","2","","",""
"html-keyboard-response","295","1118772","0.0-4.0-2.1-1.51","spark_pilot_norest","8687","4","19","Male","","","","","","","null","<div style=""font-size:60px;"">+</div>","null","fixation","","","","","","","","","3","","",""
"revaluation","296","1124801","0.0-4.0-2.1-0.52","spark_pilot_norest","8687","4","19","Male","","false","","","","","[516.6999999880791,466.40000000596046]","./assets/img/canyon/memory/38.jpg","[""ArrowDown"",""ArrowRight""]","value training","canyon","30","{""ArrowUp,ArrowLeft"":23,""ArrowUp,ArrowRight"":10,""ArrowDown,ArrowLeft"":8,""ArrowDown,ArrowRight"":30}","true","ArrowDown,ArrowRight","false","original","2","4","","",""
"html-keyboard-response","297","1125309","0.0-4.0-2.1-1.52","spark_pilot_norest","8687","4","19","Male","","","","","","","null","<div style=""font-size:60px;"">+</div>","null","fixation","","","","","","","","","5","","",""
"revaluation","298","1131337","0.0-4.0-2.1-0.53","spark_pilot_norest","8687","4","19","Male","","false","","","","","[548.5999999940395,278.6000000089407]","./assets/img/canyon/memory/19.jpg","[""ArrowDown"",""ArrowLeft""]","value training","canyon","8","{""ArrowUp,ArrowLeft"":23,""ArrowUp,ArrowRight"":10,""ArrowDown,ArrowLeft"":8,""ArrowDown,ArrowRight"":30}","false","ArrowDown,ArrowLeft","false","original","2","6","","",""
"html-keyboard-response","299","1131848","0.0-4.0-2.1-1.53","spark_pilot_norest","8687","4","19","Male","","","","","","","null","<div style=""font-size:60px;"">+</div>","null","fixation","","","","","","","","","7","","",""
"revaluation","300","1137881","0.0-4.0-2.1-0.54","spark_pilot_norest","8687","4","19","Male","","false","","","","","[570.5999999940395,383.20000000298023]","./assets/img/canyon/memory/17.jpg","[""ArrowDown"",""ArrowRight""]","value training","canyon","30","{""ArrowUp,ArrowLeft"":23,""ArrowUp,ArrowRight"":10,""ArrowDown,ArrowLeft"":8,""ArrowDown,ArrowRight"":30}","true","ArrowDown,ArrowRight","false","original","2","8","","",""
"html-keyboard-response","301","1138391","0.0-4.0-2.1-1.54","spark_pilot_norest","8687","4","19","Male","","","","","","","null","<div style=""font-size:60px;"">+</div>","null","fixation","","","","","","","","","9","","",""
"revaluation","302","1144414","0.0-4.0-2.1-0.55","spark_pilot_norest","8687","4","19","Male","","false","","","","","[359.5,296.09999999403954]","./assets/img/canyon/memory/22.jpg","[""ArrowDown"",""ArrowRight""]","value training","canyon","30","{""ArrowUp,ArrowLeft"":23,""ArrowUp,ArrowRight"":10,""ArrowDown,ArrowLeft"":8,""ArrowDown,ArrowRight"":30}","true","ArrowDown,ArrowRight","false","original","2","10","","",""
"html-keyboard-response","303","1144925","0.0-4.0-2.1-1.55","spark_pilot_norest","8687","4","19","Male","","","","","","","null","<div style=""font-size:60px;"">+</div>","null","fixation","","","","","","","","","11","","",""
"revaluation","304","1150953","0.0-4.0-2.1-0.56","spark_pilot_norest","8687","4","19","Male","","false","","","","","[594.5,305.5]","./assets/img/canyon/memory/26.jpg","[""ArrowDown"",""ArrowRight""]","value training","canyon","30","{""ArrowUp,ArrowLeft"":23,""ArrowUp,ArrowRight"":10,""ArrowDown,ArrowLeft"":8,""ArrowDown,ArrowRight"":30}","true","ArrowDown,ArrowRight","false","original","2","12","","",""
"html-keyboard-response","305","1151464","0.0-4.0-2.1-1.56","spark_pilot_norest","8687","4","19","Male","","","","","","","null","<div style=""font-size:60px;"">+</div>","null","fixation","","","","","","","","","13","","",""
"revaluation","306","1157494","0.0-4.0-2.1-0.57","spark_pilot_norest","8687","4","19","Male","","false","","","","","[621.2999999970198,305.6000000089407]","./assets/img/canyon/memory/37.jpg","[""ArrowDown"",""ArrowRight""]","value training","canyon","30","{""ArrowUp,ArrowLeft"":23,""ArrowUp,ArrowRight"":10,""ArrowDown,ArrowLeft"":8,""ArrowDown,ArrowRight"":30}","true","ArrowDown,ArrowRight","false","original","2","14","","",""
"html-keyboard-response","307","1158008","0.0-4.0-2.1-1.57","spark_pilot_norest","8687","4","19","Male","","","","","","","null","<div style=""font-size:60px;"">+</div>","null","fixation","","","","","","","","","15","","",""
"revaluation","308","1164041","0.0-4.0-2.1-0.58","spark_pilot_norest","8687","4","19","Male","","false","","","","","[594.9000000059605,191]","./assets/img/canyon/memory/15.jpg","[""ArrowDown"",""ArrowRight""]","value training","canyon","30","{""ArrowUp,ArrowLeft"":23,""ArrowUp,ArrowRight"":10,""ArrowDown,ArrowLeft"":8,""ArrowDown,ArrowRight"":30}","true","ArrowDown,ArrowRight","false","original","2","16","","",""
"html-keyboard-response","309","1164552","0.0-4.0-2.1-1.58","spark_pilot_norest","8687","4","19","Male","","","","","","","null","<div style=""font-size:60px;"">+</div>","null","fixation","","","","","","","","","17","","",""
"revaluation","310","1168574","0.0-4.0-2.1-0.59","spark_pilot_norest","8687","4","19","Male","","false","","","","","[742.2000000029802]","./assets/img/canyon/catch/1.jpg","[""spaceBar""]","value training","canyon","0","{""ArrowUp,ArrowLeft"":23,""ArrowUp,ArrowRight"":10,""ArrowDown,ArrowLeft"":8,""ArrowDown,ArrowRight"":30}","true","spaceBar","true","original","2","18","","",""
"html-keyboard-response","311","1169085","0.0-4.0-2.1-1.59","spark_pilot_norest","8687","4","19","Male","","","","","","","null","<div style=""font-size:60px;"">+</div>","null","fixation","","","","","","","","","19","","",""
"revaluation","312","1175112","0.0-4.0-2.1-0.60","spark_pilot_norest","8687","4","19","Male","","false","","","","","[827.1999999880791,445.20000000298023]","./assets/img/canyon/memory/40.jpg","[""ArrowDown"",""ArrowRight""]","value training","canyon","30","{""ArrowUp,ArrowLeft"":23,""ArrowUp,ArrowRight"":10,""ArrowDown,ArrowLeft"":8,""ArrowDown,ArrowRight"":30}","true","ArrowDown,ArrowRight","false","original","2","20","","",""
