"trial_type","trial_index","time_elapsed","internal_node_id","task_version","subject_id","assigned_condition","age","gender","success","timeout","failed_images","failed_audio","failed_video","browser_interaction","rt","stimulus","response","task_part","environment","score","rewardMap","correct","fullState","isCatch","condition","order","trial_num","key_press","ground_truth","bonus"
"pavlovia","0","1368","0.0-0.0","spark_pilot_norest","8734","4","23","Female","","","","","","","","","","","","","","","","","","","","","",""
"preload","1","47620","0.0-1.0","spark_pilot_norest","8734","4","23","Female","true","false","[]","[]","[]","[{""event"":""fullscreenenter"",""trial"":2,""time"":88306}]","","","","","","","","","","","","","","","",""
"fullscreen","2","89297","0.0-2.0","spark_pilot_norest","8734","4","23","Female","true","","","","","","","","","","","","","","","","","","","","",""
"audio-button-response","3","91343","0.0-3.0-0.0-0.0","spark_pilot_norest","8734","4","23","Female","","","","","","","2011","./assets/audio/audiotest/turtle.mp3","2","audio_test","","","","","","","","","","","",""
"learning-instructions","4","106448","0.0-3.0-1.0-0.0","spark_pilot_norest","8734","4","23","Female","","","","","","","8113.700000017881","<p> Welcome! Please remember to stay in fullscreen mode and don't click away from the experiment. </p>","","instructions","","","","","","","","","","","",""
"learning-instructions","5","118621","0.0-3.0-1.0-0.1","spark_pilot_norest","8734","4","23","Female","","","","","","","3768.9000000059605","<p> Today you will be playing a game to earn treasure. </p>
            <p> At the end of the experiment, you will earn a bonus based on how much treasure you find. </p>
            <img src='./assets/img/instructions/treasure.jpg' class='instructions-image'>","","instructions","","","","","","","","","","","",""
"learning-instructions","6","127665","0.0-3.0-1.0-0.2","spark_pilot_norest","8734","4","23","Female","","","","","","","793.0999999940395","<p> Animals have hidden treasure in treasure chests. </p>
            <p> You need to first find an animal and then choose which of their treasure chests to search. </p>
            <img src='./assets/img/space/animals/cat.jpg' class='instructions-image'>","","instructions","","","","","","","","","","","",""
"learning-instructions","7","141560","0.0-3.0-1.0-0.3","spark_pilot_norest","8734","4","23","Female","","","","","","","768.5999999940395","<p> In each round, you will search for treasure in a different place. In the real game, there will be two rounds. </p>
            <p> You will begin with a separate, practice round where you will search for treasure in outer space. </p>
            <img src='./assets/img/space/0.jpg' class='instructions-image'>","","instructions","","","","","","","","","","","",""
"learning-instructions","8","153473","0.0-3.0-1.0-0.4","spark_pilot_norest","8734","4","23","Female","","","","","","","501.40000000596046","<p> On every turn, you will see a picture of the place that you are in, but the specific image may be different each time. </p>
            <p> For example, both of these images mean you are in outer space. </p>
            <img src='./assets/img/instructions/outerspace.jpg' class='instructions-image'>","","instructions","","","","","","","","","","","",""
"learning-instructions","9","162416","0.0-3.0-1.0-0.5","spark_pilot_norest","8734","4","23","Female","","","","","","","1124.4000000059605","<p> You need to decide which direction to travel in. </p>
            <p> You can choose between going <b>up or down</b> by using the arrow keys. </p>
            <img src='./assets/img/instructions/updown.jpg' class='instructions-image'>","","instructions","","","","","","","","","","","",""
"learning-instructions","10","173200","0.0-3.0-1.0-0.6","spark_pilot_norest","8734","4","23","Female","","","","","","","1979.7000000178814","<p> You will have <b>2 seconds</b> to make your choice. </p>
            <p> If you do not make a choice within 2 seconds, you will not find an animal or earn treasure. </p>
            <img src='./assets/img/instructions/2seconds.jpg' class='instructions-image'>","","instructions","","","","","","","","","","","",""
"learning-instructions","11","183260","0.0-3.0-1.0-0.7","spark_pilot_norest","8734","4","23","Female","","","","","","","3039.100000023842","<p> Let’s try practicing that now! </p>
            <p> When you see a picture of the place you are in, press the <b>up</b> key to travel up. </p>
            <img src='./assets/img/instructions/pressUp.jpg' class='instructions-image'>","","instructions","","","","","","","","","","","",""
"revaluation","12","187273","0.0-3.0-2.0-0.0","spark_pilot_norest","8734","4","23","Female","","false","","","","","[755.2000000178814]","./assets/img/space/0.jpg","[""ArrowUp""]","first stage practice","space","0","null","null","ArrowUp","false","","","","","",""
"html-keyboard-response","13","187787","0.0-3.0-2.0-1.0","spark_pilot_norest","8734","4","23","Female","","","","","","","null","<div style=""font-size:60px;"">+</div>","null","fixation","","","","","","","","","","","",""
"revaluation","14","191810","0.0-3.0-2.0-0.1","spark_pilot_norest","8734","4","23","Female","","true","","","","","[]","./assets/img/space/1.jpg","[]","first stage practice","space","-5","null","null","","false","","","","","",""
"html-keyboard-response","15","192312","0.0-3.0-2.0-1.1","spark_pilot_norest","8734","4","23","Female","","","","","","","null","<div style=""font-size:60px;"">+</div>","null","fixation","","","","","","","","","","","",""
"revaluation","16","196318","0.0-3.0-2.0-0.2","spark_pilot_norest","8734","4","23","Female","","false","","","","","[417.90000000596046]","./assets/img/space/2.jpg","[""ArrowUp""]","first stage practice","space","0","null","null","ArrowUp","false","","","","","",""
"html-keyboard-response","17","196824","0.0-3.0-2.0-1.2","spark_pilot_norest","8734","4","23","Female","","","","","","","null","<div style=""font-size:60px;"">+</div>","null","fixation","","","","","","","","","","","",""
"learning-instructions","18","201848","0.0-3.0-3.0-0.0","spark_pilot_norest","8734","4","23","Female","","","","","","","337.30000001192093","<p> Great job! Now try pressing the <b>down</b> key to travel down. </p>
            <img src='./assets/img/instructions/pressDown.jpg' class='instructions-image'>","","instructions","","","","","","","","","","","",""
"revaluation","19","205872","0.0-3.0-4.0-0.0","spark_pilot_norest","8734","4","23","Female","","false","","","","","[812.3000000119209]","./assets/img/space/3.jpg","[""ArrowDown""]","first stage practice","space","0","null","null","ArrowDown","false","","","","","",""
"html-keyboard-response","20","206384","0.0-3.0-4.0-1.0","spark_pilot_norest","8734","4","23","Female","","","","","","","null","<div style=""font-size:60px;"">+</div>","null","fixation","","","","","","","","","","","",""
"revaluation","21","210403","0.0-3.0-4.0-0.1","spark_pilot_norest","8734","4","23","Female","","false","","","","","[314.59999999403954]","./assets/img/space/4.jpg","[""ArrowDown""]","first stage practice","space","0","null","null","ArrowDown","false","","","","","",""
"html-keyboard-response","22","210914","0.0-3.0-4.0-1.1","spark_pilot_norest","8734","4","23","Female","","","","","","","null","<div style=""font-size:60px;"">+</div>","null","fixation","","","","","","","","","","","",""
"revaluation","23","214933","0.0-3.0-4.0-0.2","spark_pilot_norest","8734","4","23","Female","","false","","","","","[571.1999999880791]","./assets/img/space/5.jpg","[""ArrowDown""]","first stage practice","space","0","null","null","ArrowDown","false","","","","","",""
"html-keyboard-response","24","215435","0.0-3.0-4.0-1.2","spark_pilot_norest","8734","4","23","Female","","","","","","","null","<div style=""font-size:60px;"">+</div>","null","fixation","","","","","","","","","","","",""
"learning-instructions","25","225907","0.0-3.0-5.0-0.0","spark_pilot_norest","8734","4","23","Female","","","","","","","635.5","<p> The animals don’t move, so the animal in the upper part of a place will stay in the upper part of a place, and the animal in the lower part of a place will stay in the lower part of a place. </p>","","instructions","","","","","","","","","","","",""
"learning-instructions","26","235586","0.0-3.0-5.0-0.1","spark_pilot_norest","8734","4","23","Female","","","","","","","565.0999999940395","<p> Each animal has two treasure chests for you to choose from. </p>
            <p> The amount of treasure in each chest can range from <b> 0 to 40 pieces.</b></p>","","instructions","","","","","","","","","","","",""
"learning-instructions","27","247321","0.0-3.0-5.0-0.2","spark_pilot_norest","8734","4","23","Female","","","","","","","569.6000000238419","<p> You should decide which chest to search for treasure by using the <b>left</b> and <b>right</b> arrow keys. </p>
            <p><b> Pay attention to which animal is on the screen, as the animals have different treasure chests. </b></p>
            <img src='./assets/img/instructions/leftright.jpg' class='instructions-image'>","","instructions","","","","","","","","","","","",""
"learning-instructions","28","254526","0.0-3.0-5.0-0.3","spark_pilot_norest","8734","4","23","Female","","","","","","","854.4000000059605","<p> Let’s try practicing that now. </p>
            <p> When you see an animal, choose which chest to search for treasure. </p>
            <img src='./assets/img/instructions/chooseChest.jpg' class='instructions-image'>","","instructions","","","","","","","","","","","",""
"revaluation","29","258535","0.0-3.0-6.0-0.0","spark_pilot_norest","8734","4","23","Female","","false","","","","","[697.0999999940395]","./assets/img/space/animals/rabbit.jpg","[""ArrowLeft""]","second stage practice","space","15","{""ArrowUp,ArrowLeft"":3,""ArrowUp,ArrowRight"":36,""ArrowDown,ArrowLeft"":15,""ArrowDown,ArrowRight"":23}","false","ArrowDown,ArrowLeft","","","","","","",""
"html-keyboard-response","30","259045","0.0-3.0-6.0-1.0","spark_pilot_norest","8734","4","23","Female","","","","","","","null","<div style=""font-size:60px;"">+</div>","null","fixation","","","","","","","","","","","",""
"revaluation","31","263070","0.0-3.0-6.0-0.1","spark_pilot_norest","8734","4","23","Female","","false","","","","","[694.7000000178814]","./assets/img/space/animals/cat.jpg","[""ArrowLeft""]","second stage practice","space","3","{""ArrowUp,ArrowLeft"":3,""ArrowUp,ArrowRight"":36,""ArrowDown,ArrowLeft"":15,""ArrowDown,ArrowRight"":23}","false","ArrowUp,ArrowLeft","","","","","","",""
"html-keyboard-response","32","263583","0.0-3.0-6.0-1.1","spark_pilot_norest","8734","4","23","Female","","","","","","","null","<div style=""font-size:60px;"">+</div>","null","fixation","","","","","","","","","","","",""
"revaluation","33","267601","0.0-3.0-6.0-0.2","spark_pilot_norest","8734","4","23","Female","","false","","","","","[315.2999999821186]","./assets/img/space/animals/rabbit.jpg","[""ArrowRight""]","second stage practice","space","23","{""ArrowUp,ArrowLeft"":3,""ArrowUp,ArrowRight"":36,""ArrowDown,ArrowLeft"":15,""ArrowDown,ArrowRight"":23}","true","ArrowDown,ArrowRight","","","","","","",""
"html-keyboard-response","34","268113","0.0-3.0-6.0-1.2","spark_pilot_norest","8734","4","23","Female","","","","","","","null","<div style=""font-size:60px;"">+</div>","null","fixation","","","","","","","","","","","",""
"revaluation","35","272123","0.0-3.0-6.0-0.3","spark_pilot_norest","8734","4","23","Female","","false","","","","","[279.59999999403954]","./assets/img/space/animals/cat.jpg","[""ArrowRight""]","second stage practice","space","36","{""ArrowUp,ArrowLeft"":3,""ArrowUp,ArrowRight"":36,""ArrowDown,ArrowLeft"":15,""ArrowDown,ArrowRight"":23}","true","ArrowUp,ArrowRight","","","","","","",""
"html-keyboard-response","36","272635","0.0-3.0-6.0-1.3","spark_pilot_norest","8734","4","23","Female","","","","","","","null","<div style=""font-size:60px;"">+</div>","null","fixation","","","","","","","","","","","",""
"learning-instructions","37","291378","0.0-3.0-7.0-0.0","spark_pilot_norest","8734","4","23","Female","","","","","","","1946.5999999940395","<p> Great job. Now let’s try putting it together. </p>
            <p> On each turn, you will first see a picture to remind you of the place you are in, and you need to choose whether to go up or down. </p>
            <p> Then you will see an animal and choose which of its chests to search for treasure. </p>","","instructions","","","","","","","","","","","",""
"learning-instructions","38","300417","0.0-3.0-7.0-0.1","spark_pilot_norest","8734","4","23","Female","","","","","","","785.2999999821186","<p> When you choose whether to go up or down, try to go to the animal with the chest with the most treasure. </p>
            <p> Try practicing that now! </p>","","instructions","","","","","","","","","","","",""
"revaluation","39","306440","0.0-3.0-8.0-0.0","spark_pilot_norest","8734","4","23","Female","","false","","","","","[667.5,427.90000000596046]","./assets/img/space/6.jpg","[""ArrowUp"",""ArrowRight""]","full practice","space","36","{""ArrowUp,ArrowLeft"":3,""ArrowUp,ArrowRight"":36,""ArrowDown,ArrowLeft"":15,""ArrowDown,ArrowRight"":23}","true","ArrowUp,ArrowRight","false","","","","","",""
"html-keyboard-response","40","306952","0.0-3.0-8.0-1.0","spark_pilot_norest","8734","4","23","Female","","","","","","","null","<div style=""font-size:60px;"">+</div>","null","fixation","","","","","","","","","","","",""
"revaluation","41","312974","0.0-3.0-8.0-0.1","spark_pilot_norest","8734","4","23","Female","","false","","","","","[16.69999998807907,308.19999998807907]","./assets/img/space/7.jpg","[""ArrowUp"",""ArrowRight""]","full practice","space","36","{""ArrowUp,ArrowLeft"":3,""ArrowUp,ArrowRight"":36,""ArrowDown,ArrowLeft"":15,""ArrowDown,ArrowRight"":23}","true","ArrowUp,ArrowRight","false","","","","","",""
"html-keyboard-response","42","313486","0.0-3.0-8.0-1.1","spark_pilot_norest","8734","4","23","Female","","","","","","","null","<div style=""font-size:60px;"">+</div>","null","fixation","","","","","","","","","","","",""
"revaluation","43","319517","0.0-3.0-8.0-0.2","spark_pilot_norest","8734","4","23","Female","","false","","","","","[299.40000000596046,394.89999997615814]","./assets/img/space/8.jpg","[""ArrowUp"",""ArrowRight""]","full practice","space","36","{""ArrowUp,ArrowLeft"":3,""ArrowUp,ArrowRight"":36,""ArrowDown,ArrowLeft"":15,""ArrowDown,ArrowRight"":23}","true","ArrowUp,ArrowRight","false","","","","","",""
"html-keyboard-response","44","320032","0.0-3.0-8.0-1.2","spark_pilot_norest","8734","4","23","Female","","","","","","","null","<div style=""font-size:60px;"">+</div>","null","fixation","","","","","","","","","","","",""
"revaluation","45","326052","0.0-3.0-8.0-0.3","spark_pilot_norest","8734","4","23","Female","","false","","","","","[486.60000002384186,383.7000000178814]","./assets/img/space/9.jpg","[""ArrowUp"",""ArrowRight""]","full practice","space","36","{""ArrowUp,ArrowLeft"":3,""ArrowUp,ArrowRight"":36,""ArrowDown,ArrowLeft"":15,""ArrowDown,ArrowRight"":23}","true","ArrowUp,ArrowRight","false","","","","","",""
"html-keyboard-response","46","326567","0.0-3.0-8.0-1.3","spark_pilot_norest","8734","4","23","Female","","","","","","","null","<div style=""font-size:60px;"">+</div>","null","fixation","","","","","","","","","","","",""
"revaluation","47","332582","0.0-3.0-8.0-0.4","spark_pilot_norest","8734","4","23","Female","","false","","","","","[296,234.80000001192093]","./assets/img/space/10.jpg","[""ArrowUp"",""ArrowRight""]","full practice","space","36","{""ArrowUp,ArrowLeft"":3,""ArrowUp,ArrowRight"":36,""ArrowDown,ArrowLeft"":15,""ArrowDown,ArrowRight"":23}","true","ArrowUp,ArrowRight","false","","","","","",""
"html-keyboard-response","48","333084","0.0-3.0-8.0-1.4","spark_pilot_norest","8734","4","23","Female","","","","","","","null","<div style=""font-size:60px;"">+</div>","null","fixation","","","","","","","","","","","",""
"learning-instructions","49","344621","0.0-3.0-9.0-0.0","spark_pilot_norest","8734","4","23","Female","","","","","","","1245.5","<p> One last thing: sometimes, you will see a robber. The robber can be anywhere in the picture. </p>
            <p> If you do not stop them, you will lose treasure. </p>
            <img src='./assets/img/instructions/robber.jpg' class='instructions-image'>","","instructions","","","","","","","","","","","",""
"learning-instructions","50","352705","0.0-3.0-9.0-0.1","spark_pilot_norest","8734","4","23","Female","","","","","","","929.4000000059605","<p> If you see the robber, you should <b>press the space bar</b> rather than using the arrow keys. </p>
            <p> Try practicing that now! </p>","","instructions","","","","","","","","","","","",""
"revaluation","51","356716","0.0-3.0-10.0-0.0","spark_pilot_norest","8734","4","23","Female","","false","","","","","[633.5999999940395]","./assets/img/space/catch/0.jpg","[""spaceBar""]","catch practice","space","0","{""ArrowUp,ArrowLeft"":3,""ArrowUp,ArrowRight"":36,""ArrowDown,ArrowLeft"":15,""ArrowDown,ArrowRight"":23}","true","spaceBar","true","","","","","",""
"html-keyboard-response","52","357227","0.0-3.0-10.0-1.0","spark_pilot_norest","8734","4","23","Female","","","","","","","null","<div style=""font-size:60px;"">+</div>","null","fixation","","","","","","","","","","","",""
"revaluation","53","361240","0.0-3.0-10.0-0.1","spark_pilot_norest","8734","4","23","Female","","false","","","","","[819.4000000059605]","./assets/img/space/catch/1.jpg","[""spaceBar""]","catch practice","space","0","{""ArrowUp,ArrowLeft"":3,""ArrowUp,ArrowRight"":36,""ArrowDown,ArrowLeft"":15,""ArrowDown,ArrowRight"":23}","true","spaceBar","true","","","","","",""
"html-keyboard-response","54","361750","0.0-3.0-10.0-1.1","spark_pilot_norest","8734","4","23","Female","","","","","","","null","<div style=""font-size:60px;"">+</div>","null","fixation","","","","","","","","","","","",""
"revaluation","55","365775","0.0-3.0-10.0-0.2","spark_pilot_norest","8734","4","23","Female","","false","","","","","[505.59999999403954]","./assets/img/space/catch/2.jpg","[""spaceBar""]","catch practice","space","0","{""ArrowUp,ArrowLeft"":3,""ArrowUp,ArrowRight"":36,""ArrowDown,ArrowLeft"":15,""ArrowDown,ArrowRight"":23}","true","spaceBar","true","","","","","",""
"html-keyboard-response","56","366285","0.0-3.0-10.0-1.2","spark_pilot_norest","8734","4","23","Female","","","","","","","null","<div style=""font-size:60px;"">+</div>","null","fixation","","","","","","","","","","","",""
"learning-instructions","57","374491","0.0-3.0-11.0-0.0-0.0","spark_pilot_norest","8734","4","23","Female","","","","","","","2964.9000000059605","<p> Now, you will practice a shortened version of the game to get a sense of how it all fits together. </p>","","instructions","","","","","","","","","","","",""
"learning-instructions","58","378294","0.0-3.0-11.0-0.0-0.1","spark_pilot_norest","8734","4","23","Female","","","","","","","617.3000000119209","<p>This time you are searching for treasure in outer space.</p>","","instructions","","","","","","","","","","","",""
"learning-instructions","59","393427","0.0-3.0-11.0-1.0-0.0","spark_pilot_norest","8734","4","23","Female","","","","","","","381","<p> Remember, when you see a picture of the place, use the up and down keys to <b>find an animal</b>.</p>
            <p> When you encounter an animal, you should use the left and right keys to <b>select a treasure chest</b>.</p>
            <p> Don't forget to look out for the robber! </p>","","instructions","","","","","","","","","","","",""
"revaluation","60","399453","0.0-3.0-11.0-2.0-0.0","spark_pilot_norest","8734","4","23","Female","","false","","","","","[1368.2999999821186,1182.1000000238419]","./assets/img/space/11.jpg","[""ArrowUp"",""ArrowRight""]","practice block","space","36","{""ArrowUp,ArrowLeft"":3,""ArrowUp,ArrowRight"":36,""ArrowDown,ArrowLeft"":15,""ArrowDown,ArrowRight"":23}","true","ArrowUp,ArrowRight","false","","","","","",""
"html-keyboard-response","61","399967","0.0-3.0-11.0-2.0-1.0","spark_pilot_norest","8734","4","23","Female","","","","","","","null","<div style=""font-size:60px;"">+</div>","null","fixation","","","","","","","","","","","",""
"revaluation","62","405994","0.0-3.0-11.0-2.0-0.1","spark_pilot_norest","8734","4","23","Female","","false","","","","","[663.5999999940395,407]","./assets/img/space/12.jpg","[""ArrowUp"",""ArrowRight""]","practice block","space","36","{""ArrowUp,ArrowLeft"":3,""ArrowUp,ArrowRight"":36,""ArrowDown,ArrowLeft"":15,""ArrowDown,ArrowRight"":23}","true","ArrowUp,ArrowRight","false","","","","","",""
"html-keyboard-response","63","406495","0.0-3.0-11.0-2.0-1.1","spark_pilot_norest","8734","4","23","Female","","","","","","","null","<div style=""font-size:60px;"">+</div>","null","fixation","","","","","","","","","","","",""
"revaluation","64","412526","0.0-3.0-11.0-2.0-0.2","spark_pilot_norest","8734","4","23","Female","","false","","","","","[926.4000000059605,579]","./assets/img/space/13.jpg","[""ArrowUp"",""ArrowRight""]","practice block","space","36","{""ArrowUp,ArrowLeft"":3,""ArrowUp,ArrowRight"":36,""ArrowDown,ArrowLeft"":15,""ArrowDown,ArrowRight"":23}","true","ArrowUp,ArrowRight","false","","","","","",""
"html-keyboard-response","65","413028","0.0-3.0-11.0-2.0-1.2","spark_pilot_norest","8734","4","23","Female","","","","","","","null","<div style=""font-size:60px;"">+</div>","null","fixation","","","","","","","","","","","",""
"revaluation","66","419060","0.0-3.0-11.0-2.0-0.3","spark_pilot_norest","8734","4","23","Female","","false","","","","","[495,451.7999999821186]","./assets/img/space/14.jpg","[""ArrowUp"",""ArrowRight""]","practice block","space","36","{""ArrowUp,ArrowLeft"":3,""ArrowUp,ArrowRight"":36,""ArrowDown,ArrowLeft"":15,""ArrowDown,ArrowRight"":23}","true","ArrowUp,ArrowRight","false","","","","","",""
"html-keyboard-response","67","419574","0.0-3.0-11.0-2.0-1.3","spark_pilot_norest","8734","4","23","Female","","","","","","","null","<div style=""font-size:60px;"">+</div>","null","fixation","","","","","","","","","","","",""
"revaluation","68","425587","0.0-3.0-11.0-2.0-0.4","spark_pilot_norest","8734","4","23","Female","","false","","","","","[696.7000000178814,313.5]","./assets/img/space/11.jpg","[""ArrowUp"",""ArrowRight""]","practice block","space","36","{""ArrowUp,ArrowLeft"":3,""ArrowUp,ArrowRight"":36,""ArrowDown,ArrowLeft"":15,""ArrowDown,ArrowRight"":23}","true","ArrowUp,ArrowRight","false","","","","","",""
"html-keyboard-response","69","426088","0.0-3.0-11.0-2.0-1.4","spark_pilot_norest","8734","4","23","Female","","","","","","","null","<div style=""font-size:60px;"">+</div>","null","fixation","","","","","","","","","","","",""
"revaluation","70","432091","0.0-3.0-11.0-2.0-0.5","spark_pilot_norest","8734","4","23","Female","","false","","","","","[850.8000000119209,328]","./assets/img/space/12.jpg","[""ArrowUp"",""ArrowRight""]","practice block","space","36","{""ArrowUp,ArrowLeft"":3,""ArrowUp,ArrowRight"":36,""ArrowDown,ArrowLeft"":15,""ArrowDown,ArrowRight"":23}","true","ArrowUp,ArrowRight","false","","","","","",""
"html-keyboard-response","71","432592","0.0-3.0-11.0-2.0-1.5","spark_pilot_norest","8734","4","23","Female","","","","","","","null","<div style=""font-size:60px;"">+</div>","null","fixation","","","","","","","","","","","",""
"revaluation","72","438596","0.0-3.0-11.0-2.0-0.6","spark_pilot_norest","8734","4","23","Female","","false","","","","","[866.5,406.80000001192093]","./assets/img/space/13.jpg","[""ArrowUp"",""ArrowRight""]","practice block","space","36","{""ArrowUp,ArrowLeft"":3,""ArrowUp,ArrowRight"":36,""ArrowDown,ArrowLeft"":15,""ArrowDown,ArrowRight"":23}","true","ArrowUp,ArrowRight","false","","","","","",""
"html-keyboard-response","73","439097","0.0-3.0-11.0-2.0-1.6","spark_pilot_norest","8734","4","23","Female","","","","","","","null","<div style=""font-size:60px;"">+</div>","null","fixation","","","","","","","","","","","",""
"revaluation","74","445101","0.0-3.0-11.0-2.0-0.7","spark_pilot_norest","8734","4","23","Female","","false","","","","","[901.9000000059605,384.7000000178814]","./assets/img/space/14.jpg","[""ArrowUp"",""ArrowRight""]","practice block","space","36","{""ArrowUp,ArrowLeft"":3,""ArrowUp,ArrowRight"":36,""ArrowDown,ArrowLeft"":15,""ArrowDown,ArrowRight"":23}","true","ArrowUp,ArrowRight","false","","","","","",""
"html-keyboard-response","75","445602","0.0-3.0-11.0-2.0-1.7","spark_pilot_norest","8734","4","23","Female","","","","","","","null","<div style=""font-size:60px;"">+</div>","null","fixation","","","","","","","","","","","",""
"revaluation","76","449606","0.0-3.0-11.0-2.0-0.8","spark_pilot_norest","8734","4","23","Female","","false","","","","","[1053.4000000059605]","./assets/img/space/catch/3.jpg","[""spaceBar""]","practice block","space","0","{""ArrowUp,ArrowLeft"":3,""ArrowUp,ArrowRight"":36,""ArrowDown,ArrowLeft"":15,""ArrowDown,ArrowRight"":23}","true","spaceBar","true","","","","","",""
"html-keyboard-response","77","450107","0.0-3.0-11.0-2.0-1.8","spark_pilot_norest","8734","4","23","Female","","","","","","","null","<div style=""font-size:60px;"">+</div>","null","fixation","","","","","","","","","","","",""
"learning-instructions","78","463781","0.0-3.0-11.0-3.0-0.0","spark_pilot_norest","8734","4","23","Female","","","","","","","741.5999999940395","<p> Now, you will travel with a friend who will choose whether you go up or down first. </p>
            <p> On these turns, you will just see the animal that they found. You will still get to choose which chest to search for treasure.</p>","","instructions","","","","","","","","","","","",""
"revaluation","79","467793","0.0-3.0-11.0-4.0-0.0","spark_pilot_norest","8734","4","23","Female","","false","","","","","[658.5]","./assets/img/space/animals/rabbit.jpg","[""ArrowRight""]","practice block","space","23","{""ArrowUp,ArrowLeft"":3,""ArrowUp,ArrowRight"":36,""ArrowDown,ArrowLeft"":15,""ArrowDown,ArrowRight"":23}","true","ArrowDown,ArrowRight","","","","","","",""
"html-keyboard-response","80","468302","0.0-3.0-11.0-4.0-1.0","spark_pilot_norest","8734","4","23","Female","","","","","","","null","<div style=""font-size:60px;"">+</div>","null","fixation","","","","","","","","","","","",""
"revaluation","81","472334","0.0-3.0-11.0-4.0-0.1","spark_pilot_norest","8734","4","23","Female","","false","","","","","[411.59999999403954]","./assets/img/space/animals/cat.jpg","[""ArrowRight""]","practice block","space","36","{""ArrowUp,ArrowLeft"":3,""ArrowUp,ArrowRight"":36,""ArrowDown,ArrowLeft"":15,""ArrowDown,ArrowRight"":23}","true","ArrowUp,ArrowRight","","","","","","",""
"html-keyboard-response","82","472835","0.0-3.0-11.0-4.0-1.1","spark_pilot_norest","8734","4","23","Female","","","","","","","null","<div style=""font-size:60px;"">+</div>","null","fixation","","","","","","","","","","","",""
"revaluation","83","476850","0.0-3.0-11.0-4.0-0.2","spark_pilot_norest","8734","4","23","Female","","false","","","","","[298.5]","./assets/img/space/animals/rabbit.jpg","[""ArrowRight""]","practice block","space","23","{""ArrowUp,ArrowLeft"":3,""ArrowUp,ArrowRight"":36,""ArrowDown,ArrowLeft"":15,""ArrowDown,ArrowRight"":23}","true","ArrowDown,ArrowRight","","","","","","",""
"html-keyboard-response","84","477364","0.0-3.0-11.0-4.0-1.2","spark_pilot_norest","8734","4","23","Female","","","","","","","null","<div style=""font-size:60px;"">+</div>","null","fixation","","","","","","","","","","","",""
"revaluation","85","481378","0.0-3.0-11.0-4.0-0.3","spark_pilot_norest","8734","4","23","Female","","false","","","","","[363.90000000596046]","./assets/img/space/animals/cat.jpg","[""ArrowRight""]","practice block","space","36","{""ArrowUp,ArrowLeft"":3,""ArrowUp,ArrowRight"":36,""ArrowDown,ArrowLeft"":15,""ArrowDown,ArrowRight"":23}","true","ArrowUp,ArrowRight","","","","","","",""
"html-keyboard-response","86","481884","0.0-3.0-11.0-4.0-1.3","spark_pilot_norest","8734","4","23","Female","","","","","","","null","<div style=""font-size:60px;"">+</div>","null","fixation","","","","","","","","","","","",""
"learning-instructions","87","489999","0.0-3.0-11.0-5.0-0.0","spark_pilot_norest","8734","4","23","Female","","","","","","","null","<p> You have almost finished this part of the game! </p>
            <p> We are going to ask you to make a few more choices. </p>","","instructions","","","","","","","","","","","",""
"learning-instructions","88","505989","0.0-3.0-11.0-5.0-0.1","spark_pilot_norest","8734","4","23","Female","","","","","","","null","<p> First, you need to decide whether to go up or down. When you see each picture, use the arrow keys to make your choice. </p>
            <p><b>You will not see which animal you found, but try to get to the one that will give you the most treasure.</b></p>","","instructions","","","","","","","","","","","",""
"html-keyboard-response","89","506993","0.0-3.0-11.0-6.0-0.0","spark_pilot_norest","8734","4","23","Female","","","","","","","null","<div style=""font-size:100px;color:red;"">Starting in...</div>","null","","","","","","","","","","","","",""
"html-keyboard-response","90","507997","0.0-3.0-11.0-6.0-1.0","spark_pilot_norest","8734","4","23","Female","","","","","","","null","<div style=""font-size:200px;color:red;"">3</div>","null","","","","","","","","","","","","",""
"html-keyboard-response","91","509010","0.0-3.0-11.0-6.0-2.0","spark_pilot_norest","8734","4","23","Female","","","","","","","null","<div style=""font-size:200px;color:red;"">2</div>","null","","","","","","","","","","","","",""
"html-keyboard-response","92","510011","0.0-3.0-11.0-6.0-3.0","spark_pilot_norest","8734","4","23","Female","","","","","","","null","<div style=""font-size:200px;color:red;"">1</div>","null","","","","","","","","","","","","",""
"revaluation","93","510519","0.0-3.0-11.0-7.0","spark_pilot_norest","8734","4","23","Female","","false","","","","","[506.19999998807907]","./assets/img/space/15.jpg","[""ArrowUp""]","practice block","space","0","{""ArrowUp,ArrowLeft"":3,""ArrowUp,ArrowRight"":36,""ArrowDown,ArrowLeft"":15,""ArrowDown,ArrowRight"":23}","true","ArrowUp","false","","","","","",""
"html-keyboard-response","94","511028","0.0-3.0-11.0-8.0","spark_pilot_norest","8734","4","23","Female","","","","","","","null","<div style=""font-size:60px;"">+</div>","null","fixation","","","","","","","","","","","",""
"learning-instructions","95","524396","0.0-3.0-11.0-9.0-0.0","spark_pilot_norest","8734","4","23","Female","","","","","","","null","<p> Now you will see the animals again and can search their chests for treasure. </p>
            <p> This time, you will not see how much treasure you earned, but you will earn more bonus money for making better choices. </p>","","instructions","","","","","","","","","","","",""
"html-keyboard-response","96","525403","0.0-3.0-11.0-10.0-0.0","spark_pilot_norest","8734","4","23","Female","","","","","","","null","<div style=""font-size:100px;color:red;"">Starting in...</div>","null","","","","","","","","","","","","",""
"html-keyboard-response","97","526418","0.0-3.0-11.0-10.0-1.0","spark_pilot_norest","8734","4","23","Female","","","","","","","null","<div style=""font-size:200px;color:red;"">3</div>","null","","","","","","","","","","","","",""
"html-keyboard-response","98","527429","0.0-3.0-11.0-10.0-2.0","spark_pilot_norest","8734","4","23","Female","","","","","","","null","<div style=""font-size:200px;color:red;"">2</div>","null","","","","","","","","","","","","",""
"html-keyboard-response","99","528436","0.0-3.0-11.0-10.0-3.0","spark_pilot_norest","8734","4","23","Female","","","","","","","null","<div style=""font-size:200px;color:red;"">1</div>","null","","","","","","","","","","","","",""
"revaluation","100","528915","0.0-3.0-11.0-11.0-0.0","spark_pilot_norest","8734","4","23","Female","","false","","","","","[477.5]","./assets/img/space/animals/cat.jpg","[""ArrowRight""]","practice block","space","0","{""ArrowUp,ArrowLeft"":3,""ArrowUp,ArrowRight"":36,""ArrowDown,ArrowLeft"":15,""ArrowDown,ArrowRight"":23}","true","ArrowUp,ArrowRight","","","","","","",""
"html-keyboard-response","101","529422","0.0-3.0-11.0-11.0-1.0","spark_pilot_norest","8734","4","23","Female","","","","","","","null","<div style=""font-size:60px;"">+</div>","null","fixation","","","","","","","","","","","",""
"revaluation","102","530234","0.0-3.0-11.0-11.0-0.1","spark_pilot_norest","8734","4","23","Female","","false","","","","","[810.9000000059605]","./assets/img/space/animals/rabbit.jpg","[""ArrowRight""]","practice block","space","0","{""ArrowUp,ArrowLeft"":3,""ArrowUp,ArrowRight"":36,""ArrowDown,ArrowLeft"":15,""ArrowDown,ArrowRight"":23}","true","ArrowDown,ArrowRight","","","","","","",""
"html-keyboard-response","103","530747","0.0-3.0-11.0-11.0-1.1","spark_pilot_norest","8734","4","23","Female","","","","","","","null","<div style=""font-size:60px;"">+</div>","null","fixation","","","","","","","","","","","",""
"learning-instructions","104","537177","0.0-3.0-12.0-0.0","spark_pilot_norest","8734","4","23","Female","","","","","","","1858","<p> Before you start, we're going to ask you a few questions about how the game works. </p>","","instructions","","","","","","","","","","","",""
"comp-q","105","543310","0.0-3.0-13.0-0.0-0.0","spark_pilot_norest","8734","4","23","Female","","","","","","","559","<p> <b> True or False? </b> </p>
            <p> There can be 50 pieces of treasure in a given animal's chest. </p>","1","comp_question","","","","true","","","","","","","",""
"comp-q","106","550815","0.0-3.0-13.0-0.0-1.0","spark_pilot_norest","8734","4","23","Female","","","","","","","856.2000000178814","<p> <b> That's right! </b> The amount of treasure in each chest can range from 0 to 40 pieces. </p>","0","comp_answer","","","","","","","","","","","",""
"comp-q","107","558720","0.0-3.0-13.0-0.1-0.1","spark_pilot_norest","8734","4","23","Female","","","","","","","800.5","<p> <b> True or False? </b> </p><p> In this game, all animals have the same amount of treasure in their left and right chests. </p>","1","comp_question","","","","true","","","","","","","",""
"comp-q","108","565291","0.0-3.0-13.0-0.1-1.1","spark_pilot_norest","8734","4","23","Female","","","","","","","1352.199999988079","<p> <b> That's right! </b> Animals have different amounts of treasure in their treasure chests. </p>","0","comp_answer","","","","","","","","","","","",""
"comp-q","109","572205","0.0-3.0-13.0-0.2-0.2","spark_pilot_norest","8734","4","23","Female","","","","","","","1085.1000000238419","<p> <b> True or False? </b> </p><p> The same animal will always be there if you go up in the same place. </p>","0","comp_question","","","","true","","","","","","","",""
"comp-q","110","602729","0.0-3.0-13.0-0.2-1.2","spark_pilot_norest","8734","4","23","Female","","","","","","","24089.80000001192","<p> <b> That's right! </b> One animal lives in the upper part and one lives in the lower part of every place. </p>","0","comp_answer","","","","","","","","","","","",""
"comp-q","111","609149","0.0-3.0-13.0-0.3-0.3","spark_pilot_norest","8734","4","23","Female","","","","","","","909.1999999880791","<p> <b> True or False? </b> </p><p> If you see a different picture, it means you are in a new place. </p>","1","comp_question","","","","true","","","","","","","",""
"comp-q","112","657905","0.0-3.0-13.0-0.3-1.3","spark_pilot_norest","8734","4","23","Female","","","","","","","37545.59999999404","<p> <b> That's right! </b> Lots of different images may show the same place. For example,  you may see three different images that all remind you that you are in outer space. </p>","0","comp_answer","","","","","","","","","","","",""
"learning-instructions","113","676684","0.0-3.0-14.0-0.0","spark_pilot_norest","8734","4","23","Female","","","","","","","8914.5","<p> Good job. Remember to do your best because the amount of treasure you earn will be converted into bonus money. </p>
            <p> It’s time to start the real game! </p>","","instructions","","","","","","","","","","","",""
"learning-instructions","114","681152","0.0-4.0-0.0-0.0","spark_pilot_norest","8734","4","23","Female","","","","","","","1772.0999999940395","<p> This time you are searching for treasure in the <b>ocean</b>.</p>","","instructions","","","","","","","","","","","",""
"learning-instructions","115","704447","0.0-4.0-0.0-0.1","spark_pilot_norest","8734","4","23","Female","","","","","","","6007.799999982119","<p><b>New</b> animals with <b>new</b> treasure chests live here. You need to explore to discover where the animal with the best treasure chest is.</p>
                    <p> Like before, once you figure out which animal has the chest with the most treasure, you should try to get to that animal and select that chest! </p>","","instructions","","","","","","","","","","","",""
"learning-instructions","116","719985","0.0-4.0-1.0-0.0","spark_pilot_norest","8734","4","23","Female","","","","","","","815.5","<p> Remember, when you see a picture of the place, use the up and down keys to <b>find an animal</b>.</p>
            <p> When you encounter an animal, you should use the left and right keys to <b>select a treasure chest</b>.</p>
            <p> Don't forget to look out for the robber! </p>","","instructions","","","","","","","","","","","",""
"revaluation","117","726012","0.0-4.0-2.0-0.0","spark_pilot_norest","8734","4","23","Female","","false","","","","","[997.9000000059605,1808.0999999940395]","./assets/img/ocean/memory/21.jpg","[""ArrowUp"",""ArrowRight""]","value training","ocean","10","{""ArrowUp,ArrowLeft"":26,""ArrowUp,ArrowRight"":10,""ArrowDown,ArrowLeft"":5,""ArrowDown,ArrowRight"":17}","false","ArrowUp,ArrowRight","false","revaluation","1","0","","",""
"html-keyboard-response","118","726518","0.0-4.0-2.0-1.0","spark_pilot_norest","8734","4","23","Female","","","","","","","null","<div style=""font-size:60px;"">+</div>","null","fixation","","","","","","","","","1","","",""
"revaluation","119","730540","0.0-4.0-2.0-0.1","spark_pilot_norest","8734","4","23","Female","","false","","","","","[885.6000000238419]","./assets/img/ocean/catch/4.jpg","[""ArrowUp""]","value training","ocean","-10","{""ArrowUp,ArrowLeft"":26,""ArrowUp,ArrowRight"":10,""ArrowDown,ArrowLeft"":5,""ArrowDown,ArrowRight"":17}","false","ArrowUp","true","revaluation","1","2","","",""
"html-keyboard-response","120","731050","0.0-4.0-2.0-1.1","spark_pilot_norest","8734","4","23","Female","","","","","","","null","<div style=""font-size:60px;"">+</div>","null","fixation","","","","","","","","","3","","",""
"revaluation","121","737067","0.0-4.0-2.0-0.2","spark_pilot_norest","8734","4","23","Female","","false","","","","","[1147.199999988079,1124.0999999940395]","./assets/img/ocean/memory/30.jpg","[""ArrowUp"",""ArrowRight""]","value training","ocean","10","{""ArrowUp,ArrowLeft"":26,""ArrowUp,ArrowRight"":10,""ArrowDown,ArrowLeft"":5,""ArrowDown,ArrowRight"":17}","false","ArrowUp,ArrowRight","false","revaluation","1","4","","",""
"html-keyboard-response","122","737582","0.0-4.0-2.0-1.2","spark_pilot_norest","8734","4","23","Female","","","","","","","null","<div style=""font-size:60px;"">+</div>","null","fixation","","","","","","","","","5","","",""
"revaluation","123","743623","0.0-4.0-2.0-0.3","spark_pilot_norest","8734","4","23","Female","","false","","","","","[897.9000000059605,432.19999998807907]","./assets/img/ocean/memory/21.jpg","[""ArrowUp"",""ArrowLeft""]","value training","ocean","26","{""ArrowUp,ArrowLeft"":26,""ArrowUp,ArrowRight"":10,""ArrowDown,ArrowLeft"":5,""ArrowDown,ArrowRight"":17}","true","ArrowUp,ArrowLeft","false","revaluation","1","6","","",""
"html-keyboard-response","124","744137","0.0-4.0-2.0-1.3","spark_pilot_norest","8734","4","23","Female","","","","","","","null","<div style=""font-size:60px;"">+</div>","null","fixation","","","","","","","","","7","","",""
"revaluation","125","748165","0.0-4.0-2.0-0.4","spark_pilot_norest","8734","4","23","Female","","false","","","","","[1260.8999999761581]","./assets/img/ocean/catch/6.jpg","[""spaceBar""]","value training","ocean","0","{""ArrowUp,ArrowLeft"":26,""ArrowUp,ArrowRight"":10,""ArrowDown,ArrowLeft"":5,""ArrowDown,ArrowRight"":17}","true","spaceBar","true","revaluation","1","8","","",""
"html-keyboard-response","126","748681","0.0-4.0-2.0-1.4","spark_pilot_norest","8734","4","23","Female","","","","","","","null","<div style=""font-size:60px;"">+</div>","null","fixation","","","","","","","","","9","","",""
"revaluation","127","754685","0.0-4.0-2.0-0.5","spark_pilot_norest","8734","4","23","Female","","false","","","","","[864.4000000059605,1298.800000011921]","./assets/img/ocean/memory/24.jpg","[""ArrowDown"",""ArrowRight""]","value training","ocean","17","{""ArrowUp,ArrowLeft"":26,""ArrowUp,ArrowRight"":10,""ArrowDown,ArrowLeft"":5,""ArrowDown,ArrowRight"":17}","false","ArrowDown,ArrowRight","false","revaluation","1","10","","",""
"html-keyboard-response","128","755186","0.0-4.0-2.0-1.5","spark_pilot_norest","8734","4","23","Female","","","","","","","null","<div style=""font-size:60px;"">+</div>","null","fixation","","","","","","","","","11","","",""
"revaluation","129","761189","0.0-4.0-2.0-0.6","spark_pilot_norest","8734","4","23","Female","","false","","","","","[1729.5999999940395,694.5999999940395]","./assets/img/ocean/memory/41.jpg","[""ArrowDown"",""ArrowLeft""]","value training","ocean","5","{""ArrowUp,ArrowLeft"":26,""ArrowUp,ArrowRight"":10,""ArrowDown,ArrowLeft"":5,""ArrowDown,ArrowRight"":17}","false","ArrowDown,ArrowLeft","false","revaluation","1","12","","",""
"html-keyboard-response","130","761694","0.0-4.0-2.0-1.6","spark_pilot_norest","8734","4","23","Female","","","","","","","null","<div style=""font-size:60px;"">+</div>","null","fixation","","","","","","","","","13","","",""
"revaluation","131","767698","0.0-4.0-2.0-0.7","spark_pilot_norest","8734","4","23","Female","","false","","","","","[1085.7000000178814,536.5]","./assets/img/ocean/memory/37.jpg","[""ArrowUp"",""ArrowLeft""]","value training","ocean","26","{""ArrowUp,ArrowLeft"":26,""ArrowUp,ArrowRight"":10,""ArrowDown,ArrowLeft"":5,""ArrowDown,ArrowRight"":17}","true","ArrowUp,ArrowLeft","false","revaluation","1","14","","",""
"html-keyboard-response","132","768199","0.0-4.0-2.0-1.7","spark_pilot_norest","8734","4","23","Female","","","","","","","null","<div style=""font-size:60px;"">+</div>","null","fixation","","","","","","","","","15","","",""
"revaluation","133","774203","0.0-4.0-2.0-0.8","spark_pilot_norest","8734","4","23","Female","","false","","","","","[328.39999997615814,343.59999999403954]","./assets/img/ocean/memory/34.jpg","[""ArrowUp"",""ArrowLeft""]","value training","ocean","26","{""ArrowUp,ArrowLeft"":26,""ArrowUp,ArrowRight"":10,""ArrowDown,ArrowLeft"":5,""ArrowDown,ArrowRight"":17}","true","ArrowUp,ArrowLeft","false","revaluation","1","16","","",""
"html-keyboard-response","134","774706","0.0-4.0-2.0-1.8","spark_pilot_norest","8734","4","23","Female","","","","","","","null","<div style=""font-size:60px;"">+</div>","null","fixation","","","","","","","","","17","","",""
"revaluation","135","780712","0.0-4.0-2.0-0.9","spark_pilot_norest","8734","4","23","Female","","false","","","","","[481.7000000178814,353.40000000596046]","./assets/img/ocean/memory/26.jpg","[""ArrowUp"",""ArrowLeft""]","value training","ocean","26","{""ArrowUp,ArrowLeft"":26,""ArrowUp,ArrowRight"":10,""ArrowDown,ArrowLeft"":5,""ArrowDown,ArrowRight"":17}","true","ArrowUp,ArrowLeft","false","revaluation","1","18","","",""
"html-keyboard-response","136","781213","0.0-4.0-2.0-1.9","spark_pilot_norest","8734","4","23","Female","","","","","","","null","<div style=""font-size:60px;"">+</div>","null","fixation","","","","","","","","","19","","",""
"revaluation","137","787218","0.0-4.0-2.0-0.10","spark_pilot_norest","8734","4","23","Female","","false","","","","","[769,491.69999998807907]","./assets/img/ocean/memory/17.jpg","[""ArrowUp"",""ArrowLeft""]","value training","ocean","26","{""ArrowUp,ArrowLeft"":26,""ArrowUp,ArrowRight"":10,""ArrowDown,ArrowLeft"":5,""ArrowDown,ArrowRight"":17}","true","ArrowUp,ArrowLeft","false","revaluation","1","20","","",""
"html-keyboard-response","138","787720","0.0-4.0-2.0-1.10","spark_pilot_norest","8734","4","23","Female","","","","","","","null","<div style=""font-size:60px;"">+</div>","null","fixation","","","","","","","","","21","","",""
"revaluation","139","793725","0.0-4.0-2.0-0.11","spark_pilot_norest","8734","4","23","Female","","false","","","","","[588.7999999821186,500.80000001192093]","./assets/img/ocean/memory/38.jpg","[""ArrowUp"",""ArrowLeft""]","value training","ocean","26","{""ArrowUp,ArrowLeft"":26,""ArrowUp,ArrowRight"":10,""ArrowDown,ArrowLeft"":5,""ArrowDown,ArrowRight"":17}","true","ArrowUp,ArrowLeft","false","revaluation","1","22","","",""
"html-keyboard-response","140","794226","0.0-4.0-2.0-1.11","spark_pilot_norest","8734","4","23","Female","","","","","","","null","<div style=""font-size:60px;"">+</div>","null","fixation","","","","","","","","","23","","",""
"revaluation","141","800232","0.0-4.0-2.0-0.12","spark_pilot_norest","8734","4","23","Female","","false","","","","","[740.2000000178814,445]","./assets/img/ocean/memory/10.jpg","[""ArrowUp"",""ArrowLeft""]","value training","ocean","26","{""ArrowUp,ArrowLeft"":26,""ArrowUp,ArrowRight"":10,""ArrowDown,ArrowLeft"":5,""ArrowDown,ArrowRight"":17}","true","ArrowUp,ArrowLeft","false","revaluation","1","24","","",""
"html-keyboard-response","142","800734","0.0-4.0-2.0-1.12","spark_pilot_norest","8734","4","23","Female","","","","","","","null","<div style=""font-size:60px;"">+</div>","null","fixation","","","","","","","","","25","","",""
"revaluation","143","806739","0.0-4.0-2.0-0.13","spark_pilot_norest","8734","4","23","Female","","false","","","","","[557.9000000059605,304.39999997615814]","./assets/img/ocean/memory/8.jpg","[""ArrowUp"",""ArrowLeft""]","value training","ocean","26","{""ArrowUp,ArrowLeft"":26,""ArrowUp,ArrowRight"":10,""ArrowDown,ArrowLeft"":5,""ArrowDown,ArrowRight"":17}","true","ArrowUp,ArrowLeft","false","revaluation","1","26","","",""
"html-keyboard-response","144","807240","0.0-4.0-2.0-1.13","spark_pilot_norest","8734","4","23","Female","","","","","","","null","<div style=""font-size:60px;"">+</div>","null","fixation","","","","","","","","","27","","",""
"revaluation","145","813243","0.0-4.0-2.0-0.14","spark_pilot_norest","8734","4","23","Female","","false","","","","","[497.90000000596046,370.90000000596046]","./assets/img/ocean/memory/10.jpg","[""ArrowUp"",""ArrowLeft""]","value training","ocean","26","{""ArrowUp,ArrowLeft"":26,""ArrowUp,ArrowRight"":10,""ArrowDown,ArrowLeft"":5,""ArrowDown,ArrowRight"":17}","true","ArrowUp,ArrowLeft","false","revaluation","1","28","","",""
"html-keyboard-response","146","813745","0.0-4.0-2.0-1.14","spark_pilot_norest","8734","4","23","Female","","","","","","","null","<div style=""font-size:60px;"">+</div>","null","fixation","","","","","","","","","29","","",""
"revaluation","147","819749","0.0-4.0-2.0-0.15","spark_pilot_norest","8734","4","23","Female","","false","","","","","[454.10000002384186,269.90000000596046]","./assets/img/ocean/memory/41.jpg","[""ArrowUp"",""ArrowLeft""]","value training","ocean","26","{""ArrowUp,ArrowLeft"":26,""ArrowUp,ArrowRight"":10,""ArrowDown,ArrowLeft"":5,""ArrowDown,ArrowRight"":17}","true","ArrowUp,ArrowLeft","false","revaluation","1","30","","",""
"html-keyboard-response","148","820251","0.0-4.0-2.0-1.15","spark_pilot_norest","8734","4","23","Female","","","","","","","null","<div style=""font-size:60px;"">+</div>","null","fixation","","","","","","","","","31","","",""
"revaluation","149","824254","0.0-4.0-2.0-0.16","spark_pilot_norest","8734","4","23","Female","","false","","","","","[581.1000000238419]","./assets/img/ocean/catch/0.jpg","[""spaceBar""]","value training","ocean","0","{""ArrowUp,ArrowLeft"":26,""ArrowUp,ArrowRight"":10,""ArrowDown,ArrowLeft"":5,""ArrowDown,ArrowRight"":17}","true","spaceBar","true","revaluation","1","32","","",""
"html-keyboard-response","150","824755","0.0-4.0-2.0-1.16","spark_pilot_norest","8734","4","23","Female","","","","","","","null","<div style=""font-size:60px;"">+</div>","null","fixation","","","","","","","","","33","","",""
"revaluation","151","830759","0.0-4.0-2.0-0.17","spark_pilot_norest","8734","4","23","Female","","false","","","","","[594.0999999940395,273.5]","./assets/img/ocean/memory/24.jpg","[""ArrowUp"",""ArrowLeft""]","value training","ocean","26","{""ArrowUp,ArrowLeft"":26,""ArrowUp,ArrowRight"":10,""ArrowDown,ArrowLeft"":5,""ArrowDown,ArrowRight"":17}","true","ArrowUp,ArrowLeft","false","revaluation","1","34","","",""
"html-keyboard-response","152","831261","0.0-4.0-2.0-1.17","spark_pilot_norest","8734","4","23","Female","","","","","","","null","<div style=""font-size:60px;"">+</div>","null","fixation","","","","","","","","","35","","",""
"revaluation","153","837265","0.0-4.0-2.0-0.18","spark_pilot_norest","8734","4","23","Female","","false","","","","","[503.40000000596046,296.09999999403954]","./assets/img/ocean/memory/12.jpg","[""ArrowUp"",""ArrowLeft""]","value training","ocean","26","{""ArrowUp,ArrowLeft"":26,""ArrowUp,ArrowRight"":10,""ArrowDown,ArrowLeft"":5,""ArrowDown,ArrowRight"":17}","true","ArrowUp,ArrowLeft","false","revaluation","1","36","","",""
"html-keyboard-response","154","837767","0.0-4.0-2.0-1.18","spark_pilot_norest","8734","4","23","Female","","","","","","","null","<div style=""font-size:60px;"">+</div>","null","fixation","","","","","","","","","37","","",""
"revaluation","155","843769","0.0-4.0-2.0-0.19","spark_pilot_norest","8734","4","23","Female","","false","","","","","[786.9000000059605,492.5]","./assets/img/ocean/memory/14.jpg","[""ArrowUp"",""ArrowRight""]","value training","ocean","10","{""ArrowUp,ArrowLeft"":26,""ArrowUp,ArrowRight"":10,""ArrowDown,ArrowLeft"":5,""ArrowDown,ArrowRight"":17}","false","ArrowUp,ArrowRight","false","revaluation","1","38","","",""
"html-keyboard-response","156","844271","0.0-4.0-2.0-1.19","spark_pilot_norest","8734","4","23","Female","","","","","","","null","<div style=""font-size:60px;"">+</div>","null","fixation","","","","","","","","","39","","",""
"revaluation","157","850276","0.0-4.0-2.0-0.20","spark_pilot_norest","8734","4","23","Female","","false","","","","","[468.09999999403954,268.69999998807907]","./assets/img/ocean/memory/25.jpg","[""ArrowDown"",""ArrowRight""]","value training","ocean","17","{""ArrowUp,ArrowLeft"":26,""ArrowUp,ArrowRight"":10,""ArrowDown,ArrowLeft"":5,""ArrowDown,ArrowRight"":17}","false","ArrowDown,ArrowRight","false","revaluation","1","40","","",""
"html-keyboard-response","158","850777","0.0-4.0-2.0-1.20","spark_pilot_norest","8734","4","23","Female","","","","","","","null","<div style=""font-size:60px;"">+</div>","null","fixation","","","","","","","","","41","","",""
"revaluation","159","856783","0.0-4.0-2.0-0.21","spark_pilot_norest","8734","4","23","Female","","false","","","","","[596.8000000119209,892.4000000059605]","./assets/img/ocean/memory/14.jpg","[""ArrowUp"",""ArrowLeft""]","value training","ocean","26","{""ArrowUp,ArrowLeft"":26,""ArrowUp,ArrowRight"":10,""ArrowDown,ArrowLeft"":5,""ArrowDown,ArrowRight"":17}","true","ArrowUp,ArrowLeft","false","revaluation","1","42","","",""
"html-keyboard-response","160","857285","0.0-4.0-2.0-1.21","spark_pilot_norest","8734","4","23","Female","","","","","","","null","<div style=""font-size:60px;"">+</div>","null","fixation","","","","","","","","","43","","",""
"revaluation","161","863297","0.0-4.0-2.0-0.22","spark_pilot_norest","8734","4","23","Female","","false","","","","","[436.7000000178814,255.59999999403954]","./assets/img/ocean/memory/17.jpg","[""ArrowDown"",""ArrowLeft""]","value training","ocean","5","{""ArrowUp,ArrowLeft"":26,""ArrowUp,ArrowRight"":10,""ArrowDown,ArrowLeft"":5,""ArrowDown,ArrowRight"":17}","false","ArrowDown,ArrowLeft","false","revaluation","1","44","","",""
"html-keyboard-response","162","863797","0.0-4.0-2.0-1.22","spark_pilot_norest","8734","4","23","Female","","","","","","","null","<div style=""font-size:60px;"">+</div>","null","fixation","","","","","","","","","45","","",""
"revaluation","163","867799","0.0-4.0-2.0-0.23","spark_pilot_norest","8734","4","23","Female","","false","","","","","[496.90000000596046]","./assets/img/ocean/catch/1.jpg","[""spaceBar""]","value training","ocean","0","{""ArrowUp,ArrowLeft"":26,""ArrowUp,ArrowRight"":10,""ArrowDown,ArrowLeft"":5,""ArrowDown,ArrowRight"":17}","true","spaceBar","true","revaluation","1","46","","",""
"html-keyboard-response","164","868300","0.0-4.0-2.0-1.23","spark_pilot_norest","8734","4","23","Female","","","","","","","null","<div style=""font-size:60px;"">+</div>","null","fixation","","","","","","","","","47","","",""
"revaluation","165","874306","0.0-4.0-2.0-0.24","spark_pilot_norest","8734","4","23","Female","","false","","","","","[296,223.19999998807907]","./assets/img/ocean/memory/4.jpg","[""ArrowUp"",""ArrowLeft""]","value training","ocean","26","{""ArrowUp,ArrowLeft"":26,""ArrowUp,ArrowRight"":10,""ArrowDown,ArrowLeft"":5,""ArrowDown,ArrowRight"":17}","true","ArrowUp,ArrowLeft","false","revaluation","1","48","","",""
"html-keyboard-response","166","874807","0.0-4.0-2.0-1.24","spark_pilot_norest","8734","4","23","Female","","","","","","","null","<div style=""font-size:60px;"">+</div>","null","fixation","","","","","","","","","49","","",""
"revaluation","167","880824","0.0-4.0-2.0-0.25","spark_pilot_norest","8734","4","23","Female","","false","","","","","[484.19999998807907,346.90000000596046]","./assets/img/ocean/memory/28.jpg","[""ArrowUp"",""ArrowLeft""]","value training","ocean","26","{""ArrowUp,ArrowLeft"":26,""ArrowUp,ArrowRight"":10,""ArrowDown,ArrowLeft"":5,""ArrowDown,ArrowRight"":17}","true","ArrowUp,ArrowLeft","false","revaluation","1","50","","",""
"html-keyboard-response","168","881325","0.0-4.0-2.0-1.25","spark_pilot_norest","8734","4","23","Female","","","","","","","null","<div style=""font-size:60px;"">+</div>","null","fixation","","","","","","","","","51","","",""
"revaluation","169","887338","0.0-4.0-2.0-0.26","spark_pilot_norest","8734","4","23","Female","","false","","","","","[404.5,304.7000000178814]","./assets/img/ocean/memory/23.jpg","[""ArrowUp"",""ArrowLeft""]","value training","ocean","26","{""ArrowUp,ArrowLeft"":26,""ArrowUp,ArrowRight"":10,""ArrowDown,ArrowLeft"":5,""ArrowDown,ArrowRight"":17}","true","ArrowUp,ArrowLeft","false","revaluation","1","52","","",""
"html-keyboard-response","170","887839","0.0-4.0-2.0-1.26","spark_pilot_norest","8734","4","23","Female","","","","","","","null","<div style=""font-size:60px;"">+</div>","null","fixation","","","","","","","","","53","","",""
"revaluation","171","893843","0.0-4.0-2.0-0.27","spark_pilot_norest","8734","4","23","Female","","false","","","","","[399.5,344.2999999821186]","./assets/img/ocean/memory/25.jpg","[""ArrowUp"",""ArrowLeft""]","value training","ocean","26","{""ArrowUp,ArrowLeft"":26,""ArrowUp,ArrowRight"":10,""ArrowDown,ArrowLeft"":5,""ArrowDown,ArrowRight"":17}","true","ArrowUp,ArrowLeft","false","revaluation","1","54","","",""
"html-keyboard-response","172","894345","0.0-4.0-2.0-1.27","spark_pilot_norest","8734","4","23","Female","","","","","","","null","<div style=""font-size:60px;"">+</div>","null","fixation","","","","","","","","","55","","",""
"revaluation","173","900348","0.0-4.0-2.0-0.28","spark_pilot_norest","8734","4","23","Female","","false","","","","","[679.2000000178814,329.69999998807907]","./assets/img/ocean/memory/36.jpg","[""ArrowUp"",""ArrowLeft""]","value training","ocean","26","{""ArrowUp,ArrowLeft"":26,""ArrowUp,ArrowRight"":10,""ArrowDown,ArrowLeft"":5,""ArrowDown,ArrowRight"":17}","true","ArrowUp,ArrowLeft","false","revaluation","1","56","","",""
"html-keyboard-response","174","900848","0.0-4.0-2.0-1.28","spark_pilot_norest","8734","4","23","Female","","","","","","","null","<div style=""font-size:60px;"">+</div>","null","fixation","","","","","","","","","57","","",""
"revaluation","175","906852","0.0-4.0-2.0-0.29","spark_pilot_norest","8734","4","23","Female","","false","","","","","[447.80000001192093,263.80000001192093]","./assets/img/ocean/memory/38.jpg","[""ArrowUp"",""ArrowLeft""]","value training","ocean","26","{""ArrowUp,ArrowLeft"":26,""ArrowUp,ArrowRight"":10,""ArrowDown,ArrowLeft"":5,""ArrowDown,ArrowRight"":17}","true","ArrowUp,ArrowLeft","false","revaluation","1","58","","",""
"html-keyboard-response","176","907353","0.0-4.0-2.0-1.29","spark_pilot_norest","8734","4","23","Female","","","","","","","null","<div style=""font-size:60px;"">+</div>","null","fixation","","","","","","","","","59","","",""
"revaluation","177","913357","0.0-4.0-2.0-0.30","spark_pilot_norest","8734","4","23","Female","","false","","","","","[528.5,282.09999999403954]","./assets/img/ocean/memory/30.jpg","[""ArrowUp"",""ArrowLeft""]","value training","ocean","26","{""ArrowUp,ArrowLeft"":26,""ArrowUp,ArrowRight"":10,""ArrowDown,ArrowLeft"":5,""ArrowDown,ArrowRight"":17}","true","ArrowUp,ArrowLeft","false","revaluation","1","60","","",""
"html-keyboard-response","178","913859","0.0-4.0-2.0-1.30","spark_pilot_norest","8734","4","23","Female","","","","","","","null","<div style=""font-size:60px;"">+</div>","null","fixation","","","","","","","","","61","","",""
"revaluation","179","917862","0.0-4.0-2.0-0.31","spark_pilot_norest","8734","4","23","Female","","false","","","","","[675.5999999940395]","./assets/img/ocean/catch/3.jpg","[""spaceBar""]","value training","ocean","0","{""ArrowUp,ArrowLeft"":26,""ArrowUp,ArrowRight"":10,""ArrowDown,ArrowLeft"":5,""ArrowDown,ArrowRight"":17}","true","spaceBar","true","revaluation","1","62","","",""
"html-keyboard-response","180","918363","0.0-4.0-2.0-1.31","spark_pilot_norest","8734","4","23","Female","","","","","","","null","<div style=""font-size:60px;"">+</div>","null","fixation","","","","","","","","","63","","",""
"revaluation","181","922366","0.0-4.0-2.0-0.32","spark_pilot_norest","8734","4","23","Female","","false","","","","","[629.5]","./assets/img/ocean/catch/2.jpg","[""spaceBar""]","value training","ocean","0","{""ArrowUp,ArrowLeft"":26,""ArrowUp,ArrowRight"":10,""ArrowDown,ArrowLeft"":5,""ArrowDown,ArrowRight"":17}","true","spaceBar","true","revaluation","1","64","","",""
"html-keyboard-response","182","922867","0.0-4.0-2.0-1.32","spark_pilot_norest","8734","4","23","Female","","","","","","","null","<div style=""font-size:60px;"">+</div>","null","fixation","","","","","","","","","65","","",""
"revaluation","183","928870","0.0-4.0-2.0-0.33","spark_pilot_norest","8734","4","23","Female","","false","","","","","[581.7999999821186,373.09999999403954]","./assets/img/ocean/memory/23.jpg","[""ArrowUp"",""ArrowLeft""]","value training","ocean","26","{""ArrowUp,ArrowLeft"":26,""ArrowUp,ArrowRight"":10,""ArrowDown,ArrowLeft"":5,""ArrowDown,ArrowRight"":17}","true","ArrowUp,ArrowLeft","false","revaluation","1","66","","",""
"html-keyboard-response","184","929372","0.0-4.0-2.0-1.33","spark_pilot_norest","8734","4","23","Female","","","","","","","null","<div style=""font-size:60px;"">+</div>","null","fixation","","","","","","","","","67","","",""
"revaluation","185","935376","0.0-4.0-2.0-0.34","spark_pilot_norest","8734","4","23","Female","","false","","","","","[858.8999999761581,243.19999998807907]","./assets/img/ocean/memory/26.jpg","[""ArrowUp"",""ArrowLeft""]","value training","ocean","26","{""ArrowUp,ArrowLeft"":26,""ArrowUp,ArrowRight"":10,""ArrowDown,ArrowLeft"":5,""ArrowDown,ArrowRight"":17}","true","ArrowUp,ArrowLeft","false","revaluation","1","68","","",""
"html-keyboard-response","186","935877","0.0-4.0-2.0-1.34","spark_pilot_norest","8734","4","23","Female","","","","","","","null","<div style=""font-size:60px;"">+</div>","null","fixation","","","","","","","","","69","","",""
"revaluation","187","941880","0.0-4.0-2.0-0.35","spark_pilot_norest","8734","4","23","Female","","false","","","","","[620.4000000059605,224.59999999403954]","./assets/img/ocean/memory/18.jpg","[""ArrowUp"",""ArrowLeft""]","value training","ocean","26","{""ArrowUp,ArrowLeft"":26,""ArrowUp,ArrowRight"":10,""ArrowDown,ArrowLeft"":5,""ArrowDown,ArrowRight"":17}","true","ArrowUp,ArrowLeft","false","revaluation","1","70","","",""
"html-keyboard-response","188","942382","0.0-4.0-2.0-1.35","spark_pilot_norest","8734","4","23","Female","","","","","","","null","<div style=""font-size:60px;"">+</div>","null","fixation","","","","","","","","","71","","",""
"revaluation","189","948385","0.0-4.0-2.0-0.36","spark_pilot_norest","8734","4","23","Female","","false","","","","","[514.4000000059605,124.19999998807907]","./assets/img/ocean/memory/18.jpg","[""ArrowUp"",""ArrowLeft""]","value training","ocean","26","{""ArrowUp,ArrowLeft"":26,""ArrowUp,ArrowRight"":10,""ArrowDown,ArrowLeft"":5,""ArrowDown,ArrowRight"":17}","true","ArrowUp,ArrowLeft","false","revaluation","1","72","","",""
"html-keyboard-response","190","948887","0.0-4.0-2.0-1.36","spark_pilot_norest","8734","4","23","Female","","","","","","","null","<div style=""font-size:60px;"">+</div>","null","fixation","","","","","","","","","73","","",""
"revaluation","191","954900","0.0-4.0-2.0-0.37","spark_pilot_norest","8734","4","23","Female","","false","","","","","[769.5,279.59999999403954]","./assets/img/ocean/memory/40.jpg","[""ArrowUp"",""ArrowLeft""]","value training","ocean","26","{""ArrowUp,ArrowLeft"":26,""ArrowUp,ArrowRight"":10,""ArrowDown,ArrowLeft"":5,""ArrowDown,ArrowRight"":17}","true","ArrowUp,ArrowLeft","false","revaluation","1","74","","",""
"html-keyboard-response","192","955401","0.0-4.0-2.0-1.37","spark_pilot_norest","8734","4","23","Female","","","","","","","null","<div style=""font-size:60px;"">+</div>","null","fixation","","","","","","","","","75","","",""
"revaluation","193","959404","0.0-4.0-2.0-0.38","spark_pilot_norest","8734","4","23","Female","","false","","","","","[713.4000000059605]","./assets/img/ocean/catch/5.jpg","[""spaceBar""]","value training","ocean","0","{""ArrowUp,ArrowLeft"":26,""ArrowUp,ArrowRight"":10,""ArrowDown,ArrowLeft"":5,""ArrowDown,ArrowRight"":17}","true","spaceBar","true","revaluation","1","76","","",""
"html-keyboard-response","194","959905","0.0-4.0-2.0-1.38","spark_pilot_norest","8734","4","23","Female","","","","","","","null","<div style=""font-size:60px;"">+</div>","null","fixation","","","","","","","","","77","","",""
"revaluation","195","965911","0.0-4.0-2.0-0.39","spark_pilot_norest","8734","4","23","Female","","false","","","","","[625.8000000119209,240.40000000596046]","./assets/img/ocean/memory/4.jpg","[""ArrowUp"",""ArrowLeft""]","value training","ocean","26","{""ArrowUp,ArrowLeft"":26,""ArrowUp,ArrowRight"":10,""ArrowDown,ArrowLeft"":5,""ArrowDown,ArrowRight"":17}","true","ArrowUp,ArrowLeft","false","revaluation","1","78","","",""
"html-keyboard-response","196","966413","0.0-4.0-2.0-1.39","spark_pilot_norest","8734","4","23","Female","","","","","","","null","<div style=""font-size:60px;"">+</div>","null","fixation","","","","","","","","","79","","",""
"revaluation","197","972416","0.0-4.0-2.0-0.40","spark_pilot_norest","8734","4","23","Female","","false","","","","","[750.6000000238419,245.40000000596046]","./assets/img/ocean/memory/13.jpg","[""ArrowUp"",""ArrowLeft""]","value training","ocean","26","{""ArrowUp,ArrowLeft"":26,""ArrowUp,ArrowRight"":10,""ArrowDown,ArrowLeft"":5,""ArrowDown,ArrowRight"":17}","true","ArrowUp,ArrowLeft","false","revaluation","1","80","","",""
"html-keyboard-response","198","972917","0.0-4.0-2.0-1.40","spark_pilot_norest","8734","4","23","Female","","","","","","","null","<div style=""font-size:60px;"">+</div>","null","fixation","","","","","","","","","81","","",""
"revaluation","199","978922","0.0-4.0-2.0-0.41","spark_pilot_norest","8734","4","23","Female","","false","","","","","[613,260.39999997615814]","./assets/img/ocean/memory/12.jpg","[""ArrowUp"",""ArrowLeft""]","value training","ocean","26","{""ArrowUp,ArrowLeft"":26,""ArrowUp,ArrowRight"":10,""ArrowDown,ArrowLeft"":5,""ArrowDown,ArrowRight"":17}","true","ArrowUp,ArrowLeft","false","revaluation","1","82","","",""
"html-keyboard-response","200","979424","0.0-4.0-2.0-1.41","spark_pilot_norest","8734","4","23","Female","","","","","","","null","<div style=""font-size:60px;"">+</div>","null","fixation","","","","","","","","","83","","",""
"revaluation","201","985428","0.0-4.0-2.0-0.42","spark_pilot_norest","8734","4","23","Female","","false","","","","","[539,302.5]","./assets/img/ocean/memory/28.jpg","[""ArrowUp"",""ArrowLeft""]","value training","ocean","26","{""ArrowUp,ArrowLeft"":26,""ArrowUp,ArrowRight"":10,""ArrowDown,ArrowLeft"":5,""ArrowDown,ArrowRight"":17}","true","ArrowUp,ArrowLeft","false","revaluation","1","84","","",""
"html-keyboard-response","202","985929","0.0-4.0-2.0-1.42","spark_pilot_norest","8734","4","23","Female","","","","","","","null","<div style=""font-size:60px;"">+</div>","null","fixation","","","","","","","","","85","","",""
"revaluation","203","991933","0.0-4.0-2.0-0.43","spark_pilot_norest","8734","4","23","Female","","false","","","","","[734.5999999940395,369.10000002384186]","./assets/img/ocean/memory/36.jpg","[""ArrowUp"",""ArrowLeft""]","value training","ocean","26","{""ArrowUp,ArrowLeft"":26,""ArrowUp,ArrowRight"":10,""ArrowDown,ArrowLeft"":5,""ArrowDown,ArrowRight"":17}","true","ArrowUp,ArrowLeft","false","revaluation","1","86","","",""
"html-keyboard-response","204","992435","0.0-4.0-2.0-1.43","spark_pilot_norest","8734","4","23","Female","","","","","","","null","<div style=""font-size:60px;"">+</div>","null","fixation","","","","","","","","","87","","",""
"revaluation","205","996437","0.0-4.0-2.0-0.44","spark_pilot_norest","8734","4","23","Female","","false","","","","","[561.7999999821186]","./assets/img/ocean/catch/7.jpg","[""spaceBar""]","value training","ocean","0","{""ArrowUp,ArrowLeft"":26,""ArrowUp,ArrowRight"":10,""ArrowDown,ArrowLeft"":5,""ArrowDown,ArrowRight"":17}","true","spaceBar","true","revaluation","1","88","","",""
"html-keyboard-response","206","996938","0.0-4.0-2.0-1.44","spark_pilot_norest","8734","4","23","Female","","","","","","","null","<div style=""font-size:60px;"">+</div>","null","fixation","","","","","","","","","89","","",""
"revaluation","207","1002942","0.0-4.0-2.0-0.45","spark_pilot_norest","8734","4","23","Female","","false","","","","","[1058.2999999821186,327.59999999403954]","./assets/img/ocean/memory/13.jpg","[""ArrowUp"",""ArrowLeft""]","value training","ocean","26","{""ArrowUp,ArrowLeft"":26,""ArrowUp,ArrowRight"":10,""ArrowDown,ArrowLeft"":5,""ArrowDown,ArrowRight"":17}","true","ArrowUp,ArrowLeft","false","revaluation","1","90","","",""
"html-keyboard-response","208","1003444","0.0-4.0-2.0-1.45","spark_pilot_norest","8734","4","23","Female","","","","","","","null","<div style=""font-size:60px;"">+</div>","null","fixation","","","","","","","","","91","","",""
"revaluation","209","1009463","0.0-4.0-2.0-0.46","spark_pilot_norest","8734","4","23","Female","","false","","","","","[707.6000000238419,281]","./assets/img/ocean/memory/40.jpg","[""ArrowUp"",""ArrowLeft""]","value training","ocean","26","{""ArrowUp,ArrowLeft"":26,""ArrowUp,ArrowRight"":10,""ArrowDown,ArrowLeft"":5,""ArrowDown,ArrowRight"":17}","true","ArrowUp,ArrowLeft","false","revaluation","1","92","","",""
"html-keyboard-response","210","1009965","0.0-4.0-2.0-1.46","spark_pilot_norest","8734","4","23","Female","","","","","","","null","<div style=""font-size:60px;"">+</div>","null","fixation","","","","","","","","","93","","",""
"revaluation","211","1015970","0.0-4.0-2.0-0.47","spark_pilot_norest","8734","4","23","Female","","false","","","","","[1021.9000000059605,331.40000000596046]","./assets/img/ocean/memory/34.jpg","[""ArrowUp"",""ArrowLeft""]","value training","ocean","26","{""ArrowUp,ArrowLeft"":26,""ArrowUp,ArrowRight"":10,""ArrowDown,ArrowLeft"":5,""ArrowDown,ArrowRight"":17}","true","ArrowUp,ArrowLeft","false","revaluation","1","94","","",""
"html-keyboard-response","212","1016471","0.0-4.0-2.0-1.47","spark_pilot_norest","8734","4","23","Female","","","","","","","null","<div style=""font-size:60px;"">+</div>","null","fixation","","","","","","","","","95","","",""
"revaluation","213","1022475","0.0-4.0-2.0-0.48","spark_pilot_norest","8734","4","23","Female","","false","","","","","[1205.5,408.19999998807907]","./assets/img/ocean/memory/37.jpg","[""ArrowUp"",""ArrowLeft""]","value training","ocean","26","{""ArrowUp,ArrowLeft"":26,""ArrowUp,ArrowRight"":10,""ArrowDown,ArrowLeft"":5,""ArrowDown,ArrowRight"":17}","true","ArrowUp,ArrowLeft","false","revaluation","1","96","","",""
"html-keyboard-response","214","1022977","0.0-4.0-2.0-1.48","spark_pilot_norest","8734","4","23","Female","","","","","","","null","<div style=""font-size:60px;"">+</div>","null","fixation","","","","","","","","","97","","",""
"revaluation","215","1028992","0.0-4.0-2.0-0.49","spark_pilot_norest","8734","4","23","Female","","false","","","","","[1099.9000000059605,349.40000000596046]","./assets/img/ocean/memory/8.jpg","[""ArrowUp"",""ArrowLeft""]","value training","ocean","26","{""ArrowUp,ArrowLeft"":26,""ArrowUp,ArrowRight"":10,""ArrowDown,ArrowLeft"":5,""ArrowDown,ArrowRight"":17}","true","ArrowUp,ArrowLeft","false","revaluation","1","98","","",""
"html-keyboard-response","216","1029494","0.0-4.0-2.0-1.49","spark_pilot_norest","8734","4","23","Female","","","","","","","null","<div style=""font-size:60px;"">+</div>","null","fixation","","","","","","","","","99","","",""
"learning-instructions","217","1044415","0.0-4.0-3.0-0.0","spark_pilot_norest","8734","4","23","Female","","","","","","","2012","<p> Now, you will travel with a friend who will choose whether you go up or down first. </p>
            <p> On these turns, you will just see the animal that they found. You will still get to choose which chest to search for treasure.</p>","","instructions","","","","","","","","","","","",""
"revaluation","218","1048438","0.0-4.0-4.0-0.0","spark_pilot_norest","8734","4","23","Female","","false","","","","","[816.2000000178814]","./assets/img/ocean/animals/seahorse.jpg","[""ArrowRight""]","revaluation","ocean","27","{""ArrowUp,ArrowLeft"":2,""ArrowUp,ArrowRight"":11,""ArrowDown,ArrowLeft"":8,""ArrowDown,ArrowRight"":27}","true","ArrowDown,ArrowRight","","revaluation","1","0","","",""
"html-keyboard-response","219","1048945","0.0-4.0-4.0-1.0","spark_pilot_norest","8734","4","23","Female","","","","","","","null","<div style=""font-size:60px;"">+</div>","null","fixation","","","","","","","","","1","","",""
"revaluation","220","1052964","0.0-4.0-4.0-0.1","spark_pilot_norest","8734","4","23","Female","","false","","","","","[1074.5]","./assets/img/ocean/animals/octopus.jpg","[""ArrowRight""]","revaluation","ocean","11","{""ArrowUp,ArrowLeft"":2,""ArrowUp,ArrowRight"":11,""ArrowDown,ArrowLeft"":8,""ArrowDown,ArrowRight"":27}","true","ArrowUp,ArrowRight","","revaluation","1","2","","",""
"html-keyboard-response","221","1053479","0.0-4.0-4.0-1.1","spark_pilot_norest","8734","4","23","Female","","","","","","","null","<div style=""font-size:60px;"">+</div>","null","fixation","","","","","","","","","3","","",""
"revaluation","222","1057506","0.0-4.0-4.0-0.2","spark_pilot_norest","8734","4","23","Female","","false","","","","","[1242.9000000059605]","./assets/img/ocean/animals/octopus.jpg","[""ArrowLeft""]","revaluation","ocean","2","{""ArrowUp,ArrowLeft"":2,""ArrowUp,ArrowRight"":11,""ArrowDown,ArrowLeft"":8,""ArrowDown,ArrowRight"":27}","false","ArrowUp,ArrowLeft","","revaluation","1","4","","",""
"html-keyboard-response","223","1058009","0.0-4.0-4.0-1.2","spark_pilot_norest","8734","4","23","Female","","","","","","","null","<div style=""font-size:60px;"">+</div>","null","fixation","","","","","","","","","5","","",""
"revaluation","224","1062029","0.0-4.0-4.0-0.3","spark_pilot_norest","8734","4","23","Female","","false","","","","","[1143.0999999940395]","./assets/img/ocean/animals/octopus.jpg","[""ArrowRight""]","revaluation","ocean","11","{""ArrowUp,ArrowLeft"":2,""ArrowUp,ArrowRight"":11,""ArrowDown,ArrowLeft"":8,""ArrowDown,ArrowRight"":27}","true","ArrowUp,ArrowRight","","revaluation","1","6","","",""
"html-keyboard-response","225","1062536","0.0-4.0-4.0-1.3","spark_pilot_norest","8734","4","23","Female","","","","","","","null","<div style=""font-size:60px;"">+</div>","null","fixation","","","","","","","","","7","","",""
"revaluation","226","1066546","0.0-4.0-4.0-0.4","spark_pilot_norest","8734","4","23","Female","","false","","","","","[786]","./assets/img/ocean/animals/seahorse.jpg","[""ArrowLeft""]","revaluation","ocean","8","{""ArrowUp,ArrowLeft"":2,""ArrowUp,ArrowRight"":11,""ArrowDown,ArrowLeft"":8,""ArrowDown,ArrowRight"":27}","false","ArrowDown,ArrowLeft","","revaluation","1","8","","",""
"html-keyboard-response","227","1067047","0.0-4.0-4.0-1.4","spark_pilot_norest","8734","4","23","Female","","","","","","","null","<div style=""font-size:60px;"">+</div>","null","fixation","","","","","","","","","9","","",""
"revaluation","228","1071065","0.0-4.0-4.0-0.5","spark_pilot_norest","8734","4","23","Female","","false","","","","","[664.2000000178814]","./assets/img/ocean/animals/seahorse.jpg","[""ArrowRight""]","revaluation","ocean","27","{""ArrowUp,ArrowLeft"":2,""ArrowUp,ArrowRight"":11,""ArrowDown,ArrowLeft"":8,""ArrowDown,ArrowRight"":27}","true","ArrowDown,ArrowRight","","revaluation","1","10","","",""
"html-keyboard-response","229","1071568","0.0-4.0-4.0-1.5","spark_pilot_norest","8734","4","23","Female","","","","","","","null","<div style=""font-size:60px;"">+</div>","null","fixation","","","","","","","","","11","","",""
"revaluation","230","1075570","0.0-4.0-4.0-0.6","spark_pilot_norest","8734","4","23","Female","","false","","","","","[707.4000000059605]","./assets/img/ocean/animals/seahorse.jpg","[""ArrowRight""]","revaluation","ocean","27","{""ArrowUp,ArrowLeft"":2,""ArrowUp,ArrowRight"":11,""ArrowDown,ArrowLeft"":8,""ArrowDown,ArrowRight"":27}","true","ArrowDown,ArrowRight","","revaluation","1","12","","",""
"html-keyboard-response","231","1076071","0.0-4.0-4.0-1.6","spark_pilot_norest","8734","4","23","Female","","","","","","","null","<div style=""font-size:60px;"">+</div>","null","fixation","","","","","","","","","13","","",""
"revaluation","232","1080074","0.0-4.0-4.0-0.7","spark_pilot_norest","8734","4","23","Female","","false","","","","","[352.69999998807907]","./assets/img/ocean/animals/seahorse.jpg","[""ArrowRight""]","revaluation","ocean","27","{""ArrowUp,ArrowLeft"":2,""ArrowUp,ArrowRight"":11,""ArrowDown,ArrowLeft"":8,""ArrowDown,ArrowRight"":27}","true","ArrowDown,ArrowRight","","revaluation","1","14","","",""
"html-keyboard-response","233","1080575","0.0-4.0-4.0-1.7","spark_pilot_norest","8734","4","23","Female","","","","","","","null","<div style=""font-size:60px;"">+</div>","null","fixation","","","","","","","","","15","","",""
"revaluation","234","1084578","0.0-4.0-4.0-0.8","spark_pilot_norest","8734","4","23","Female","","false","","","","","[930.4000000059605]","./assets/img/ocean/animals/octopus.jpg","[""ArrowRight""]","revaluation","ocean","11","{""ArrowUp,ArrowLeft"":2,""ArrowUp,ArrowRight"":11,""ArrowDown,ArrowLeft"":8,""ArrowDown,ArrowRight"":27}","true","ArrowUp,ArrowRight","","revaluation","1","16","","",""
"html-keyboard-response","235","1085080","0.0-4.0-4.0-1.8","spark_pilot_norest","8734","4","23","Female","","","","","","","null","<div style=""font-size:60px;"">+</div>","null","fixation","","","","","","","","","17","","",""
"revaluation","236","1089082","0.0-4.0-4.0-0.9","spark_pilot_norest","8734","4","23","Female","","false","","","","","[386.60000002384186]","./assets/img/ocean/animals/octopus.jpg","[""ArrowRight""]","revaluation","ocean","11","{""ArrowUp,ArrowLeft"":2,""ArrowUp,ArrowRight"":11,""ArrowDown,ArrowLeft"":8,""ArrowDown,ArrowRight"":27}","true","ArrowUp,ArrowRight","","revaluation","1","18","","",""
"html-keyboard-response","237","1089584","0.0-4.0-4.0-1.9","spark_pilot_norest","8734","4","23","Female","","","","","","","null","<div style=""font-size:60px;"">+</div>","null","fixation","","","","","","","","","19","","",""
"revaluation","238","1093586","0.0-4.0-4.0-0.10","spark_pilot_norest","8734","4","23","Female","","false","","","","","[910.8999999761581]","./assets/img/ocean/animals/octopus.jpg","[""ArrowLeft""]","revaluation","ocean","2","{""ArrowUp,ArrowLeft"":2,""ArrowUp,ArrowRight"":11,""ArrowDown,ArrowLeft"":8,""ArrowDown,ArrowRight"":27}","false","ArrowUp,ArrowLeft","","revaluation","1","20","","",""
"html-keyboard-response","239","1094087","0.0-4.0-4.0-1.10","spark_pilot_norest","8734","4","23","Female","","","","","","","null","<div style=""font-size:60px;"">+</div>","null","fixation","","","","","","","","","21","","",""
"revaluation","240","1098090","0.0-4.0-4.0-0.11","spark_pilot_norest","8734","4","23","Female","","false","","","","","[462.30000001192093]","./assets/img/ocean/animals/seahorse.jpg","[""ArrowRight""]","revaluation","ocean","27","{""ArrowUp,ArrowLeft"":2,""ArrowUp,ArrowRight"":11,""ArrowDown,ArrowLeft"":8,""ArrowDown,ArrowRight"":27}","true","ArrowDown,ArrowRight","","revaluation","1","22","","",""
"html-keyboard-response","241","1098591","0.0-4.0-4.0-1.11","spark_pilot_norest","8734","4","23","Female","","","","","","","null","<div style=""font-size:60px;"">+</div>","null","fixation","","","","","","","","","23","","",""
"revaluation","242","1102601","0.0-4.0-4.0-0.12","spark_pilot_norest","8734","4","23","Female","","false","","","","","[305.2999999821186]","./assets/img/ocean/animals/seahorse.jpg","[""ArrowRight""]","revaluation","ocean","27","{""ArrowUp,ArrowLeft"":2,""ArrowUp,ArrowRight"":11,""ArrowDown,ArrowLeft"":8,""ArrowDown,ArrowRight"":27}","true","ArrowDown,ArrowRight","","revaluation","1","24","","",""
"html-keyboard-response","243","1103102","0.0-4.0-4.0-1.12","spark_pilot_norest","8734","4","23","Female","","","","","","","null","<div style=""font-size:60px;"">+</div>","null","fixation","","","","","","","","","25","","",""
"revaluation","244","1107105","0.0-4.0-4.0-0.13","spark_pilot_norest","8734","4","23","Female","","false","","","","","[394]","./assets/img/ocean/animals/octopus.jpg","[""ArrowRight""]","revaluation","ocean","11","{""ArrowUp,ArrowLeft"":2,""ArrowUp,ArrowRight"":11,""ArrowDown,ArrowLeft"":8,""ArrowDown,ArrowRight"":27}","true","ArrowUp,ArrowRight","","revaluation","1","26","","",""
"html-keyboard-response","245","1107607","0.0-4.0-4.0-1.13","spark_pilot_norest","8734","4","23","Female","","","","","","","null","<div style=""font-size:60px;"">+</div>","null","fixation","","","","","","","","","27","","",""
"revaluation","246","1111609","0.0-4.0-4.0-0.14","spark_pilot_norest","8734","4","23","Female","","false","","","","","[256.7999999821186]","./assets/img/ocean/animals/octopus.jpg","[""ArrowRight""]","revaluation","ocean","11","{""ArrowUp,ArrowLeft"":2,""ArrowUp,ArrowRight"":11,""ArrowDown,ArrowLeft"":8,""ArrowDown,ArrowRight"":27}","true","ArrowUp,ArrowRight","","revaluation","1","28","","",""
"html-keyboard-response","247","1112111","0.0-4.0-4.0-1.14","spark_pilot_norest","8734","4","23","Female","","","","","","","null","<div style=""font-size:60px;"">+</div>","null","fixation","","","","","","","","","29","","",""
"revaluation","248","1116113","0.0-4.0-4.0-0.15","spark_pilot_norest","8734","4","23","Female","","false","","","","","[255.7000000178814]","./assets/img/ocean/animals/seahorse.jpg","[""ArrowRight""]","revaluation","ocean","27","{""ArrowUp,ArrowLeft"":2,""ArrowUp,ArrowRight"":11,""ArrowDown,ArrowLeft"":8,""ArrowDown,ArrowRight"":27}","true","ArrowDown,ArrowRight","","revaluation","1","30","","",""
"html-keyboard-response","249","1116615","0.0-4.0-4.0-1.15","spark_pilot_norest","8734","4","23","Female","","","","","","","null","<div style=""font-size:60px;"">+</div>","null","fixation","","","","","","","","","31","","",""
"revaluation","250","1120618","0.0-4.0-4.0-0.16","spark_pilot_norest","8734","4","23","Female","","false","","","","","[872.9000000059605]","./assets/img/ocean/animals/octopus.jpg","[""ArrowRight""]","revaluation","ocean","11","{""ArrowUp,ArrowLeft"":2,""ArrowUp,ArrowRight"":11,""ArrowDown,ArrowLeft"":8,""ArrowDown,ArrowRight"":27}","true","ArrowUp,ArrowRight","","revaluation","1","32","","",""
"html-keyboard-response","251","1121120","0.0-4.0-4.0-1.16","spark_pilot_norest","8734","4","23","Female","","","","","","","null","<div style=""font-size:60px;"">+</div>","null","fixation","","","","","","","","","33","","",""
"revaluation","252","1125123","0.0-4.0-4.0-0.17","spark_pilot_norest","8734","4","23","Female","","false","","","","","[551.4000000059605]","./assets/img/ocean/animals/seahorse.jpg","[""ArrowRight""]","revaluation","ocean","27","{""ArrowUp,ArrowLeft"":2,""ArrowUp,ArrowRight"":11,""ArrowDown,ArrowLeft"":8,""ArrowDown,ArrowRight"":27}","true","ArrowDown,ArrowRight","","revaluation","1","34","","",""
"html-keyboard-response","253","1125625","0.0-4.0-4.0-1.17","spark_pilot_norest","8734","4","23","Female","","","","","","","null","<div style=""font-size:60px;"">+</div>","null","fixation","","","","","","","","","35","","",""
"learning-instructions","254","1133775","0.0-4.0-5.0-0.0","spark_pilot_norest","8734","4","23","Female","","","","","","","null","<p> You have almost finished this part of the game! </p>
            <p> We are going to ask you to make a few more choices. </p>","","instructions","","","","","","","","","","","",""
"learning-instructions","255","1149757","0.0-4.0-5.0-0.1","spark_pilot_norest","8734","4","23","Female","","","","","","","null","<p> First, you need to decide whether to go up or down. When you see each picture, use the arrow keys to make your choice. </p>
            <p><b>You will not see which animal you found, but try to get to the one that will give you the most treasure.</b></p>","","instructions","","","","","","","","","","","",""
"html-keyboard-response","256","1150769","0.0-4.0-6.0-0.0","spark_pilot_norest","8734","4","23","Female","","","","","","","null","<div style=""font-size:100px;color:red;"">Starting in...</div>","null","","","","","","","","","","","","",""
"html-keyboard-response","257","1151773","0.0-4.0-6.0-1.0","spark_pilot_norest","8734","4","23","Female","","","","","","","null","<div style=""font-size:200px;color:red;"">3</div>","null","","","","","","","","","","","","",""
"html-keyboard-response","258","1152777","0.0-4.0-6.0-2.0","spark_pilot_norest","8734","4","23","Female","","","","","","","null","<div style=""font-size:200px;color:red;"">2</div>","null","","","","","","","","","","","","",""
"html-keyboard-response","259","1153785","0.0-4.0-6.0-3.0","spark_pilot_norest","8734","4","23","Female","","","","","","","null","<div style=""font-size:200px;color:red;"">1</div>","null","","","","","","","","","","","","",""
"revaluation","260","1154693","0.0-4.0-7.0-0.0","spark_pilot_norest","8734","4","23","Female","","false","","","","","[907.0999999940395]","./assets/img/ocean/test/3.jpg","[""ArrowDown""]","first stage test","ocean","0","{""ArrowUp,ArrowLeft"":2,""ArrowUp,ArrowRight"":11,""ArrowDown,ArrowLeft"":8,""ArrowDown,ArrowRight"":27}","true","ArrowDown","false","revaluation","1","","","",""
"html-keyboard-response","261","1155203","0.0-4.0-7.0-1.0","spark_pilot_norest","8734","4","23","Female","","","","","","","null","<div style=""font-size:60px;"">+</div>","null","fixation","","","","","","","","","","","",""
"revaluation","262","1156426","0.0-4.0-7.0-0.1","spark_pilot_norest","8734","4","23","Female","","false","","","","","[1221]","./assets/img/ocean/test/2.jpg","[""ArrowDown""]","first stage test","ocean","0","{""ArrowUp,ArrowLeft"":2,""ArrowUp,ArrowRight"":11,""ArrowDown,ArrowLeft"":8,""ArrowDown,ArrowRight"":27}","true","ArrowDown","false","revaluation","1","","","",""
"html-keyboard-response","263","1156929","0.0-4.0-7.0-1.1","spark_pilot_norest","8734","4","23","Female","","","","","","","null","<div style=""font-size:60px;"">+</div>","null","fixation","","","","","","","","","","","",""
"revaluation","264","1158374","0.0-4.0-7.0-0.2","spark_pilot_norest","8734","4","23","Female","","false","","","","","[1443.6000000238419]","./assets/img/ocean/test/1.jpg","[""ArrowDown""]","first stage test","ocean","0","{""ArrowUp,ArrowLeft"":2,""ArrowUp,ArrowRight"":11,""ArrowDown,ArrowLeft"":8,""ArrowDown,ArrowRight"":27}","true","ArrowDown","false","revaluation","1","","","",""
"html-keyboard-response","265","1158884","0.0-4.0-7.0-1.2","spark_pilot_norest","8734","4","23","Female","","","","","","","null","<div style=""font-size:60px;"">+</div>","null","fixation","","","","","","","","","","","",""
"revaluation","266","1160132","0.0-4.0-7.0-0.3","spark_pilot_norest","8734","4","23","Female","","false","","","","","[1247.2000000178814]","./assets/img/ocean/test/0.jpg","[""ArrowUp""]","first stage test","ocean","0","{""ArrowUp,ArrowLeft"":2,""ArrowUp,ArrowRight"":11,""ArrowDown,ArrowLeft"":8,""ArrowDown,ArrowRight"":27}","false","ArrowUp","false","revaluation","1","","","",""
"html-keyboard-response","267","1160641","0.0-4.0-7.0-1.3","spark_pilot_norest","8734","4","23","Female","","","","","","","null","<div style=""font-size:60px;"">+</div>","null","fixation","","","","","","","","","","","",""
"learning-instructions","268","1173987","0.0-4.0-8.0-0.0","spark_pilot_norest","8734","4","23","Female","","","","","","","null","<p> Now you will see the animals again and can search their chests for treasure. </p>
            <p> This time, you will not see how much treasure you earned, but you will earn more bonus money for making better choices. </p>","","instructions","","","","","","","","","","","",""
"html-keyboard-response","269","1174991","0.0-4.0-9.0-0.0","spark_pilot_norest","8734","4","23","Female","","","","","","","null","<div style=""font-size:100px;color:red;"">Starting in...</div>","null","","","","","","","","","","","","",""
"html-keyboard-response","270","1175998","0.0-4.0-9.0-1.0","spark_pilot_norest","8734","4","23","Female","","","","","","","null","<div style=""font-size:200px;color:red;"">3</div>","null","","","","","","","","","","","","",""
"html-keyboard-response","271","1176999","0.0-4.0-9.0-2.0","spark_pilot_norest","8734","4","23","Female","","","","","","","null","<div style=""font-size:200px;color:red;"">2</div>","null","","","","","","","","","","","","",""
"html-keyboard-response","272","1178000","0.0-4.0-9.0-3.0","spark_pilot_norest","8734","4","23","Female","","","","","","","null","<div style=""font-size:200px;color:red;"">1</div>","null","","","","","","","","","","","","",""
"revaluation","273","1178971","0.0-4.0-10.0-0.0","spark_pilot_norest","8734","4","23","Female","","false","","","","","[969]","./assets/img/ocean/animals/octopus.jpg","[""ArrowLeft""]","second stage test","ocean","0","{""ArrowUp,ArrowLeft"":2,""ArrowUp,ArrowRight"":11,""ArrowDown,ArrowLeft"":8,""ArrowDown,ArrowRight"":27}","false","ArrowUp,ArrowLeft","","revaluation","1","","","",""
"html-keyboard-response","274","1179479","0.0-4.0-10.0-1.0","spark_pilot_norest","8734","4","23","Female","","","","","","","null","<div style=""font-size:60px;"">+</div>","null","fixation","","","","","","","","","","","",""
"revaluation","275","1180171","0.0-4.0-10.0-0.1","spark_pilot_norest","8734","4","23","Female","","false","","","","","[690.2999999821186]","./assets/img/ocean/animals/octopus.jpg","[""ArrowRight""]","second stage test","ocean","0","{""ArrowUp,ArrowLeft"":2,""ArrowUp,ArrowRight"":11,""ArrowDown,ArrowLeft"":8,""ArrowDown,ArrowRight"":27}","true","ArrowUp,ArrowRight","","revaluation","1","","","",""
"html-keyboard-response","276","1180683","0.0-4.0-10.0-1.1","spark_pilot_norest","8734","4","23","Female","","","","","","","null","<div style=""font-size:60px;"">+</div>","null","fixation","","","","","","","","","","","",""
"revaluation","277","1181359","0.0-4.0-10.0-0.2","spark_pilot_norest","8734","4","23","Female","","false","","","","","[674.9000000059605]","./assets/img/ocean/animals/octopus.jpg","[""ArrowLeft""]","second stage test","ocean","0","{""ArrowUp,ArrowLeft"":2,""ArrowUp,ArrowRight"":11,""ArrowDown,ArrowLeft"":8,""ArrowDown,ArrowRight"":27}","false","ArrowUp,ArrowLeft","","revaluation","1","","","",""
"html-keyboard-response","278","1181864","0.0-4.0-10.0-1.2","spark_pilot_norest","8734","4","23","Female","","","","","","","null","<div style=""font-size:60px;"">+</div>","null","fixation","","","","","","","","","","","",""
"revaluation","279","1182256","0.0-4.0-10.0-0.3","spark_pilot_norest","8734","4","23","Female","","false","","","","","[390.80000001192093]","./assets/img/ocean/animals/octopus.jpg","[""ArrowRight""]","second stage test","ocean","0","{""ArrowUp,ArrowLeft"":2,""ArrowUp,ArrowRight"":11,""ArrowDown,ArrowLeft"":8,""ArrowDown,ArrowRight"":27}","true","ArrowUp,ArrowRight","","revaluation","1","","","",""
"html-keyboard-response","280","1182766","0.0-4.0-10.0-1.3","spark_pilot_norest","8734","4","23","Female","","","","","","","null","<div style=""font-size:60px;"">+</div>","null","fixation","","","","","","","","","","","",""
"revaluation","281","1183231","0.0-4.0-10.0-0.4","spark_pilot_norest","8734","4","23","Female","","false","","","","","[463.80000001192093]","./assets/img/ocean/animals/seahorse.jpg","[""ArrowRight""]","second stage test","ocean","0","{""ArrowUp,ArrowLeft"":2,""ArrowUp,ArrowRight"":11,""ArrowDown,ArrowLeft"":8,""ArrowDown,ArrowRight"":27}","true","ArrowDown,ArrowRight","","revaluation","1","","","",""
"html-keyboard-response","282","1183746","0.0-4.0-10.0-1.4","spark_pilot_norest","8734","4","23","Female","","","","","","","null","<div style=""font-size:60px;"">+</div>","null","fixation","","","","","","","","","","","",""
"revaluation","283","1184091","0.0-4.0-10.0-0.5","spark_pilot_norest","8734","4","23","Female","","false","","","","","[344.09999999403954]","./assets/img/ocean/animals/seahorse.jpg","[""ArrowRight""]","second stage test","ocean","0","{""ArrowUp,ArrowLeft"":2,""ArrowUp,ArrowRight"":11,""ArrowDown,ArrowLeft"":8,""ArrowDown,ArrowRight"":27}","true","ArrowDown,ArrowRight","","revaluation","1","","","",""
"html-keyboard-response","284","1184603","0.0-4.0-10.0-1.5","spark_pilot_norest","8734","4","23","Female","","","","","","","null","<div style=""font-size:60px;"">+</div>","null","fixation","","","","","","","","","","","",""
"revaluation","285","1184891","0.0-4.0-10.0-0.6","spark_pilot_norest","8734","4","23","Female","","false","","","","","[286.90000000596046]","./assets/img/ocean/animals/seahorse.jpg","[""ArrowRight""]","second stage test","ocean","0","{""ArrowUp,ArrowLeft"":2,""ArrowUp,ArrowRight"":11,""ArrowDown,ArrowLeft"":8,""ArrowDown,ArrowRight"":27}","true","ArrowDown,ArrowRight","","revaluation","1","","","",""
"html-keyboard-response","286","1185400","0.0-4.0-10.0-1.6","spark_pilot_norest","8734","4","23","Female","","","","","","","null","<div style=""font-size:60px;"">+</div>","null","fixation","","","","","","","","","","","",""
"revaluation","287","1185674","0.0-4.0-10.0-0.7","spark_pilot_norest","8734","4","23","Female","","false","","","","","[273.39999997615814]","./assets/img/ocean/animals/seahorse.jpg","[""ArrowRight""]","second stage test","ocean","0","{""ArrowUp,ArrowLeft"":2,""ArrowUp,ArrowRight"":11,""ArrowDown,ArrowLeft"":8,""ArrowDown,ArrowRight"":27}","true","ArrowDown,ArrowRight","","revaluation","1","","","",""
"html-keyboard-response","288","1186179","0.0-4.0-10.0-1.7","spark_pilot_norest","8734","4","23","Female","","","","","","","null","<div style=""font-size:60px;"">+</div>","null","fixation","","","","","","","","","","","",""
"learning-instructions","289","1200509","0.0-4.0-0.1-0.2","spark_pilot_norest","8734","4","23","Female","","","","","","","11565.300000011921","<p> This time you are searching for treasure in the <b>canyon</b>.</p>","","instructions","","","","","","","","","","","",""
"learning-instructions","290","1218974","0.0-4.0-0.1-0.3","spark_pilot_norest","8734","4","23","Female","","","","","","","1210.5999999940395","<p><b>New</b> animals with <b>new</b> treasure chests live here. You need to explore to discover where the animal with the best treasure chest is.</p>
                    <p> Like before, once you figure out which animal has the chest with the most treasure, you should try to get to that animal and select that chest! </p>","","instructions","","","","","","","","","","","",""
"learning-instructions","291","1236399","0.0-4.0-1.1-0.1","spark_pilot_norest","8734","4","23","Female","","","","","","","2694.7999999821186","<p> Remember, when you see a picture of the place, use the up and down keys to <b>find an animal</b>.</p>
            <p> When you encounter an animal, you should use the left and right keys to <b>select a treasure chest</b>.</p>
            <p> Don't forget to look out for the robber! </p>","","instructions","","","","","","","","","","","",""
"revaluation","292","1242417","0.0-4.0-2.1-0.50","spark_pilot_norest","8734","4","23","Female","","false","","","","","[796.8000000119209,1008.6999999880791]","./assets/img/canyon/memory/8.jpg","[""ArrowUp"",""ArrowLeft""]","value training","canyon","23","{""ArrowUp,ArrowLeft"":23,""ArrowUp,ArrowRight"":10,""ArrowDown,ArrowLeft"":8,""ArrowDown,ArrowRight"":30}","false","ArrowUp,ArrowLeft","false","original","2","0","","",""
"html-keyboard-response","293","1242931","0.0-4.0-2.1-1.50","spark_pilot_norest","8734","4","23","Female","","","","","","","null","<div style=""font-size:60px;"">+</div>","null","fixation","","","","","","","","","1","","",""
"revaluation","294","1246945","0.0-4.0-2.1-0.51","spark_pilot_norest","8734","4","23","Female","","false","","","","","[815.6999999880791]","./assets/img/canyon/catch/7.jpg","[""spaceBar""]","value training","canyon","0","{""ArrowUp,ArrowLeft"":23,""ArrowUp,ArrowRight"":10,""ArrowDown,ArrowLeft"":8,""ArrowDown,ArrowRight"":30}","true","spaceBar","true","original","2","2","","",""
"html-keyboard-response","295","1247447","0.0-4.0-2.1-1.51","spark_pilot_norest","8734","4","23","Female","","","","","","","null","<div style=""font-size:60px;"">+</div>","null","fixation","","","","","","","","","3","","",""
"revaluation","296","1253491","0.0-4.0-2.1-0.52","spark_pilot_norest","8734","4","23","Female","","false","","","","","[699.7000000178814,345.40000000596046]","./assets/img/canyon/memory/38.jpg","[""ArrowUp"",""ArrowRight""]","value training","canyon","10","{""ArrowUp,ArrowLeft"":23,""ArrowUp,ArrowRight"":10,""ArrowDown,ArrowLeft"":8,""ArrowDown,ArrowRight"":30}","false","ArrowUp,ArrowRight","false","original","2","4","","",""
"html-keyboard-response","297","1254004","0.0-4.0-2.1-1.52","spark_pilot_norest","8734","4","23","Female","","","","","","","null","<div style=""font-size:60px;"">+</div>","null","fixation","","","","","","","","","5","","",""
"revaluation","298","1260034","0.0-4.0-2.1-0.53","spark_pilot_norest","8734","4","23","Female","","false","","","","","[551.8999999761581,1556.7000000178814]","./assets/img/canyon/memory/13.jpg","[""ArrowDown"",""ArrowLeft""]","value training","canyon","8","{""ArrowUp,ArrowLeft"":23,""ArrowUp,ArrowRight"":10,""ArrowDown,ArrowLeft"":8,""ArrowDown,ArrowRight"":30}","false","ArrowDown,ArrowLeft","false","original","2","6","","",""
"html-keyboard-response","299","1260539","0.0-4.0-2.1-1.53","spark_pilot_norest","8734","4","23","Female","","","","","","","null","<div style=""font-size:60px;"">+</div>","null","fixation","","","","","","","","","7","","",""
"revaluation","300","1266548","0.0-4.0-2.1-0.54","spark_pilot_norest","8734","4","23","Female","","false","","","","","[906.2000000178814,385.90000000596046]","./assets/img/canyon/memory/28.jpg","[""ArrowDown"",""ArrowRight""]","value training","canyon","30","{""ArrowUp,ArrowLeft"":23,""ArrowUp,ArrowRight"":10,""ArrowDown,ArrowLeft"":8,""ArrowDown,ArrowRight"":30}","true","ArrowDown,ArrowRight","false","original","2","8","","",""
"html-keyboard-response","301","1267049","0.0-4.0-2.1-1.54","spark_pilot_norest","8734","4","23","Female","","","","","","","null","<div style=""font-size:60px;"">+</div>","null","fixation","","","","","","","","","9","","",""
"revaluation","302","1273052","0.0-4.0-2.1-0.55","spark_pilot_norest","8734","4","23","Female","","false","","","","","[1023.5,717]","./assets/img/canyon/memory/4.jpg","[""ArrowDown"",""ArrowRight""]","value training","canyon","30","{""ArrowUp,ArrowLeft"":23,""ArrowUp,ArrowRight"":10,""ArrowDown,ArrowLeft"":8,""ArrowDown,ArrowRight"":30}","true","ArrowDown,ArrowRight","false","original","2","10","","",""
"html-keyboard-response","303","1273553","0.0-4.0-2.1-1.55","spark_pilot_norest","8734","4","23","Female","","","","","","","null","<div style=""font-size:60px;"">+</div>","null","fixation","","","","","","","","","11","","",""
"revaluation","304","1279557","0.0-4.0-2.1-0.56","spark_pilot_norest","8734","4","23","Female","","false","","","","","[1132.0999999940395,860.9000000059605]","./assets/img/canyon/memory/40.jpg","[""ArrowDown"",""ArrowRight""]","value training","canyon","30","{""ArrowUp,ArrowLeft"":23,""ArrowUp,ArrowRight"":10,""ArrowDown,ArrowLeft"":8,""ArrowDown,ArrowRight"":30}","true","ArrowDown,ArrowRight","false","original","2","12","","",""
"html-keyboard-response","305","1280058","0.0-4.0-2.1-1.56","spark_pilot_norest","8734","4","23","Female","","","","","","","null","<div style=""font-size:60px;"">+</div>","null","fixation","","","","","","","","","13","","",""
"revaluation","306","1286063","0.0-4.0-2.1-0.57","spark_pilot_norest","8734","4","23","Female","","false","","","","","[1236.5999999940395,1185.699999988079]","./assets/img/canyon/memory/34.jpg","[""ArrowDown"",""ArrowRight""]","value training","canyon","30","{""ArrowUp,ArrowLeft"":23,""ArrowUp,ArrowRight"":10,""ArrowDown,ArrowLeft"":8,""ArrowDown,ArrowRight"":30}","true","ArrowDown,ArrowRight","false","original","2","14","","",""
"html-keyboard-response","307","1286568","0.0-4.0-2.1-1.57","spark_pilot_norest","8734","4","23","Female","","","","","","","null","<div style=""font-size:60px;"">+</div>","null","fixation","","","","","","","","","15","","",""
"revaluation","308","1292572","0.0-4.0-2.1-0.58","spark_pilot_norest","8734","4","23","Female","","false","","","","","[812.8999999761581,492.69999998807907]","./assets/img/canyon/memory/40.jpg","[""ArrowDown"",""ArrowRight""]","value training","canyon","30","{""ArrowUp,ArrowLeft"":23,""ArrowUp,ArrowRight"":10,""ArrowDown,ArrowLeft"":8,""ArrowDown,ArrowRight"":30}","true","ArrowDown,ArrowRight","false","original","2","16","","",""
"html-keyboard-response","309","1293074","0.0-4.0-2.1-1.58","spark_pilot_norest","8734","4","23","Female","","","","","","","null","<div style=""font-size:60px;"">+</div>","null","fixation","","","","","","","","","17","","",""
"revaluation","310","1299078","0.0-4.0-2.1-0.59","spark_pilot_norest","8734","4","23","Female","","false","","","","","[678.5,393.69999998807907]","./assets/img/canyon/memory/36.jpg","[""ArrowDown"",""ArrowRight""]","value training","canyon","30","{""ArrowUp,ArrowLeft"":23,""ArrowUp,ArrowRight"":10,""ArrowDown,ArrowLeft"":8,""ArrowDown,ArrowRight"":30}","true","ArrowDown,ArrowRight","false","original","2","18","","",""
"html-keyboard-response","311","1299579","0.0-4.0-2.1-1.59","spark_pilot_norest","8734","4","23","Female","","","","","","","null","<div style=""font-size:60px;"">+</div>","null","fixation","","","","","","","","","19","","",""
