"trial_type","trial_index","time_elapsed","internal_node_id","task_version","subject_id","assigned_condition","age","gender","success","timeout","failed_images","failed_audio","failed_video","browser_interaction","rt","stimulus","response","task_part","environment","score","rewardMap","correct","fullState","isCatch","condition","order","trial_num","key_press","ground_truth","bonus"
"pavlovia","0","1145","0.0-0.0","spark_pilot_norest","10037","1","10","Female","","","","","","","","","","","","","","","","","","","","","",""
"preload","1","31453","0.0-1.0","spark_pilot_norest","10037","1","10","Female","true","false","[]","[]","[]","[{""event"":""blur"",""trial"":2,""time"":40721},{""event"":""focus"",""trial"":2,""time"":65843},{""event"":""fullscreenenter"",""trial"":2,""time"":65999}]","","","","","","","","","","","","","","","",""
"fullscreen","2","66981","0.0-2.0","spark_pilot_norest","10037","1","10","Female","true","","","","","","","","","","","","","","","","","","","","",""
"audio-button-response","3","68840","0.0-3.0-0.0-0.0","spark_pilot_norest","10037","1","10","Female","","","","","","","1600","./assets/audio/audiotest/turtle.mp3","2","audio_test","","","","","","","","","","","",""
"learning-instructions","4","77681","0.0-3.0-1.0-0.0","spark_pilot_norest","10037","1","10","Female","","","","","","","1833.7000000476837","<p> Welcome! Please remember to stay in fullscreen mode and don't click away from the experiment. </p>","","instructions","","","","","","","","","","","",""
"learning-instructions","5","87378","0.0-3.0-1.0-0.1","spark_pilot_norest","10037","1","10","Female","","","","","","","1286.2000000476837","<p> Today you will be playing a game to earn treasure. </p>
            <p> At the end of the experiment, you will earn a bonus based on how much treasure you find. </p>
            <img src='./assets/img/instructions/treasure.jpg' class='instructions-image'>","","instructions","","","","","","","","","","","",""
"learning-instructions","6","96940","0.0-3.0-1.0-0.2","spark_pilot_norest","10037","1","10","Female","","","","","","","1317","<p> Animals have hidden treasure in treasure chests. </p>
            <p> You need to first find an animal and then choose which of their treasure chests to search. </p>
            <img src='./assets/img/space/animals/cat.jpg' class='instructions-image'>","","instructions","","","","","","","","","","","",""
"learning-instructions","7","110694","0.0-3.0-1.0-0.3","spark_pilot_norest","10037","1","10","Female","","","","","","","611.5","<p> In each round, you will search for treasure in a different place. In the real game, there will be two rounds. </p>
            <p> You will begin with a separate, practice round where you will search for treasure in outer space. </p>
            <img src='./assets/img/space/0.jpg' class='instructions-image'>","","instructions","","","","","","","","","","","",""
"learning-instructions","8","123995","0.0-3.0-1.0-0.4","spark_pilot_norest","10037","1","10","Female","","","","","","","1892.3999998569489","<p> On every turn, you will see a picture of the place that you are in, but the specific image may be different each time. </p>
            <p> For example, both of these images mean you are in outer space. </p>
            <img src='./assets/img/instructions/outerspace.jpg' class='instructions-image'>","","instructions","","","","","","","","","","","",""
"learning-instructions","9","134111","0.0-3.0-1.0-0.5","spark_pilot_norest","10037","1","10","Female","","","","","","","2297.9000000953674","<p> You need to decide which direction to travel in. </p>
            <p> You can choose between going <b>up or down</b> by using the arrow keys. </p>
            <img src='./assets/img/instructions/updown.jpg' class='instructions-image'>","","instructions","","","","","","","","","","","",""
"learning-instructions","10","143976","0.0-3.0-1.0-0.6","spark_pilot_norest","10037","1","10","Female","","","","","","","1053.1000001430511","<p> You will have <b>2 seconds</b> to make your choice. </p>
            <p> If you do not make a choice within 2 seconds, you will not find an animal or earn treasure. </p>
            <img src='./assets/img/instructions/2seconds.jpg' class='instructions-image'>","","instructions","","","","","","","","","","","",""
"learning-instructions","11","153969","0.0-3.0-1.0-0.7","spark_pilot_norest","10037","1","10","Female","","","","","","","2967.2999999523163","<p> Let’s try practicing that now! </p>
            <p> When you see a picture of the place you are in, press the <b>up</b> key to travel up. </p>
            <img src='./assets/img/instructions/pressUp.jpg' class='instructions-image'>","","instructions","","","","","","","","","","","",""
"revaluation","12","157990","0.0-3.0-2.0-0.0","spark_pilot_norest","10037","1","10","Female","","true","","","","","[]","./assets/img/space/0.jpg","[]","first stage practice","space","-5","null","null","","false","","","","","",""
"html-keyboard-response","13","158505","0.0-3.0-2.0-1.0","spark_pilot_norest","10037","1","10","Female","","","","","","","null","<div style=""font-size:60px;"">+</div>","null","fixation","","","","","","","","","","","",""
"revaluation","14","162518","0.0-3.0-2.0-0.1","spark_pilot_norest","10037","1","10","Female","","false","","","","","[737]","./assets/img/space/1.jpg","[""ArrowUp""]","first stage practice","space","0","null","null","ArrowUp","false","","","","","",""
"html-keyboard-response","15","163020","0.0-3.0-2.0-1.1","spark_pilot_norest","10037","1","10","Female","","","","","","","null","<div style=""font-size:60px;"">+</div>","null","fixation","","","","","","","","","","","",""
"revaluation","16","167035","0.0-3.0-2.0-0.2","spark_pilot_norest","10037","1","10","Female","","false","","","","","[1946.8000001907349]","./assets/img/space/2.jpg","[""ArrowUp""]","first stage practice","space","0","null","null","ArrowUp","false","","","","","",""
"html-keyboard-response","17","167538","0.0-3.0-2.0-1.2","spark_pilot_norest","10037","1","10","Female","","","","","","","null","<div style=""font-size:60px;"">+</div>","null","fixation","","","","","","","","","","","",""
"learning-instructions","18","174479","0.0-3.0-3.0-0.0","spark_pilot_norest","10037","1","10","Female","","","","","","","2226.0999999046326","<p> Great job! Now try pressing the <b>down</b> key to travel down. </p>
            <img src='./assets/img/instructions/pressDown.jpg' class='instructions-image'>","","instructions","","","","","","","","","","","",""
"revaluation","19","178497","0.0-3.0-4.0-0.0","spark_pilot_norest","10037","1","10","Female","","false","","","","","[756.0999999046326]","./assets/img/space/3.jpg","[""ArrowDown""]","first stage practice","space","0","null","null","ArrowDown","false","","","","","",""
"html-keyboard-response","20","178998","0.0-3.0-4.0-1.0","spark_pilot_norest","10037","1","10","Female","","","","","","","null","<div style=""font-size:60px;"">+</div>","null","fixation","","","","","","","","","","","",""
"revaluation","21","183025","0.0-3.0-4.0-0.1","spark_pilot_norest","10037","1","10","Female","","false","","","","","[730.5]","./assets/img/space/4.jpg","[""ArrowDown""]","first stage practice","space","0","null","null","ArrowDown","false","","","","","",""
"html-keyboard-response","22","183539","0.0-3.0-4.0-1.1","spark_pilot_norest","10037","1","10","Female","","","","","","","null","<div style=""font-size:60px;"">+</div>","null","fixation","","","","","","","","","","","",""
"revaluation","23","187545","0.0-3.0-4.0-0.2","spark_pilot_norest","10037","1","10","Female","","false","","","","","[862.0999999046326]","./assets/img/space/5.jpg","[""ArrowDown""]","first stage practice","space","0","null","null","ArrowDown","false","","","","","",""
"html-keyboard-response","24","188060","0.0-3.0-4.0-1.2","spark_pilot_norest","10037","1","10","Female","","","","","","","null","<div style=""font-size:60px;"">+</div>","null","fixation","","","","","","","","","","","",""
"learning-instructions","25","198967","0.0-3.0-5.0-0.0","spark_pilot_norest","10037","1","10","Female","","","","","","","1034.8999998569489","<p> The animals don’t move, so the animal in the upper part of a place will stay in the upper part of a place, and the animal in the lower part of a place will stay in the lower part of a place. </p>","","instructions","","","","","","","","","","","",""
"learning-instructions","26","209464","0.0-3.0-5.0-0.1","spark_pilot_norest","10037","1","10","Female","","","","","","","1371.5999999046326","<p> Each animal has two treasure chests for you to choose from. </p>
            <p> The amount of treasure in each chest can range from <b> 0 to 40 pieces.</b></p>","","instructions","","","","","","","","","","","",""
"learning-instructions","27","222090","0.0-3.0-5.0-0.2","spark_pilot_norest","10037","1","10","Female","","","","","","","1448.5","<p> You should decide which chest to search for treasure by using the <b>left</b> and <b>right</b> arrow keys. </p>
            <p><b> Pay attention to which animal is on the screen, as the animals have different treasure chests. </b></p>
            <img src='./assets/img/instructions/leftright.jpg' class='instructions-image'>","","instructions","","","","","","","","","","","",""
"learning-instructions","28","229786","0.0-3.0-5.0-0.3","spark_pilot_norest","10037","1","10","Female","","","","","","","1334.3000001907349","<p> Let’s try practicing that now. </p>
            <p> When you see an animal, choose which chest to search for treasure. </p>
            <img src='./assets/img/instructions/chooseChest.jpg' class='instructions-image'>","","instructions","","","","","","","","","","","",""
"revaluation","29","233811","0.0-3.0-6.0-0.0","spark_pilot_norest","10037","1","10","Female","","false","","","","","[1359.4000000953674]","./assets/img/space/animals/rabbit.jpg","[""ArrowRight""]","second stage practice","space","23","{""ArrowUp,ArrowLeft"":3,""ArrowUp,ArrowRight"":36,""ArrowDown,ArrowLeft"":15,""ArrowDown,ArrowRight"":23}","true","ArrowDown,ArrowRight","","","","","","",""
"html-keyboard-response","30","234317","0.0-3.0-6.0-1.0","spark_pilot_norest","10037","1","10","Female","","","","","","","null","<div style=""font-size:60px;"">+</div>","null","fixation","","","","","","","","","","","",""
"revaluation","31","238324","0.0-3.0-6.0-0.1","spark_pilot_norest","10037","1","10","Female","","false","","","","","[694]","./assets/img/space/animals/cat.jpg","[""ArrowRight""]","second stage practice","space","36","{""ArrowUp,ArrowLeft"":3,""ArrowUp,ArrowRight"":36,""ArrowDown,ArrowLeft"":15,""ArrowDown,ArrowRight"":23}","true","ArrowUp,ArrowRight","","","","","","",""
"html-keyboard-response","32","238829","0.0-3.0-6.0-1.1","spark_pilot_norest","10037","1","10","Female","","","","","","","null","<div style=""font-size:60px;"">+</div>","null","fixation","","","","","","","","","","","",""
"revaluation","33","242850","0.0-3.0-6.0-0.2","spark_pilot_norest","10037","1","10","Female","","false","","","","","[491.30000019073486]","./assets/img/space/animals/rabbit.jpg","[""ArrowLeft""]","second stage practice","space","15","{""ArrowUp,ArrowLeft"":3,""ArrowUp,ArrowRight"":36,""ArrowDown,ArrowLeft"":15,""ArrowDown,ArrowRight"":23}","false","ArrowDown,ArrowLeft","","","","","","",""
"html-keyboard-response","34","243358","0.0-3.0-6.0-1.2","spark_pilot_norest","10037","1","10","Female","","","","","","","null","<div style=""font-size:60px;"">+</div>","null","fixation","","","","","","","","","","","",""
"revaluation","35","247364","0.0-3.0-6.0-0.3","spark_pilot_norest","10037","1","10","Female","","false","","","","","[563.8999998569489]","./assets/img/space/animals/cat.jpg","[""ArrowRight""]","second stage practice","space","36","{""ArrowUp,ArrowLeft"":3,""ArrowUp,ArrowRight"":36,""ArrowDown,ArrowLeft"":15,""ArrowDown,ArrowRight"":23}","true","ArrowUp,ArrowRight","","","","","","",""
"html-keyboard-response","36","247866","0.0-3.0-6.0-1.3","spark_pilot_norest","10037","1","10","Female","","","","","","","null","<div style=""font-size:60px;"">+</div>","null","fixation","","","","","","","","","","","",""
"learning-instructions","37","268427","0.0-3.0-7.0-0.0","spark_pilot_norest","10037","1","10","Female","","","","","","","3734.4000000953674","<p> Great job. Now let’s try putting it together. </p>
            <p> On each turn, you will first see a picture to remind you of the place you are in, and you need to choose whether to go up or down. </p>
            <p> Then you will see an animal and choose which of its chests to search for treasure. </p>","","instructions","","","","","","","","","","","",""
"learning-instructions","38","277317","0.0-3.0-7.0-0.1","spark_pilot_norest","10037","1","10","Female","","","","","","","634.7000000476837","<p> When you choose whether to go up or down, try to go to the animal with the chest with the most treasure. </p>
            <p> Try practicing that now! </p>","","instructions","","","","","","","","","","","",""
"revaluation","39","283356","0.0-3.0-8.0-0.0","spark_pilot_norest","10037","1","10","Female","","false","","","","","[1343.1000001430511,1861]","./assets/img/space/6.jpg","[""ArrowDown"",""ArrowRight""]","full practice","space","23","{""ArrowUp,ArrowLeft"":3,""ArrowUp,ArrowRight"":36,""ArrowDown,ArrowLeft"":15,""ArrowDown,ArrowRight"":23}","false","ArrowDown,ArrowRight","false","","","","","",""
"html-keyboard-response","40","283857","0.0-3.0-8.0-1.0","spark_pilot_norest","10037","1","10","Female","","","","","","","null","<div style=""font-size:60px;"">+</div>","null","fixation","","","","","","","","","","","",""
"revaluation","41","289870","0.0-3.0-8.0-0.1","spark_pilot_norest","10037","1","10","Female","","false","","","","","[570.2000000476837,609.1999998092651]","./assets/img/space/7.jpg","[""ArrowUp"",""ArrowLeft""]","full practice","space","3","{""ArrowUp,ArrowLeft"":3,""ArrowUp,ArrowRight"":36,""ArrowDown,ArrowLeft"":15,""ArrowDown,ArrowRight"":23}","false","ArrowUp,ArrowLeft","false","","","","","",""
"html-keyboard-response","42","290372","0.0-3.0-8.0-1.1","spark_pilot_norest","10037","1","10","Female","","","","","","","null","<div style=""font-size:60px;"">+</div>","null","fixation","","","","","","","","","","","",""
"revaluation","43","296393","0.0-3.0-8.0-0.2","spark_pilot_norest","10037","1","10","Female","","false","","","","","[974.5,791.5]","./assets/img/space/8.jpg","[""ArrowDown"",""ArrowRight""]","full practice","space","23","{""ArrowUp,ArrowLeft"":3,""ArrowUp,ArrowRight"":36,""ArrowDown,ArrowLeft"":15,""ArrowDown,ArrowRight"":23}","false","ArrowDown,ArrowRight","false","","","","","",""
"html-keyboard-response","44","296895","0.0-3.0-8.0-1.2","spark_pilot_norest","10037","1","10","Female","","","","","","","null","<div style=""font-size:60px;"">+</div>","null","fixation","","","","","","","","","","","",""
"revaluation","45","302917","0.0-3.0-8.0-0.3","spark_pilot_norest","10037","1","10","Female","","false","","","","","[820.8000001907349,518]","./assets/img/space/9.jpg","[""ArrowDown"",""ArrowRight""]","full practice","space","23","{""ArrowUp,ArrowLeft"":3,""ArrowUp,ArrowRight"":36,""ArrowDown,ArrowLeft"":15,""ArrowDown,ArrowRight"":23}","false","ArrowDown,ArrowRight","false","","","","","",""
"html-keyboard-response","46","303432","0.0-3.0-8.0-1.3","spark_pilot_norest","10037","1","10","Female","","","","","","","null","<div style=""font-size:60px;"">+</div>","null","fixation","","","","","","","","","","","",""
"revaluation","47","309444","0.0-3.0-8.0-0.4","spark_pilot_norest","10037","1","10","Female","","false","","","","","[654.5,835.7999999523163]","./assets/img/space/10.jpg","[""ArrowDown"",""ArrowLeft""]","full practice","space","15","{""ArrowUp,ArrowLeft"":3,""ArrowUp,ArrowRight"":36,""ArrowDown,ArrowLeft"":15,""ArrowDown,ArrowRight"":23}","false","ArrowDown,ArrowLeft","false","","","","","",""
"html-keyboard-response","48","309947","0.0-3.0-8.0-1.4","spark_pilot_norest","10037","1","10","Female","","","","","","","null","<div style=""font-size:60px;"">+</div>","null","fixation","","","","","","","","","","","",""
"learning-instructions","49","320863","0.0-3.0-9.0-0.0","spark_pilot_norest","10037","1","10","Female","","","","","","","620.9000000953674","<p> One last thing: sometimes, you will see a robber. The robber can be anywhere in the picture. </p>
            <p> If you do not stop them, you will lose treasure. </p>
            <img src='./assets/img/instructions/robber.jpg' class='instructions-image'>","","instructions","","","","","","","","","","","",""
"learning-instructions","50","331192","0.0-3.0-9.0-0.1","spark_pilot_norest","10037","1","10","Female","","","","","","","3158.5","<p> If you see the robber, you should <b>press the space bar</b> rather than using the arrow keys. </p>
            <p> Try practicing that now! </p>","","instructions","","","","","","","","","","","",""
"revaluation","51","335211","0.0-3.0-10.0-0.0","spark_pilot_norest","10037","1","10","Female","","false","","","","","[1611.0999999046326]","./assets/img/space/catch/0.jpg","[""spaceBar""]","catch practice","space","0","{""ArrowUp,ArrowLeft"":3,""ArrowUp,ArrowRight"":36,""ArrowDown,ArrowLeft"":15,""ArrowDown,ArrowRight"":23}","true","spaceBar","true","","","","","",""
"html-keyboard-response","52","335712","0.0-3.0-10.0-1.0","spark_pilot_norest","10037","1","10","Female","","","","","","","null","<div style=""font-size:60px;"">+</div>","null","fixation","","","","","","","","","","","",""
"revaluation","53","339717","0.0-3.0-10.0-0.1","spark_pilot_norest","10037","1","10","Female","","false","","","","","[531.2000000476837]","./assets/img/space/catch/1.jpg","[""spaceBar""]","catch practice","space","0","{""ArrowUp,ArrowLeft"":3,""ArrowUp,ArrowRight"":36,""ArrowDown,ArrowLeft"":15,""ArrowDown,ArrowRight"":23}","true","spaceBar","true","","","","","",""
"html-keyboard-response","54","340229","0.0-3.0-10.0-1.1","spark_pilot_norest","10037","1","10","Female","","","","","","","null","<div style=""font-size:60px;"">+</div>","null","fixation","","","","","","","","","","","",""
"revaluation","55","344259","0.0-3.0-10.0-0.2","spark_pilot_norest","10037","1","10","Female","","false","","","","","[485.5]","./assets/img/space/catch/2.jpg","[""spaceBar""]","catch practice","space","0","{""ArrowUp,ArrowLeft"":3,""ArrowUp,ArrowRight"":36,""ArrowDown,ArrowLeft"":15,""ArrowDown,ArrowRight"":23}","true","spaceBar","true","","","","","",""
"html-keyboard-response","56","344759","0.0-3.0-10.0-1.2","spark_pilot_norest","10037","1","10","Female","","","","","","","null","<div style=""font-size:60px;"">+</div>","null","fixation","","","","","","","","","","","",""
"learning-instructions","57","353309","0.0-3.0-11.0-0.0-0.0","spark_pilot_norest","10037","1","10","Female","","","","","","","3276.100000143051","<p> Now, you will practice a shortened version of the game to get a sense of how it all fits together. </p>","","instructions","","","","","","","","","","","",""
"learning-instructions","58","356877","0.0-3.0-11.0-0.0-0.1","spark_pilot_norest","10037","1","10","Female","","","","","","","394.10000014305115","<p>This time you are searching for treasure in outer space.</p>","","instructions","","","","","","","","","","","",""
"learning-instructions","59","372309","0.0-3.0-11.0-1.0-0.0","spark_pilot_norest","10037","1","10","Female","","","","","","","675.1000001430511","<p> Remember, when you see a picture of the place, use the up and down keys to <b>find an animal</b>.</p>
            <p> When you encounter an animal, you should use the left and right keys to <b>select a treasure chest</b>.</p>
            <p> Don't forget to look out for the robber! </p>","","instructions","","","","","","","","","","","",""
"revaluation","60","378332","0.0-3.0-11.0-2.0-0.0","spark_pilot_norest","10037","1","10","Female","","false","","","","","[1951.5,719.5999999046326]","./assets/img/space/11.jpg","[""ArrowDown"",""ArrowRight""]","practice block","space","23","{""ArrowUp,ArrowLeft"":3,""ArrowUp,ArrowRight"":36,""ArrowDown,ArrowLeft"":15,""ArrowDown,ArrowRight"":23}","false","ArrowDown,ArrowRight","false","","","","","",""
"html-keyboard-response","61","378847","0.0-3.0-11.0-2.0-1.0","spark_pilot_norest","10037","1","10","Female","","","","","","","null","<div style=""font-size:60px;"">+</div>","null","fixation","","","","","","","","","","","",""
"revaluation","62","384872","0.0-3.0-11.0-2.0-0.1","spark_pilot_norest","10037","1","10","Female","","false","","","","","[1234.3999998569489,690.0999999046326]","./assets/img/space/12.jpg","[""ArrowDown"",""ArrowRight""]","practice block","space","23","{""ArrowUp,ArrowLeft"":3,""ArrowUp,ArrowRight"":36,""ArrowDown,ArrowLeft"":15,""ArrowDown,ArrowRight"":23}","false","ArrowDown,ArrowRight","false","","","","","",""
"html-keyboard-response","63","385387","0.0-3.0-11.0-2.0-1.1","spark_pilot_norest","10037","1","10","Female","","","","","","","null","<div style=""font-size:60px;"">+</div>","null","fixation","","","","","","","","","","","",""
"revaluation","64","391405","0.0-3.0-11.0-2.0-0.2","spark_pilot_norest","10037","1","10","Female","","false","","","","","[759,714.2000000476837]","./assets/img/space/13.jpg","[""ArrowUp"",""ArrowRight""]","practice block","space","36","{""ArrowUp,ArrowLeft"":3,""ArrowUp,ArrowRight"":36,""ArrowDown,ArrowLeft"":15,""ArrowDown,ArrowRight"":23}","true","ArrowUp,ArrowRight","false","","","","","",""
"html-keyboard-response","65","391912","0.0-3.0-11.0-2.0-1.2","spark_pilot_norest","10037","1","10","Female","","","","","","","null","<div style=""font-size:60px;"">+</div>","null","fixation","","","","","","","","","","","",""
"revaluation","66","397919","0.0-3.0-11.0-2.0-0.3","spark_pilot_norest","10037","1","10","Female","","false","","","","","[1065.7999999523163,910.1999998092651]","./assets/img/space/14.jpg","[""ArrowDown"",""ArrowRight""]","practice block","space","23","{""ArrowUp,ArrowLeft"":3,""ArrowUp,ArrowRight"":36,""ArrowDown,ArrowLeft"":15,""ArrowDown,ArrowRight"":23}","false","ArrowDown,ArrowRight","false","","","","","",""
"html-keyboard-response","67","398422","0.0-3.0-11.0-2.0-1.3","spark_pilot_norest","10037","1","10","Female","","","","","","","null","<div style=""font-size:60px;"">+</div>","null","fixation","","","","","","","","","","","",""
"revaluation","68","404433","0.0-3.0-11.0-2.0-0.4","spark_pilot_norest","10037","1","10","Female","","false","","","","","[590,462.2000000476837]","./assets/img/space/11.jpg","[""ArrowUp"",""ArrowLeft""]","practice block","space","3","{""ArrowUp,ArrowLeft"":3,""ArrowUp,ArrowRight"":36,""ArrowDown,ArrowLeft"":15,""ArrowDown,ArrowRight"":23}","false","ArrowUp,ArrowLeft","false","","","","","",""
"html-keyboard-response","69","404936","0.0-3.0-11.0-2.0-1.4","spark_pilot_norest","10037","1","10","Female","","","","","","","null","<div style=""font-size:60px;"">+</div>","null","fixation","","","","","","","","","","","",""
"revaluation","70","410943","0.0-3.0-11.0-2.0-0.5","spark_pilot_norest","10037","1","10","Female","","false","","","","","[937.3000001907349,650.1000001430511]","./assets/img/space/12.jpg","[""ArrowDown"",""ArrowRight""]","practice block","space","23","{""ArrowUp,ArrowLeft"":3,""ArrowUp,ArrowRight"":36,""ArrowDown,ArrowLeft"":15,""ArrowDown,ArrowRight"":23}","false","ArrowDown,ArrowRight","false","","","","","",""
"html-keyboard-response","71","411445","0.0-3.0-11.0-2.0-1.5","spark_pilot_norest","10037","1","10","Female","","","","","","","null","<div style=""font-size:60px;"">+</div>","null","fixation","","","","","","","","","","","",""
"revaluation","72","417452","0.0-3.0-11.0-2.0-0.6","spark_pilot_norest","10037","1","10","Female","","false","","","","","[646.6000001430511,405.09999990463257]","./assets/img/space/13.jpg","[""ArrowUp"",""ArrowRight""]","practice block","space","36","{""ArrowUp,ArrowLeft"":3,""ArrowUp,ArrowRight"":36,""ArrowDown,ArrowLeft"":15,""ArrowDown,ArrowRight"":23}","true","ArrowUp,ArrowRight","false","","","","","",""
"html-keyboard-response","73","417953","0.0-3.0-11.0-2.0-1.6","spark_pilot_norest","10037","1","10","Female","","","","","","","null","<div style=""font-size:60px;"">+</div>","null","fixation","","","","","","","","","","","",""
"revaluation","74","423959","0.0-3.0-11.0-2.0-0.7","spark_pilot_norest","10037","1","10","Female","","false","","","","","[978.2000000476837,920.2999999523163]","./assets/img/space/14.jpg","[""ArrowDown"",""ArrowRight""]","practice block","space","23","{""ArrowUp,ArrowLeft"":3,""ArrowUp,ArrowRight"":36,""ArrowDown,ArrowLeft"":15,""ArrowDown,ArrowRight"":23}","false","ArrowDown,ArrowRight","false","","","","","",""
"html-keyboard-response","75","424461","0.0-3.0-11.0-2.0-1.7","spark_pilot_norest","10037","1","10","Female","","","","","","","null","<div style=""font-size:60px;"">+</div>","null","fixation","","","","","","","","","","","",""
"revaluation","76","428467","0.0-3.0-11.0-2.0-0.8","spark_pilot_norest","10037","1","10","Female","","false","","","","","[1149.1000001430511]","./assets/img/space/catch/3.jpg","[""spaceBar""]","practice block","space","0","{""ArrowUp,ArrowLeft"":3,""ArrowUp,ArrowRight"":36,""ArrowDown,ArrowLeft"":15,""ArrowDown,ArrowRight"":23}","true","spaceBar","true","","","","","",""
"html-keyboard-response","77","428969","0.0-3.0-11.0-2.0-1.8","spark_pilot_norest","10037","1","10","Female","","","","","","","null","<div style=""font-size:60px;"">+</div>","null","fixation","","","","","","","","","","","",""
"learning-instructions","78","443500","0.0-3.0-11.0-3.0-0.0","spark_pilot_norest","10037","1","10","Female","","","","","","","962.2999999523163","<p> Now, you will travel with a friend who will choose whether you go up or down first. </p>
            <p> On these turns, you will just see the animal that they found. You will still get to choose which chest to search for treasure.</p>","","instructions","","","","","","","","","","","",""
"revaluation","79","447515","0.0-3.0-11.0-4.0-0.0","spark_pilot_norest","10037","1","10","Female","","true","","","","","[]","./assets/img/space/animals/cat.jpg","[]","practice block","space","-5","{""ArrowUp,ArrowLeft"":3,""ArrowUp,ArrowRight"":36,""ArrowDown,ArrowLeft"":15,""ArrowDown,ArrowRight"":23}","false","ArrowUp","","","","","","",""
"html-keyboard-response","80","448031","0.0-3.0-11.0-4.0-1.0","spark_pilot_norest","10037","1","10","Female","","","","","","","null","<div style=""font-size:60px;"">+</div>","null","fixation","","","","","","","","","","","",""
"revaluation","81","452040","0.0-3.0-11.0-4.0-0.1","spark_pilot_norest","10037","1","10","Female","","false","","","","","[330.5]","./assets/img/space/animals/rabbit.jpg","[""ArrowRight""]","practice block","space","23","{""ArrowUp,ArrowLeft"":3,""ArrowUp,ArrowRight"":36,""ArrowDown,ArrowLeft"":15,""ArrowDown,ArrowRight"":23}","true","ArrowDown,ArrowRight","","","","","","",""
"html-keyboard-response","82","452556","0.0-3.0-11.0-4.0-1.1","spark_pilot_norest","10037","1","10","Female","","","","","","","null","<div style=""font-size:60px;"">+</div>","null","fixation","","","","","","","","","","","",""
"revaluation","83","456582","0.0-3.0-11.0-4.0-0.2","spark_pilot_norest","10037","1","10","Female","","false","","","","","[477.39999985694885]","./assets/img/space/animals/rabbit.jpg","[""ArrowRight""]","practice block","space","23","{""ArrowUp,ArrowLeft"":3,""ArrowUp,ArrowRight"":36,""ArrowDown,ArrowLeft"":15,""ArrowDown,ArrowRight"":23}","true","ArrowDown,ArrowRight","","","","","","",""
"html-keyboard-response","84","457086","0.0-3.0-11.0-4.0-1.2","spark_pilot_norest","10037","1","10","Female","","","","","","","null","<div style=""font-size:60px;"">+</div>","null","fixation","","","","","","","","","","","",""
"revaluation","85","461110","0.0-3.0-11.0-4.0-0.3","spark_pilot_norest","10037","1","10","Female","","false","","","","","[320.2999999523163]","./assets/img/space/animals/cat.jpg","[""ArrowLeft""]","practice block","space","3","{""ArrowUp,ArrowLeft"":3,""ArrowUp,ArrowRight"":36,""ArrowDown,ArrowLeft"":15,""ArrowDown,ArrowRight"":23}","false","ArrowUp,ArrowLeft","","","","","","",""
"html-keyboard-response","86","461617","0.0-3.0-11.0-4.0-1.3","spark_pilot_norest","10037","1","10","Female","","","","","","","null","<div style=""font-size:60px;"">+</div>","null","fixation","","","","","","","","","","","",""
"learning-instructions","87","469768","0.0-3.0-11.0-5.0-0.0","spark_pilot_norest","10037","1","10","Female","","","","","","","null","<p> You have almost finished this part of the game! </p>
            <p> We are going to ask you to make a few more choices. </p>","","instructions","","","","","","","","","","","",""
"learning-instructions","88","485799","0.0-3.0-11.0-5.0-0.1","spark_pilot_norest","10037","1","10","Female","","","","","","","null","<p> First, you need to decide whether to go up or down. When you see each picture, use the arrow keys to make your choice. </p>
            <p><b>You will not see which animal you found, but try to get to the one that will give you the most treasure.</b></p>","","instructions","","","","","","","","","","","",""
"html-keyboard-response","89","486800","0.0-3.0-11.0-6.0-0.0","spark_pilot_norest","10037","1","10","Female","","","","","","","null","<div style=""font-size:100px;color:red;"">Starting in...</div>","null","","","","","","","","","","","","",""
"html-keyboard-response","90","487802","0.0-3.0-11.0-6.0-1.0","spark_pilot_norest","10037","1","10","Female","","","","","","","null","<div style=""font-size:200px;color:red;"">3</div>","null","","","","","","","","","","","","",""
"html-keyboard-response","91","488803","0.0-3.0-11.0-6.0-2.0","spark_pilot_norest","10037","1","10","Female","","","","","","","null","<div style=""font-size:200px;color:red;"">2</div>","null","","","","","","","","","","","","",""
"html-keyboard-response","92","489814","0.0-3.0-11.0-6.0-3.0","spark_pilot_norest","10037","1","10","Female","","","","","","","null","<div style=""font-size:200px;color:red;"">1</div>","null","","","","","","","","","","","","",""
"revaluation","93","490504","0.0-3.0-11.0-7.0","spark_pilot_norest","10037","1","10","Female","","false","","","","","[685.8999998569489]","./assets/img/space/15.jpg","[""ArrowDown""]","practice block","space","0","{""ArrowUp,ArrowLeft"":3,""ArrowUp,ArrowRight"":36,""ArrowDown,ArrowLeft"":15,""ArrowDown,ArrowRight"":23}","false","ArrowDown","false","","","","","",""
"html-keyboard-response","94","491014","0.0-3.0-11.0-8.0","spark_pilot_norest","10037","1","10","Female","","","","","","","null","<div style=""font-size:60px;"">+</div>","null","fixation","","","","","","","","","","","",""
"learning-instructions","95","504409","0.0-3.0-11.0-9.0-0.0","spark_pilot_norest","10037","1","10","Female","","","","","","","null","<p> Now you will see the animals again and can search their chests for treasure. </p>
            <p> This time, you will not see how much treasure you earned, but you will earn more bonus money for making better choices. </p>","","instructions","","","","","","","","","","","",""
"html-keyboard-response","96","505415","0.0-3.0-11.0-10.0-0.0","spark_pilot_norest","10037","1","10","Female","","","","","","","null","<div style=""font-size:100px;color:red;"">Starting in...</div>","null","","","","","","","","","","","","",""
"html-keyboard-response","97","506421","0.0-3.0-11.0-10.0-1.0","spark_pilot_norest","10037","1","10","Female","","","","","","","null","<div style=""font-size:200px;color:red;"">3</div>","null","","","","","","","","","","","","",""
"html-keyboard-response","98","507422","0.0-3.0-11.0-10.0-2.0","spark_pilot_norest","10037","1","10","Female","","","","","","","null","<div style=""font-size:200px;color:red;"">2</div>","null","","","","","","","","","","","","",""
"html-keyboard-response","99","508424","0.0-3.0-11.0-10.0-3.0","spark_pilot_norest","10037","1","10","Female","","","","","","","null","<div style=""font-size:200px;color:red;"">1</div>","null","","","","","","","","","","","","",""
"revaluation","100","508696","0.0-3.0-11.0-11.0-0.0","spark_pilot_norest","10037","1","10","Female","","false","","","","","[267.59999990463257]","./assets/img/space/animals/cat.jpg","[""ArrowRight""]","practice block","space","0","{""ArrowUp,ArrowLeft"":3,""ArrowUp,ArrowRight"":36,""ArrowDown,ArrowLeft"":15,""ArrowDown,ArrowRight"":23}","true","ArrowUp,ArrowRight","","","","","","",""
"html-keyboard-response","101","509197","0.0-3.0-11.0-11.0-1.0","spark_pilot_norest","10037","1","10","Female","","","","","","","null","<div style=""font-size:60px;"">+</div>","null","fixation","","","","","","","","","","","",""
"revaluation","102","509904","0.0-3.0-11.0-11.0-0.1","spark_pilot_norest","10037","1","10","Female","","false","","","","","[704.6000001430511]","./assets/img/space/animals/rabbit.jpg","[""ArrowRight""]","practice block","space","0","{""ArrowUp,ArrowLeft"":3,""ArrowUp,ArrowRight"":36,""ArrowDown,ArrowLeft"":15,""ArrowDown,ArrowRight"":23}","true","ArrowDown,ArrowRight","","","","","","",""
"html-keyboard-response","103","510418","0.0-3.0-11.0-11.0-1.1","spark_pilot_norest","10037","1","10","Female","","","","","","","null","<div style=""font-size:60px;"">+</div>","null","fixation","","","","","","","","","","","",""
"learning-instructions","104","517867","0.0-3.0-12.0-0.0","spark_pilot_norest","10037","1","10","Female","","","","","","","2848","<p> Before you start, we're going to ask you a few questions about how the game works. </p>","","instructions","","","","","","","","","","","",""
"comp-q","105","524440","0.0-3.0-13.0-0.0-0.0","spark_pilot_norest","10037","1","10","Female","","","","","","","1001.2000000476837","<p> <b> True or False? </b> </p>
            <p> There can be 50 pieces of treasure in a given animal's chest. </p>","1","comp_question","","","","true","","","","","","","",""
"comp-q","106","532824","0.0-3.0-13.0-0.0-1.0","spark_pilot_norest","10037","1","10","Female","","","","","","","1737.1000001430511","<p> <b> That's right! </b> The amount of treasure in each chest can range from 0 to 40 pieces. </p>","0","comp_answer","","","","","","","","","","","",""
"comp-q","107","541402","0.0-3.0-13.0-0.1-0.1","spark_pilot_norest","10037","1","10","Female","","","","","","","1475.0999999046326","<p> <b> True or False? </b> </p><p> In this game, all animals have the same amount of treasure in their left and right chests. </p>","1","comp_question","","","","true","","","","","","","",""
"comp-q","108","548066","0.0-3.0-13.0-0.1-1.1","spark_pilot_norest","10037","1","10","Female","","","","","","","1447.5","<p> <b> That's right! </b> Animals have different amounts of treasure in their treasure chests. </p>","0","comp_answer","","","","","","","","","","","",""
"comp-q","109","554858","0.0-3.0-13.0-0.2-0.2","spark_pilot_norest","10037","1","10","Female","","","","","","","961.0999999046326","<p> <b> True or False? </b> </p><p> The same animal will always be there if you go up in the same place. </p>","0","comp_question","","","","true","","","","","","","",""
"comp-q","110","562220","0.0-3.0-13.0-0.2-1.2","spark_pilot_norest","10037","1","10","Female","","","","","","","921.0999999046326","<p> <b> That's right! </b> One animal lives in the upper part and one lives in the lower part of every place. </p>","0","comp_answer","","","","","","","","","","","",""
"comp-q","111","568717","0.0-3.0-13.0-0.3-0.3","spark_pilot_norest","10037","1","10","Female","","","","","","","989.5999999046326","<p> <b> True or False? </b> </p><p> If you see a different picture, it means you are in a new place. </p>","1","comp_question","","","","true","","","","","","","",""
"comp-q","112","581029","0.0-3.0-13.0-0.3-1.3","spark_pilot_norest","10037","1","10","Female","","","","","","","1090.4000000953674","<p> <b> That's right! </b> Lots of different images may show the same place. For example,  you may see three different images that all remind you that you are in outer space. </p>","0","comp_answer","","","","","","","","","","","",""
"learning-instructions","113","591729","0.0-3.0-14.0-0.0","spark_pilot_norest","10037","1","10","Female","","","","","","","850.1999998092651","<p> Good job. Remember to do your best because the amount of treasure you earn will be converted into bonus money. </p>
            <p> It’s time to start the real game! </p>","","instructions","","","","","","","","","","","",""
"learning-instructions","114","596577","0.0-4.0-0.0-0.0","spark_pilot_norest","10037","1","10","Female","","","","","","","2138.5","<p> This time you are searching for treasure in the <b>ocean</b>.</p>","","instructions","","","","","","","","","","","",""
"learning-instructions","115","614376","0.0-4.0-0.0-0.1","spark_pilot_norest","10037","1","10","Female","","","","","","","517.0999999046326","<p><b>New</b> animals with <b>new</b> treasure chests live here. You need to explore to discover where the animal with the best treasure chest is.</p>
                    <p> Like before, once you figure out which animal has the chest with the most treasure, you should try to get to that animal and select that chest! </p>","","instructions","","","","","","","","","","","",""
"learning-instructions","116","629622","0.0-4.0-1.0-0.0","spark_pilot_norest","10037","1","10","Female","","","","","","","523.1000001430511","<p> Remember, when you see a picture of the place, use the up and down keys to <b>find an animal</b>.</p>
            <p> When you encounter an animal, you should use the left and right keys to <b>select a treasure chest</b>.</p>
            <p> Don't forget to look out for the robber! </p>","","instructions","","","","","","","","","","","",""
"revaluation","117","635655","0.0-4.0-2.0-0.0","spark_pilot_norest","10037","1","10","Female","","false","","","","","[1327.0999999046326,728.1000001430511]","./assets/img/ocean/memory/38.jpg","[""ArrowDown"",""ArrowRight""]","value training","ocean","17","{""ArrowUp,ArrowLeft"":26,""ArrowUp,ArrowRight"":10,""ArrowDown,ArrowLeft"":5,""ArrowDown,ArrowRight"":17}","false","ArrowDown,ArrowRight","false","original","1","0","","",""
"html-keyboard-response","118","636171","0.0-4.0-2.0-1.0","spark_pilot_norest","10037","1","10","Female","","","","","","","null","<div style=""font-size:60px;"">+</div>","null","fixation","","","","","","","","","1","","",""
"revaluation","119","640194","0.0-4.0-2.0-0.1","spark_pilot_norest","10037","1","10","Female","","false","","","","","[526]","./assets/img/ocean/catch/7.jpg","[""ArrowDown""]","value training","ocean","-10","{""ArrowUp,ArrowLeft"":26,""ArrowUp,ArrowRight"":10,""ArrowDown,ArrowLeft"":5,""ArrowDown,ArrowRight"":17}","false","ArrowDown","true","original","1","2","","",""
"html-keyboard-response","120","640709","0.0-4.0-2.0-1.1","spark_pilot_norest","10037","1","10","Female","","","","","","","null","<div style=""font-size:60px;"">+</div>","null","fixation","","","","","","","","","3","","",""
"revaluation","121","646724","0.0-4.0-2.0-0.2","spark_pilot_norest","10037","1","10","Female","","false","","","","","[804.7000000476837,685.0999999046326]","./assets/img/ocean/memory/14.jpg","[""ArrowDown"",""ArrowLeft""]","value training","ocean","5","{""ArrowUp,ArrowLeft"":26,""ArrowUp,ArrowRight"":10,""ArrowDown,ArrowLeft"":5,""ArrowDown,ArrowRight"":17}","false","ArrowDown,ArrowLeft","false","original","1","4","","",""
"html-keyboard-response","122","647226","0.0-4.0-2.0-1.2","spark_pilot_norest","10037","1","10","Female","","","","","","","null","<div style=""font-size:60px;"">+</div>","null","fixation","","","","","","","","","5","","",""
"revaluation","123","653252","0.0-4.0-2.0-0.3","spark_pilot_norest","10037","1","10","Female","","false","","","","","[650,879.1999998092651]","./assets/img/ocean/memory/26.jpg","[""ArrowUp"",""ArrowRight""]","value training","ocean","10","{""ArrowUp,ArrowLeft"":26,""ArrowUp,ArrowRight"":10,""ArrowDown,ArrowLeft"":5,""ArrowDown,ArrowRight"":17}","false","ArrowUp,ArrowRight","false","original","1","6","","",""
"html-keyboard-response","124","653767","0.0-4.0-2.0-1.3","spark_pilot_norest","10037","1","10","Female","","","","","","","null","<div style=""font-size:60px;"">+</div>","null","fixation","","","","","","","","","7","","",""
"revaluation","125","659788","0.0-4.0-2.0-0.4","spark_pilot_norest","10037","1","10","Female","","false","","","","","[876.8999998569489,393.7999999523163]","./assets/img/ocean/memory/13.jpg","[""ArrowUp"",""ArrowLeft""]","value training","ocean","26","{""ArrowUp,ArrowLeft"":26,""ArrowUp,ArrowRight"":10,""ArrowDown,ArrowLeft"":5,""ArrowDown,ArrowRight"":17}","true","ArrowUp,ArrowLeft","false","original","1","8","","",""
"html-keyboard-response","126","660289","0.0-4.0-2.0-1.4","spark_pilot_norest","10037","1","10","Female","","","","","","","null","<div style=""font-size:60px;"">+</div>","null","fixation","","","","","","","","","9","","",""
"revaluation","127","666305","0.0-4.0-2.0-0.5","spark_pilot_norest","10037","1","10","Female","","false","","","","","[1049.4000000953674,551.7000000476837]","./assets/img/ocean/memory/24.jpg","[""ArrowUp"",""ArrowLeft""]","value training","ocean","26","{""ArrowUp,ArrowLeft"":26,""ArrowUp,ArrowRight"":10,""ArrowDown,ArrowLeft"":5,""ArrowDown,ArrowRight"":17}","true","ArrowUp,ArrowLeft","false","original","1","10","","",""
"html-keyboard-response","128","666806","0.0-4.0-2.0-1.5","spark_pilot_norest","10037","1","10","Female","","","","","","","null","<div style=""font-size:60px;"">+</div>","null","fixation","","","","","","","","","11","","",""
"revaluation","129","672812","0.0-4.0-2.0-0.6","spark_pilot_norest","10037","1","10","Female","","false","","","","","[525.5,441.39999985694885]","./assets/img/ocean/memory/11.jpg","[""ArrowUp"",""ArrowLeft""]","value training","ocean","26","{""ArrowUp,ArrowLeft"":26,""ArrowUp,ArrowRight"":10,""ArrowDown,ArrowLeft"":5,""ArrowDown,ArrowRight"":17}","true","ArrowUp,ArrowLeft","false","original","1","12","","",""
"html-keyboard-response","130","673314","0.0-4.0-2.0-1.6","spark_pilot_norest","10037","1","10","Female","","","","","","","null","<div style=""font-size:60px;"">+</div>","null","fixation","","","","","","","","","13","","",""
"revaluation","131","677319","0.0-4.0-2.0-0.7","spark_pilot_norest","10037","1","10","Female","","false","","","","","[1070]","./assets/img/ocean/catch/6.jpg","[""spaceBar""]","value training","ocean","0","{""ArrowUp,ArrowLeft"":26,""ArrowUp,ArrowRight"":10,""ArrowDown,ArrowLeft"":5,""ArrowDown,ArrowRight"":17}","true","spaceBar","true","original","1","14","","",""
"html-keyboard-response","132","677821","0.0-4.0-2.0-1.7","spark_pilot_norest","10037","1","10","Female","","","","","","","null","<div style=""font-size:60px;"">+</div>","null","fixation","","","","","","","","","15","","",""
"revaluation","133","683826","0.0-4.0-2.0-0.8","spark_pilot_norest","10037","1","10","Female","","false","","","","","[1397.6999998092651,677.7000000476837]","./assets/img/ocean/memory/27.jpg","[""ArrowDown"",""ArrowRight""]","value training","ocean","17","{""ArrowUp,ArrowLeft"":26,""ArrowUp,ArrowRight"":10,""ArrowDown,ArrowLeft"":5,""ArrowDown,ArrowRight"":17}","false","ArrowDown,ArrowRight","false","original","1","16","","",""
"html-keyboard-response","134","684328","0.0-4.0-2.0-1.8","spark_pilot_norest","10037","1","10","Female","","","","","","","null","<div style=""font-size:60px;"">+</div>","null","fixation","","","","","","","","","17","","",""
"revaluation","135","690335","0.0-4.0-2.0-0.9","spark_pilot_norest","10037","1","10","Female","","false","","","","","[872.7999999523163,416.09999990463257]","./assets/img/ocean/memory/33.jpg","[""ArrowDown"",""ArrowLeft""]","value training","ocean","5","{""ArrowUp,ArrowLeft"":26,""ArrowUp,ArrowRight"":10,""ArrowDown,ArrowLeft"":5,""ArrowDown,ArrowRight"":17}","false","ArrowDown,ArrowLeft","false","original","1","18","","",""
"html-keyboard-response","136","690837","0.0-4.0-2.0-1.9","spark_pilot_norest","10037","1","10","Female","","","","","","","null","<div style=""font-size:60px;"">+</div>","null","fixation","","","","","","","","","19","","",""
"revaluation","137","694847","0.0-4.0-2.0-0.10","spark_pilot_norest","10037","1","10","Female","","false","","","","","[976.3999998569489]","./assets/img/ocean/catch/3.jpg","[""spaceBar""]","value training","ocean","0","{""ArrowUp,ArrowLeft"":26,""ArrowUp,ArrowRight"":10,""ArrowDown,ArrowLeft"":5,""ArrowDown,ArrowRight"":17}","true","spaceBar","true","original","1","20","","",""
"html-keyboard-response","138","695349","0.0-4.0-2.0-1.10","spark_pilot_norest","10037","1","10","Female","","","","","","","null","<div style=""font-size:60px;"">+</div>","null","fixation","","","","","","","","","21","","",""
"revaluation","139","701357","0.0-4.0-2.0-0.11","spark_pilot_norest","10037","1","10","Female","","false","","","","","[749.2000000476837,676.9000000953674]","./assets/img/ocean/memory/32.jpg","[""ArrowUp"",""ArrowLeft""]","value training","ocean","26","{""ArrowUp,ArrowLeft"":26,""ArrowUp,ArrowRight"":10,""ArrowDown,ArrowLeft"":5,""ArrowDown,ArrowRight"":17}","true","ArrowUp,ArrowLeft","false","original","1","22","","",""
"html-keyboard-response","140","701859","0.0-4.0-2.0-1.11","spark_pilot_norest","10037","1","10","Female","","","","","","","null","<div style=""font-size:60px;"">+</div>","null","fixation","","","","","","","","","23","","",""
"revaluation","141","705863","0.0-4.0-2.0-0.12","spark_pilot_norest","10037","1","10","Female","","false","","","","","[907.0999999046326]","./assets/img/ocean/catch/5.jpg","[""spaceBar""]","value training","ocean","0","{""ArrowUp,ArrowLeft"":26,""ArrowUp,ArrowRight"":10,""ArrowDown,ArrowLeft"":5,""ArrowDown,ArrowRight"":17}","true","spaceBar","true","original","1","24","","",""
"html-keyboard-response","142","706366","0.0-4.0-2.0-1.12","spark_pilot_norest","10037","1","10","Female","","","","","","","null","<div style=""font-size:60px;"">+</div>","null","fixation","","","","","","","","","25","","",""
"revaluation","143","712374","0.0-4.0-2.0-0.13","spark_pilot_norest","10037","1","10","Female","","false","","","","","[1172.1000001430511,524.2999999523163]","./assets/img/ocean/memory/29.jpg","[""ArrowUp"",""ArrowLeft""]","value training","ocean","26","{""ArrowUp,ArrowLeft"":26,""ArrowUp,ArrowRight"":10,""ArrowDown,ArrowLeft"":5,""ArrowDown,ArrowRight"":17}","true","ArrowUp,ArrowLeft","false","original","1","26","","",""
"html-keyboard-response","144","712875","0.0-4.0-2.0-1.13","spark_pilot_norest","10037","1","10","Female","","","","","","","null","<div style=""font-size:60px;"">+</div>","null","fixation","","","","","","","","","27","","",""
"revaluation","145","718881","0.0-4.0-2.0-0.14","spark_pilot_norest","10037","1","10","Female","","false","","","","","[921.7999999523163,448.40000009536743]","./assets/img/ocean/memory/8.jpg","[""ArrowUp"",""ArrowLeft""]","value training","ocean","26","{""ArrowUp,ArrowLeft"":26,""ArrowUp,ArrowRight"":10,""ArrowDown,ArrowLeft"":5,""ArrowDown,ArrowRight"":17}","true","ArrowUp,ArrowLeft","false","original","1","28","","",""
"html-keyboard-response","146","719383","0.0-4.0-2.0-1.14","spark_pilot_norest","10037","1","10","Female","","","","","","","null","<div style=""font-size:60px;"">+</div>","null","fixation","","","","","","","","","29","","",""
"revaluation","147","723389","0.0-4.0-2.0-0.15","spark_pilot_norest","10037","1","10","Female","","false","","","","","[915.8999998569489]","./assets/img/ocean/catch/1.jpg","[""spaceBar""]","value training","ocean","0","{""ArrowUp,ArrowLeft"":26,""ArrowUp,ArrowRight"":10,""ArrowDown,ArrowLeft"":5,""ArrowDown,ArrowRight"":17}","true","spaceBar","true","original","1","30","","",""
"html-keyboard-response","148","723892","0.0-4.0-2.0-1.15","spark_pilot_norest","10037","1","10","Female","","","","","","","null","<div style=""font-size:60px;"">+</div>","null","fixation","","","","","","","","","31","","",""
"revaluation","149","729898","0.0-4.0-2.0-0.16","spark_pilot_norest","10037","1","10","Female","","false","","","","","[981.7999999523163,511.59999990463257]","./assets/img/ocean/memory/23.jpg","[""ArrowUp"",""ArrowRight""]","value training","ocean","10","{""ArrowUp,ArrowLeft"":26,""ArrowUp,ArrowRight"":10,""ArrowDown,ArrowLeft"":5,""ArrowDown,ArrowRight"":17}","false","ArrowUp,ArrowRight","false","original","1","32","","",""
"html-keyboard-response","150","730400","0.0-4.0-2.0-1.16","spark_pilot_norest","10037","1","10","Female","","","","","","","null","<div style=""font-size:60px;"">+</div>","null","fixation","","","","","","","","","33","","",""
"revaluation","151","736408","0.0-4.0-2.0-0.17","spark_pilot_norest","10037","1","10","Female","","false","","","","","[842.1000001430511,577.3999998569489]","./assets/img/ocean/memory/28.jpg","[""ArrowUp"",""ArrowLeft""]","value training","ocean","26","{""ArrowUp,ArrowLeft"":26,""ArrowUp,ArrowRight"":10,""ArrowDown,ArrowLeft"":5,""ArrowDown,ArrowRight"":17}","true","ArrowUp,ArrowLeft","false","original","1","34","","",""
"html-keyboard-response","152","736910","0.0-4.0-2.0-1.17","spark_pilot_norest","10037","1","10","Female","","","","","","","null","<div style=""font-size:60px;"">+</div>","null","fixation","","","","","","","","","35","","",""
"revaluation","153","742917","0.0-4.0-2.0-0.18","spark_pilot_norest","10037","1","10","Female","","false","","","","","[806.5,443.90000009536743]","./assets/img/ocean/memory/11.jpg","[""ArrowUp"",""ArrowLeft""]","value training","ocean","26","{""ArrowUp,ArrowLeft"":26,""ArrowUp,ArrowRight"":10,""ArrowDown,ArrowLeft"":5,""ArrowDown,ArrowRight"":17}","true","ArrowUp,ArrowLeft","false","original","1","36","","",""
"html-keyboard-response","154","743419","0.0-4.0-2.0-1.18","spark_pilot_norest","10037","1","10","Female","","","","","","","null","<div style=""font-size:60px;"">+</div>","null","fixation","","","","","","","","","37","","",""
"revaluation","155","749427","0.0-4.0-2.0-0.19","spark_pilot_norest","10037","1","10","Female","","false","","","","","[1055.7999999523163,462.2999999523163]","./assets/img/ocean/memory/29.jpg","[""ArrowUp"",""ArrowLeft""]","value training","ocean","26","{""ArrowUp,ArrowLeft"":26,""ArrowUp,ArrowRight"":10,""ArrowDown,ArrowLeft"":5,""ArrowDown,ArrowRight"":17}","true","ArrowUp,ArrowLeft","false","original","1","38","","",""
"html-keyboard-response","156","749929","0.0-4.0-2.0-1.19","spark_pilot_norest","10037","1","10","Female","","","","","","","null","<div style=""font-size:60px;"">+</div>","null","fixation","","","","","","","","","39","","",""
"revaluation","157","755937","0.0-4.0-2.0-0.20","spark_pilot_norest","10037","1","10","Female","","false","","","","","[975.9000000953674,512.2999999523163]","./assets/img/ocean/memory/33.jpg","[""ArrowDown"",""ArrowRight""]","value training","ocean","17","{""ArrowUp,ArrowLeft"":26,""ArrowUp,ArrowRight"":10,""ArrowDown,ArrowLeft"":5,""ArrowDown,ArrowRight"":17}","false","ArrowDown,ArrowRight","false","original","1","40","","",""
"html-keyboard-response","158","756438","0.0-4.0-2.0-1.20","spark_pilot_norest","10037","1","10","Female","","","","","","","null","<div style=""font-size:60px;"">+</div>","null","fixation","","","","","","","","","41","","",""
"revaluation","159","762445","0.0-4.0-2.0-0.21","spark_pilot_norest","10037","1","10","Female","","false","","","","","[788.5999999046326,452]","./assets/img/ocean/memory/22.jpg","[""ArrowUp"",""ArrowRight""]","value training","ocean","10","{""ArrowUp,ArrowLeft"":26,""ArrowUp,ArrowRight"":10,""ArrowDown,ArrowLeft"":5,""ArrowDown,ArrowRight"":17}","false","ArrowUp,ArrowRight","false","original","1","42","","",""
"html-keyboard-response","160","762947","0.0-4.0-2.0-1.21","spark_pilot_norest","10037","1","10","Female","","","","","","","null","<div style=""font-size:60px;"">+</div>","null","fixation","","","","","","","","","43","","",""
"revaluation","161","768950","0.0-4.0-2.0-0.22","spark_pilot_norest","10037","1","10","Female","","false","","","","","[658.9000000953674,985.5]","./assets/img/ocean/memory/38.jpg","[""ArrowUp"",""ArrowLeft""]","value training","ocean","26","{""ArrowUp,ArrowLeft"":26,""ArrowUp,ArrowRight"":10,""ArrowDown,ArrowLeft"":5,""ArrowDown,ArrowRight"":17}","true","ArrowUp,ArrowLeft","false","original","1","44","","",""
"html-keyboard-response","162","769452","0.0-4.0-2.0-1.22","spark_pilot_norest","10037","1","10","Female","","","","","","","null","<div style=""font-size:60px;"">+</div>","null","fixation","","","","","","","","","45","","",""
"revaluation","163","775474","0.0-4.0-2.0-0.23","spark_pilot_norest","10037","1","10","Female","","false","","","","","[814.2999999523163,917.7999999523163]","./assets/img/ocean/memory/34.jpg","[""ArrowDown"",""ArrowRight""]","value training","ocean","17","{""ArrowUp,ArrowLeft"":26,""ArrowUp,ArrowRight"":10,""ArrowDown,ArrowLeft"":5,""ArrowDown,ArrowRight"":17}","false","ArrowDown,ArrowRight","false","original","1","46","","",""
"html-keyboard-response","164","775976","0.0-4.0-2.0-1.23","spark_pilot_norest","10037","1","10","Female","","","","","","","null","<div style=""font-size:60px;"">+</div>","null","fixation","","","","","","","","","47","","",""
"revaluation","165","779982","0.0-4.0-2.0-0.24","spark_pilot_norest","10037","1","10","Female","","false","","","","","[457.69999980926514]","./assets/img/ocean/catch/4.jpg","[""ArrowUp""]","value training","ocean","-10","{""ArrowUp,ArrowLeft"":26,""ArrowUp,ArrowRight"":10,""ArrowDown,ArrowLeft"":5,""ArrowDown,ArrowRight"":17}","false","ArrowUp","true","original","1","48","","",""
"html-keyboard-response","166","780484","0.0-4.0-2.0-1.24","spark_pilot_norest","10037","1","10","Female","","","","","","","null","<div style=""font-size:60px;"">+</div>","null","fixation","","","","","","","","","49","","",""
"revaluation","167","786497","0.0-4.0-2.0-0.25","spark_pilot_norest","10037","1","10","Female","","false","","","","","[800.6000001430511,871.1000001430511]","./assets/img/ocean/memory/23.jpg","[""ArrowUp"",""ArrowLeft""]","value training","ocean","26","{""ArrowUp,ArrowLeft"":26,""ArrowUp,ArrowRight"":10,""ArrowDown,ArrowLeft"":5,""ArrowDown,ArrowRight"":17}","true","ArrowUp,ArrowLeft","false","original","1","50","","",""
"html-keyboard-response","168","787013","0.0-4.0-2.0-1.25","spark_pilot_norest","10037","1","10","Female","","","","","","","null","<div style=""font-size:60px;"">+</div>","null","fixation","","","","","","","","","51","","",""
"revaluation","169","793027","0.0-4.0-2.0-0.26","spark_pilot_norest","10037","1","10","Female","","false","","","","","[727.2999999523163,628]","./assets/img/ocean/memory/2.jpg","[""ArrowUp"",""ArrowLeft""]","value training","ocean","26","{""ArrowUp,ArrowLeft"":26,""ArrowUp,ArrowRight"":10,""ArrowDown,ArrowLeft"":5,""ArrowDown,ArrowRight"":17}","true","ArrowUp,ArrowLeft","false","original","1","52","","",""
"html-keyboard-response","170","793529","0.0-4.0-2.0-1.26","spark_pilot_norest","10037","1","10","Female","","","","","","","null","<div style=""font-size:60px;"">+</div>","null","fixation","","","","","","","","","53","","",""
"revaluation","171","799542","0.0-4.0-2.0-0.27","spark_pilot_norest","10037","1","10","Female","","false","","","","","[849.7999999523163,400.09999990463257]","./assets/img/ocean/memory/16.jpg","[""ArrowUp"",""ArrowLeft""]","value training","ocean","26","{""ArrowUp,ArrowLeft"":26,""ArrowUp,ArrowRight"":10,""ArrowDown,ArrowLeft"":5,""ArrowDown,ArrowRight"":17}","true","ArrowUp,ArrowLeft","false","original","1","54","","",""
"html-keyboard-response","172","800044","0.0-4.0-2.0-1.27","spark_pilot_norest","10037","1","10","Female","","","","","","","null","<div style=""font-size:60px;"">+</div>","null","fixation","","","","","","","","","55","","",""
"revaluation","173","806069","0.0-4.0-2.0-0.28","spark_pilot_norest","10037","1","10","Female","","false","","","","","[1211.2000000476837,521]","./assets/img/ocean/memory/8.jpg","[""ArrowUp"",""ArrowLeft""]","value training","ocean","26","{""ArrowUp,ArrowLeft"":26,""ArrowUp,ArrowRight"":10,""ArrowDown,ArrowLeft"":5,""ArrowDown,ArrowRight"":17}","true","ArrowUp,ArrowLeft","false","original","1","56","","",""
"html-keyboard-response","174","806571","0.0-4.0-2.0-1.28","spark_pilot_norest","10037","1","10","Female","","","","","","","null","<div style=""font-size:60px;"">+</div>","null","fixation","","","","","","","","","57","","",""
"revaluation","175","812577","0.0-4.0-2.0-0.29","spark_pilot_norest","10037","1","10","Female","","false","","","","","[647.5999999046326,406.90000009536743]","./assets/img/ocean/memory/3.jpg","[""ArrowUp"",""ArrowLeft""]","value training","ocean","26","{""ArrowUp,ArrowLeft"":26,""ArrowUp,ArrowRight"":10,""ArrowDown,ArrowLeft"":5,""ArrowDown,ArrowRight"":17}","true","ArrowUp,ArrowLeft","false","original","1","58","","",""
"html-keyboard-response","176","813079","0.0-4.0-2.0-1.29","spark_pilot_norest","10037","1","10","Female","","","","","","","null","<div style=""font-size:60px;"">+</div>","null","fixation","","","","","","","","","59","","",""
"revaluation","177","819095","0.0-4.0-2.0-0.30","spark_pilot_norest","10037","1","10","Female","","false","","","","","[493,401.7999999523163]","./assets/img/ocean/memory/2.jpg","[""ArrowUp"",""ArrowLeft""]","value training","ocean","26","{""ArrowUp,ArrowLeft"":26,""ArrowUp,ArrowRight"":10,""ArrowDown,ArrowLeft"":5,""ArrowDown,ArrowRight"":17}","true","ArrowUp,ArrowLeft","false","original","1","60","","",""
"html-keyboard-response","178","819597","0.0-4.0-2.0-1.30","spark_pilot_norest","10037","1","10","Female","","","","","","","null","<div style=""font-size:60px;"">+</div>","null","fixation","","","","","","","","","61","","",""
"revaluation","179","825604","0.0-4.0-2.0-0.31","spark_pilot_norest","10037","1","10","Female","","false","","","","","[845.7000000476837,541.1000001430511]","./assets/img/ocean/memory/15.jpg","[""ArrowUp"",""ArrowLeft""]","value training","ocean","26","{""ArrowUp,ArrowLeft"":26,""ArrowUp,ArrowRight"":10,""ArrowDown,ArrowLeft"":5,""ArrowDown,ArrowRight"":17}","true","ArrowUp,ArrowLeft","false","original","1","62","","",""
"html-keyboard-response","180","826107","0.0-4.0-2.0-1.31","spark_pilot_norest","10037","1","10","Female","","","","","","","null","<div style=""font-size:60px;"">+</div>","null","fixation","","","","","","","","","63","","",""
"revaluation","181","832127","0.0-4.0-2.0-0.32","spark_pilot_norest","10037","1","10","Female","","false","","","","","[801.2999999523163,830.1999998092651]","./assets/img/ocean/memory/37.jpg","[""ArrowUp"",""ArrowLeft""]","value training","ocean","26","{""ArrowUp,ArrowLeft"":26,""ArrowUp,ArrowRight"":10,""ArrowDown,ArrowLeft"":5,""ArrowDown,ArrowRight"":17}","true","ArrowUp,ArrowLeft","false","original","1","64","","",""
"html-keyboard-response","182","832630","0.0-4.0-2.0-1.32","spark_pilot_norest","10037","1","10","Female","","","","","","","null","<div style=""font-size:60px;"">+</div>","null","fixation","","","","","","","","","65","","",""
"revaluation","183","838645","0.0-4.0-2.0-0.33","spark_pilot_norest","10037","1","10","Female","","false","","","","","[1127.1999998092651,691.4000000953674]","./assets/img/ocean/memory/15.jpg","[""ArrowUp"",""ArrowLeft""]","value training","ocean","26","{""ArrowUp,ArrowLeft"":26,""ArrowUp,ArrowRight"":10,""ArrowDown,ArrowLeft"":5,""ArrowDown,ArrowRight"":17}","true","ArrowUp,ArrowLeft","false","original","1","66","","",""
"html-keyboard-response","184","839147","0.0-4.0-2.0-1.33","spark_pilot_norest","10037","1","10","Female","","","","","","","null","<div style=""font-size:60px;"">+</div>","null","fixation","","","","","","","","","67","","",""
"revaluation","185","845153","0.0-4.0-2.0-0.34","spark_pilot_norest","10037","1","10","Female","","false","","","","","[921,1053.5999999046326]","./assets/img/ocean/memory/24.jpg","[""ArrowUp"",""ArrowLeft""]","value training","ocean","26","{""ArrowUp,ArrowLeft"":26,""ArrowUp,ArrowRight"":10,""ArrowDown,ArrowLeft"":5,""ArrowDown,ArrowRight"":17}","true","ArrowUp,ArrowLeft","false","original","1","68","","",""
"html-keyboard-response","186","845655","0.0-4.0-2.0-1.34","spark_pilot_norest","10037","1","10","Female","","","","","","","null","<div style=""font-size:60px;"">+</div>","null","fixation","","","","","","","","","69","","",""
"revaluation","187","851666","0.0-4.0-2.0-0.35","spark_pilot_norest","10037","1","10","Female","","false","","","","","[684.5,698.2999999523163]","./assets/img/ocean/memory/26.jpg","[""ArrowUp"",""ArrowLeft""]","value training","ocean","26","{""ArrowUp,ArrowLeft"":26,""ArrowUp,ArrowRight"":10,""ArrowDown,ArrowLeft"":5,""ArrowDown,ArrowRight"":17}","true","ArrowUp,ArrowLeft","false","original","1","70","","",""
"html-keyboard-response","188","852167","0.0-4.0-2.0-1.35","spark_pilot_norest","10037","1","10","Female","","","","","","","null","<div style=""font-size:60px;"">+</div>","null","fixation","","","","","","","","","71","","",""
"revaluation","189","858171","0.0-4.0-2.0-0.36","spark_pilot_norest","10037","1","10","Female","","false","","","","","[572.7999999523163,373.7000000476837]","./assets/img/ocean/memory/32.jpg","[""ArrowUp"",""ArrowLeft""]","value training","ocean","26","{""ArrowUp,ArrowLeft"":26,""ArrowUp,ArrowRight"":10,""ArrowDown,ArrowLeft"":5,""ArrowDown,ArrowRight"":17}","true","ArrowUp,ArrowLeft","false","original","1","72","","",""
"html-keyboard-response","190","858684","0.0-4.0-2.0-1.36","spark_pilot_norest","10037","1","10","Female","","","","","","","null","<div style=""font-size:60px;"">+</div>","null","fixation","","","","","","","","","73","","",""
"revaluation","191","862703","0.0-4.0-2.0-0.37","spark_pilot_norest","10037","1","10","Female","","false","","","","","[777.2999999523163]","./assets/img/ocean/catch/0.jpg","[""spaceBar""]","value training","ocean","0","{""ArrowUp,ArrowLeft"":26,""ArrowUp,ArrowRight"":10,""ArrowDown,ArrowLeft"":5,""ArrowDown,ArrowRight"":17}","true","spaceBar","true","original","1","74","","",""
"html-keyboard-response","192","863204","0.0-4.0-2.0-1.37","spark_pilot_norest","10037","1","10","Female","","","","","","","null","<div style=""font-size:60px;"">+</div>","null","fixation","","","","","","","","","75","","",""
"revaluation","193","869211","0.0-4.0-2.0-0.38","spark_pilot_norest","10037","1","10","Female","","false","","","","","[555.6000001430511,743.6999998092651]","./assets/img/ocean/memory/14.jpg","[""ArrowUp"",""ArrowLeft""]","value training","ocean","26","{""ArrowUp,ArrowLeft"":26,""ArrowUp,ArrowRight"":10,""ArrowDown,ArrowLeft"":5,""ArrowDown,ArrowRight"":17}","true","ArrowUp,ArrowLeft","false","original","1","76","","",""
"html-keyboard-response","194","869713","0.0-4.0-2.0-1.38","spark_pilot_norest","10037","1","10","Female","","","","","","","null","<div style=""font-size:60px;"">+</div>","null","fixation","","","","","","","","","77","","",""
"revaluation","195","873719","0.0-4.0-2.0-0.39","spark_pilot_norest","10037","1","10","Female","","false","","","","","[755.0999999046326]","./assets/img/ocean/catch/2.jpg","[""spaceBar""]","value training","ocean","0","{""ArrowUp,ArrowLeft"":26,""ArrowUp,ArrowRight"":10,""ArrowDown,ArrowLeft"":5,""ArrowDown,ArrowRight"":17}","true","spaceBar","true","original","1","78","","",""
"html-keyboard-response","196","874220","0.0-4.0-2.0-1.39","spark_pilot_norest","10037","1","10","Female","","","","","","","null","<div style=""font-size:60px;"">+</div>","null","fixation","","","","","","","","","79","","",""
"revaluation","197","880238","0.0-4.0-2.0-0.40","spark_pilot_norest","10037","1","10","Female","","false","","","","","[744.1000001430511,502.80000019073486]","./assets/img/ocean/memory/10.jpg","[""ArrowDown"",""ArrowRight""]","value training","ocean","17","{""ArrowUp,ArrowLeft"":26,""ArrowUp,ArrowRight"":10,""ArrowDown,ArrowLeft"":5,""ArrowDown,ArrowRight"":17}","false","ArrowDown,ArrowRight","false","original","1","80","","",""
"html-keyboard-response","198","880739","0.0-4.0-2.0-1.40","spark_pilot_norest","10037","1","10","Female","","","","","","","null","<div style=""font-size:60px;"">+</div>","null","fixation","","","","","","","","","81","","",""
"revaluation","199","886746","0.0-4.0-2.0-0.41","spark_pilot_norest","10037","1","10","Female","","false","","","","","[1375.7999999523163,1087.5]","./assets/img/ocean/memory/27.jpg","[""ArrowUp"",""ArrowLeft""]","value training","ocean","26","{""ArrowUp,ArrowLeft"":26,""ArrowUp,ArrowRight"":10,""ArrowDown,ArrowLeft"":5,""ArrowDown,ArrowRight"":17}","true","ArrowUp,ArrowLeft","false","original","1","82","","",""
"html-keyboard-response","200","887248","0.0-4.0-2.0-1.41","spark_pilot_norest","10037","1","10","Female","","","","","","","null","<div style=""font-size:60px;"">+</div>","null","fixation","","","","","","","","","83","","",""
"revaluation","201","893255","0.0-4.0-2.0-0.42","spark_pilot_norest","10037","1","10","Female","","false","","","","","[961.8999998569489,697.7000000476837]","./assets/img/ocean/memory/3.jpg","[""ArrowUp"",""ArrowLeft""]","value training","ocean","26","{""ArrowUp,ArrowLeft"":26,""ArrowUp,ArrowRight"":10,""ArrowDown,ArrowLeft"":5,""ArrowDown,ArrowRight"":17}","true","ArrowUp,ArrowLeft","false","original","1","84","","",""
"html-keyboard-response","202","893756","0.0-4.0-2.0-1.42","spark_pilot_norest","10037","1","10","Female","","","","","","","null","<div style=""font-size:60px;"">+</div>","null","fixation","","","","","","","","","85","","",""
"revaluation","203","899776","0.0-4.0-2.0-0.43","spark_pilot_norest","10037","1","10","Female","","false","","","","","[727,318.09999990463257]","./assets/img/ocean/memory/22.jpg","[""ArrowUp"",""ArrowLeft""]","value training","ocean","26","{""ArrowUp,ArrowLeft"":26,""ArrowUp,ArrowRight"":10,""ArrowDown,ArrowLeft"":5,""ArrowDown,ArrowRight"":17}","true","ArrowUp,ArrowLeft","false","original","1","86","","",""
"html-keyboard-response","204","900291","0.0-4.0-2.0-1.43","spark_pilot_norest","10037","1","10","Female","","","","","","","null","<div style=""font-size:60px;"">+</div>","null","fixation","","","","","","","","","87","","",""
"revaluation","205","906300","0.0-4.0-2.0-0.44","spark_pilot_norest","10037","1","10","Female","","false","","","","","[589.2000000476837,429.90000009536743]","./assets/img/ocean/memory/10.jpg","[""ArrowUp"",""ArrowLeft""]","value training","ocean","26","{""ArrowUp,ArrowLeft"":26,""ArrowUp,ArrowRight"":10,""ArrowDown,ArrowLeft"":5,""ArrowDown,ArrowRight"":17}","true","ArrowUp,ArrowLeft","false","original","1","88","","",""
"html-keyboard-response","206","906802","0.0-4.0-2.0-1.44","spark_pilot_norest","10037","1","10","Female","","","","","","","null","<div style=""font-size:60px;"">+</div>","null","fixation","","","","","","","","","89","","",""
"revaluation","207","912806","0.0-4.0-2.0-0.45","spark_pilot_norest","10037","1","10","Female","","false","","","","","[1276.9000000953674,1123.0999999046326]","./assets/img/ocean/memory/16.jpg","[""ArrowUp"",""ArrowLeft""]","value training","ocean","26","{""ArrowUp,ArrowLeft"":26,""ArrowUp,ArrowRight"":10,""ArrowDown,ArrowLeft"":5,""ArrowDown,ArrowRight"":17}","true","ArrowUp,ArrowLeft","false","original","1","90","","",""
"html-keyboard-response","208","913307","0.0-4.0-2.0-1.45","spark_pilot_norest","10037","1","10","Female","","","","","","","null","<div style=""font-size:60px;"">+</div>","null","fixation","","","","","","","","","91","","",""
"revaluation","209","919312","0.0-4.0-2.0-0.46","spark_pilot_norest","10037","1","10","Female","","false","","","","","[627.3999998569489,338.7000000476837]","./assets/img/ocean/memory/37.jpg","[""ArrowUp"",""ArrowLeft""]","value training","ocean","26","{""ArrowUp,ArrowLeft"":26,""ArrowUp,ArrowRight"":10,""ArrowDown,ArrowLeft"":5,""ArrowDown,ArrowRight"":17}","true","ArrowUp,ArrowLeft","false","original","1","92","","",""
"html-keyboard-response","210","919813","0.0-4.0-2.0-1.46","spark_pilot_norest","10037","1","10","Female","","","","","","","null","<div style=""font-size:60px;"">+</div>","null","fixation","","","","","","","","","93","","",""
"revaluation","211","925821","0.0-4.0-2.0-0.47","spark_pilot_norest","10037","1","10","Female","","false","","","","","[783.1000001430511,429.7000000476837]","./assets/img/ocean/memory/34.jpg","[""ArrowDown"",""ArrowRight""]","value training","ocean","17","{""ArrowUp,ArrowLeft"":26,""ArrowUp,ArrowRight"":10,""ArrowDown,ArrowLeft"":5,""ArrowDown,ArrowRight"":17}","false","ArrowDown,ArrowRight","false","original","1","94","","",""
"html-keyboard-response","212","926323","0.0-4.0-2.0-1.47","spark_pilot_norest","10037","1","10","Female","","","","","","","null","<div style=""font-size:60px;"">+</div>","null","fixation","","","","","","","","","95","","",""
"revaluation","213","932330","0.0-4.0-2.0-0.48","spark_pilot_norest","10037","1","10","Female","","false","","","","","[486.69999980926514,469.59999990463257]","./assets/img/ocean/memory/13.jpg","[""ArrowUp"",""ArrowLeft""]","value training","ocean","26","{""ArrowUp,ArrowLeft"":26,""ArrowUp,ArrowRight"":10,""ArrowDown,ArrowLeft"":5,""ArrowDown,ArrowRight"":17}","true","ArrowUp,ArrowLeft","false","original","1","96","","",""
"html-keyboard-response","214","932832","0.0-4.0-2.0-1.48","spark_pilot_norest","10037","1","10","Female","","","","","","","null","<div style=""font-size:60px;"">+</div>","null","fixation","","","","","","","","","97","","",""
"revaluation","215","938839","0.0-4.0-2.0-0.49","spark_pilot_norest","10037","1","10","Female","","false","","","","","[683.4000000953674,451.2999999523163]","./assets/img/ocean/memory/28.jpg","[""ArrowUp"",""ArrowLeft""]","value training","ocean","26","{""ArrowUp,ArrowLeft"":26,""ArrowUp,ArrowRight"":10,""ArrowDown,ArrowLeft"":5,""ArrowDown,ArrowRight"":17}","true","ArrowUp,ArrowLeft","false","original","1","98","","",""
"html-keyboard-response","216","939341","0.0-4.0-2.0-1.49","spark_pilot_norest","10037","1","10","Female","","","","","","","null","<div style=""font-size:60px;"">+</div>","null","fixation","","","","","","","","","99","","",""
"learning-instructions","217","954391","0.0-4.0-3.0-0.0","spark_pilot_norest","10037","1","10","Female","","","","","","","1807.0999999046326","<p> Now, you will travel with a friend who will choose whether you go up or down first. </p>
            <p> On these turns, you will just see the animal that they found. You will still get to choose which chest to search for treasure.</p>","","instructions","","","","","","","","","","","",""
"revaluation","218","958394","0.0-4.0-4.0-0.0","spark_pilot_norest","10037","1","10","Female","","false","","","","","[910.7000000476837]","./assets/img/ocean/animals/seahorse.jpg","[""ArrowLeft""]","revaluation","ocean","26","{""ArrowUp,ArrowLeft"":26,""ArrowUp,ArrowRight"":10,""ArrowDown,ArrowLeft"":5,""ArrowDown,ArrowRight"":17}","true","ArrowUp,ArrowLeft","","original","1","0","","",""
"html-keyboard-response","219","958905","0.0-4.0-4.0-1.0","spark_pilot_norest","10037","1","10","Female","","","","","","","null","<div style=""font-size:60px;"">+</div>","null","fixation","","","","","","","","","1","","",""
"revaluation","220","962923","0.0-4.0-4.0-0.1","spark_pilot_norest","10037","1","10","Female","","false","","","","","[687.5]","./assets/img/ocean/animals/octopus.jpg","[""ArrowRight""]","revaluation","ocean","17","{""ArrowUp,ArrowLeft"":26,""ArrowUp,ArrowRight"":10,""ArrowDown,ArrowLeft"":5,""ArrowDown,ArrowRight"":17}","true","ArrowDown,ArrowRight","","original","1","2","","",""
"html-keyboard-response","221","963425","0.0-4.0-4.0-1.1","spark_pilot_norest","10037","1","10","Female","","","","","","","null","<div style=""font-size:60px;"">+</div>","null","fixation","","","","","","","","","3","","",""
"revaluation","222","967444","0.0-4.0-4.0-0.2","spark_pilot_norest","10037","1","10","Female","","false","","","","","[625.8000001907349]","./assets/img/ocean/animals/seahorse.jpg","[""ArrowLeft""]","revaluation","ocean","26","{""ArrowUp,ArrowLeft"":26,""ArrowUp,ArrowRight"":10,""ArrowDown,ArrowLeft"":5,""ArrowDown,ArrowRight"":17}","true","ArrowUp,ArrowLeft","","original","1","4","","",""
"html-keyboard-response","223","967960","0.0-4.0-4.0-1.2","spark_pilot_norest","10037","1","10","Female","","","","","","","null","<div style=""font-size:60px;"">+</div>","null","fixation","","","","","","","","","5","","",""
"revaluation","224","971981","0.0-4.0-4.0-0.3","spark_pilot_norest","10037","1","10","Female","","false","","","","","[540.3999998569489]","./assets/img/ocean/animals/octopus.jpg","[""ArrowRight""]","revaluation","ocean","17","{""ArrowUp,ArrowLeft"":26,""ArrowUp,ArrowRight"":10,""ArrowDown,ArrowLeft"":5,""ArrowDown,ArrowRight"":17}","true","ArrowDown,ArrowRight","","original","1","6","","",""
"html-keyboard-response","225","972483","0.0-4.0-4.0-1.3","spark_pilot_norest","10037","1","10","Female","","","","","","","null","<div style=""font-size:60px;"">+</div>","null","fixation","","","","","","","","","7","","",""
"revaluation","226","976519","0.0-4.0-4.0-0.4","spark_pilot_norest","10037","1","10","Female","","false","","","","","[560.7000000476837]","./assets/img/ocean/animals/octopus.jpg","[""ArrowRight""]","revaluation","ocean","17","{""ArrowUp,ArrowLeft"":26,""ArrowUp,ArrowRight"":10,""ArrowDown,ArrowLeft"":5,""ArrowDown,ArrowRight"":17}","true","ArrowDown,ArrowRight","","original","1","8","","",""
"html-keyboard-response","227","977035","0.0-4.0-4.0-1.4","spark_pilot_norest","10037","1","10","Female","","","","","","","null","<div style=""font-size:60px;"">+</div>","null","fixation","","","","","","","","","9","","",""
"revaluation","228","981055","0.0-4.0-4.0-0.5","spark_pilot_norest","10037","1","10","Female","","false","","","","","[617]","./assets/img/ocean/animals/octopus.jpg","[""ArrowRight""]","revaluation","ocean","17","{""ArrowUp,ArrowLeft"":26,""ArrowUp,ArrowRight"":10,""ArrowDown,ArrowLeft"":5,""ArrowDown,ArrowRight"":17}","true","ArrowDown,ArrowRight","","original","1","10","","",""
"html-keyboard-response","229","981571","0.0-4.0-4.0-1.5","spark_pilot_norest","10037","1","10","Female","","","","","","","null","<div style=""font-size:60px;"">+</div>","null","fixation","","","","","","","","","11","","",""
"revaluation","230","985578","0.0-4.0-4.0-0.6","spark_pilot_norest","10037","1","10","Female","","false","","","","","[680.8999998569489]","./assets/img/ocean/animals/seahorse.jpg","[""ArrowLeft""]","revaluation","ocean","26","{""ArrowUp,ArrowLeft"":26,""ArrowUp,ArrowRight"":10,""ArrowDown,ArrowLeft"":5,""ArrowDown,ArrowRight"":17}","true","ArrowUp,ArrowLeft","","original","1","12","","",""
"html-keyboard-response","231","986079","0.0-4.0-4.0-1.6","spark_pilot_norest","10037","1","10","Female","","","","","","","null","<div style=""font-size:60px;"">+</div>","null","fixation","","","","","","","","","13","","",""
"revaluation","232","990085","0.0-4.0-4.0-0.7","spark_pilot_norest","10037","1","10","Female","","false","","","","","[829.1000001430511]","./assets/img/ocean/animals/seahorse.jpg","[""ArrowRight""]","revaluation","ocean","10","{""ArrowUp,ArrowLeft"":26,""ArrowUp,ArrowRight"":10,""ArrowDown,ArrowLeft"":5,""ArrowDown,ArrowRight"":17}","false","ArrowUp,ArrowRight","","original","1","14","","",""
"html-keyboard-response","233","990588","0.0-4.0-4.0-1.7","spark_pilot_norest","10037","1","10","Female","","","","","","","null","<div style=""font-size:60px;"">+</div>","null","fixation","","","","","","","","","15","","",""
"revaluation","234","994593","0.0-4.0-4.0-0.8","spark_pilot_norest","10037","1","10","Female","","false","","","","","[679.4000000953674]","./assets/img/ocean/animals/seahorse.jpg","[""ArrowLeft""]","revaluation","ocean","26","{""ArrowUp,ArrowLeft"":26,""ArrowUp,ArrowRight"":10,""ArrowDown,ArrowLeft"":5,""ArrowDown,ArrowRight"":17}","true","ArrowUp,ArrowLeft","","original","1","16","","",""
"html-keyboard-response","235","995095","0.0-4.0-4.0-1.8","spark_pilot_norest","10037","1","10","Female","","","","","","","null","<div style=""font-size:60px;"">+</div>","null","fixation","","","","","","","","","17","","",""
"revaluation","236","999101","0.0-4.0-4.0-0.9","spark_pilot_norest","10037","1","10","Female","","false","","","","","[581.9000000953674]","./assets/img/ocean/animals/octopus.jpg","[""ArrowRight""]","revaluation","ocean","17","{""ArrowUp,ArrowLeft"":26,""ArrowUp,ArrowRight"":10,""ArrowDown,ArrowLeft"":5,""ArrowDown,ArrowRight"":17}","true","ArrowDown,ArrowRight","","original","1","18","","",""
"html-keyboard-response","237","999603","0.0-4.0-4.0-1.9","spark_pilot_norest","10037","1","10","Female","","","","","","","null","<div style=""font-size:60px;"">+</div>","null","fixation","","","","","","","","","19","","",""
"revaluation","238","1003610","0.0-4.0-4.0-0.10","spark_pilot_norest","10037","1","10","Female","","false","","","","","[793]","./assets/img/ocean/animals/octopus.jpg","[""ArrowRight""]","revaluation","ocean","17","{""ArrowUp,ArrowLeft"":26,""ArrowUp,ArrowRight"":10,""ArrowDown,ArrowLeft"":5,""ArrowDown,ArrowRight"":17}","true","ArrowDown,ArrowRight","","original","1","20","","",""
"html-keyboard-response","239","1004111","0.0-4.0-4.0-1.10","spark_pilot_norest","10037","1","10","Female","","","","","","","null","<div style=""font-size:60px;"">+</div>","null","fixation","","","","","","","","","21","","",""
"revaluation","240","1008117","0.0-4.0-4.0-0.11","spark_pilot_norest","10037","1","10","Female","","false","","","","","[636.5999999046326]","./assets/img/ocean/animals/seahorse.jpg","[""ArrowLeft""]","revaluation","ocean","26","{""ArrowUp,ArrowLeft"":26,""ArrowUp,ArrowRight"":10,""ArrowDown,ArrowLeft"":5,""ArrowDown,ArrowRight"":17}","true","ArrowUp,ArrowLeft","","original","1","22","","",""
"html-keyboard-response","241","1008618","0.0-4.0-4.0-1.11","spark_pilot_norest","10037","1","10","Female","","","","","","","null","<div style=""font-size:60px;"">+</div>","null","fixation","","","","","","","","","23","","",""
"revaluation","242","1012625","0.0-4.0-4.0-0.12","spark_pilot_norest","10037","1","10","Female","","false","","","","","[977.8999998569489]","./assets/img/ocean/animals/seahorse.jpg","[""ArrowLeft""]","revaluation","ocean","26","{""ArrowUp,ArrowLeft"":26,""ArrowUp,ArrowRight"":10,""ArrowDown,ArrowLeft"":5,""ArrowDown,ArrowRight"":17}","true","ArrowUp,ArrowLeft","","original","1","24","","",""
"html-keyboard-response","243","1013127","0.0-4.0-4.0-1.12","spark_pilot_norest","10037","1","10","Female","","","","","","","null","<div style=""font-size:60px;"">+</div>","null","fixation","","","","","","","","","25","","",""
"revaluation","244","1017134","0.0-4.0-4.0-0.13","spark_pilot_norest","10037","1","10","Female","","false","","","","","[540]","./assets/img/ocean/animals/octopus.jpg","[""ArrowRight""]","revaluation","ocean","17","{""ArrowUp,ArrowLeft"":26,""ArrowUp,ArrowRight"":10,""ArrowDown,ArrowLeft"":5,""ArrowDown,ArrowRight"":17}","true","ArrowDown,ArrowRight","","original","1","26","","",""
"html-keyboard-response","245","1017636","0.0-4.0-4.0-1.13","spark_pilot_norest","10037","1","10","Female","","","","","","","null","<div style=""font-size:60px;"">+</div>","null","fixation","","","","","","","","","27","","",""
"revaluation","246","1021642","0.0-4.0-4.0-0.14","spark_pilot_norest","10037","1","10","Female","","false","","","","","[620.9000000953674]","./assets/img/ocean/animals/seahorse.jpg","[""ArrowLeft""]","revaluation","ocean","26","{""ArrowUp,ArrowLeft"":26,""ArrowUp,ArrowRight"":10,""ArrowDown,ArrowLeft"":5,""ArrowDown,ArrowRight"":17}","true","ArrowUp,ArrowLeft","","original","1","28","","",""
"html-keyboard-response","247","1022144","0.0-4.0-4.0-1.14","spark_pilot_norest","10037","1","10","Female","","","","","","","null","<div style=""font-size:60px;"">+</div>","null","fixation","","","","","","","","","29","","",""
"revaluation","248","1026150","0.0-4.0-4.0-0.15","spark_pilot_norest","10037","1","10","Female","","false","","","","","[965]","./assets/img/ocean/animals/seahorse.jpg","[""ArrowLeft""]","revaluation","ocean","26","{""ArrowUp,ArrowLeft"":26,""ArrowUp,ArrowRight"":10,""ArrowDown,ArrowLeft"":5,""ArrowDown,ArrowRight"":17}","true","ArrowUp,ArrowLeft","","original","1","30","","",""
"html-keyboard-response","249","1026652","0.0-4.0-4.0-1.15","spark_pilot_norest","10037","1","10","Female","","","","","","","null","<div style=""font-size:60px;"">+</div>","null","fixation","","","","","","","","","31","","",""
"revaluation","250","1030657","0.0-4.0-4.0-0.16","spark_pilot_norest","10037","1","10","Female","","false","","","","","[655.2999999523163]","./assets/img/ocean/animals/octopus.jpg","[""ArrowRight""]","revaluation","ocean","17","{""ArrowUp,ArrowLeft"":26,""ArrowUp,ArrowRight"":10,""ArrowDown,ArrowLeft"":5,""ArrowDown,ArrowRight"":17}","true","ArrowDown,ArrowRight","","original","1","32","","",""
"html-keyboard-response","251","1031160","0.0-4.0-4.0-1.16","spark_pilot_norest","10037","1","10","Female","","","","","","","null","<div style=""font-size:60px;"">+</div>","null","fixation","","","","","","","","","33","","",""
"revaluation","252","1035166","0.0-4.0-4.0-0.17","spark_pilot_norest","10037","1","10","Female","","false","","","","","[651.8999998569489]","./assets/img/ocean/animals/octopus.jpg","[""ArrowRight""]","revaluation","ocean","17","{""ArrowUp,ArrowLeft"":26,""ArrowUp,ArrowRight"":10,""ArrowDown,ArrowLeft"":5,""ArrowDown,ArrowRight"":17}","true","ArrowDown,ArrowRight","","original","1","34","","",""
"html-keyboard-response","253","1035667","0.0-4.0-4.0-1.17","spark_pilot_norest","10037","1","10","Female","","","","","","","null","<div style=""font-size:60px;"">+</div>","null","fixation","","","","","","","","","35","","",""
"learning-instructions","254","1044127","0.0-4.0-5.0-0.0","spark_pilot_norest","10037","1","10","Female","","","","","","","null","<p> You have almost finished this part of the game! </p>
            <p> We are going to ask you to make a few more choices. </p>","","instructions","","","","","","","","","","","",""
"learning-instructions","255","1060109","0.0-4.0-5.0-0.1","spark_pilot_norest","10037","1","10","Female","","","","","","","null","<p> First, you need to decide whether to go up or down. When you see each picture, use the arrow keys to make your choice. </p>
            <p><b>You will not see which animal you found, but try to get to the one that will give you the most treasure.</b></p>","","instructions","","","","","","","","","","","",""
"html-keyboard-response","256","1061111","0.0-4.0-6.0-0.0","spark_pilot_norest","10037","1","10","Female","","","","","","","null","<div style=""font-size:100px;color:red;"">Starting in...</div>","null","","","","","","","","","","","","",""
"html-keyboard-response","257","1062120","0.0-4.0-6.0-1.0","spark_pilot_norest","10037","1","10","Female","","","","","","","null","<div style=""font-size:200px;color:red;"">3</div>","null","","","","","","","","","","","","",""
"html-keyboard-response","258","1063132","0.0-4.0-6.0-2.0","spark_pilot_norest","10037","1","10","Female","","","","","","","null","<div style=""font-size:200px;color:red;"">2</div>","null","","","","","","","","","","","","",""
"html-keyboard-response","259","1064143","0.0-4.0-6.0-3.0","spark_pilot_norest","10037","1","10","Female","","","","","","","null","<div style=""font-size:200px;color:red;"">1</div>","null","","","","","","","","","","","","",""
"revaluation","260","1064520","0.0-4.0-7.0-0.0","spark_pilot_norest","10037","1","10","Female","","false","","","","","[372.5]","./assets/img/ocean/test/0.jpg","[""ArrowUp""]","first stage test","ocean","0","{""ArrowUp,ArrowLeft"":26,""ArrowUp,ArrowRight"":10,""ArrowDown,ArrowLeft"":5,""ArrowDown,ArrowRight"":17}","true","ArrowUp","false","original","1","","","",""
"html-keyboard-response","261","1065036","0.0-4.0-7.0-1.0","spark_pilot_norest","10037","1","10","Female","","","","","","","null","<div style=""font-size:60px;"">+</div>","null","fixation","","","","","","","","","","","",""
"revaluation","262","1066496","0.0-4.0-7.0-0.1","spark_pilot_norest","10037","1","10","Female","","false","","","","","[1456.4000000953674]","./assets/img/ocean/test/3.jpg","[""ArrowUp""]","first stage test","ocean","0","{""ArrowUp,ArrowLeft"":26,""ArrowUp,ArrowRight"":10,""ArrowDown,ArrowLeft"":5,""ArrowDown,ArrowRight"":17}","true","ArrowUp","false","original","1","","","",""
"html-keyboard-response","263","1067005","0.0-4.0-7.0-1.1","spark_pilot_norest","10037","1","10","Female","","","","","","","null","<div style=""font-size:60px;"">+</div>","null","fixation","","","","","","","","","","","",""
"revaluation","264","1067840","0.0-4.0-7.0-0.2","spark_pilot_norest","10037","1","10","Female","","false","","","","","[827.4000000953674]","./assets/img/ocean/test/1.jpg","[""ArrowUp""]","first stage test","ocean","0","{""ArrowUp,ArrowLeft"":26,""ArrowUp,ArrowRight"":10,""ArrowDown,ArrowLeft"":5,""ArrowDown,ArrowRight"":17}","true","ArrowUp","false","original","1","","","",""
"html-keyboard-response","265","1068348","0.0-4.0-7.0-1.2","spark_pilot_norest","10037","1","10","Female","","","","","","","null","<div style=""font-size:60px;"">+</div>","null","fixation","","","","","","","","","","","",""
"revaluation","266","1068888","0.0-4.0-7.0-0.3","spark_pilot_norest","10037","1","10","Female","","false","","","","","[537]","./assets/img/ocean/test/2.jpg","[""ArrowUp""]","first stage test","ocean","0","{""ArrowUp,ArrowLeft"":26,""ArrowUp,ArrowRight"":10,""ArrowDown,ArrowLeft"":5,""ArrowDown,ArrowRight"":17}","true","ArrowUp","false","original","1","","","",""
"html-keyboard-response","267","1069391","0.0-4.0-7.0-1.3","spark_pilot_norest","10037","1","10","Female","","","","","","","null","<div style=""font-size:60px;"">+</div>","null","fixation","","","","","","","","","","","",""
"learning-instructions","268","1082727","0.0-4.0-8.0-0.0","spark_pilot_norest","10037","1","10","Female","","","","","","","null","<p> Now you will see the animals again and can search their chests for treasure. </p>
            <p> This time, you will not see how much treasure you earned, but you will earn more bonus money for making better choices. </p>","","instructions","","","","","","","","","","","",""
"html-keyboard-response","269","1083729","0.0-4.0-9.0-0.0","spark_pilot_norest","10037","1","10","Female","","","","","","","null","<div style=""font-size:100px;color:red;"">Starting in...</div>","null","","","","","","","","","","","","",""
"html-keyboard-response","270","1084742","0.0-4.0-9.0-1.0","spark_pilot_norest","10037","1","10","Female","","","","","","","null","<div style=""font-size:200px;color:red;"">3</div>","null","","","","","","","","","","","","",""
"html-keyboard-response","271","1085751","0.0-4.0-9.0-2.0","spark_pilot_norest","10037","1","10","Female","","","","","","","null","<div style=""font-size:200px;color:red;"">2</div>","null","","","","","","","","","","","","",""
"html-keyboard-response","272","1086756","0.0-4.0-9.0-3.0","spark_pilot_norest","10037","1","10","Female","","","","","","","null","<div style=""font-size:200px;color:red;"">1</div>","null","","","","","","","","","","","","",""
"revaluation","273","1087472","0.0-4.0-10.0-0.0","spark_pilot_norest","10037","1","10","Female","","false","","","","","[713.5999999046326]","./assets/img/ocean/animals/seahorse.jpg","[""ArrowLeft""]","second stage test","ocean","0","{""ArrowUp,ArrowLeft"":26,""ArrowUp,ArrowRight"":10,""ArrowDown,ArrowLeft"":5,""ArrowDown,ArrowRight"":17}","true","ArrowUp,ArrowLeft","","original","1","","","",""
"html-keyboard-response","274","1087976","0.0-4.0-10.0-1.0","spark_pilot_norest","10037","1","10","Female","","","","","","","null","<div style=""font-size:60px;"">+</div>","null","fixation","","","","","","","","","","","",""
"revaluation","275","1088673","0.0-4.0-10.0-0.1","spark_pilot_norest","10037","1","10","Female","","false","","","","","[693.2000000476837]","./assets/img/ocean/animals/seahorse.jpg","[""ArrowLeft""]","second stage test","ocean","0","{""ArrowUp,ArrowLeft"":26,""ArrowUp,ArrowRight"":10,""ArrowDown,ArrowLeft"":5,""ArrowDown,ArrowRight"":17}","true","ArrowUp,ArrowLeft","","original","1","","","",""
"html-keyboard-response","276","1089175","0.0-4.0-10.0-1.1","spark_pilot_norest","10037","1","10","Female","","","","","","","null","<div style=""font-size:60px;"">+</div>","null","fixation","","","","","","","","","","","",""
"revaluation","277","1089618","0.0-4.0-10.0-0.2","spark_pilot_norest","10037","1","10","Female","","false","","","","","[438.09999990463257]","./assets/img/ocean/animals/seahorse.jpg","[""ArrowLeft""]","second stage test","ocean","0","{""ArrowUp,ArrowLeft"":26,""ArrowUp,ArrowRight"":10,""ArrowDown,ArrowLeft"":5,""ArrowDown,ArrowRight"":17}","true","ArrowUp,ArrowLeft","","original","1","","","",""
"html-keyboard-response","278","1090125","0.0-4.0-10.0-1.2","spark_pilot_norest","10037","1","10","Female","","","","","","","null","<div style=""font-size:60px;"">+</div>","null","fixation","","","","","","","","","","","",""
"revaluation","279","1090560","0.0-4.0-10.0-0.3","spark_pilot_norest","10037","1","10","Female","","false","","","","","[430.90000009536743]","./assets/img/ocean/animals/seahorse.jpg","[""ArrowLeft""]","second stage test","ocean","0","{""ArrowUp,ArrowLeft"":26,""ArrowUp,ArrowRight"":10,""ArrowDown,ArrowLeft"":5,""ArrowDown,ArrowRight"":17}","true","ArrowUp,ArrowLeft","","original","1","","","",""
"html-keyboard-response","280","1091075","0.0-4.0-10.0-1.3","spark_pilot_norest","10037","1","10","Female","","","","","","","null","<div style=""font-size:60px;"">+</div>","null","fixation","","","","","","","","","","","",""
"revaluation","281","1091552","0.0-4.0-10.0-0.4","spark_pilot_norest","10037","1","10","Female","","false","","","","","[472.7000000476837]","./assets/img/ocean/animals/octopus.jpg","[""ArrowRight""]","second stage test","ocean","0","{""ArrowUp,ArrowLeft"":26,""ArrowUp,ArrowRight"":10,""ArrowDown,ArrowLeft"":5,""ArrowDown,ArrowRight"":17}","true","ArrowDown,ArrowRight","","original","1","","","",""
"html-keyboard-response","282","1092058","0.0-4.0-10.0-1.4","spark_pilot_norest","10037","1","10","Female","","","","","","","null","<div style=""font-size:60px;"">+</div>","null","fixation","","","","","","","","","","","",""
"revaluation","283","1092432","0.0-4.0-10.0-0.5","spark_pilot_norest","10037","1","10","Female","","false","","","","","[369.5]","./assets/img/ocean/animals/octopus.jpg","[""ArrowLeft""]","second stage test","ocean","0","{""ArrowUp,ArrowLeft"":26,""ArrowUp,ArrowRight"":10,""ArrowDown,ArrowLeft"":5,""ArrowDown,ArrowRight"":17}","false","ArrowDown,ArrowLeft","","original","1","","","",""
"html-keyboard-response","284","1092946","0.0-4.0-10.0-1.5","spark_pilot_norest","10037","1","10","Female","","","","","","","null","<div style=""font-size:60px;"">+</div>","null","fixation","","","","","","","","","","","",""
"revaluation","285","1093358","0.0-4.0-10.0-0.6","spark_pilot_norest","10037","1","10","Female","","false","","","","","[408.5]","./assets/img/ocean/animals/octopus.jpg","[""ArrowRight""]","second stage test","ocean","0","{""ArrowUp,ArrowLeft"":26,""ArrowUp,ArrowRight"":10,""ArrowDown,ArrowLeft"":5,""ArrowDown,ArrowRight"":17}","true","ArrowDown,ArrowRight","","original","1","","","",""
"html-keyboard-response","286","1093868","0.0-4.0-10.0-1.6","spark_pilot_norest","10037","1","10","Female","","","","","","","null","<div style=""font-size:60px;"">+</div>","null","fixation","","","","","","","","","","","",""
"revaluation","287","1094320","0.0-4.0-10.0-0.7","spark_pilot_norest","10037","1","10","Female","","false","","","","","[447.40000009536743]","./assets/img/ocean/animals/octopus.jpg","[""ArrowRight""]","second stage test","ocean","0","{""ArrowUp,ArrowLeft"":26,""ArrowUp,ArrowRight"":10,""ArrowDown,ArrowLeft"":5,""ArrowDown,ArrowRight"":17}","true","ArrowDown,ArrowRight","","original","1","","","",""
"html-keyboard-response","288","1094835","0.0-4.0-10.0-1.7","spark_pilot_norest","10037","1","10","Female","","","","","","","null","<div style=""font-size:60px;"">+</div>","null","fixation","","","","","","","","","","","",""
"learning-instructions","289","1099288","0.0-4.0-0.1-0.2","spark_pilot_norest","10037","1","10","Female","","","","","","","1681","<p> This time you are searching for treasure in the <b>canyon</b>.</p>","","instructions","","","","","","","","","","","",""
"learning-instructions","290","1118810","0.0-4.0-0.1-0.3","spark_pilot_norest","10037","1","10","Female","","","","","","","2263.600000143051","<p><b>New</b> animals with <b>new</b> treasure chests live here. You need to explore to discover where the animal with the best treasure chest is.</p>
                    <p> Like before, once you figure out which animal has the chest with the most treasure, you should try to get to that animal and select that chest! </p>","","instructions","","","","","","","","","","","",""
"learning-instructions","291","1135117","0.0-4.0-1.1-0.1","spark_pilot_norest","10037","1","10","Female","","","","","","","1571.9000000953674","<p> Remember, when you see a picture of the place, use the up and down keys to <b>find an animal</b>.</p>
            <p> When you encounter an animal, you should use the left and right keys to <b>select a treasure chest</b>.</p>
            <p> Don't forget to look out for the robber! </p>","","instructions","","","","","","","","","","","",""
"revaluation","292","1141133","0.0-4.0-2.1-0.50","spark_pilot_norest","10037","1","10","Female","","false","","","","","[1014.0999999046326,732.6999998092651]","./assets/img/canyon/memory/22.jpg","[""ArrowDown"",""ArrowRight""]","value training","canyon","30","{""ArrowUp,ArrowLeft"":23,""ArrowUp,ArrowRight"":10,""ArrowDown,ArrowLeft"":8,""ArrowDown,ArrowRight"":30}","true","ArrowDown,ArrowRight","false","revaluation","2","0","","",""
"html-keyboard-response","293","1141639","0.0-4.0-2.1-1.50","spark_pilot_norest","10037","1","10","Female","","","","","","","null","<div style=""font-size:60px;"">+</div>","null","fixation","","","","","","","","","1","","",""
"revaluation","294","1147675","0.0-4.0-2.1-0.51","spark_pilot_norest","10037","1","10","Female","","false","","","","","[526.4000000953674,414.5]","./assets/img/canyon/memory/15.jpg","[""ArrowDown"",""ArrowLeft""]","value training","canyon","8","{""ArrowUp,ArrowLeft"":23,""ArrowUp,ArrowRight"":10,""ArrowDown,ArrowLeft"":8,""ArrowDown,ArrowRight"":30}","false","ArrowDown,ArrowLeft","false","revaluation","2","2","","",""
"html-keyboard-response","295","1148188","0.0-4.0-2.1-1.51","spark_pilot_norest","10037","1","10","Female","","","","","","","null","<div style=""font-size:60px;"">+</div>","null","fixation","","","","","","","","","3","","",""
"revaluation","296","1154222","0.0-4.0-2.1-0.52","spark_pilot_norest","10037","1","10","Female","","false","","","","","[427.90000009536743,510.59999990463257]","./assets/img/canyon/memory/2.jpg","[""ArrowUp"",""ArrowRight""]","value training","canyon","10","{""ArrowUp,ArrowLeft"":23,""ArrowUp,ArrowRight"":10,""ArrowDown,ArrowLeft"":8,""ArrowDown,ArrowRight"":30}","false","ArrowUp,ArrowRight","false","revaluation","2","4","","",""
"html-keyboard-response","297","1154735","0.0-4.0-2.1-1.52","spark_pilot_norest","10037","1","10","Female","","","","","","","null","<div style=""font-size:60px;"">+</div>","null","fixation","","","","","","","","","5","","",""
"revaluation","298","1160748","0.0-4.0-2.1-0.53","spark_pilot_norest","10037","1","10","Female","","false","","","","","[397,293.5]","./assets/img/canyon/memory/38.jpg","[""ArrowUp"",""ArrowLeft""]","value training","canyon","23","{""ArrowUp,ArrowLeft"":23,""ArrowUp,ArrowRight"":10,""ArrowDown,ArrowLeft"":8,""ArrowDown,ArrowRight"":30}","false","ArrowUp,ArrowLeft","false","revaluation","2","6","","",""
"html-keyboard-response","299","1161262","0.0-4.0-2.1-1.53","spark_pilot_norest","10037","1","10","Female","","","","","","","null","<div style=""font-size:60px;"">+</div>","null","fixation","","","","","","","","","7","","",""
"revaluation","300","1167276","0.0-4.0-2.1-0.54","spark_pilot_norest","10037","1","10","Female","","false","","","","","[526.8999998569489,371.2999999523163]","./assets/img/canyon/memory/38.jpg","[""ArrowDown"",""ArrowRight""]","value training","canyon","30","{""ArrowUp,ArrowLeft"":23,""ArrowUp,ArrowRight"":10,""ArrowDown,ArrowLeft"":8,""ArrowDown,ArrowRight"":30}","true","ArrowDown,ArrowRight","false","revaluation","2","8","","",""
"html-keyboard-response","301","1167778","0.0-4.0-2.1-1.54","spark_pilot_norest","10037","1","10","Female","","","","","","","null","<div style=""font-size:60px;"">+</div>","null","fixation","","","","","","","","","9","","",""
"revaluation","302","1173786","0.0-4.0-2.1-0.55","spark_pilot_norest","10037","1","10","Female","","false","","","","","[529.9000000953674,383.5]","./assets/img/canyon/memory/11.jpg","[""ArrowDown"",""ArrowRight""]","value training","canyon","30","{""ArrowUp,ArrowLeft"":23,""ArrowUp,ArrowRight"":10,""ArrowDown,ArrowLeft"":8,""ArrowDown,ArrowRight"":30}","true","ArrowDown,ArrowRight","false","revaluation","2","10","","",""
"html-keyboard-response","303","1174287","0.0-4.0-2.1-1.55","spark_pilot_norest","10037","1","10","Female","","","","","","","null","<div style=""font-size:60px;"">+</div>","null","fixation","","","","","","","","","11","","",""
"revaluation","304","1180294","0.0-4.0-2.1-0.56","spark_pilot_norest","10037","1","10","Female","","false","","","","","[466.39999985694885,443.10000014305115]","./assets/img/canyon/memory/32.jpg","[""ArrowDown"",""ArrowRight""]","value training","canyon","30","{""ArrowUp,ArrowLeft"":23,""ArrowUp,ArrowRight"":10,""ArrowDown,ArrowLeft"":8,""ArrowDown,ArrowRight"":30}","true","ArrowDown,ArrowRight","false","revaluation","2","12","","",""
"html-keyboard-response","305","1180796","0.0-4.0-2.1-1.56","spark_pilot_norest","10037","1","10","Female","","","","","","","null","<div style=""font-size:60px;"">+</div>","null","fixation","","","","","","","","","13","","",""
"revaluation","306","1186800","0.0-4.0-2.1-0.57","spark_pilot_norest","10037","1","10","Female","","false","","","","","[490.7000000476837,375.5]","./assets/img/canyon/memory/16.jpg","[""ArrowDown"",""ArrowRight""]","value training","canyon","30","{""ArrowUp,ArrowLeft"":23,""ArrowUp,ArrowRight"":10,""ArrowDown,ArrowLeft"":8,""ArrowDown,ArrowRight"":30}","true","ArrowDown,ArrowRight","false","revaluation","2","14","","",""
"html-keyboard-response","307","1187301","0.0-4.0-2.1-1.57","spark_pilot_norest","10037","1","10","Female","","","","","","","null","<div style=""font-size:60px;"">+</div>","null","fixation","","","","","","","","","15","","",""
"revaluation","308","1193314","0.0-4.0-2.1-0.58","spark_pilot_norest","10037","1","10","Female","","false","","","","","[707.2999999523163,360.40000009536743]","./assets/img/canyon/memory/32.jpg","[""ArrowDown"",""ArrowRight""]","value training","canyon","30","{""ArrowUp,ArrowLeft"":23,""ArrowUp,ArrowRight"":10,""ArrowDown,ArrowLeft"":8,""ArrowDown,ArrowRight"":30}","true","ArrowDown,ArrowRight","false","revaluation","2","16","","",""
"html-keyboard-response","309","1193815","0.0-4.0-2.1-1.58","spark_pilot_norest","10037","1","10","Female","","","","","","","null","<div style=""font-size:60px;"">+</div>","null","fixation","","","","","","","","","17","","",""
"revaluation","310","1197822","0.0-4.0-2.1-0.59","spark_pilot_norest","10037","1","10","Female","","false","","","","","[757.7000000476837]","./assets/img/canyon/catch/7.jpg","[""spaceBar""]","value training","canyon","0","{""ArrowUp,ArrowLeft"":23,""ArrowUp,ArrowRight"":10,""ArrowDown,ArrowLeft"":8,""ArrowDown,ArrowRight"":30}","true","spaceBar","true","revaluation","2","18","","",""
