"trial_type","trial_index","time_elapsed","internal_node_id","task_version","subject_id","assigned_condition","age","gender","success","timeout","failed_images","failed_audio","failed_video","browser_interaction","rt","stimulus","response","task_part","environment","score","rewardMap","correct","fullState","isCatch","condition","order","trial_num","key_press","ground_truth","bonus"
"pavlovia","0","2143","0.0-0.0","spark_pilot_norest","10032","2","8","Female","","","","","","","","","","","","","","","","","","","","","",""
"preload","1","39097","0.0-1.0","spark_pilot_norest","10032","2","8","Female","true","false","[]","[]","[]","[{""event"":""blur"",""trial"":2,""time"":43876},{""event"":""focus"",""trial"":2,""time"":50535},{""event"":""fullscreenenter"",""trial"":2,""time"":50773},{""event"":""blur"",""trial"":5,""time"":71613},{""event"":""focus"",""trial"":5,""time"":74387},{""event"":""blur"",""trial"":110,""time"":574862},{""event"":""focus"",""trial"":110,""time"":577362},{""event"":""blur"",""trial"":110,""time"":579241},{""event"":""focus"",""trial"":110,""time"":581292},{""event"":""blur"",""trial"":606,""time"":1947884},{""event"":""fullscreenexit"",""trial"":606,""time"":1947885},{""event"":""focus"",""trial"":606,""time"":1947889}]","","","","","","","","","","","","","","","",""
"fullscreen","2","51760","0.0-2.0","spark_pilot_norest","10032","2","8","Female","true","","","","","","","","","","","","","","","","","","","","",""
"audio-button-response","3","55422","0.0-3.0-0.0-0.0","spark_pilot_norest","10032","2","8","Female","","","","","","","3040","./assets/audio/audiotest/turtle.mp3","2","audio_test","","","","","","","","","","","",""
"learning-instructions","4","64249","0.0-3.0-1.0-0.0","spark_pilot_norest","10032","2","8","Female","","","","","","[{""event"":""blur"",""trial"":2,""time"":43876},{""event"":""focus"",""trial"":2,""time"":50535},{""event"":""fullscreenenter"",""trial"":2,""time"":50773},{""event"":""blur"",""trial"":5,""time"":71613},{""event"":""focus"",""trial"":5,""time"":74387},{""event"":""blur"",""trial"":110,""time"":574862},{""event"":""focus"",""trial"":110,""time"":577362},{""event"":""blur"",""trial"":110,""time"":579241},{""event"":""focus"",""trial"":110,""time"":581292},{""event"":""blur"",""trial"":606,""time"":1947884},{""event"":""fullscreenexit"",""trial"":606,""time"":1947885},{""event"":""focus"",""trial"":606,""time"":1947889}]","1766.7000000029802","<p> Welcome! Please remember to stay in fullscreen mode and don't click away from the experiment. </p>","","instructions","","","","","","","","","","","",""
"learning-instructions","5","74551","0.0-3.0-1.0-0.1","spark_pilot_norest","10032","2","8","Female","","","","","","","1840.5","<p> Today you will be playing a game to earn treasure. </p>
            <p> At the end of the experiment, you will earn a bonus based on how much treasure you find. </p>
            <img src='./assets/img/instructions/treasure.jpg' class='instructions-image'>","","instructions","","","","","","","","","","","",""
"learning-instructions","6","84986","0.0-3.0-1.0-0.2","spark_pilot_norest","10032","2","8","Female","","","","","","","2125.3999999910593","<p> Animals have hidden treasure in treasure chests. </p>
            <p> You need to first find an animal and then choose which of their treasure chests to search. </p>
            <img src='./assets/img/space/animals/cat.jpg' class='instructions-image'>","","instructions","","","","","","","","","","","",""
"learning-instructions","7","99543","0.0-3.0-1.0-0.3","spark_pilot_norest","10032","2","8","Female","","","","","","","1351.9000000059605","<p> In each round, you will search for treasure in a different place. In the real game, there will be two rounds. </p>
            <p> You will begin with a separate, practice round where you will search for treasure in outer space. </p>
            <img src='./assets/img/space/0.jpg' class='instructions-image'>","","instructions","","","","","","","","","","","",""
"learning-instructions","8","114010","0.0-3.0-1.0-0.4","spark_pilot_norest","10032","2","8","Female","","","","","","","3008.800000011921","<p> On every turn, you will see a picture of the place that you are in, but the specific image may be different each time. </p>
            <p> For example, both of these images mean you are in outer space. </p>
            <img src='./assets/img/instructions/outerspace.jpg' class='instructions-image'>","","instructions","","","","","","","","","","","",""
"learning-instructions","9","125666","0.0-3.0-1.0-0.5","spark_pilot_norest","10032","2","8","Female","","","","","","","3801.800000011921","<p> You need to decide which direction to travel in. </p>
            <p> You can choose between going <b>up or down</b> by using the arrow keys. </p>
            <img src='./assets/img/instructions/updown.jpg' class='instructions-image'>","","instructions","","","","","","","","","","","",""
"learning-instructions","10","136032","0.0-3.0-1.0-0.6","spark_pilot_norest","10032","2","8","Female","","","","","","","1517.6000000089407","<p> You will have <b>2 seconds</b> to make your choice. </p>
            <p> If you do not make a choice within 2 seconds, you will not find an animal or earn treasure. </p>
            <img src='./assets/img/instructions/2seconds.jpg' class='instructions-image'>","","instructions","","","","","","","","","","","",""
"learning-instructions","11","146668","0.0-3.0-1.0-0.7","spark_pilot_norest","10032","2","8","Female","","","","","","","3553.4000000059605","<p> Let’s try practicing that now! </p>
            <p> When you see a picture of the place you are in, press the <b>up</b> key to travel up. </p>
            <img src='./assets/img/instructions/pressUp.jpg' class='instructions-image'>","","instructions","","","","","","","","","","","",""
"revaluation","12","150744","0.0-3.0-2.0-0.0","spark_pilot_norest","10032","2","8","Female","","false","","","","","[774.4000000059605]","./assets/img/space/0.jpg","[""ArrowUp""]","first stage practice","space","0","null","null","ArrowUp","false","","","","","",""
"html-keyboard-response","13","151258","0.0-3.0-2.0-1.0","spark_pilot_norest","10032","2","8","Female","","","","","","","null","<div style=""font-size:60px;"">+</div>","null","fixation","","","","","","","","","","","",""
"revaluation","14","155283","0.0-3.0-2.0-0.1","spark_pilot_norest","10032","2","8","Female","","false","","","","","[778.7999999970198]","./assets/img/space/1.jpg","[""ArrowUp""]","first stage practice","space","0","null","null","ArrowUp","false","","","","","",""
"html-keyboard-response","15","155802","0.0-3.0-2.0-1.1","spark_pilot_norest","10032","2","8","Female","","","","","","","null","<div style=""font-size:60px;"">+</div>","null","fixation","","","","","","","","","","","",""
"revaluation","16","159832","0.0-3.0-2.0-0.2","spark_pilot_norest","10032","2","8","Female","","false","","","","","[536.7999999970198]","./assets/img/space/2.jpg","[""ArrowUp""]","first stage practice","space","0","null","null","ArrowUp","false","","","","","",""
"html-keyboard-response","17","160342","0.0-3.0-2.0-1.2","spark_pilot_norest","10032","2","8","Female","","","","","","","null","<div style=""font-size:60px;"">+</div>","null","fixation","","","","","","","","","","","",""
"learning-instructions","18","168512","0.0-3.0-3.0-0.0","spark_pilot_norest","10032","2","8","Female","","","","","","","3428.1000000089407","<p> Great job! Now try pressing the <b>down</b> key to travel down. </p>
            <img src='./assets/img/instructions/pressDown.jpg' class='instructions-image'>","","instructions","","","","","","","","","","","",""
"revaluation","19","172542","0.0-3.0-4.0-0.0","spark_pilot_norest","10032","2","8","Female","","false","","","","","[515.5]","./assets/img/space/3.jpg","[""ArrowDown""]","first stage practice","space","0","null","null","ArrowDown","false","","","","","",""
"html-keyboard-response","20","173062","0.0-3.0-4.0-1.0","spark_pilot_norest","10032","2","8","Female","","","","","","","null","<div style=""font-size:60px;"">+</div>","null","fixation","","","","","","","","","","","",""
"revaluation","21","177093","0.0-3.0-4.0-0.1","spark_pilot_norest","10032","2","8","Female","","false","","","","","[612.0999999940395]","./assets/img/space/4.jpg","[""ArrowDown""]","first stage practice","space","0","null","null","ArrowDown","false","","","","","",""
"html-keyboard-response","22","177600","0.0-3.0-4.0-1.1","spark_pilot_norest","10032","2","8","Female","","","","","","","null","<div style=""font-size:60px;"">+</div>","null","fixation","","","","","","","","","","","",""
"revaluation","23","181632","0.0-3.0-4.0-0.2","spark_pilot_norest","10032","2","8","Female","","false","","","","","[283.6000000089407]","./assets/img/space/5.jpg","[""ArrowDown""]","first stage practice","space","0","null","null","ArrowDown","false","","","","","",""
"html-keyboard-response","24","182142","0.0-3.0-4.0-1.2","spark_pilot_norest","10032","2","8","Female","","","","","","","null","<div style=""font-size:60px;"">+</div>","null","fixation","","","","","","","","","","","",""
"learning-instructions","25","194781","0.0-3.0-5.0-0.0","spark_pilot_norest","10032","2","8","Female","","","","","","","2739.6000000089407","<p> The animals don’t move, so the animal in the upper part of a place will stay in the upper part of a place, and the animal in the lower part of a place will stay in the lower part of a place. </p>","","instructions","","","","","","","","","","","",""
"learning-instructions","26","204821","0.0-3.0-5.0-0.1","spark_pilot_norest","10032","2","8","Female","","","","","","","870.5999999940395","<p> Each animal has two treasure chests for you to choose from. </p>
            <p> The amount of treasure in each chest can range from <b> 0 to 40 pieces.</b></p>","","instructions","","","","","","","","","","","",""
"learning-instructions","27","218410","0.0-3.0-5.0-0.2","spark_pilot_norest","10032","2","8","Female","","","","","","","2368.699999988079","<p> You should decide which chest to search for treasure by using the <b>left</b> and <b>right</b> arrow keys. </p>
            <p><b> Pay attention to which animal is on the screen, as the animals have different treasure chests. </b></p>
            <img src='./assets/img/instructions/leftright.jpg' class='instructions-image'>","","instructions","","","","","","","","","","","",""
"learning-instructions","28","226299","0.0-3.0-5.0-0.3","spark_pilot_norest","10032","2","8","Female","","","","","","","1467.7000000029802","<p> Let’s try practicing that now. </p>
            <p> When you see an animal, choose which chest to search for treasure. </p>
            <img src='./assets/img/instructions/chooseChest.jpg' class='instructions-image'>","","instructions","","","","","","","","","","","",""
"revaluation","29","230320","0.0-3.0-6.0-0.0","spark_pilot_norest","10032","2","8","Female","","false","","","","","[453.09999999403954]","./assets/img/space/animals/rabbit.jpg","[""ArrowRight""]","second stage practice","space","23","{""ArrowUp,ArrowLeft"":3,""ArrowUp,ArrowRight"":36,""ArrowDown,ArrowLeft"":15,""ArrowDown,ArrowRight"":23}","true","ArrowDown,ArrowRight","","","","","","",""
"html-keyboard-response","30","230839","0.0-3.0-6.0-1.0","spark_pilot_norest","10032","2","8","Female","","","","","","","null","<div style=""font-size:60px;"">+</div>","null","fixation","","","","","","","","","","","",""
"revaluation","31","234869","0.0-3.0-6.0-0.1","spark_pilot_norest","10032","2","8","Female","","false","","","","","[1177.0999999940395]","./assets/img/space/animals/cat.jpg","[""ArrowLeft""]","second stage practice","space","3","{""ArrowUp,ArrowLeft"":3,""ArrowUp,ArrowRight"":36,""ArrowDown,ArrowLeft"":15,""ArrowDown,ArrowRight"":23}","false","ArrowUp,ArrowLeft","","","","","","",""
"html-keyboard-response","32","235379","0.0-3.0-6.0-1.1","spark_pilot_norest","10032","2","8","Female","","","","","","","null","<div style=""font-size:60px;"">+</div>","null","fixation","","","","","","","","","","","",""
"revaluation","33","239414","0.0-3.0-6.0-0.2","spark_pilot_norest","10032","2","8","Female","","false","","","","","[461]","./assets/img/space/animals/cat.jpg","[""ArrowRight""]","second stage practice","space","36","{""ArrowUp,ArrowLeft"":3,""ArrowUp,ArrowRight"":36,""ArrowDown,ArrowLeft"":15,""ArrowDown,ArrowRight"":23}","true","ArrowUp,ArrowRight","","","","","","",""
"html-keyboard-response","34","239919","0.0-3.0-6.0-1.2","spark_pilot_norest","10032","2","8","Female","","","","","","","null","<div style=""font-size:60px;"">+</div>","null","fixation","","","","","","","","","","","",""
"revaluation","35","243959","0.0-3.0-6.0-0.3","spark_pilot_norest","10032","2","8","Female","","true","","","","","[]","./assets/img/space/animals/rabbit.jpg","[]","second stage practice","space","-5","{""ArrowUp,ArrowLeft"":3,""ArrowUp,ArrowRight"":36,""ArrowDown,ArrowLeft"":15,""ArrowDown,ArrowRight"":23}","false","ArrowDown","","","","","","",""
"html-keyboard-response","36","244479","0.0-3.0-6.0-1.3","spark_pilot_norest","10032","2","8","Female","","","","","","","null","<div style=""font-size:60px;"">+</div>","null","fixation","","","","","","","","","","","",""
"learning-instructions","37","266220","0.0-3.0-7.0-0.0","spark_pilot_norest","10032","2","8","Female","","","","","","","4879.20000000298","<p> Great job. Now let’s try putting it together. </p>
            <p> On each turn, you will first see a picture to remind you of the place you are in, and you need to choose whether to go up or down. </p>
            <p> Then you will see an animal and choose which of its chests to search for treasure. </p>","","instructions","","","","","","","","","","","",""
"learning-instructions","38","275678","0.0-3.0-7.0-0.1","spark_pilot_norest","10032","2","8","Female","","","","","","","1136.9000000059605","<p> When you choose whether to go up or down, try to go to the animal with the chest with the most treasure. </p>
            <p> Try practicing that now! </p>","","instructions","","","","","","","","","","","",""
"revaluation","39","281729","0.0-3.0-8.0-0.0","spark_pilot_norest","10032","2","8","Female","","false","","","","","[803.3999999910593,396.8999999910593]","./assets/img/space/6.jpg","[""ArrowUp"",""ArrowRight""]","full practice","space","36","{""ArrowUp,ArrowLeft"":3,""ArrowUp,ArrowRight"":36,""ArrowDown,ArrowLeft"":15,""ArrowDown,ArrowRight"":23}","true","ArrowUp,ArrowRight","false","","","","","",""
"html-keyboard-response","40","282237","0.0-3.0-8.0-1.0","spark_pilot_norest","10032","2","8","Female","","","","","","","null","<div style=""font-size:60px;"">+</div>","null","fixation","","","","","","","","","","","",""
"revaluation","41","288269","0.0-3.0-8.0-0.1","spark_pilot_norest","10032","2","8","Female","","false","","","","","[425.59999999403954,518.2000000029802]","./assets/img/space/7.jpg","[""ArrowDown"",""ArrowLeft""]","full practice","space","15","{""ArrowUp,ArrowLeft"":3,""ArrowUp,ArrowRight"":36,""ArrowDown,ArrowLeft"":15,""ArrowDown,ArrowRight"":23}","false","ArrowDown,ArrowLeft","false","","","","","",""
"html-keyboard-response","42","288789","0.0-3.0-8.0-1.1","spark_pilot_norest","10032","2","8","Female","","","","","","","null","<div style=""font-size:60px;"">+</div>","null","fixation","","","","","","","","","","","",""
"revaluation","43","294829","0.0-3.0-8.0-0.2","spark_pilot_norest","10032","2","8","Female","","false","","","","","[691.2000000029802,25.5]","./assets/img/space/8.jpg","[""ArrowUp"",""ArrowRight""]","full practice","space","36","{""ArrowUp,ArrowLeft"":3,""ArrowUp,ArrowRight"":36,""ArrowDown,ArrowLeft"":15,""ArrowDown,ArrowRight"":23}","true","ArrowUp,ArrowRight","false","","","","","",""
"html-keyboard-response","44","295349","0.0-3.0-8.0-1.2","spark_pilot_norest","10032","2","8","Female","","","","","","","null","<div style=""font-size:60px;"">+</div>","null","fixation","","","","","","","","","","","",""
"revaluation","45","301399","0.0-3.0-8.0-0.3","spark_pilot_norest","10032","2","8","Female","","false","","","","","[405.59999999403954,51.30000001192093]","./assets/img/space/9.jpg","[""ArrowDown"",""ArrowLeft""]","full practice","space","15","{""ArrowUp,ArrowLeft"":3,""ArrowUp,ArrowRight"":36,""ArrowDown,ArrowLeft"":15,""ArrowDown,ArrowRight"":23}","false","ArrowDown,ArrowLeft","false","","","","","",""
"html-keyboard-response","46","301919","0.0-3.0-8.0-1.3","spark_pilot_norest","10032","2","8","Female","","","","","","","null","<div style=""font-size:60px;"">+</div>","null","fixation","","","","","","","","","","","",""
"revaluation","47","307959","0.0-3.0-8.0-0.4","spark_pilot_norest","10032","2","8","Female","","false","","","","","[167.5,109.80000001192093]","./assets/img/space/10.jpg","[""ArrowUp"",""ArrowRight""]","full practice","space","36","{""ArrowUp,ArrowLeft"":3,""ArrowUp,ArrowRight"":36,""ArrowDown,ArrowLeft"":15,""ArrowDown,ArrowRight"":23}","true","ArrowUp,ArrowRight","false","","","","","",""
"html-keyboard-response","48","308468","0.0-3.0-8.0-1.4","spark_pilot_norest","10032","2","8","Female","","","","","","","null","<div style=""font-size:60px;"">+</div>","null","fixation","","","","","","","","","","","",""
"learning-instructions","49","320266","0.0-3.0-9.0-0.0","spark_pilot_norest","10032","2","8","Female","","","","","","","1439.7000000029802","<p> One last thing: sometimes, you will see a robber. The robber can be anywhere in the picture. </p>
            <p> If you do not stop them, you will lose treasure. </p>
            <img src='./assets/img/instructions/robber.jpg' class='instructions-image'>","","instructions","","","","","","","","","","","",""
"learning-instructions","50","330219","0.0-3.0-9.0-0.1","spark_pilot_norest","10032","2","8","Female","","","","","","","2724.8999999910593","<p> If you see the robber, you should <b>press the space bar</b> rather than using the arrow keys. </p>
            <p> Try practicing that now! </p>","","instructions","","","","","","","","","","","",""
"revaluation","51","334242","0.0-3.0-10.0-0.0","spark_pilot_norest","10032","2","8","Female","","false","","","","","[1181.4000000059605]","./assets/img/space/catch/0.jpg","[""spaceBar""]","catch practice","space","0","{""ArrowUp,ArrowLeft"":3,""ArrowUp,ArrowRight"":36,""ArrowDown,ArrowLeft"":15,""ArrowDown,ArrowRight"":23}","true","spaceBar","true","","","","","",""
"html-keyboard-response","52","334762","0.0-3.0-10.0-1.0","spark_pilot_norest","10032","2","8","Female","","","","","","","null","<div style=""font-size:60px;"">+</div>","null","fixation","","","","","","","","","","","",""
"revaluation","53","338782","0.0-3.0-10.0-0.1","spark_pilot_norest","10032","2","8","Female","","false","","","","","[710.2999999970198]","./assets/img/space/catch/1.jpg","[""spaceBar""]","catch practice","space","0","{""ArrowUp,ArrowLeft"":3,""ArrowUp,ArrowRight"":36,""ArrowDown,ArrowLeft"":15,""ArrowDown,ArrowRight"":23}","true","spaceBar","true","","","","","",""
"html-keyboard-response","54","339292","0.0-3.0-10.0-1.1","spark_pilot_norest","10032","2","8","Female","","","","","","","null","<div style=""font-size:60px;"">+</div>","null","fixation","","","","","","","","","","","",""
"revaluation","55","343332","0.0-3.0-10.0-0.2","spark_pilot_norest","10032","2","8","Female","","false","","","","","[412.79999999701977]","./assets/img/space/catch/2.jpg","[""spaceBar""]","catch practice","space","0","{""ArrowUp,ArrowLeft"":3,""ArrowUp,ArrowRight"":36,""ArrowDown,ArrowLeft"":15,""ArrowDown,ArrowRight"":23}","true","spaceBar","true","","","","","",""
"html-keyboard-response","56","343842","0.0-3.0-10.0-1.2","spark_pilot_norest","10032","2","8","Female","","","","","","","null","<div style=""font-size:60px;"">+</div>","null","fixation","","","","","","","","","","","",""
"learning-instructions","57","350374","0.0-3.0-11.0-0.0-0.0","spark_pilot_norest","10032","2","8","Female","","","","","","","1210.6000000089407","<p> Now, you will practice a shortened version of the game to get a sense of how it all fits together. </p>","","instructions","","","","","","","","","","","",""
"learning-instructions","58","355627","0.0-3.0-11.0-0.0-0.1","spark_pilot_norest","10032","2","8","Female","","","","","","","2023.9000000059605","<p>This time you are searching for treasure in outer space.</p>","","instructions","","","","","","","","","","","",""
"learning-instructions","59","372071","0.0-3.0-11.0-1.0-0.0","spark_pilot_norest","10032","2","8","Female","","","","","","","1627.4000000059605","<p> Remember, when you see a picture of the place, use the up and down keys to <b>find an animal</b>.</p>
            <p> When you encounter an animal, you should use the left and right keys to <b>select a treasure chest</b>.</p>
            <p> Don't forget to look out for the robber! </p>","","instructions","","","","","","","","","","","",""
"revaluation","60","378122","0.0-3.0-11.0-2.0-0.0","spark_pilot_norest","10032","2","8","Female","","false","","","","","[1326.7000000029802,40.5]","./assets/img/space/11.jpg","[""ArrowUp"",""ArrowRight""]","practice block","space","36","{""ArrowUp,ArrowLeft"":3,""ArrowUp,ArrowRight"":36,""ArrowDown,ArrowLeft"":15,""ArrowDown,ArrowRight"":23}","true","ArrowUp,ArrowRight","false","","","","","",""
"html-keyboard-response","61","378632","0.0-3.0-11.0-2.0-1.0","spark_pilot_norest","10032","2","8","Female","","","","","","","null","<div style=""font-size:60px;"">+</div>","null","fixation","","","","","","","","","","","",""
"revaluation","62","384682","0.0-3.0-11.0-2.0-0.1","spark_pilot_norest","10032","2","8","Female","","false","","","","","[836.5999999940395,331.70000000298023]","./assets/img/space/12.jpg","[""ArrowUp"",""ArrowRight""]","practice block","space","36","{""ArrowUp,ArrowLeft"":3,""ArrowUp,ArrowRight"":36,""ArrowDown,ArrowLeft"":15,""ArrowDown,ArrowRight"":23}","true","ArrowUp,ArrowRight","false","","","","","",""
"html-keyboard-response","63","385202","0.0-3.0-11.0-2.0-1.1","spark_pilot_norest","10032","2","8","Female","","","","","","","null","<div style=""font-size:60px;"">+</div>","null","fixation","","","","","","","","","","","",""
"revaluation","64","391235","0.0-3.0-11.0-2.0-0.2","spark_pilot_norest","10032","2","8","Female","","false","","","","","[908,433.79999999701977]","./assets/img/space/13.jpg","[""ArrowUp"",""ArrowRight""]","practice block","space","36","{""ArrowUp,ArrowLeft"":3,""ArrowUp,ArrowRight"":36,""ArrowDown,ArrowLeft"":15,""ArrowDown,ArrowRight"":23}","true","ArrowUp,ArrowRight","false","","","","","",""
"html-keyboard-response","65","391750","0.0-3.0-11.0-2.0-1.2","spark_pilot_norest","10032","2","8","Female","","","","","","","null","<div style=""font-size:60px;"">+</div>","null","fixation","","","","","","","","","","","",""
"revaluation","66","397800","0.0-3.0-11.0-2.0-0.3","spark_pilot_norest","10032","2","8","Female","","false","","","","","[849,314.79999999701977]","./assets/img/space/14.jpg","[""ArrowUp"",""ArrowRight""]","practice block","space","36","{""ArrowUp,ArrowLeft"":3,""ArrowUp,ArrowRight"":36,""ArrowDown,ArrowLeft"":15,""ArrowDown,ArrowRight"":23}","true","ArrowUp,ArrowRight","false","","","","","",""
"html-keyboard-response","67","398310","0.0-3.0-11.0-2.0-1.3","spark_pilot_norest","10032","2","8","Female","","","","","","","null","<div style=""font-size:60px;"">+</div>","null","fixation","","","","","","","","","","","",""
"revaluation","68","404331","0.0-3.0-11.0-2.0-0.4","spark_pilot_norest","10032","2","8","Female","","false","","","","","[1341.7000000029802,409.59999999403954]","./assets/img/space/11.jpg","[""ArrowUp"",""ArrowRight""]","practice block","space","36","{""ArrowUp,ArrowLeft"":3,""ArrowUp,ArrowRight"":36,""ArrowDown,ArrowLeft"":15,""ArrowDown,ArrowRight"":23}","true","ArrowUp,ArrowRight","false","","","","","",""
"html-keyboard-response","69","404841","0.0-3.0-11.0-2.0-1.4","spark_pilot_norest","10032","2","8","Female","","","","","","","null","<div style=""font-size:60px;"">+</div>","null","fixation","","","","","","","","","","","",""
"revaluation","70","410870","0.0-3.0-11.0-2.0-0.5","spark_pilot_norest","10032","2","8","Female","","false","","","","","[917.7000000029802,309.69999998807907]","./assets/img/space/12.jpg","[""ArrowUp"",""ArrowRight""]","practice block","space","36","{""ArrowUp,ArrowLeft"":3,""ArrowUp,ArrowRight"":36,""ArrowDown,ArrowLeft"":15,""ArrowDown,ArrowRight"":23}","true","ArrowUp,ArrowRight","false","","","","","",""
"html-keyboard-response","71","411384","0.0-3.0-11.0-2.0-1.5","spark_pilot_norest","10032","2","8","Female","","","","","","","null","<div style=""font-size:60px;"">+</div>","null","fixation","","","","","","","","","","","",""
"revaluation","72","417407","0.0-3.0-11.0-2.0-0.6","spark_pilot_norest","10032","2","8","Female","","false","","","","","[856.0999999940395,490.90000000596046]","./assets/img/space/13.jpg","[""ArrowUp"",""ArrowRight""]","practice block","space","36","{""ArrowUp,ArrowLeft"":3,""ArrowUp,ArrowRight"":36,""ArrowDown,ArrowLeft"":15,""ArrowDown,ArrowRight"":23}","true","ArrowUp,ArrowRight","false","","","","","",""
"html-keyboard-response","73","417913","0.0-3.0-11.0-2.0-1.6","spark_pilot_norest","10032","2","8","Female","","","","","","","null","<div style=""font-size:60px;"">+</div>","null","fixation","","","","","","","","","","","",""
"revaluation","74","423923","0.0-3.0-11.0-2.0-0.7","spark_pilot_norest","10032","2","8","Female","","false","","","","","[695.0999999940395,597.9000000059605]","./assets/img/space/14.jpg","[""ArrowUp"",""ArrowRight""]","practice block","space","36","{""ArrowUp,ArrowLeft"":3,""ArrowUp,ArrowRight"":36,""ArrowDown,ArrowLeft"":15,""ArrowDown,ArrowRight"":23}","true","ArrowUp,ArrowRight","false","","","","","",""
"html-keyboard-response","75","424431","0.0-3.0-11.0-2.0-1.7","spark_pilot_norest","10032","2","8","Female","","","","","","","null","<div style=""font-size:60px;"">+</div>","null","fixation","","","","","","","","","","","",""
"revaluation","76","428438","0.0-3.0-11.0-2.0-0.8","spark_pilot_norest","10032","2","8","Female","","false","","","","","[843.5]","./assets/img/space/catch/3.jpg","[""spaceBar""]","practice block","space","0","{""ArrowUp,ArrowLeft"":3,""ArrowUp,ArrowRight"":36,""ArrowDown,ArrowLeft"":15,""ArrowDown,ArrowRight"":23}","true","spaceBar","true","","","","","",""
"html-keyboard-response","77","428940","0.0-3.0-11.0-2.0-1.8","spark_pilot_norest","10032","2","8","Female","","","","","","","null","<div style=""font-size:60px;"">+</div>","null","fixation","","","","","","","","","","","",""
"learning-instructions","78","444025","0.0-3.0-11.0-3.0-0.0","spark_pilot_norest","10032","2","8","Female","","","","","","","1543.0999999940395","<p> Now, you will travel with a friend who will choose whether you go up or down first. </p>
            <p> On these turns, you will just see the animal that they found. You will still get to choose which chest to search for treasure.</p>","","instructions","","","","","","","","","","","",""
"revaluation","79","448039","0.0-3.0-11.0-4.0-0.0","spark_pilot_norest","10032","2","8","Female","","false","","","","","[1305.2000000029802]","./assets/img/space/animals/rabbit.jpg","[""ArrowRight""]","practice block","space","23","{""ArrowUp,ArrowLeft"":3,""ArrowUp,ArrowRight"":36,""ArrowDown,ArrowLeft"":15,""ArrowDown,ArrowRight"":23}","true","ArrowDown,ArrowRight","","","","","","",""
"html-keyboard-response","80","448558","0.0-3.0-11.0-4.0-1.0","spark_pilot_norest","10032","2","8","Female","","","","","","","null","<div style=""font-size:60px;"">+</div>","null","fixation","","","","","","","","","","","",""
"revaluation","81","452587","0.0-3.0-11.0-4.0-0.1","spark_pilot_norest","10032","2","8","Female","","false","","","","","[1.800000011920929]","./assets/img/space/animals/cat.jpg","[""ArrowLeft""]","practice block","space","3","{""ArrowUp,ArrowLeft"":3,""ArrowUp,ArrowRight"":36,""ArrowDown,ArrowLeft"":15,""ArrowDown,ArrowRight"":23}","false","ArrowUp,ArrowLeft","","","","","","",""
"html-keyboard-response","82","453095","0.0-3.0-11.0-4.0-1.1","spark_pilot_norest","10032","2","8","Female","","","","","","","null","<div style=""font-size:60px;"">+</div>","null","fixation","","","","","","","","","","","",""
"revaluation","83","457117","0.0-3.0-11.0-4.0-0.2","spark_pilot_norest","10032","2","8","Female","","false","","","","","[25.69999998807907]","./assets/img/space/animals/cat.jpg","[""ArrowLeft""]","practice block","space","3","{""ArrowUp,ArrowLeft"":3,""ArrowUp,ArrowRight"":36,""ArrowDown,ArrowLeft"":15,""ArrowDown,ArrowRight"":23}","false","ArrowUp,ArrowLeft","","","","","","",""
"html-keyboard-response","84","457637","0.0-3.0-11.0-4.0-1.2","spark_pilot_norest","10032","2","8","Female","","","","","","","null","<div style=""font-size:60px;"">+</div>","null","fixation","","","","","","","","","","","",""
"revaluation","85","461658","0.0-3.0-11.0-4.0-0.3","spark_pilot_norest","10032","2","8","Female","","false","","","","","[194.80000001192093]","./assets/img/space/animals/rabbit.jpg","[""ArrowRight""]","practice block","space","23","{""ArrowUp,ArrowLeft"":3,""ArrowUp,ArrowRight"":36,""ArrowDown,ArrowLeft"":15,""ArrowDown,ArrowRight"":23}","true","ArrowDown,ArrowRight","","","","","","",""
"html-keyboard-response","86","462167","0.0-3.0-11.0-4.0-1.3","spark_pilot_norest","10032","2","8","Female","","","","","","","null","<div style=""font-size:60px;"">+</div>","null","fixation","","","","","","","","","","","",""
"learning-instructions","87","470537","0.0-3.0-11.0-5.0-0.0","spark_pilot_norest","10032","2","8","Female","","","","","","","null","<p> You have almost finished this part of the game! </p>
            <p> We are going to ask you to make a few more choices. </p>","","instructions","","","","","","","","","","","",""
"learning-instructions","88","486598","0.0-3.0-11.0-5.0-0.1","spark_pilot_norest","10032","2","8","Female","","","","","","","null","<p> First, you need to decide whether to go up or down. When you see each picture, use the arrow keys to make your choice. </p>
            <p><b>You will not see which animal you found, but try to get to the one that will give you the most treasure.</b></p>","","instructions","","","","","","","","","","","",""
"html-keyboard-response","89","487617","0.0-3.0-11.0-6.0-0.0","spark_pilot_norest","10032","2","8","Female","","","","","","","null","<div style=""font-size:100px;color:red;"">Starting in...</div>","null","","","","","","","","","","","","",""
"html-keyboard-response","90","488637","0.0-3.0-11.0-6.0-1.0","spark_pilot_norest","10032","2","8","Female","","","","","","","null","<div style=""font-size:200px;color:red;"">3</div>","null","","","","","","","","","","","","",""
"html-keyboard-response","91","489648","0.0-3.0-11.0-6.0-2.0","spark_pilot_norest","10032","2","8","Female","","","","","","","null","<div style=""font-size:200px;color:red;"">2</div>","null","","","","","","","","","","","","",""
"html-keyboard-response","92","490657","0.0-3.0-11.0-6.0-3.0","spark_pilot_norest","10032","2","8","Female","","","","","","","null","<div style=""font-size:200px;color:red;"">1</div>","null","","","","","","","","","","","","",""
"revaluation","93","491097","0.0-3.0-11.0-7.0","spark_pilot_norest","10032","2","8","Female","","false","","","","","[437.90000000596046]","./assets/img/space/15.jpg","[""ArrowUp""]","practice block","space","0","{""ArrowUp,ArrowLeft"":3,""ArrowUp,ArrowRight"":36,""ArrowDown,ArrowLeft"":15,""ArrowDown,ArrowRight"":23}","true","ArrowUp","false","","","","","",""
"html-keyboard-response","94","491607","0.0-3.0-11.0-8.0","spark_pilot_norest","10032","2","8","Female","","","","","","","null","<div style=""font-size:60px;"">+</div>","null","fixation","","","","","","","","","","","",""
"learning-instructions","95","505037","0.0-3.0-11.0-9.0-0.0","spark_pilot_norest","10032","2","8","Female","","","","","","","null","<p> Now you will see the animals again and can search their chests for treasure. </p>
            <p> This time, you will not see how much treasure you earned, but you will earn more bonus money for making better choices. </p>","","instructions","","","","","","","","","","","",""
"html-keyboard-response","96","506057","0.0-3.0-11.0-10.0-0.0","spark_pilot_norest","10032","2","8","Female","","","","","","","null","<div style=""font-size:100px;color:red;"">Starting in...</div>","null","","","","","","","","","","","","",""
"html-keyboard-response","97","507073","0.0-3.0-11.0-10.0-1.0","spark_pilot_norest","10032","2","8","Female","","","","","","","null","<div style=""font-size:200px;color:red;"">3</div>","null","","","","","","","","","","","","",""
"html-keyboard-response","98","508086","0.0-3.0-11.0-10.0-2.0","spark_pilot_norest","10032","2","8","Female","","","","","","","null","<div style=""font-size:200px;color:red;"">2</div>","null","","","","","","","","","","","","",""
"html-keyboard-response","99","509106","0.0-3.0-11.0-10.0-3.0","spark_pilot_norest","10032","2","8","Female","","","","","","","null","<div style=""font-size:200px;color:red;"">1</div>","null","","","","","","","","","","","","",""
"revaluation","100","510131","0.0-3.0-11.0-11.0-0.0","spark_pilot_norest","10032","2","8","Female","","false","","","","","[1023.5999999940395]","./assets/img/space/animals/cat.jpg","[""ArrowLeft""]","practice block","space","0","{""ArrowUp,ArrowLeft"":3,""ArrowUp,ArrowRight"":36,""ArrowDown,ArrowLeft"":15,""ArrowDown,ArrowRight"":23}","false","ArrowUp,ArrowLeft","","","","","","",""
"html-keyboard-response","101","510646","0.0-3.0-11.0-11.0-1.0","spark_pilot_norest","10032","2","8","Female","","","","","","","null","<div style=""font-size:60px;"">+</div>","null","fixation","","","","","","","","","","","",""
"revaluation","102","511328","0.0-3.0-11.0-11.0-0.1","spark_pilot_norest","10032","2","8","Female","","false","","","","","[679.0999999940395]","./assets/img/space/animals/rabbit.jpg","[""ArrowLeft""]","practice block","space","0","{""ArrowUp,ArrowLeft"":3,""ArrowUp,ArrowRight"":36,""ArrowDown,ArrowLeft"":15,""ArrowDown,ArrowRight"":23}","false","ArrowDown,ArrowLeft","","","","","","",""
"html-keyboard-response","103","511836","0.0-3.0-11.0-11.0-1.1","spark_pilot_norest","10032","2","8","Female","","","","","","","null","<div style=""font-size:60px;"">+</div>","null","fixation","","","","","","","","","","","",""
"learning-instructions","104","518773","0.0-3.0-12.0-0.0","spark_pilot_norest","10032","2","8","Female","","","","","","","2125.199999988079","<p> Before you start, we're going to ask you a few questions about how the game works. </p>","","instructions","","","","","","","","","","","",""
"comp-q","105","527130","0.0-3.0-13.0-0.0-0.0","spark_pilot_norest","10032","2","8","Female","","","","","","","2730.5","<p> <b> True or False? </b> </p>
            <p> There can be 50 pieces of treasure in a given animal's chest. </p>","1","comp_question","","","","true","","","","","","","",""
"comp-q","106","535039","0.0-3.0-13.0-0.0-1.0","spark_pilot_norest","10032","2","8","Female","","","","","","","1210.5","<p> <b> That's right! </b> The amount of treasure in each chest can range from 0 to 40 pieces. </p>","0","comp_answer","","","","","","","","","","","",""
"comp-q","107","547023","0.0-3.0-13.0-0.1-0.1","spark_pilot_norest","10032","2","8","Female","","","","","","","4824.899999991059","<p> <b> True or False? </b> </p><p> In this game, all animals have the same amount of treasure in their left and right chests. </p>","1","comp_question","","","","true","","","","","","","",""
"comp-q","108","556663","0.0-3.0-13.0-0.1-1.1","spark_pilot_norest","10032","2","8","Female","","","","","","","4364.899999991059","<p> <b> That's right! </b> Animals have different amounts of treasure in their treasure chests. </p>","0","comp_answer","","","","","","","","","","","",""
"comp-q","109","563681","0.0-3.0-13.0-0.2-0.2","spark_pilot_norest","10032","2","8","Female","","","","","","[{""event"":""blur"",""trial"":2,""time"":43876},{""event"":""focus"",""trial"":2,""time"":50535},{""event"":""fullscreenenter"",""trial"":2,""time"":50773},{""event"":""blur"",""trial"":5,""time"":71613},{""event"":""focus"",""trial"":5,""time"":74387},{""event"":""blur"",""trial"":110,""time"":574862},{""event"":""focus"",""trial"":110,""time"":577362},{""event"":""blur"",""trial"":110,""time"":579241},{""event"":""focus"",""trial"":110,""time"":581292},{""event"":""blur"",""trial"":606,""time"":1947884},{""event"":""fullscreenexit"",""trial"":606,""time"":1947885},{""event"":""focus"",""trial"":606,""time"":1947889}]","1132.800000011921","<p> <b> True or False? </b> </p><p> The same animal will always be there if you go up in the same place. </p>","0","comp_question","","","","true","","","","","","","",""
"comp-q","110","583996","0.0-3.0-13.0-0.2-1.2","spark_pilot_norest","10032","2","8","Female","","","","","","","13841.20000000298","<p> <b> That's right! </b> One animal lives in the upper part and one lives in the lower part of every place. </p>","0","comp_answer","","","","","","","","","","","",""
"comp-q","111","592318","0.0-3.0-13.0-0.3-0.3","spark_pilot_norest","10032","2","8","Female","","","","","","","2762.8999999910593","<p> <b> True or False? </b> </p><p> If you see a different picture, it means you are in a new place. </p>","1","comp_question","","","","true","","","","","","","",""
"comp-q","112","604845","0.0-3.0-13.0-0.3-1.3","spark_pilot_norest","10032","2","8","Female","","","","","","","1250.2000000029802","<p> <b> That's right! </b> Lots of different images may show the same place. For example,  you may see three different images that all remind you that you are in outer space. </p>","0","comp_answer","","","","","","","","","","","",""
"learning-instructions","113","615907","0.0-3.0-14.0-0.0","spark_pilot_norest","10032","2","8","Female","","","","","","","1162.6000000089407","<p> Good job. Remember to do your best because the amount of treasure you earn will be converted into bonus money. </p>
            <p> It’s time to start the real game! </p>","","instructions","","","","","","","","","","","",""
"learning-instructions","114","620142","0.0-4.0-0.0-0.0","spark_pilot_norest","10032","2","8","Female","","","","","","","1505.7999999970198","<p> This time you are searching for treasure in the <b>ocean</b>.</p>","","instructions","","","","","","","","","","","",""
"learning-instructions","115","639975","0.0-4.0-0.0-0.1","spark_pilot_norest","10032","2","8","Female","","","","","","","2480.4000000059605","<p><b>New</b> animals with <b>new</b> treasure chests live here. You need to explore to discover where the animal with the best treasure chest is.</p>
                    <p> Like before, once you figure out which animal has the chest with the most treasure, you should try to get to that animal and select that chest! </p>","","instructions","","","","","","","","","","","",""
"learning-instructions","116","656928","0.0-4.0-1.0-0.0","spark_pilot_norest","10032","2","8","Female","","","","","","","2223.5","<p> Remember, when you see a picture of the place, use the up and down keys to <b>find an animal</b>.</p>
            <p> When you encounter an animal, you should use the left and right keys to <b>select a treasure chest</b>.</p>
            <p> Don't forget to look out for the robber! </p>","","instructions","","","","","","","","","","","",""
"revaluation","117","662953","0.0-4.0-2.0-0.0","spark_pilot_norest","10032","2","8","Female","","false","","","","","[736,432.70000000298023]","./assets/img/ocean/memory/33.jpg","[""ArrowUp"",""ArrowRight""]","value training","ocean","10","{""ArrowUp,ArrowLeft"":23,""ArrowUp,ArrowRight"":10,""ArrowDown,ArrowLeft"":8,""ArrowDown,ArrowRight"":30}","false","ArrowUp,ArrowRight","false","revaluation","1","0","","",""
"html-keyboard-response","118","663463","0.0-4.0-2.0-1.0","spark_pilot_norest","10032","2","8","Female","","","","","","","null","<div style=""font-size:60px;"">+</div>","null","fixation","","","","","","","","","1","","",""
"revaluation","119","669493","0.0-4.0-2.0-0.1","spark_pilot_norest","10032","2","8","Female","","false","","","","","[1107.8999999910593,801.1999999880791]","./assets/img/ocean/memory/38.jpg","[""ArrowUp"",""ArrowLeft""]","value training","ocean","23","{""ArrowUp,ArrowLeft"":23,""ArrowUp,ArrowRight"":10,""ArrowDown,ArrowLeft"":8,""ArrowDown,ArrowRight"":30}","false","ArrowUp,ArrowLeft","false","revaluation","1","2","","",""
"html-keyboard-response","120","670013","0.0-4.0-2.0-1.1","spark_pilot_norest","10032","2","8","Female","","","","","","","null","<div style=""font-size:60px;"">+</div>","null","fixation","","","","","","","","","3","","",""
"revaluation","121","676044","0.0-4.0-2.0-0.2","spark_pilot_norest","10032","2","8","Female","","false","","","","","[620.2999999970198,332.1000000089407]","./assets/img/ocean/memory/0.jpg","[""ArrowUp"",""ArrowLeft""]","value training","ocean","23","{""ArrowUp,ArrowLeft"":23,""ArrowUp,ArrowRight"":10,""ArrowDown,ArrowLeft"":8,""ArrowDown,ArrowRight"":30}","false","ArrowUp,ArrowLeft","false","revaluation","1","4","","",""
"html-keyboard-response","122","676563","0.0-4.0-2.0-1.2","spark_pilot_norest","10032","2","8","Female","","","","","","","null","<div style=""font-size:60px;"">+</div>","null","fixation","","","","","","","","","5","","",""
"revaluation","123","680603","0.0-4.0-2.0-0.3","spark_pilot_norest","10032","2","8","Female","","false","","","","","[1203.4000000059605]","./assets/img/ocean/catch/6.jpg","[""spaceBar""]","value training","ocean","0","{""ArrowUp,ArrowLeft"":23,""ArrowUp,ArrowRight"":10,""ArrowDown,ArrowLeft"":8,""ArrowDown,ArrowRight"":30}","true","spaceBar","true","revaluation","1","6","","",""
"html-keyboard-response","124","681113","0.0-4.0-2.0-1.3","spark_pilot_norest","10032","2","8","Female","","","","","","","null","<div style=""font-size:60px;"">+</div>","null","fixation","","","","","","","","","7","","",""
"revaluation","125","685146","0.0-4.0-2.0-0.4","spark_pilot_norest","10032","2","8","Female","","false","","","","","[762]","./assets/img/ocean/catch/2.jpg","[""spaceBar""]","value training","ocean","0","{""ArrowUp,ArrowLeft"":23,""ArrowUp,ArrowRight"":10,""ArrowDown,ArrowLeft"":8,""ArrowDown,ArrowRight"":30}","true","spaceBar","true","revaluation","1","8","","",""
"html-keyboard-response","126","685655","0.0-4.0-2.0-1.4","spark_pilot_norest","10032","2","8","Female","","","","","","","null","<div style=""font-size:60px;"">+</div>","null","fixation","","","","","","","","","9","","",""
"revaluation","127","691676","0.0-4.0-2.0-0.5","spark_pilot_norest","10032","2","8","Female","","false","","","","","[1178.9000000059605,54.5]","./assets/img/ocean/memory/12.jpg","[""ArrowUp"",""ArrowLeft""]","value training","ocean","23","{""ArrowUp,ArrowLeft"":23,""ArrowUp,ArrowRight"":10,""ArrowDown,ArrowLeft"":8,""ArrowDown,ArrowRight"":30}","false","ArrowUp,ArrowLeft","false","revaluation","1","10","","",""
"html-keyboard-response","128","692185","0.0-4.0-2.0-1.5","spark_pilot_norest","10032","2","8","Female","","","","","","","null","<div style=""font-size:60px;"">+</div>","null","fixation","","","","","","","","","11","","",""
"revaluation","129","698200","0.0-4.0-2.0-0.6","spark_pilot_norest","10032","2","8","Female","","false","","","","","[590.7999999970198,636.0999999940395]","./assets/img/ocean/memory/0.jpg","[""ArrowDown"",""ArrowRight""]","value training","ocean","30","{""ArrowUp,ArrowLeft"":23,""ArrowUp,ArrowRight"":10,""ArrowDown,ArrowLeft"":8,""ArrowDown,ArrowRight"":30}","true","ArrowDown,ArrowRight","false","revaluation","1","12","","",""
"html-keyboard-response","130","698708","0.0-4.0-2.0-1.6","spark_pilot_norest","10032","2","8","Female","","","","","","","null","<div style=""font-size:60px;"">+</div>","null","fixation","","","","","","","","","13","","",""
"revaluation","131","704725","0.0-4.0-2.0-0.7","spark_pilot_norest","10032","2","8","Female","","false","","","","","[945.7000000029802,410.40000000596046]","./assets/img/ocean/memory/13.jpg","[""ArrowDown"",""ArrowLeft""]","value training","ocean","8","{""ArrowUp,ArrowLeft"":23,""ArrowUp,ArrowRight"":10,""ArrowDown,ArrowLeft"":8,""ArrowDown,ArrowRight"":30}","false","ArrowDown,ArrowLeft","false","revaluation","1","14","","",""
"html-keyboard-response","132","705234","0.0-4.0-2.0-1.7","spark_pilot_norest","10032","2","8","Female","","","","","","","null","<div style=""font-size:60px;"">+</div>","null","fixation","","","","","","","","","15","","",""
"revaluation","133","711251","0.0-4.0-2.0-0.8","spark_pilot_norest","10032","2","8","Female","","false","","","","","[1267.2999999970198,509.3999999910593]","./assets/img/ocean/memory/27.jpg","[""ArrowDown"",""ArrowRight""]","value training","ocean","30","{""ArrowUp,ArrowLeft"":23,""ArrowUp,ArrowRight"":10,""ArrowDown,ArrowLeft"":8,""ArrowDown,ArrowRight"":30}","true","ArrowDown,ArrowRight","false","revaluation","1","16","","",""
"html-keyboard-response","134","711758","0.0-4.0-2.0-1.8","spark_pilot_norest","10032","2","8","Female","","","","","","","null","<div style=""font-size:60px;"">+</div>","null","fixation","","","","","","","","","17","","",""
"revaluation","135","715765","0.0-4.0-2.0-0.9","spark_pilot_norest","10032","2","8","Female","","false","","","","","[693.4000000059605]","./assets/img/ocean/catch/7.jpg","[""spaceBar""]","value training","ocean","0","{""ArrowUp,ArrowLeft"":23,""ArrowUp,ArrowRight"":10,""ArrowDown,ArrowLeft"":8,""ArrowDown,ArrowRight"":30}","true","spaceBar","true","revaluation","1","18","","",""
"html-keyboard-response","136","716270","0.0-4.0-2.0-1.9","spark_pilot_norest","10032","2","8","Female","","","","","","","null","<div style=""font-size:60px;"">+</div>","null","fixation","","","","","","","","","19","","",""
"revaluation","137","722288","0.0-4.0-2.0-0.10","spark_pilot_norest","10032","2","8","Female","","false","","","","","[947.8999999910593,393.80000001192093]","./assets/img/ocean/memory/1.jpg","[""ArrowDown"",""ArrowRight""]","value training","ocean","30","{""ArrowUp,ArrowLeft"":23,""ArrowUp,ArrowRight"":10,""ArrowDown,ArrowLeft"":8,""ArrowDown,ArrowRight"":30}","true","ArrowDown,ArrowRight","false","revaluation","1","20","","",""
"html-keyboard-response","138","722801","0.0-4.0-2.0-1.10","spark_pilot_norest","10032","2","8","Female","","","","","","","null","<div style=""font-size:60px;"">+</div>","null","fixation","","","","","","","","","21","","",""
"revaluation","139","728811","0.0-4.0-2.0-0.11","spark_pilot_norest","10032","2","8","Female","","false","","","","","[1092.2999999970198,134.29999999701977]","./assets/img/ocean/memory/15.jpg","[""ArrowDown"",""ArrowRight""]","value training","ocean","30","{""ArrowUp,ArrowLeft"":23,""ArrowUp,ArrowRight"":10,""ArrowDown,ArrowLeft"":8,""ArrowDown,ArrowRight"":30}","true","ArrowDown,ArrowRight","false","revaluation","1","22","","",""
"html-keyboard-response","140","729317","0.0-4.0-2.0-1.11","spark_pilot_norest","10032","2","8","Female","","","","","","","null","<div style=""font-size:60px;"">+</div>","null","fixation","","","","","","","","","23","","",""
"revaluation","141","735327","0.0-4.0-2.0-0.12","spark_pilot_norest","10032","2","8","Female","","false","","","","","[528.7999999970198,437.79999999701977]","./assets/img/ocean/memory/23.jpg","[""ArrowDown"",""ArrowRight""]","value training","ocean","30","{""ArrowUp,ArrowLeft"":23,""ArrowUp,ArrowRight"":10,""ArrowDown,ArrowLeft"":8,""ArrowDown,ArrowRight"":30}","true","ArrowDown,ArrowRight","false","revaluation","1","24","","",""
"html-keyboard-response","142","735834","0.0-4.0-2.0-1.12","spark_pilot_norest","10032","2","8","Female","","","","","","","null","<div style=""font-size:60px;"">+</div>","null","fixation","","","","","","","","","25","","",""
"revaluation","143","739851","0.0-4.0-2.0-0.13","spark_pilot_norest","10032","2","8","Female","","false","","","","","[1056.2999999970198]","./assets/img/ocean/catch/4.jpg","[""spaceBar""]","value training","ocean","0","{""ArrowUp,ArrowLeft"":23,""ArrowUp,ArrowRight"":10,""ArrowDown,ArrowLeft"":8,""ArrowDown,ArrowRight"":30}","true","spaceBar","true","revaluation","1","26","","",""
"html-keyboard-response","144","740358","0.0-4.0-2.0-1.13","spark_pilot_norest","10032","2","8","Female","","","","","","","null","<div style=""font-size:60px;"">+</div>","null","fixation","","","","","","","","","27","","",""
"revaluation","145","746385","0.0-4.0-2.0-0.14","spark_pilot_norest","10032","2","8","Female","","false","","","","","[612.2999999970198,570.1999999880791]","./assets/img/ocean/memory/29.jpg","[""ArrowDown"",""ArrowRight""]","value training","ocean","30","{""ArrowUp,ArrowLeft"":23,""ArrowUp,ArrowRight"":10,""ArrowDown,ArrowLeft"":8,""ArrowDown,ArrowRight"":30}","true","ArrowDown,ArrowRight","false","revaluation","1","28","","",""
"html-keyboard-response","146","746891","0.0-4.0-2.0-1.14","spark_pilot_norest","10032","2","8","Female","","","","","","","null","<div style=""font-size:60px;"">+</div>","null","fixation","","","","","","","","","29","","",""
"revaluation","147","752910","0.0-4.0-2.0-0.15","spark_pilot_norest","10032","2","8","Female","","false","","","","","[1133.1000000089407,589]","./assets/img/ocean/memory/18.jpg","[""ArrowUp"",""ArrowLeft""]","value training","ocean","23","{""ArrowUp,ArrowLeft"":23,""ArrowUp,ArrowRight"":10,""ArrowDown,ArrowLeft"":8,""ArrowDown,ArrowRight"":30}","false","ArrowUp,ArrowLeft","false","revaluation","1","30","","",""
"html-keyboard-response","148","753416","0.0-4.0-2.0-1.15","spark_pilot_norest","10032","2","8","Female","","","","","","","null","<div style=""font-size:60px;"">+</div>","null","fixation","","","","","","","","","31","","",""
"revaluation","149","759433","0.0-4.0-2.0-0.16","spark_pilot_norest","10032","2","8","Female","","false","","","","","[558.5,432.09999999403954]","./assets/img/ocean/memory/4.jpg","[""ArrowUp"",""ArrowLeft""]","value training","ocean","23","{""ArrowUp,ArrowLeft"":23,""ArrowUp,ArrowRight"":10,""ArrowDown,ArrowLeft"":8,""ArrowDown,ArrowRight"":30}","false","ArrowUp,ArrowLeft","false","revaluation","1","32","","",""
"html-keyboard-response","150","759944","0.0-4.0-2.0-1.16","spark_pilot_norest","10032","2","8","Female","","","","","","","null","<div style=""font-size:60px;"">+</div>","null","fixation","","","","","","","","","33","","",""
"revaluation","151","765961","0.0-4.0-2.0-0.17","spark_pilot_norest","10032","2","8","Female","","false","","","","","[814.1000000089407,700.2000000029802]","./assets/img/ocean/memory/9.jpg","[""ArrowUp"",""ArrowLeft""]","value training","ocean","23","{""ArrowUp,ArrowLeft"":23,""ArrowUp,ArrowRight"":10,""ArrowDown,ArrowLeft"":8,""ArrowDown,ArrowRight"":30}","false","ArrowUp,ArrowLeft","false","revaluation","1","34","","",""
"html-keyboard-response","152","766464","0.0-4.0-2.0-1.17","spark_pilot_norest","10032","2","8","Female","","","","","","","null","<div style=""font-size:60px;"">+</div>","null","fixation","","","","","","","","","35","","",""
"revaluation","153","772483","0.0-4.0-2.0-0.18","spark_pilot_norest","10032","2","8","Female","","false","","","","","[947.0999999940395,628]","./assets/img/ocean/memory/12.jpg","[""ArrowUp"",""ArrowLeft""]","value training","ocean","23","{""ArrowUp,ArrowLeft"":23,""ArrowUp,ArrowRight"":10,""ArrowDown,ArrowLeft"":8,""ArrowDown,ArrowRight"":30}","false","ArrowUp,ArrowLeft","false","revaluation","1","36","","",""
"html-keyboard-response","154","772989","0.0-4.0-2.0-1.18","spark_pilot_norest","10032","2","8","Female","","","","","","","null","<div style=""font-size:60px;"">+</div>","null","fixation","","","","","","","","","37","","",""
"revaluation","155","779010","0.0-4.0-2.0-0.19","spark_pilot_norest","10032","2","8","Female","","false","","","","","[620.2000000029802,600.5]","./assets/img/ocean/memory/13.jpg","[""ArrowDown"",""ArrowRight""]","value training","ocean","30","{""ArrowUp,ArrowLeft"":23,""ArrowUp,ArrowRight"":10,""ArrowDown,ArrowLeft"":8,""ArrowDown,ArrowRight"":30}","true","ArrowDown,ArrowRight","false","revaluation","1","38","","",""
"html-keyboard-response","156","779516","0.0-4.0-2.0-1.19","spark_pilot_norest","10032","2","8","Female","","","","","","","null","<div style=""font-size:60px;"">+</div>","null","fixation","","","","","","","","","39","","",""
"revaluation","157","785532","0.0-4.0-2.0-0.20","spark_pilot_norest","10032","2","8","Female","","false","","","","","[1289.2999999970198,265.30000001192093]","./assets/img/ocean/memory/27.jpg","[""ArrowDown"",""ArrowRight""]","value training","ocean","30","{""ArrowUp,ArrowLeft"":23,""ArrowUp,ArrowRight"":10,""ArrowDown,ArrowLeft"":8,""ArrowDown,ArrowRight"":30}","true","ArrowDown,ArrowRight","false","revaluation","1","40","","",""
"html-keyboard-response","158","786048","0.0-4.0-2.0-1.20","spark_pilot_norest","10032","2","8","Female","","","","","","","null","<div style=""font-size:60px;"">+</div>","null","fixation","","","","","","","","","41","","",""
"revaluation","159","792073","0.0-4.0-2.0-0.21","spark_pilot_norest","10032","2","8","Female","","false","","","","","[781.0999999940395,855.3999999910593]","./assets/img/ocean/memory/17.jpg","[""ArrowDown"",""ArrowRight""]","value training","ocean","30","{""ArrowUp,ArrowLeft"":23,""ArrowUp,ArrowRight"":10,""ArrowDown,ArrowLeft"":8,""ArrowDown,ArrowRight"":30}","true","ArrowDown,ArrowRight","false","revaluation","1","42","","",""
"html-keyboard-response","160","792576","0.0-4.0-2.0-1.21","spark_pilot_norest","10032","2","8","Female","","","","","","","null","<div style=""font-size:60px;"">+</div>","null","fixation","","","","","","","","","43","","",""
"revaluation","161","796588","0.0-4.0-2.0-0.22","spark_pilot_norest","10032","2","8","Female","","false","","","","","[544.3999999910593]","./assets/img/ocean/catch/3.jpg","[""spaceBar""]","value training","ocean","0","{""ArrowUp,ArrowLeft"":23,""ArrowUp,ArrowRight"":10,""ArrowDown,ArrowLeft"":8,""ArrowDown,ArrowRight"":30}","true","spaceBar","true","revaluation","1","44","","",""
"html-keyboard-response","162","797097","0.0-4.0-2.0-1.22","spark_pilot_norest","10032","2","8","Female","","","","","","","null","<div style=""font-size:60px;"">+</div>","null","fixation","","","","","","","","","45","","",""
"revaluation","163","803116","0.0-4.0-2.0-0.23","spark_pilot_norest","10032","2","8","Female","","false","","","","","[1545.0999999940395,502.20000000298023]","./assets/img/ocean/memory/41.jpg","[""ArrowDown"",""ArrowRight""]","value training","ocean","30","{""ArrowUp,ArrowLeft"":23,""ArrowUp,ArrowRight"":10,""ArrowDown,ArrowLeft"":8,""ArrowDown,ArrowRight"":30}","true","ArrowDown,ArrowRight","false","revaluation","1","46","","",""
"html-keyboard-response","164","803619","0.0-4.0-2.0-1.23","spark_pilot_norest","10032","2","8","Female","","","","","","","null","<div style=""font-size:60px;"">+</div>","null","fixation","","","","","","","","","47","","",""
"revaluation","165","809640","0.0-4.0-2.0-0.24","spark_pilot_norest","10032","2","8","Female","","false","","","","","[739.4000000059605,459.70000000298023]","./assets/img/ocean/memory/29.jpg","[""ArrowDown"",""ArrowRight""]","value training","ocean","30","{""ArrowUp,ArrowLeft"":23,""ArrowUp,ArrowRight"":10,""ArrowDown,ArrowLeft"":8,""ArrowDown,ArrowRight"":30}","true","ArrowDown,ArrowRight","false","revaluation","1","48","","",""
"html-keyboard-response","166","810156","0.0-4.0-2.0-1.24","spark_pilot_norest","10032","2","8","Female","","","","","","","null","<div style=""font-size:60px;"">+</div>","null","fixation","","","","","","","","","49","","",""
"revaluation","167","814169","0.0-4.0-2.0-0.25","spark_pilot_norest","10032","2","8","Female","","false","","","","","[801.5]","./assets/img/ocean/catch/5.jpg","[""ArrowUp""]","value training","ocean","-10","{""ArrowUp,ArrowLeft"":23,""ArrowUp,ArrowRight"":10,""ArrowDown,ArrowLeft"":8,""ArrowDown,ArrowRight"":30}","false","ArrowUp","true","revaluation","1","50","","",""
"html-keyboard-response","168","814675","0.0-4.0-2.0-1.25","spark_pilot_norest","10032","2","8","Female","","","","","","","null","<div style=""font-size:60px;"">+</div>","null","fixation","","","","","","","","","51","","",""
"revaluation","169","820716","0.0-4.0-2.0-0.26","spark_pilot_norest","10032","2","8","Female","","false","","","","","[998.9000000059605,419.40000000596046]","./assets/img/ocean/memory/34.jpg","[""ArrowUp"",""ArrowRight""]","value training","ocean","10","{""ArrowUp,ArrowLeft"":23,""ArrowUp,ArrowRight"":10,""ArrowDown,ArrowLeft"":8,""ArrowDown,ArrowRight"":30}","false","ArrowUp,ArrowRight","false","revaluation","1","52","","",""
"html-keyboard-response","170","821231","0.0-4.0-2.0-1.26","spark_pilot_norest","10032","2","8","Female","","","","","","","null","<div style=""font-size:60px;"">+</div>","null","fixation","","","","","","","","","53","","",""
"revaluation","171","827244","0.0-4.0-2.0-0.27","spark_pilot_norest","10032","2","8","Female","","false","","","","","[811.0999999940395,507]","./assets/img/ocean/memory/38.jpg","[""ArrowDown"",""ArrowRight""]","value training","ocean","30","{""ArrowUp,ArrowLeft"":23,""ArrowUp,ArrowRight"":10,""ArrowDown,ArrowLeft"":8,""ArrowDown,ArrowRight"":30}","true","ArrowDown,ArrowRight","false","revaluation","1","54","","",""
"html-keyboard-response","172","827751","0.0-4.0-2.0-1.27","spark_pilot_norest","10032","2","8","Female","","","","","","","null","<div style=""font-size:60px;"">+</div>","null","fixation","","","","","","","","","55","","",""
"revaluation","173","833758","0.0-4.0-2.0-0.28","spark_pilot_norest","10032","2","8","Female","","false","","","","","[593.6000000089407,1089.7999999970198]","./assets/img/ocean/memory/9.jpg","[""ArrowDown"",""ArrowRight""]","value training","ocean","30","{""ArrowUp,ArrowLeft"":23,""ArrowUp,ArrowRight"":10,""ArrowDown,ArrowLeft"":8,""ArrowDown,ArrowRight"":30}","true","ArrowDown,ArrowRight","false","revaluation","1","56","","",""
"html-keyboard-response","174","834261","0.0-4.0-2.0-1.28","spark_pilot_norest","10032","2","8","Female","","","","","","","null","<div style=""font-size:60px;"">+</div>","null","fixation","","","","","","","","","57","","",""
"revaluation","175","840270","0.0-4.0-2.0-0.29","spark_pilot_norest","10032","2","8","Female","","false","","","","","[434,679.8000000119209]","./assets/img/ocean/memory/25.jpg","[""ArrowDown"",""ArrowRight""]","value training","ocean","30","{""ArrowUp,ArrowLeft"":23,""ArrowUp,ArrowRight"":10,""ArrowDown,ArrowLeft"":8,""ArrowDown,ArrowRight"":30}","true","ArrowDown,ArrowRight","false","revaluation","1","58","","",""
"html-keyboard-response","176","840774","0.0-4.0-2.0-1.29","spark_pilot_norest","10032","2","8","Female","","","","","","","null","<div style=""font-size:60px;"">+</div>","null","fixation","","","","","","","","","59","","",""
"revaluation","177","846797","0.0-4.0-2.0-0.30","spark_pilot_norest","10032","2","8","Female","","false","","","","","[513.2999999970198,537.5]","./assets/img/ocean/memory/23.jpg","[""ArrowDown"",""ArrowRight""]","value training","ocean","30","{""ArrowUp,ArrowLeft"":23,""ArrowUp,ArrowRight"":10,""ArrowDown,ArrowLeft"":8,""ArrowDown,ArrowRight"":30}","true","ArrowDown,ArrowRight","false","revaluation","1","60","","",""
"html-keyboard-response","178","847301","0.0-4.0-2.0-1.30","spark_pilot_norest","10032","2","8","Female","","","","","","","null","<div style=""font-size:60px;"">+</div>","null","fixation","","","","","","","","","61","","",""
"revaluation","179","853324","0.0-4.0-2.0-0.31","spark_pilot_norest","10032","2","8","Female","","false","","","","","[755.7000000029802,410.90000000596046]","./assets/img/ocean/memory/4.jpg","[""ArrowDown"",""ArrowRight""]","value training","ocean","30","{""ArrowUp,ArrowLeft"":23,""ArrowUp,ArrowRight"":10,""ArrowDown,ArrowLeft"":8,""ArrowDown,ArrowRight"":30}","true","ArrowDown,ArrowRight","false","revaluation","1","62","","",""
"html-keyboard-response","180","853832","0.0-4.0-2.0-1.31","spark_pilot_norest","10032","2","8","Female","","","","","","","null","<div style=""font-size:60px;"">+</div>","null","fixation","","","","","","","","","63","","",""
"revaluation","181","859851","0.0-4.0-2.0-0.32","spark_pilot_norest","10032","2","8","Female","","false","","","","","[502.29999999701977,367.6000000089407]","./assets/img/ocean/memory/39.jpg","[""ArrowDown"",""ArrowRight""]","value training","ocean","30","{""ArrowUp,ArrowLeft"":23,""ArrowUp,ArrowRight"":10,""ArrowDown,ArrowLeft"":8,""ArrowDown,ArrowRight"":30}","true","ArrowDown,ArrowRight","false","revaluation","1","64","","",""
"html-keyboard-response","182","860360","0.0-4.0-2.0-1.32","spark_pilot_norest","10032","2","8","Female","","","","","","","null","<div style=""font-size:60px;"">+</div>","null","fixation","","","","","","","","","65","","",""
"revaluation","183","866379","0.0-4.0-2.0-0.33","spark_pilot_norest","10032","2","8","Female","","false","","","","","[463.59999999403954,399]","./assets/img/ocean/memory/21.jpg","[""ArrowUp"",""ArrowRight""]","value training","ocean","10","{""ArrowUp,ArrowLeft"":23,""ArrowUp,ArrowRight"":10,""ArrowDown,ArrowLeft"":8,""ArrowDown,ArrowRight"":30}","false","ArrowUp,ArrowRight","false","revaluation","1","66","","",""
"html-keyboard-response","184","866883","0.0-4.0-2.0-1.33","spark_pilot_norest","10032","2","8","Female","","","","","","","null","<div style=""font-size:60px;"">+</div>","null","fixation","","","","","","","","","67","","",""
"revaluation","185","872901","0.0-4.0-2.0-0.34","spark_pilot_norest","10032","2","8","Female","","false","","","","","[723,413.40000000596046]","./assets/img/ocean/memory/15.jpg","[""ArrowUp"",""ArrowRight""]","value training","ocean","10","{""ArrowUp,ArrowLeft"":23,""ArrowUp,ArrowRight"":10,""ArrowDown,ArrowLeft"":8,""ArrowDown,ArrowRight"":30}","false","ArrowUp,ArrowRight","false","revaluation","1","68","","",""
"html-keyboard-response","186","873403","0.0-4.0-2.0-1.34","spark_pilot_norest","10032","2","8","Female","","","","","","","null","<div style=""font-size:60px;"">+</div>","null","fixation","","","","","","","","","69","","",""
"revaluation","187","879428","0.0-4.0-2.0-0.35","spark_pilot_norest","10032","2","8","Female","","false","","","","","[901.5,567.0999999940395]","./assets/img/ocean/memory/28.jpg","[""ArrowUp"",""ArrowRight""]","value training","ocean","10","{""ArrowUp,ArrowLeft"":23,""ArrowUp,ArrowRight"":10,""ArrowDown,ArrowLeft"":8,""ArrowDown,ArrowRight"":30}","false","ArrowUp,ArrowRight","false","revaluation","1","70","","",""
"html-keyboard-response","188","879933","0.0-4.0-2.0-1.35","spark_pilot_norest","10032","2","8","Female","","","","","","","null","<div style=""font-size:60px;"">+</div>","null","fixation","","","","","","","","","71","","",""
"revaluation","189","885936","0.0-4.0-2.0-0.36","spark_pilot_norest","10032","2","8","Female","","false","","","","","[680,994.7999999970198]","./assets/img/ocean/memory/34.jpg","[""ArrowUp"",""ArrowRight""]","value training","ocean","10","{""ArrowUp,ArrowLeft"":23,""ArrowUp,ArrowRight"":10,""ArrowDown,ArrowLeft"":8,""ArrowDown,ArrowRight"":30}","false","ArrowUp,ArrowRight","false","revaluation","1","72","","",""
"html-keyboard-response","190","886441","0.0-4.0-2.0-1.36","spark_pilot_norest","10032","2","8","Female","","","","","","","null","<div style=""font-size:60px;"">+</div>","null","fixation","","","","","","","","","73","","",""
"revaluation","191","892452","0.0-4.0-2.0-0.37","spark_pilot_norest","10032","2","8","Female","","false","","","","","[1521.5,1060.2999999970198]","./assets/img/ocean/memory/18.jpg","[""ArrowDown"",""ArrowLeft""]","value training","ocean","8","{""ArrowUp,ArrowLeft"":23,""ArrowUp,ArrowRight"":10,""ArrowDown,ArrowLeft"":8,""ArrowDown,ArrowRight"":30}","false","ArrowDown,ArrowLeft","false","revaluation","1","74","","",""
"html-keyboard-response","192","892957","0.0-4.0-2.0-1.37","spark_pilot_norest","10032","2","8","Female","","","","","","","null","<div style=""font-size:60px;"">+</div>","null","fixation","","","","","","","","","75","","",""
"revaluation","193","898970","0.0-4.0-2.0-0.38","spark_pilot_norest","10032","2","8","Female","","false","","","","","[1052.7999999970198,385.79999999701977]","./assets/img/ocean/memory/28.jpg","[""ArrowDown"",""ArrowLeft""]","value training","ocean","8","{""ArrowUp,ArrowLeft"":23,""ArrowUp,ArrowRight"":10,""ArrowDown,ArrowLeft"":8,""ArrowDown,ArrowRight"":30}","false","ArrowDown,ArrowLeft","false","revaluation","1","76","","",""
"html-keyboard-response","194","899472","0.0-4.0-2.0-1.38","spark_pilot_norest","10032","2","8","Female","","","","","","","null","<div style=""font-size:60px;"">+</div>","null","fixation","","","","","","","","","77","","",""
"revaluation","195","905490","0.0-4.0-2.0-0.39","spark_pilot_norest","10032","2","8","Female","","false","","","","","[693.3999999910593,861.2000000029802]","./assets/img/ocean/memory/33.jpg","[""ArrowDown"",""ArrowLeft""]","value training","ocean","8","{""ArrowUp,ArrowLeft"":23,""ArrowUp,ArrowRight"":10,""ArrowDown,ArrowLeft"":8,""ArrowDown,ArrowRight"":30}","false","ArrowDown,ArrowLeft","false","revaluation","1","78","","",""
"html-keyboard-response","196","905997","0.0-4.0-2.0-1.39","spark_pilot_norest","10032","2","8","Female","","","","","","","null","<div style=""font-size:60px;"">+</div>","null","fixation","","","","","","","","","79","","",""
"revaluation","197","912020","0.0-4.0-2.0-0.40","spark_pilot_norest","10032","2","8","Female","","false","","","","","[785.0999999940395,565.5]","./assets/img/ocean/memory/41.jpg","[""ArrowDown"",""ArrowLeft""]","value training","ocean","8","{""ArrowUp,ArrowLeft"":23,""ArrowUp,ArrowRight"":10,""ArrowDown,ArrowLeft"":8,""ArrowDown,ArrowRight"":30}","false","ArrowDown,ArrowLeft","false","revaluation","1","80","","",""
"html-keyboard-response","198","912528","0.0-4.0-2.0-1.40","spark_pilot_norest","10032","2","8","Female","","","","","","","null","<div style=""font-size:60px;"">+</div>","null","fixation","","","","","","","","","81","","",""
"revaluation","199","918542","0.0-4.0-2.0-0.41","spark_pilot_norest","10032","2","8","Female","","false","","","","","[989.7000000029802,1053.0999999940395]","./assets/img/ocean/memory/21.jpg","[""ArrowDown"",""ArrowRight""]","value training","ocean","30","{""ArrowUp,ArrowLeft"":23,""ArrowUp,ArrowRight"":10,""ArrowDown,ArrowLeft"":8,""ArrowDown,ArrowRight"":30}","true","ArrowDown,ArrowRight","false","revaluation","1","82","","",""
"html-keyboard-response","200","919049","0.0-4.0-2.0-1.41","spark_pilot_norest","10032","2","8","Female","","","","","","","null","<div style=""font-size:60px;"">+</div>","null","fixation","","","","","","","","","83","","",""
"revaluation","201","925070","0.0-4.0-2.0-0.42","spark_pilot_norest","10032","2","8","Female","","false","","","","","[623.7999999970198,430.5]","./assets/img/ocean/memory/16.jpg","[""ArrowDown"",""ArrowLeft""]","value training","ocean","8","{""ArrowUp,ArrowLeft"":23,""ArrowUp,ArrowRight"":10,""ArrowDown,ArrowLeft"":8,""ArrowDown,ArrowRight"":30}","false","ArrowDown,ArrowLeft","false","revaluation","1","84","","",""
"html-keyboard-response","202","925577","0.0-4.0-2.0-1.42","spark_pilot_norest","10032","2","8","Female","","","","","","","null","<div style=""font-size:60px;"">+</div>","null","fixation","","","","","","","","","85","","",""
"revaluation","203","931597","0.0-4.0-2.0-0.43","spark_pilot_norest","10032","2","8","Female","","false","","","","","[1361.9000000059605,463.30000001192093]","./assets/img/ocean/memory/39.jpg","[""ArrowUp"",""ArrowRight""]","value training","ocean","10","{""ArrowUp,ArrowLeft"":23,""ArrowUp,ArrowRight"":10,""ArrowDown,ArrowLeft"":8,""ArrowDown,ArrowRight"":30}","false","ArrowUp,ArrowRight","false","revaluation","1","86","","",""
"html-keyboard-response","204","932106","0.0-4.0-2.0-1.43","spark_pilot_norest","10032","2","8","Female","","","","","","","null","<div style=""font-size:60px;"">+</div>","null","fixation","","","","","","","","","87","","",""
"revaluation","205","938113","0.0-4.0-2.0-0.44","spark_pilot_norest","10032","2","8","Female","","false","","","","","[643.1999999880791,372.1000000089407]","./assets/img/ocean/memory/16.jpg","[""ArrowUp"",""ArrowLeft""]","value training","ocean","23","{""ArrowUp,ArrowLeft"":23,""ArrowUp,ArrowRight"":10,""ArrowDown,ArrowLeft"":8,""ArrowDown,ArrowRight"":30}","false","ArrowUp,ArrowLeft","false","revaluation","1","88","","",""
"html-keyboard-response","206","938627","0.0-4.0-2.0-1.44","spark_pilot_norest","10032","2","8","Female","","","","","","","null","<div style=""font-size:60px;"">+</div>","null","fixation","","","","","","","","","89","","",""
"revaluation","207","944647","0.0-4.0-2.0-0.45","spark_pilot_norest","10032","2","8","Female","","false","","","","","[761.2999999970198,426.20000000298023]","./assets/img/ocean/memory/17.jpg","[""ArrowDown"",""ArrowRight""]","value training","ocean","30","{""ArrowUp,ArrowLeft"":23,""ArrowUp,ArrowRight"":10,""ArrowDown,ArrowLeft"":8,""ArrowDown,ArrowRight"":30}","true","ArrowDown,ArrowRight","false","revaluation","1","90","","",""
"html-keyboard-response","208","945159","0.0-4.0-2.0-1.45","spark_pilot_norest","10032","2","8","Female","","","","","","","null","<div style=""font-size:60px;"">+</div>","null","fixation","","","","","","","","","91","","",""
"revaluation","209","951189","0.0-4.0-2.0-0.46","spark_pilot_norest","10032","2","8","Female","","false","","","","","[1089,667.5]","./assets/img/ocean/memory/25.jpg","[""ArrowDown"",""ArrowLeft""]","value training","ocean","8","{""ArrowUp,ArrowLeft"":23,""ArrowUp,ArrowRight"":10,""ArrowDown,ArrowLeft"":8,""ArrowDown,ArrowRight"":30}","false","ArrowDown,ArrowLeft","false","revaluation","1","92","","",""
"html-keyboard-response","210","951696","0.0-4.0-2.0-1.46","spark_pilot_norest","10032","2","8","Female","","","","","","","null","<div style=""font-size:60px;"">+</div>","null","fixation","","","","","","","","","93","","",""
"revaluation","211","957710","0.0-4.0-2.0-0.47","spark_pilot_norest","10032","2","8","Female","","false","","","","","[1028,503.70000000298023]","./assets/img/ocean/memory/1.jpg","[""ArrowDown"",""ArrowLeft""]","value training","ocean","8","{""ArrowUp,ArrowLeft"":23,""ArrowUp,ArrowRight"":10,""ArrowDown,ArrowLeft"":8,""ArrowDown,ArrowRight"":30}","false","ArrowDown,ArrowLeft","false","revaluation","1","94","","",""
"html-keyboard-response","212","958217","0.0-4.0-2.0-1.47","spark_pilot_norest","10032","2","8","Female","","","","","","","null","<div style=""font-size:60px;"">+</div>","null","fixation","","","","","","","","","95","","",""
"revaluation","213","962222","0.0-4.0-2.0-0.48","spark_pilot_norest","10032","2","8","Female","","false","","","","","[1114.8999999910593]","./assets/img/ocean/catch/1.jpg","[""spaceBar""]","value training","ocean","0","{""ArrowUp,ArrowLeft"":23,""ArrowUp,ArrowRight"":10,""ArrowDown,ArrowLeft"":8,""ArrowDown,ArrowRight"":30}","true","spaceBar","true","revaluation","1","96","","",""
"html-keyboard-response","214","962732","0.0-4.0-2.0-1.48","spark_pilot_norest","10032","2","8","Female","","","","","","","null","<div style=""font-size:60px;"">+</div>","null","fixation","","","","","","","","","97","","",""
"revaluation","215","966744","0.0-4.0-2.0-0.49","spark_pilot_norest","10032","2","8","Female","","false","","","","","[906.2000000029802]","./assets/img/ocean/catch/0.jpg","[""ArrowUp""]","value training","ocean","-10","{""ArrowUp,ArrowLeft"":23,""ArrowUp,ArrowRight"":10,""ArrowDown,ArrowLeft"":8,""ArrowDown,ArrowRight"":30}","false","ArrowUp","true","revaluation","1","98","","",""
"html-keyboard-response","216","967252","0.0-4.0-2.0-1.49","spark_pilot_norest","10032","2","8","Female","","","","","","","null","<div style=""font-size:60px;"">+</div>","null","fixation","","","","","","","","","99","","",""
"learning-instructions","217","991805","0.0-4.0-3.0-0.0","spark_pilot_norest","10032","2","8","Female","","","","","","","11059.5","<p> Now, you will travel with a friend who will choose whether you go up or down first. </p>
            <p> On these turns, you will just see the animal that they found. You will still get to choose which chest to search for treasure.</p>","","instructions","","","","","","","","","","","",""
"revaluation","218","995834","0.0-4.0-4.0-0.0","spark_pilot_norest","10032","2","8","Female","","true","","","","","[]","./assets/img/ocean/animals/octopus.jpg","[]","revaluation","ocean","-5","{""ArrowUp,ArrowLeft"":27,""ArrowUp,ArrowRight"":15,""ArrowDown,ArrowLeft"":21,""ArrowDown,ArrowRight"":7}","false","ArrowUp","","revaluation","1","0","","",""
"html-keyboard-response","219","996348","0.0-4.0-4.0-1.0","spark_pilot_norest","10032","2","8","Female","","","","","","","null","<div style=""font-size:60px;"">+</div>","null","fixation","","","","","","","","","1","","",""
"revaluation","220","1000365","0.0-4.0-4.0-0.1","spark_pilot_norest","10032","2","8","Female","","false","","","","","[105.09999999403954]","./assets/img/ocean/animals/octopus.jpg","[""ArrowRight""]","revaluation","ocean","15","{""ArrowUp,ArrowLeft"":27,""ArrowUp,ArrowRight"":15,""ArrowDown,ArrowLeft"":21,""ArrowDown,ArrowRight"":7}","false","ArrowUp,ArrowRight","","revaluation","1","2","","",""
"html-keyboard-response","221","1000874","0.0-4.0-4.0-1.1","spark_pilot_norest","10032","2","8","Female","","","","","","","null","<div style=""font-size:60px;"">+</div>","null","fixation","","","","","","","","","3","","",""
"revaluation","222","1004901","0.0-4.0-4.0-0.2","spark_pilot_norest","10032","2","8","Female","","false","","","","","[158.8999999910593]","./assets/img/ocean/animals/octopus.jpg","[""ArrowLeft""]","revaluation","ocean","27","{""ArrowUp,ArrowLeft"":27,""ArrowUp,ArrowRight"":15,""ArrowDown,ArrowLeft"":21,""ArrowDown,ArrowRight"":7}","true","ArrowUp,ArrowLeft","","revaluation","1","4","","",""
"html-keyboard-response","223","1005416","0.0-4.0-4.0-1.2","spark_pilot_norest","10032","2","8","Female","","","","","","","null","<div style=""font-size:60px;"">+</div>","null","fixation","","","","","","","","","5","","",""
"revaluation","224","1009446","0.0-4.0-4.0-0.3","spark_pilot_norest","10032","2","8","Female","","false","","","","","[432.20000000298023]","./assets/img/ocean/animals/octopus.jpg","[""ArrowRight""]","revaluation","ocean","15","{""ArrowUp,ArrowLeft"":27,""ArrowUp,ArrowRight"":15,""ArrowDown,ArrowLeft"":21,""ArrowDown,ArrowRight"":7}","false","ArrowUp,ArrowRight","","revaluation","1","6","","",""
"html-keyboard-response","225","1009956","0.0-4.0-4.0-1.3","spark_pilot_norest","10032","2","8","Female","","","","","","","null","<div style=""font-size:60px;"">+</div>","null","fixation","","","","","","","","","7","","",""
"revaluation","226","1013962","0.0-4.0-4.0-0.4","spark_pilot_norest","10032","2","8","Female","","false","","","","","[6]","./assets/img/ocean/animals/seahorse.jpg","[""ArrowRight""]","revaluation","ocean","7","{""ArrowUp,ArrowLeft"":27,""ArrowUp,ArrowRight"":15,""ArrowDown,ArrowLeft"":21,""ArrowDown,ArrowRight"":7}","false","ArrowDown,ArrowRight","","revaluation","1","8","","",""
"html-keyboard-response","227","1014463","0.0-4.0-4.0-1.4","spark_pilot_norest","10032","2","8","Female","","","","","","","null","<div style=""font-size:60px;"">+</div>","null","fixation","","","","","","","","","9","","",""
"revaluation","228","1018474","0.0-4.0-4.0-0.5","spark_pilot_norest","10032","2","8","Female","","false","","","","","[175.20000000298023]","./assets/img/ocean/animals/octopus.jpg","[""ArrowRight""]","revaluation","ocean","15","{""ArrowUp,ArrowLeft"":27,""ArrowUp,ArrowRight"":15,""ArrowDown,ArrowLeft"":21,""ArrowDown,ArrowRight"":7}","false","ArrowUp,ArrowRight","","revaluation","1","10","","",""
"html-keyboard-response","229","1018980","0.0-4.0-4.0-1.5","spark_pilot_norest","10032","2","8","Female","","","","","","","null","<div style=""font-size:60px;"">+</div>","null","fixation","","","","","","","","","11","","",""
"revaluation","230","1022995","0.0-4.0-4.0-0.6","spark_pilot_norest","10032","2","8","Female","","false","","","","","[292.29999999701977]","./assets/img/ocean/animals/octopus.jpg","[""ArrowLeft""]","revaluation","ocean","27","{""ArrowUp,ArrowLeft"":27,""ArrowUp,ArrowRight"":15,""ArrowDown,ArrowLeft"":21,""ArrowDown,ArrowRight"":7}","true","ArrowUp,ArrowLeft","","revaluation","1","12","","",""
"html-keyboard-response","231","1023496","0.0-4.0-4.0-1.6","spark_pilot_norest","10032","2","8","Female","","","","","","","null","<div style=""font-size:60px;"">+</div>","null","fixation","","","","","","","","","13","","",""
"revaluation","232","1027506","0.0-4.0-4.0-0.7","spark_pilot_norest","10032","2","8","Female","","false","","","","","[340.6000000089407]","./assets/img/ocean/animals/octopus.jpg","[""ArrowLeft""]","revaluation","ocean","27","{""ArrowUp,ArrowLeft"":27,""ArrowUp,ArrowRight"":15,""ArrowDown,ArrowLeft"":21,""ArrowDown,ArrowRight"":7}","true","ArrowUp,ArrowLeft","","revaluation","1","14","","",""
"html-keyboard-response","233","1028010","0.0-4.0-4.0-1.7","spark_pilot_norest","10032","2","8","Female","","","","","","","null","<div style=""font-size:60px;"">+</div>","null","fixation","","","","","","","","","15","","",""
"revaluation","234","1032021","0.0-4.0-4.0-0.8","spark_pilot_norest","10032","2","8","Female","","false","","","","","[132.5]","./assets/img/ocean/animals/seahorse.jpg","[""ArrowLeft""]","revaluation","ocean","21","{""ArrowUp,ArrowLeft"":27,""ArrowUp,ArrowRight"":15,""ArrowDown,ArrowLeft"":21,""ArrowDown,ArrowRight"":7}","true","ArrowDown,ArrowLeft","","revaluation","1","16","","",""
"html-keyboard-response","235","1032537","0.0-4.0-4.0-1.8","spark_pilot_norest","10032","2","8","Female","","","","","","","null","<div style=""font-size:60px;"">+</div>","null","fixation","","","","","","","","","17","","",""
"revaluation","236","1036553","0.0-4.0-4.0-0.9","spark_pilot_norest","10032","2","8","Female","","false","","","","","[243.70000000298023]","./assets/img/ocean/animals/seahorse.jpg","[""ArrowLeft""]","revaluation","ocean","21","{""ArrowUp,ArrowLeft"":27,""ArrowUp,ArrowRight"":15,""ArrowDown,ArrowLeft"":21,""ArrowDown,ArrowRight"":7}","true","ArrowDown,ArrowLeft","","revaluation","1","18","","",""
"html-keyboard-response","237","1037061","0.0-4.0-4.0-1.9","spark_pilot_norest","10032","2","8","Female","","","","","","","null","<div style=""font-size:60px;"">+</div>","null","fixation","","","","","","","","","19","","",""
"revaluation","238","1041068","0.0-4.0-4.0-0.10","spark_pilot_norest","10032","2","8","Female","","false","","","","","[401.40000000596046]","./assets/img/ocean/animals/seahorse.jpg","[""ArrowLeft""]","revaluation","ocean","21","{""ArrowUp,ArrowLeft"":27,""ArrowUp,ArrowRight"":15,""ArrowDown,ArrowLeft"":21,""ArrowDown,ArrowRight"":7}","true","ArrowDown,ArrowLeft","","revaluation","1","20","","",""
"html-keyboard-response","239","1041571","0.0-4.0-4.0-1.10","spark_pilot_norest","10032","2","8","Female","","","","","","","null","<div style=""font-size:60px;"">+</div>","null","fixation","","","","","","","","","21","","",""
"revaluation","240","1045587","0.0-4.0-4.0-0.11","spark_pilot_norest","10032","2","8","Female","","false","","","","","[220]","./assets/img/ocean/animals/seahorse.jpg","[""ArrowLeft""]","revaluation","ocean","21","{""ArrowUp,ArrowLeft"":27,""ArrowUp,ArrowRight"":15,""ArrowDown,ArrowLeft"":21,""ArrowDown,ArrowRight"":7}","true","ArrowDown,ArrowLeft","","revaluation","1","22","","",""
"html-keyboard-response","241","1046096","0.0-4.0-4.0-1.11","spark_pilot_norest","10032","2","8","Female","","","","","","","null","<div style=""font-size:60px;"">+</div>","null","fixation","","","","","","","","","23","","",""
"revaluation","242","1050108","0.0-4.0-4.0-0.12","spark_pilot_norest","10032","2","8","Female","","false","","","","","[124.29999999701977]","./assets/img/ocean/animals/octopus.jpg","[""ArrowLeft""]","revaluation","ocean","27","{""ArrowUp,ArrowLeft"":27,""ArrowUp,ArrowRight"":15,""ArrowDown,ArrowLeft"":21,""ArrowDown,ArrowRight"":7}","true","ArrowUp,ArrowLeft","","revaluation","1","24","","",""
"html-keyboard-response","243","1050612","0.0-4.0-4.0-1.12","spark_pilot_norest","10032","2","8","Female","","","","","","","null","<div style=""font-size:60px;"">+</div>","null","fixation","","","","","","","","","25","","",""
"revaluation","244","1054623","0.0-4.0-4.0-0.13","spark_pilot_norest","10032","2","8","Female","","false","","","","","[765.5999999940395]","./assets/img/ocean/animals/seahorse.jpg","[""ArrowLeft""]","revaluation","ocean","21","{""ArrowUp,ArrowLeft"":27,""ArrowUp,ArrowRight"":15,""ArrowDown,ArrowLeft"":21,""ArrowDown,ArrowRight"":7}","true","ArrowDown,ArrowLeft","","revaluation","1","26","","",""
"html-keyboard-response","245","1055131","0.0-4.0-4.0-1.13","spark_pilot_norest","10032","2","8","Female","","","","","","","null","<div style=""font-size:60px;"">+</div>","null","fixation","","","","","","","","","27","","",""
"revaluation","246","1059138","0.0-4.0-4.0-0.14","spark_pilot_norest","10032","2","8","Female","","false","","","","","[441.6000000089407]","./assets/img/ocean/animals/seahorse.jpg","[""ArrowLeft""]","revaluation","ocean","21","{""ArrowUp,ArrowLeft"":27,""ArrowUp,ArrowRight"":15,""ArrowDown,ArrowLeft"":21,""ArrowDown,ArrowRight"":7}","true","ArrowDown,ArrowLeft","","revaluation","1","28","","",""
"html-keyboard-response","247","1059643","0.0-4.0-4.0-1.14","spark_pilot_norest","10032","2","8","Female","","","","","","","null","<div style=""font-size:60px;"">+</div>","null","fixation","","","","","","","","","29","","",""
"revaluation","248","1063656","0.0-4.0-4.0-0.15","spark_pilot_norest","10032","2","8","Female","","false","","","","","[35.5]","./assets/img/ocean/animals/octopus.jpg","[""ArrowLeft""]","revaluation","ocean","27","{""ArrowUp,ArrowLeft"":27,""ArrowUp,ArrowRight"":15,""ArrowDown,ArrowLeft"":21,""ArrowDown,ArrowRight"":7}","true","ArrowUp,ArrowLeft","","revaluation","1","30","","",""
"html-keyboard-response","249","1064171","0.0-4.0-4.0-1.15","spark_pilot_norest","10032","2","8","Female","","","","","","","null","<div style=""font-size:60px;"">+</div>","null","fixation","","","","","","","","","31","","",""
"revaluation","250","1068181","0.0-4.0-4.0-0.16","spark_pilot_norest","10032","2","8","Female","","false","","","","","[800.9000000059605]","./assets/img/ocean/animals/seahorse.jpg","[""ArrowLeft""]","revaluation","ocean","21","{""ArrowUp,ArrowLeft"":27,""ArrowUp,ArrowRight"":15,""ArrowDown,ArrowLeft"":21,""ArrowDown,ArrowRight"":7}","true","ArrowDown,ArrowLeft","","revaluation","1","32","","",""
"html-keyboard-response","251","1068689","0.0-4.0-4.0-1.16","spark_pilot_norest","10032","2","8","Female","","","","","","","null","<div style=""font-size:60px;"">+</div>","null","fixation","","","","","","","","","33","","",""
"revaluation","252","1072704","0.0-4.0-4.0-0.17","spark_pilot_norest","10032","2","8","Female","","false","","","","","[488.29999999701977]","./assets/img/ocean/animals/seahorse.jpg","[""ArrowLeft""]","revaluation","ocean","21","{""ArrowUp,ArrowLeft"":27,""ArrowUp,ArrowRight"":15,""ArrowDown,ArrowLeft"":21,""ArrowDown,ArrowRight"":7}","true","ArrowDown,ArrowLeft","","revaluation","1","34","","",""
"html-keyboard-response","253","1073209","0.0-4.0-4.0-1.17","spark_pilot_norest","10032","2","8","Female","","","","","","","null","<div style=""font-size:60px;"">+</div>","null","fixation","","","","","","","","","35","","",""
"learning-instructions","254","1081948","0.0-4.0-5.0-0.0","spark_pilot_norest","10032","2","8","Female","","","","","","","null","<p> You have almost finished this part of the game! </p>
            <p> We are going to ask you to make a few more choices. </p>","","instructions","","","","","","","","","","","",""
"learning-instructions","255","1097918","0.0-4.0-5.0-0.1","spark_pilot_norest","10032","2","8","Female","","","","","","","null","<p> First, you need to decide whether to go up or down. When you see each picture, use the arrow keys to make your choice. </p>
            <p><b>You will not see which animal you found, but try to get to the one that will give you the most treasure.</b></p>","","instructions","","","","","","","","","","","",""
"html-keyboard-response","256","1098923","0.0-4.0-6.0-0.0","spark_pilot_norest","10032","2","8","Female","","","","","","","null","<div style=""font-size:100px;color:red;"">Starting in...</div>","null","","","","","","","","","","","","",""
"html-keyboard-response","257","1099928","0.0-4.0-6.0-1.0","spark_pilot_norest","10032","2","8","Female","","","","","","","null","<div style=""font-size:200px;color:red;"">3</div>","null","","","","","","","","","","","","",""
"html-keyboard-response","258","1100934","0.0-4.0-6.0-2.0","spark_pilot_norest","10032","2","8","Female","","","","","","","null","<div style=""font-size:200px;color:red;"">2</div>","null","","","","","","","","","","","","",""
"html-keyboard-response","259","1101938","0.0-4.0-6.0-3.0","spark_pilot_norest","10032","2","8","Female","","","","","","","null","<div style=""font-size:200px;color:red;"">1</div>","null","","","","","","","","","","","","",""
"revaluation","260","1102556","0.0-4.0-7.0-0.0","spark_pilot_norest","10032","2","8","Female","","false","","","","","[615.1999999880791]","./assets/img/ocean/test/1.jpg","[""ArrowUp""]","first stage test","ocean","0","{""ArrowUp,ArrowLeft"":27,""ArrowUp,ArrowRight"":15,""ArrowDown,ArrowLeft"":21,""ArrowDown,ArrowRight"":7}","true","ArrowUp","false","revaluation","1","","","",""
"html-keyboard-response","261","1103069","0.0-4.0-7.0-1.0","spark_pilot_norest","10032","2","8","Female","","","","","","","null","<div style=""font-size:60px;"">+</div>","null","fixation","","","","","","","","","","","",""
"revaluation","262","1104325","0.0-4.0-7.0-0.1","spark_pilot_norest","10032","2","8","Female","","false","","","","","[1254.2000000029802]","./assets/img/ocean/test/0.jpg","[""ArrowUp""]","first stage test","ocean","0","{""ArrowUp,ArrowLeft"":27,""ArrowUp,ArrowRight"":15,""ArrowDown,ArrowLeft"":21,""ArrowDown,ArrowRight"":7}","true","ArrowUp","false","revaluation","1","","","",""
"html-keyboard-response","263","1104838","0.0-4.0-7.0-1.1","spark_pilot_norest","10032","2","8","Female","","","","","","","null","<div style=""font-size:60px;"">+</div>","null","fixation","","","","","","","","","","","",""
"revaluation","264","1105242","0.0-4.0-7.0-0.2","spark_pilot_norest","10032","2","8","Female","","false","","","","","[400.70000000298023]","./assets/img/ocean/test/3.jpg","[""ArrowDown""]","first stage test","ocean","0","{""ArrowUp,ArrowLeft"":27,""ArrowUp,ArrowRight"":15,""ArrowDown,ArrowLeft"":21,""ArrowDown,ArrowRight"":7}","false","ArrowDown","false","revaluation","1","","","",""
"html-keyboard-response","265","1105748","0.0-4.0-7.0-1.2","spark_pilot_norest","10032","2","8","Female","","","","","","","null","<div style=""font-size:60px;"">+</div>","null","fixation","","","","","","","","","","","",""
"revaluation","266","1106013","0.0-4.0-7.0-0.3","spark_pilot_norest","10032","2","8","Female","","false","","","","","[262.90000000596046]","./assets/img/ocean/test/2.jpg","[""ArrowDown""]","first stage test","ocean","0","{""ArrowUp,ArrowLeft"":27,""ArrowUp,ArrowRight"":15,""ArrowDown,ArrowLeft"":21,""ArrowDown,ArrowRight"":7}","false","ArrowDown","false","revaluation","1","","","",""
"html-keyboard-response","267","1106518","0.0-4.0-7.0-1.3","spark_pilot_norest","10032","2","8","Female","","","","","","","null","<div style=""font-size:60px;"">+</div>","null","fixation","","","","","","","","","","","",""
"learning-instructions","268","1119878","0.0-4.0-8.0-0.0","spark_pilot_norest","10032","2","8","Female","","","","","","","null","<p> Now you will see the animals again and can search their chests for treasure. </p>
            <p> This time, you will not see how much treasure you earned, but you will earn more bonus money for making better choices. </p>","","instructions","","","","","","","","","","","",""
"html-keyboard-response","269","1120888","0.0-4.0-9.0-0.0","spark_pilot_norest","10032","2","8","Female","","","","","","","null","<div style=""font-size:100px;color:red;"">Starting in...</div>","null","","","","","","","","","","","","",""
"html-keyboard-response","270","1121908","0.0-4.0-9.0-1.0","spark_pilot_norest","10032","2","8","Female","","","","","","","null","<div style=""font-size:200px;color:red;"">3</div>","null","","","","","","","","","","","","",""
"html-keyboard-response","271","1122910","0.0-4.0-9.0-2.0","spark_pilot_norest","10032","2","8","Female","","","","","","","null","<div style=""font-size:200px;color:red;"">2</div>","null","","","","","","","","","","","","",""
"html-keyboard-response","272","1123919","0.0-4.0-9.0-3.0","spark_pilot_norest","10032","2","8","Female","","","","","","","null","<div style=""font-size:200px;color:red;"">1</div>","null","","","","","","","","","","","","",""
"revaluation","273","1124341","0.0-4.0-10.0-0.0","spark_pilot_norest","10032","2","8","Female","","false","","","","","[420.09999999403954]","./assets/img/ocean/animals/octopus.jpg","[""ArrowLeft""]","second stage test","ocean","0","{""ArrowUp,ArrowLeft"":27,""ArrowUp,ArrowRight"":15,""ArrowDown,ArrowLeft"":21,""ArrowDown,ArrowRight"":7}","true","ArrowUp,ArrowLeft","","revaluation","1","","","",""
"html-keyboard-response","274","1124849","0.0-4.0-10.0-1.0","spark_pilot_norest","10032","2","8","Female","","","","","","","null","<div style=""font-size:60px;"">+</div>","null","fixation","","","","","","","","","","","",""
"revaluation","275","1126095","0.0-4.0-10.0-0.1","spark_pilot_norest","10032","2","8","Female","","false","","","","","[1244]","./assets/img/ocean/animals/octopus.jpg","[""ArrowRight""]","second stage test","ocean","0","{""ArrowUp,ArrowLeft"":27,""ArrowUp,ArrowRight"":15,""ArrowDown,ArrowLeft"":21,""ArrowDown,ArrowRight"":7}","false","ArrowUp,ArrowRight","","revaluation","1","","","",""
"html-keyboard-response","276","1126599","0.0-4.0-10.0-1.1","spark_pilot_norest","10032","2","8","Female","","","","","","","null","<div style=""font-size:60px;"">+</div>","null","fixation","","","","","","","","","","","",""
"revaluation","277","1126691","0.0-4.0-10.0-0.2","spark_pilot_norest","10032","2","8","Female","","false","","","","","[90]","./assets/img/ocean/animals/octopus.jpg","[""ArrowRight""]","second stage test","ocean","0","{""ArrowUp,ArrowLeft"":27,""ArrowUp,ArrowRight"":15,""ArrowDown,ArrowLeft"":21,""ArrowDown,ArrowRight"":7}","false","ArrowUp,ArrowRight","","revaluation","1","","","",""
"html-keyboard-response","278","1127199","0.0-4.0-10.0-1.2","spark_pilot_norest","10032","2","8","Female","","","","","","","null","<div style=""font-size:60px;"">+</div>","null","fixation","","","","","","","","","","","",""
"revaluation","279","1127311","0.0-4.0-10.0-0.3","spark_pilot_norest","10032","2","8","Female","","false","","","","","[110.5]","./assets/img/ocean/animals/octopus.jpg","[""ArrowLeft""]","second stage test","ocean","0","{""ArrowUp,ArrowLeft"":27,""ArrowUp,ArrowRight"":15,""ArrowDown,ArrowLeft"":21,""ArrowDown,ArrowRight"":7}","true","ArrowUp,ArrowLeft","","revaluation","1","","","",""
"html-keyboard-response","280","1127820","0.0-4.0-10.0-1.3","spark_pilot_norest","10032","2","8","Female","","","","","","","null","<div style=""font-size:60px;"">+</div>","null","fixation","","","","","","","","","","","",""
"revaluation","281","1127861","0.0-4.0-10.0-0.4","spark_pilot_norest","10032","2","8","Female","","false","","","","","[39.599999994039536]","./assets/img/ocean/animals/seahorse.jpg","[""ArrowRight""]","second stage test","ocean","0","{""ArrowUp,ArrowLeft"":27,""ArrowUp,ArrowRight"":15,""ArrowDown,ArrowLeft"":21,""ArrowDown,ArrowRight"":7}","false","ArrowDown,ArrowRight","","revaluation","1","","","",""
"html-keyboard-response","282","1128369","0.0-4.0-10.0-1.4","spark_pilot_norest","10032","2","8","Female","","","","","","","null","<div style=""font-size:60px;"">+</div>","null","fixation","","","","","","","","","","","",""
"revaluation","283","1128480","0.0-4.0-10.0-0.5","spark_pilot_norest","10032","2","8","Female","","false","","","","","[108.69999998807907]","./assets/img/ocean/animals/seahorse.jpg","[""ArrowLeft""]","second stage test","ocean","0","{""ArrowUp,ArrowLeft"":27,""ArrowUp,ArrowRight"":15,""ArrowDown,ArrowLeft"":21,""ArrowDown,ArrowRight"":7}","true","ArrowDown,ArrowLeft","","revaluation","1","","","",""
"html-keyboard-response","284","1128989","0.0-4.0-10.0-1.5","spark_pilot_norest","10032","2","8","Female","","","","","","","null","<div style=""font-size:60px;"">+</div>","null","fixation","","","","","","","","","","","",""
"revaluation","285","1129132","0.0-4.0-10.0-0.6","spark_pilot_norest","10032","2","8","Female","","false","","","","","[141.09999999403954]","./assets/img/ocean/animals/seahorse.jpg","[""ArrowRight""]","second stage test","ocean","0","{""ArrowUp,ArrowLeft"":27,""ArrowUp,ArrowRight"":15,""ArrowDown,ArrowLeft"":21,""ArrowDown,ArrowRight"":7}","false","ArrowDown,ArrowRight","","revaluation","1","","","",""
"html-keyboard-response","286","1129639","0.0-4.0-10.0-1.6","spark_pilot_norest","10032","2","8","Female","","","","","","","null","<div style=""font-size:60px;"">+</div>","null","fixation","","","","","","","","","","","",""
"revaluation","287","1129708","0.0-4.0-10.0-0.7","spark_pilot_norest","10032","2","8","Female","","false","","","","","[66.8999999910593]","./assets/img/ocean/animals/seahorse.jpg","[""ArrowRight""]","second stage test","ocean","0","{""ArrowUp,ArrowLeft"":27,""ArrowUp,ArrowRight"":15,""ArrowDown,ArrowLeft"":21,""ArrowDown,ArrowRight"":7}","false","ArrowDown,ArrowRight","","revaluation","1","","","",""
"html-keyboard-response","288","1130218","0.0-4.0-10.0-1.7","spark_pilot_norest","10032","2","8","Female","","","","","","","null","<div style=""font-size:60px;"">+</div>","null","fixation","","","","","","","","","","","",""
"learning-instructions","289","1135469","0.0-4.0-0.1-0.2","spark_pilot_norest","10032","2","8","Female","","","","","","","2268.5","<p> This time you are searching for treasure in the <b>canyon</b>.</p>","","instructions","","","","","","","","","","","",""
"learning-instructions","290","1155402","0.0-4.0-0.1-0.3","spark_pilot_norest","10032","2","8","Female","","","","","","","2691.1000000089407","<p><b>New</b> animals with <b>new</b> treasure chests live here. You need to explore to discover where the animal with the best treasure chest is.</p>
                    <p> Like before, once you figure out which animal has the chest with the most treasure, you should try to get to that animal and select that chest! </p>","","instructions","","","","","","","","","","","",""
"learning-instructions","291","1171380","0.0-4.0-1.1-0.1","spark_pilot_norest","10032","2","8","Female","","","","","","","1238.800000011921","<p> Remember, when you see a picture of the place, use the up and down keys to <b>find an animal</b>.</p>
            <p> When you encounter an animal, you should use the left and right keys to <b>select a treasure chest</b>.</p>
            <p> Don't forget to look out for the robber! </p>","","instructions","","","","","","","","","","","",""
"revaluation","292","1175399","0.0-4.0-2.1-0.50","spark_pilot_norest","10032","2","8","Female","","false","","","","","[854.7999999970198]","./assets/img/canyon/catch/7.jpg","[""spaceBar""]","value training","canyon","0","{""ArrowUp,ArrowLeft"":26,""ArrowUp,ArrowRight"":10,""ArrowDown,ArrowLeft"":5,""ArrowDown,ArrowRight"":17}","true","spaceBar","true","original","2","0","","",""
"html-keyboard-response","293","1175919","0.0-4.0-2.1-1.50","spark_pilot_norest","10032","2","8","Female","","","","","","","null","<div style=""font-size:60px;"">+</div>","null","fixation","","","","","","","","","1","","",""
"revaluation","294","1181970","0.0-4.0-2.1-0.51","spark_pilot_norest","10032","2","8","Female","","false","","","","","[779.0999999940395,399.20000000298023]","./assets/img/canyon/memory/33.jpg","[""ArrowUp"",""ArrowRight""]","value training","canyon","10","{""ArrowUp,ArrowLeft"":26,""ArrowUp,ArrowRight"":10,""ArrowDown,ArrowLeft"":5,""ArrowDown,ArrowRight"":17}","false","ArrowUp,ArrowRight","false","original","2","2","","",""
"html-keyboard-response","295","1182489","0.0-4.0-2.1-1.51","spark_pilot_norest","10032","2","8","Female","","","","","","","null","<div style=""font-size:60px;"">+</div>","null","fixation","","","","","","","","","3","","",""
"revaluation","296","1188528","0.0-4.0-2.1-0.52","spark_pilot_norest","10032","2","8","Female","","false","","","","","[667.7999999970198,615.4000000059605]","./assets/img/canyon/memory/12.jpg","[""ArrowUp"",""ArrowLeft""]","value training","canyon","26","{""ArrowUp,ArrowLeft"":26,""ArrowUp,ArrowRight"":10,""ArrowDown,ArrowLeft"":5,""ArrowDown,ArrowRight"":17}","true","ArrowUp,ArrowLeft","false","original","2","4","","",""
"html-keyboard-response","297","1189038","0.0-4.0-2.1-1.52","spark_pilot_norest","10032","2","8","Female","","","","","","","null","<div style=""font-size:60px;"">+</div>","null","fixation","","","","","","","","","5","","",""
"revaluation","298","1193068","0.0-4.0-2.1-0.53","spark_pilot_norest","10032","2","8","Female","","false","","","","","[521]","./assets/img/canyon/catch/5.jpg","[""ArrowDown""]","value training","canyon","-10","{""ArrowUp,ArrowLeft"":26,""ArrowUp,ArrowRight"":10,""ArrowDown,ArrowLeft"":5,""ArrowDown,ArrowRight"":17}","false","ArrowDown","true","original","2","6","","",""
"html-keyboard-response","299","1193588","0.0-4.0-2.1-1.53","spark_pilot_norest","10032","2","8","Female","","","","","","","null","<div style=""font-size:60px;"">+</div>","null","fixation","","","","","","","","","7","","",""
"revaluation","300","1199618","0.0-4.0-2.1-0.54","spark_pilot_norest","10032","2","8","Female","","false","","","","","[1398,421.8999999910593]","./assets/img/canyon/memory/41.jpg","[""ArrowDown"",""ArrowRight""]","value training","canyon","17","{""ArrowUp,ArrowLeft"":26,""ArrowUp,ArrowRight"":10,""ArrowDown,ArrowLeft"":5,""ArrowDown,ArrowRight"":17}","false","ArrowDown,ArrowRight","false","original","2","8","","",""
"html-keyboard-response","301","1200134","0.0-4.0-2.1-1.54","spark_pilot_norest","10032","2","8","Female","","","","","","","null","<div style=""font-size:60px;"">+</div>","null","fixation","","","","","","","","","9","","",""
"revaluation","302","1206152","0.0-4.0-2.1-0.55","spark_pilot_norest","10032","2","8","Female","","false","","","","","[328.5,544.7000000029802]","./assets/img/canyon/memory/34.jpg","[""ArrowDown"",""ArrowLeft""]","value training","canyon","5","{""ArrowUp,ArrowLeft"":26,""ArrowUp,ArrowRight"":10,""ArrowDown,ArrowLeft"":5,""ArrowDown,ArrowRight"":17}","false","ArrowDown,ArrowLeft","false","original","2","10","","",""
"html-keyboard-response","303","1206659","0.0-4.0-2.1-1.55","spark_pilot_norest","10032","2","8","Female","","","","","","","null","<div style=""font-size:60px;"">+</div>","null","fixation","","","","","","","","","11","","",""
"revaluation","304","1212665","0.0-4.0-2.1-0.56","spark_pilot_norest","10032","2","8","Female","","false","","","","","[273.59999999403954,850.8999999910593]","./assets/img/canyon/memory/15.jpg","[""ArrowUp"",""ArrowRight""]","value training","canyon","10","{""ArrowUp,ArrowLeft"":26,""ArrowUp,ArrowRight"":10,""ArrowDown,ArrowLeft"":5,""ArrowDown,ArrowRight"":17}","false","ArrowUp,ArrowRight","false","original","2","12","","",""
"html-keyboard-response","305","1213173","0.0-4.0-2.1-1.56","spark_pilot_norest","10032","2","8","Female","","","","","","","null","<div style=""font-size:60px;"">+</div>","null","fixation","","","","","","","","","13","","",""
