"trial_type","trial_index","time_elapsed","internal_node_id","task_version","subject_id","assigned_condition","age","gender","success","timeout","failed_images","failed_audio","failed_video","browser_interaction","rt","stimulus","response","task_part","environment","score","rewardMap","correct","fullState","isCatch","condition","order","trial_num","key_press","ground_truth","bonus"
"pavlovia","0","1267","0.0-0.0","spark_pilot_norest","9159","3","15","Male","","","","","","","","","","","","","","","","","","","","","",""
"preload","1","88393","0.0-1.0","spark_pilot_norest","9159","3","15","Male","true","false","[]","[]","[]","[{""event"":""fullscreenenter"",""trial"":2,""time"":96916}]","","","","","","","","","","","","","","","",""
"fullscreen","2","97775","0.0-2.0","spark_pilot_norest","9159","3","15","Male","true","","","","","","","","","","","","","","","","","","","","",""
"audio-button-response","3","99731","0.0-3.0-0.0-0.0","spark_pilot_norest","9159","3","15","Male","","","","","","","1824","./assets/audio/audiotest/turtle.mp3","2","audio_test","","","","","","","","","","","",""
"learning-instructions","4","108025","0.0-3.0-1.0-0.0","spark_pilot_norest","9159","3","15","Male","","","","","","","1330.0999999046326","<p> Welcome! Please remember to stay in fullscreen mode and don't click away from the experiment. </p>","","instructions","","","","","","","","","","","",""
"learning-instructions","5","124641","0.0-3.0-1.0-0.1","spark_pilot_norest","9159","3","15","Male","","","","","","","8211.799999952316","<p> Today you will be playing a game to earn treasure. </p>
            <p> At the end of the experiment, you will earn a bonus based on how much treasure you find. </p>
            <img src='./assets/img/instructions/treasure.jpg' class='instructions-image'>","","instructions","","","","","","","","","","","",""
"learning-instructions","6","188775","0.0-3.0-1.0-0.2","spark_pilot_norest","9159","3","15","Male","","","","","","","55876.200000047684","<p> Animals have hidden treasure in treasure chests. </p>
            <p> You need to first find an animal and then choose which of their treasure chests to search. </p>
            <img src='./assets/img/space/animals/cat.jpg' class='instructions-image'>","","instructions","","","","","","","","","","","",""
"learning-instructions","7","202455","0.0-3.0-1.0-0.3","spark_pilot_norest","9159","3","15","Male","","","","","","","418.5","<p> In each round, you will search for treasure in a different place. In the real game, there will be two rounds. </p>
            <p> You will begin with a separate, practice round where you will search for treasure in outer space. </p>
            <img src='./assets/img/space/0.jpg' class='instructions-image'>","","instructions","","","","","","","","","","","",""
"learning-instructions","8","214488","0.0-3.0-1.0-0.4","spark_pilot_norest","9159","3","15","Male","","","","","","","622.6000001430511","<p> On every turn, you will see a picture of the place that you are in, but the specific image may be different each time. </p>
            <p> For example, both of these images mean you are in outer space. </p>
            <img src='./assets/img/instructions/outerspace.jpg' class='instructions-image'>","","instructions","","","","","","","","","","","",""
"learning-instructions","9","223867","0.0-3.0-1.0-0.5","spark_pilot_norest","9159","3","15","Male","","","","","","","1553.2000000476837","<p> You need to decide which direction to travel in. </p>
            <p> You can choose between going <b>up or down</b> by using the arrow keys. </p>
            <img src='./assets/img/instructions/updown.jpg' class='instructions-image'>","","instructions","","","","","","","","","","","",""
"learning-instructions","10","234835","0.0-3.0-1.0-0.6","spark_pilot_norest","9159","3","15","Male","","","","","","","2153","<p> You will have <b>2 seconds</b> to make your choice. </p>
            <p> If you do not make a choice within 2 seconds, you will not find an animal or earn treasure. </p>
            <img src='./assets/img/instructions/2seconds.jpg' class='instructions-image'>","","instructions","","","","","","","","","","","",""
"learning-instructions","11","244561","0.0-3.0-1.0-0.7","spark_pilot_norest","9159","3","15","Male","","","","","","","2684.2000000476837","<p> Let’s try practicing that now! </p>
            <p> When you see a picture of the place you are in, press the <b>up</b> key to travel up. </p>
            <img src='./assets/img/instructions/pressUp.jpg' class='instructions-image'>","","instructions","","","","","","","","","","","",""
"revaluation","12","248580","0.0-3.0-2.0-0.0","spark_pilot_norest","9159","3","15","Male","","false","","","","","[1158.4000000953674]","./assets/img/space/0.jpg","[""ArrowUp""]","first stage practice","space","0","null","null","ArrowUp","false","","","","","",""
"html-keyboard-response","13","249082","0.0-3.0-2.0-1.0","spark_pilot_norest","9159","3","15","Male","","","","","","","null","<div style=""font-size:60px;"">+</div>","null","fixation","","","","","","","","","","","",""
"revaluation","14","253088","0.0-3.0-2.0-0.1","spark_pilot_norest","9159","3","15","Male","","true","","","","","[]","./assets/img/space/1.jpg","[]","first stage practice","space","-5","null","null","","false","","","","","",""
"html-keyboard-response","15","253590","0.0-3.0-2.0-1.1","spark_pilot_norest","9159","3","15","Male","","","","","","","null","<div style=""font-size:60px;"">+</div>","null","fixation","","","","","","","","","","","",""
"revaluation","16","257595","0.0-3.0-2.0-0.2","spark_pilot_norest","9159","3","15","Male","","false","","","","","[1350.9000000953674]","./assets/img/space/2.jpg","[""ArrowUp""]","first stage practice","space","0","null","null","ArrowUp","false","","","","","",""
"html-keyboard-response","17","258096","0.0-3.0-2.0-1.2","spark_pilot_norest","9159","3","15","Male","","","","","","","null","<div style=""font-size:60px;"">+</div>","null","fixation","","","","","","","","","","","",""
"learning-instructions","18","269123","0.0-3.0-3.0-0.0","spark_pilot_norest","9159","3","15","Male","","","","","","","6329.400000095367","<p> Great job! Now try pressing the <b>down</b> key to travel down. </p>
            <img src='./assets/img/instructions/pressDown.jpg' class='instructions-image'>","","instructions","","","","","","","","","","","",""
"revaluation","19","273127","0.0-3.0-4.0-0.0","spark_pilot_norest","9159","3","15","Male","","false","","","","","[579.3999998569489]","./assets/img/space/3.jpg","[""ArrowDown""]","first stage practice","space","0","null","null","ArrowDown","false","","","","","",""
"html-keyboard-response","20","273629","0.0-3.0-4.0-1.0","spark_pilot_norest","9159","3","15","Male","","","","","","","null","<div style=""font-size:60px;"">+</div>","null","fixation","","","","","","","","","","","",""
"revaluation","21","277634","0.0-3.0-4.0-0.1","spark_pilot_norest","9159","3","15","Male","","false","","","","","[309]","./assets/img/space/4.jpg","[""ArrowDown""]","first stage practice","space","0","null","null","ArrowDown","false","","","","","",""
"html-keyboard-response","22","278135","0.0-3.0-4.0-1.1","spark_pilot_norest","9159","3","15","Male","","","","","","","null","<div style=""font-size:60px;"">+</div>","null","fixation","","","","","","","","","","","",""
"revaluation","23","282140","0.0-3.0-4.0-0.2","spark_pilot_norest","9159","3","15","Male","","false","","","","","[234.30000019073486]","./assets/img/space/5.jpg","[""ArrowDown""]","first stage practice","space","0","null","null","ArrowDown","false","","","","","",""
"html-keyboard-response","24","282641","0.0-3.0-4.0-1.2","spark_pilot_norest","9159","3","15","Male","","","","","","","null","<div style=""font-size:60px;"">+</div>","null","fixation","","","","","","","","","","","",""
"learning-instructions","25","314285","0.0-3.0-5.0-0.0","spark_pilot_norest","9159","3","15","Male","","","","","","","21795.700000047684","<p> The animals don’t move, so the animal in the upper part of a place will stay in the upper part of a place, and the animal in the lower part of a place will stay in the lower part of a place. </p>","","instructions","","","","","","","","","","","",""
"learning-instructions","26","323871","0.0-3.0-5.0-0.1","spark_pilot_norest","9159","3","15","Male","","","","","","","459.19999980926514","<p> Each animal has two treasure chests for you to choose from. </p>
            <p> The amount of treasure in each chest can range from <b> 0 to 40 pieces.</b></p>","","instructions","","","","","","","","","","","",""
"learning-instructions","27","339227","0.0-3.0-5.0-0.2","spark_pilot_norest","9159","3","15","Male","","","","","","","4177.200000047684","<p> You should decide which chest to search for treasure by using the <b>left</b> and <b>right</b> arrow keys. </p>
            <p><b> Pay attention to which animal is on the screen, as the animals have different treasure chests. </b></p>
            <img src='./assets/img/instructions/leftright.jpg' class='instructions-image'>","","instructions","","","","","","","","","","","",""
"learning-instructions","28","352879","0.0-3.0-5.0-0.3","spark_pilot_norest","9159","3","15","Male","","","","","","","7290.5","<p> Let’s try practicing that now. </p>
            <p> When you see an animal, choose which chest to search for treasure. </p>
            <img src='./assets/img/instructions/chooseChest.jpg' class='instructions-image'>","","instructions","","","","","","","","","","","",""
"revaluation","29","356887","0.0-3.0-6.0-0.0","spark_pilot_norest","9159","3","15","Male","","false","","","","","[472.59999990463257]","./assets/img/space/animals/cat.jpg","[""ArrowLeft""]","second stage practice","space","3","{""ArrowUp,ArrowLeft"":3,""ArrowUp,ArrowRight"":36,""ArrowDown,ArrowLeft"":15,""ArrowDown,ArrowRight"":23}","false","ArrowUp,ArrowLeft","","","","","","",""
"html-keyboard-response","30","357389","0.0-3.0-6.0-1.0","spark_pilot_norest","9159","3","15","Male","","","","","","","null","<div style=""font-size:60px;"">+</div>","null","fixation","","","","","","","","","","","",""
"revaluation","31","361394","0.0-3.0-6.0-0.1","spark_pilot_norest","9159","3","15","Male","","false","","","","","[226]","./assets/img/space/animals/rabbit.jpg","[""ArrowRight""]","second stage practice","space","23","{""ArrowUp,ArrowLeft"":3,""ArrowUp,ArrowRight"":36,""ArrowDown,ArrowLeft"":15,""ArrowDown,ArrowRight"":23}","true","ArrowDown,ArrowRight","","","","","","",""
"html-keyboard-response","32","361895","0.0-3.0-6.0-1.1","spark_pilot_norest","9159","3","15","Male","","","","","","","null","<div style=""font-size:60px;"">+</div>","null","fixation","","","","","","","","","","","",""
"revaluation","33","365900","0.0-3.0-6.0-0.2","spark_pilot_norest","9159","3","15","Male","","false","","","","","[231.69999980926514]","./assets/img/space/animals/rabbit.jpg","[""ArrowRight""]","second stage practice","space","23","{""ArrowUp,ArrowLeft"":3,""ArrowUp,ArrowRight"":36,""ArrowDown,ArrowLeft"":15,""ArrowDown,ArrowRight"":23}","true","ArrowDown,ArrowRight","","","","","","",""
"html-keyboard-response","34","366401","0.0-3.0-6.0-1.2","spark_pilot_norest","9159","3","15","Male","","","","","","","null","<div style=""font-size:60px;"">+</div>","null","fixation","","","","","","","","","","","",""
"revaluation","35","370405","0.0-3.0-6.0-0.3","spark_pilot_norest","9159","3","15","Male","","false","","","","","[1481.4000000953674]","./assets/img/space/animals/cat.jpg","[""ArrowRight""]","second stage practice","space","36","{""ArrowUp,ArrowLeft"":3,""ArrowUp,ArrowRight"":36,""ArrowDown,ArrowLeft"":15,""ArrowDown,ArrowRight"":23}","true","ArrowUp,ArrowRight","","","","","","",""
"html-keyboard-response","36","370907","0.0-3.0-6.0-1.3","spark_pilot_norest","9159","3","15","Male","","","","","","","null","<div style=""font-size:60px;"">+</div>","null","fixation","","","","","","","","","","","",""
"learning-instructions","37","388641","0.0-3.0-7.0-0.0","spark_pilot_norest","9159","3","15","Male","","","","","","","919.2999999523163","<p> Great job. Now let’s try putting it together. </p>
            <p> On each turn, you will first see a picture to remind you of the place you are in, and you need to choose whether to go up or down. </p>
            <p> Then you will see an animal and choose which of its chests to search for treasure. </p>","","instructions","","","","","","","","","","","",""
"learning-instructions","38","415959","0.0-3.0-7.0-0.1","spark_pilot_norest","9159","3","15","Male","","","","","","","19064.200000047684","<p> When you choose whether to go up or down, try to go to the animal with the chest with the most treasure. </p>
            <p> Try practicing that now! </p>","","instructions","","","","","","","","","","","",""
"revaluation","39","421963","0.0-3.0-8.0-0.0","spark_pilot_norest","9159","3","15","Male","","false","","","","","[688.1999998092651,397.09999990463257]","./assets/img/space/6.jpg","[""ArrowDown"",""ArrowRight""]","full practice","space","23","{""ArrowUp,ArrowLeft"":3,""ArrowUp,ArrowRight"":36,""ArrowDown,ArrowLeft"":15,""ArrowDown,ArrowRight"":23}","false","ArrowDown,ArrowRight","false","","","","","",""
"html-keyboard-response","40","422465","0.0-3.0-8.0-1.0","spark_pilot_norest","9159","3","15","Male","","","","","","","null","<div style=""font-size:60px;"">+</div>","null","fixation","","","","","","","","","","","",""
"revaluation","41","428471","0.0-3.0-8.0-0.1","spark_pilot_norest","9159","3","15","Male","","false","","","","","[241.5,382.80000019073486]","./assets/img/space/7.jpg","[""ArrowDown"",""ArrowLeft""]","full practice","space","15","{""ArrowUp,ArrowLeft"":3,""ArrowUp,ArrowRight"":36,""ArrowDown,ArrowLeft"":15,""ArrowDown,ArrowRight"":23}","false","ArrowDown,ArrowLeft","false","","","","","",""
"html-keyboard-response","42","428972","0.0-3.0-8.0-1.1","spark_pilot_norest","9159","3","15","Male","","","","","","","null","<div style=""font-size:60px;"">+</div>","null","fixation","","","","","","","","","","","",""
"revaluation","43","434978","0.0-3.0-8.0-0.2","spark_pilot_norest","9159","3","15","Male","","false","","","","","[317.7000000476837,389.2000000476837]","./assets/img/space/8.jpg","[""ArrowUp"",""ArrowRight""]","full practice","space","36","{""ArrowUp,ArrowLeft"":3,""ArrowUp,ArrowRight"":36,""ArrowDown,ArrowLeft"":15,""ArrowDown,ArrowRight"":23}","true","ArrowUp,ArrowRight","false","","","","","",""
"html-keyboard-response","44","435479","0.0-3.0-8.0-1.2","spark_pilot_norest","9159","3","15","Male","","","","","","","null","<div style=""font-size:60px;"">+</div>","null","fixation","","","","","","","","","","","",""
"revaluation","45","441485","0.0-3.0-8.0-0.3","spark_pilot_norest","9159","3","15","Male","","false","","","","","[390.09999990463257,412.2000000476837]","./assets/img/space/9.jpg","[""ArrowUp"",""ArrowRight""]","full practice","space","36","{""ArrowUp,ArrowLeft"":3,""ArrowUp,ArrowRight"":36,""ArrowDown,ArrowLeft"":15,""ArrowDown,ArrowRight"":23}","true","ArrowUp,ArrowRight","false","","","","","",""
"html-keyboard-response","46","441987","0.0-3.0-8.0-1.3","spark_pilot_norest","9159","3","15","Male","","","","","","","null","<div style=""font-size:60px;"">+</div>","null","fixation","","","","","","","","","","","",""
"revaluation","47","447994","0.0-3.0-8.0-0.4","spark_pilot_norest","9159","3","15","Male","","false","","","","","[198.90000009536743,383.09999990463257]","./assets/img/space/10.jpg","[""ArrowUp"",""ArrowRight""]","full practice","space","36","{""ArrowUp,ArrowLeft"":3,""ArrowUp,ArrowRight"":36,""ArrowDown,ArrowLeft"":15,""ArrowDown,ArrowRight"":23}","true","ArrowUp,ArrowRight","false","","","","","",""
"html-keyboard-response","48","448496","0.0-3.0-8.0-1.4","spark_pilot_norest","9159","3","15","Male","","","","","","","null","<div style=""font-size:60px;"">+</div>","null","fixation","","","","","","","","","","","",""
"learning-instructions","49","459983","0.0-3.0-9.0-0.0","spark_pilot_norest","9159","3","15","Male","","","","","","","1075.0999999046326","<p> One last thing: sometimes, you will see a robber. The robber can be anywhere in the picture. </p>
            <p> If you do not stop them, you will lose treasure. </p>
            <img src='./assets/img/instructions/robber.jpg' class='instructions-image'>","","instructions","","","","","","","","","","","",""
"learning-instructions","50","469293","0.0-3.0-9.0-0.1","spark_pilot_norest","9159","3","15","Male","","","","","","","2139.5","<p> If you see the robber, you should <b>press the space bar</b> rather than using the arrow keys. </p>
            <p> Try practicing that now! </p>","","instructions","","","","","","","","","","","",""
"revaluation","51","473297","0.0-3.0-10.0-0.0","spark_pilot_norest","9159","3","15","Male","","false","","","","","[793]","./assets/img/space/catch/0.jpg","[""spaceBar""]","catch practice","space","0","{""ArrowUp,ArrowLeft"":3,""ArrowUp,ArrowRight"":36,""ArrowDown,ArrowLeft"":15,""ArrowDown,ArrowRight"":23}","true","spaceBar","true","","","","","",""
"html-keyboard-response","52","473799","0.0-3.0-10.0-1.0","spark_pilot_norest","9159","3","15","Male","","","","","","","null","<div style=""font-size:60px;"">+</div>","null","fixation","","","","","","","","","","","",""
"revaluation","53","477804","0.0-3.0-10.0-0.1","spark_pilot_norest","9159","3","15","Male","","false","","","","","[475.09999990463257]","./assets/img/space/catch/1.jpg","[""spaceBar""]","catch practice","space","0","{""ArrowUp,ArrowLeft"":3,""ArrowUp,ArrowRight"":36,""ArrowDown,ArrowLeft"":15,""ArrowDown,ArrowRight"":23}","true","spaceBar","true","","","","","",""
"html-keyboard-response","54","478306","0.0-3.0-10.0-1.1","spark_pilot_norest","9159","3","15","Male","","","","","","","null","<div style=""font-size:60px;"">+</div>","null","fixation","","","","","","","","","","","",""
"revaluation","55","482310","0.0-3.0-10.0-0.2","spark_pilot_norest","9159","3","15","Male","","false","","","","","[546.7999999523163]","./assets/img/space/catch/2.jpg","[""spaceBar""]","catch practice","space","0","{""ArrowUp,ArrowLeft"":3,""ArrowUp,ArrowRight"":36,""ArrowDown,ArrowLeft"":15,""ArrowDown,ArrowRight"":23}","true","spaceBar","true","","","","","",""
"html-keyboard-response","56","482812","0.0-3.0-10.0-1.2","spark_pilot_norest","9159","3","15","Male","","","","","","","null","<div style=""font-size:60px;"">+</div>","null","fixation","","","","","","","","","","","",""
"learning-instructions","57","490442","0.0-3.0-11.0-0.0-0.0","spark_pilot_norest","9159","3","15","Male","","","","","","","2371.899999856949","<p> Now, you will practice a shortened version of the game to get a sense of how it all fits together. </p>","","instructions","","","","","","","","","","","",""
"learning-instructions","58","494769","0.0-3.0-11.0-0.0-0.1","spark_pilot_norest","9159","3","15","Male","","","","","","","1130.7999999523163","<p>This time you are searching for treasure in outer space.</p>","","instructions","","","","","","","","","","","",""
"learning-instructions","59","511685","0.0-3.0-11.0-1.0-0.0","spark_pilot_norest","9159","3","15","Male","","","","","","","2163.7000000476837","<p> Remember, when you see a picture of the place, use the up and down keys to <b>find an animal</b>.</p>
            <p> When you encounter an animal, you should use the left and right keys to <b>select a treasure chest</b>.</p>
            <p> Don't forget to look out for the robber! </p>","","instructions","","","","","","","","","","","",""
"revaluation","60","517690","0.0-3.0-11.0-2.0-0.0","spark_pilot_norest","9159","3","15","Male","","false","","","","","[1406.5999999046326,457.2000000476837]","./assets/img/space/11.jpg","[""ArrowUp"",""ArrowRight""]","practice block","space","36","{""ArrowUp,ArrowLeft"":3,""ArrowUp,ArrowRight"":36,""ArrowDown,ArrowLeft"":15,""ArrowDown,ArrowRight"":23}","true","ArrowUp,ArrowRight","false","","","","","",""
"html-keyboard-response","61","518192","0.0-3.0-11.0-2.0-1.0","spark_pilot_norest","9159","3","15","Male","","","","","","","null","<div style=""font-size:60px;"">+</div>","null","fixation","","","","","","","","","","","",""
"revaluation","62","524196","0.0-3.0-11.0-2.0-0.1","spark_pilot_norest","9159","3","15","Male","","false","","","","","[624.1000001430511,899.2000000476837]","./assets/img/space/12.jpg","[""ArrowUp"",""ArrowRight""]","practice block","space","36","{""ArrowUp,ArrowLeft"":3,""ArrowUp,ArrowRight"":36,""ArrowDown,ArrowLeft"":15,""ArrowDown,ArrowRight"":23}","true","ArrowUp,ArrowRight","false","","","","","",""
"html-keyboard-response","63","524699","0.0-3.0-11.0-2.0-1.1","spark_pilot_norest","9159","3","15","Male","","","","","","","null","<div style=""font-size:60px;"">+</div>","null","fixation","","","","","","","","","","","",""
"revaluation","64","530703","0.0-3.0-11.0-2.0-0.2","spark_pilot_norest","9159","3","15","Male","","false","","","","","[560.5999999046326,646.8000001907349]","./assets/img/space/13.jpg","[""ArrowUp"",""ArrowRight""]","practice block","space","36","{""ArrowUp,ArrowLeft"":3,""ArrowUp,ArrowRight"":36,""ArrowDown,ArrowLeft"":15,""ArrowDown,ArrowRight"":23}","true","ArrowUp,ArrowRight","false","","","","","",""
"html-keyboard-response","65","531205","0.0-3.0-11.0-2.0-1.2","spark_pilot_norest","9159","3","15","Male","","","","","","","null","<div style=""font-size:60px;"">+</div>","null","fixation","","","","","","","","","","","",""
"revaluation","66","537210","0.0-3.0-11.0-2.0-0.3","spark_pilot_norest","9159","3","15","Male","","false","","","","","[535.8999998569489,197]","./assets/img/space/14.jpg","[""ArrowUp"",""ArrowRight""]","practice block","space","36","{""ArrowUp,ArrowLeft"":3,""ArrowUp,ArrowRight"":36,""ArrowDown,ArrowLeft"":15,""ArrowDown,ArrowRight"":23}","true","ArrowUp,ArrowRight","false","","","","","",""
"html-keyboard-response","67","537712","0.0-3.0-11.0-2.0-1.3","spark_pilot_norest","9159","3","15","Male","","","","","","","null","<div style=""font-size:60px;"">+</div>","null","fixation","","","","","","","","","","","",""
"revaluation","68","543717","0.0-3.0-11.0-2.0-0.4","spark_pilot_norest","9159","3","15","Male","","false","","","","","[845.2999999523163,338.5]","./assets/img/space/11.jpg","[""ArrowUp"",""ArrowRight""]","practice block","space","36","{""ArrowUp,ArrowLeft"":3,""ArrowUp,ArrowRight"":36,""ArrowDown,ArrowLeft"":15,""ArrowDown,ArrowRight"":23}","true","ArrowUp,ArrowRight","false","","","","","",""
"html-keyboard-response","69","544219","0.0-3.0-11.0-2.0-1.4","spark_pilot_norest","9159","3","15","Male","","","","","","","null","<div style=""font-size:60px;"">+</div>","null","fixation","","","","","","","","","","","",""
"revaluation","70","550224","0.0-3.0-11.0-2.0-0.5","spark_pilot_norest","9159","3","15","Male","","false","","","","","[553.4000000953674,345.7000000476837]","./assets/img/space/12.jpg","[""ArrowUp"",""ArrowRight""]","practice block","space","36","{""ArrowUp,ArrowLeft"":3,""ArrowUp,ArrowRight"":36,""ArrowDown,ArrowLeft"":15,""ArrowDown,ArrowRight"":23}","true","ArrowUp,ArrowRight","false","","","","","",""
"html-keyboard-response","71","550725","0.0-3.0-11.0-2.0-1.5","spark_pilot_norest","9159","3","15","Male","","","","","","","null","<div style=""font-size:60px;"">+</div>","null","fixation","","","","","","","","","","","",""
"revaluation","72","556731","0.0-3.0-11.0-2.0-0.6","spark_pilot_norest","9159","3","15","Male","","false","","","","","[509.2000000476837,323.2000000476837]","./assets/img/space/13.jpg","[""ArrowUp"",""ArrowRight""]","practice block","space","36","{""ArrowUp,ArrowLeft"":3,""ArrowUp,ArrowRight"":36,""ArrowDown,ArrowLeft"":15,""ArrowDown,ArrowRight"":23}","true","ArrowUp,ArrowRight","false","","","","","",""
"html-keyboard-response","73","557232","0.0-3.0-11.0-2.0-1.6","spark_pilot_norest","9159","3","15","Male","","","","","","","null","<div style=""font-size:60px;"">+</div>","null","fixation","","","","","","","","","","","",""
"revaluation","74","563238","0.0-3.0-11.0-2.0-0.7","spark_pilot_norest","9159","3","15","Male","","false","","","","","[487.60000014305115,310.80000019073486]","./assets/img/space/14.jpg","[""ArrowUp"",""ArrowRight""]","practice block","space","36","{""ArrowUp,ArrowLeft"":3,""ArrowUp,ArrowRight"":36,""ArrowDown,ArrowLeft"":15,""ArrowDown,ArrowRight"":23}","true","ArrowUp,ArrowRight","false","","","","","",""
"html-keyboard-response","75","563739","0.0-3.0-11.0-2.0-1.7","spark_pilot_norest","9159","3","15","Male","","","","","","","null","<div style=""font-size:60px;"">+</div>","null","fixation","","","","","","","","","","","",""
"revaluation","76","567744","0.0-3.0-11.0-2.0-0.8","spark_pilot_norest","9159","3","15","Male","","false","","","","","[678.0999999046326]","./assets/img/space/catch/3.jpg","[""spaceBar""]","practice block","space","0","{""ArrowUp,ArrowLeft"":3,""ArrowUp,ArrowRight"":36,""ArrowDown,ArrowLeft"":15,""ArrowDown,ArrowRight"":23}","true","spaceBar","true","","","","","",""
"html-keyboard-response","77","568246","0.0-3.0-11.0-2.0-1.8","spark_pilot_norest","9159","3","15","Male","","","","","","","null","<div style=""font-size:60px;"">+</div>","null","fixation","","","","","","","","","","","",""
"learning-instructions","78","582534","0.0-3.0-11.0-3.0-0.0","spark_pilot_norest","9159","3","15","Male","","","","","","","1259.5","<p> Now, you will travel with a friend who will choose whether you go up or down first. </p>
            <p> On these turns, you will just see the animal that they found. You will still get to choose which chest to search for treasure.</p>","","instructions","","","","","","","","","","","",""
"revaluation","79","586538","0.0-3.0-11.0-4.0-0.0","spark_pilot_norest","9159","3","15","Male","","false","","","","","[1101.2999999523163]","./assets/img/space/animals/rabbit.jpg","[""ArrowRight""]","practice block","space","23","{""ArrowUp,ArrowLeft"":3,""ArrowUp,ArrowRight"":36,""ArrowDown,ArrowLeft"":15,""ArrowDown,ArrowRight"":23}","true","ArrowDown,ArrowRight","","","","","","",""
"html-keyboard-response","80","587039","0.0-3.0-11.0-4.0-1.0","spark_pilot_norest","9159","3","15","Male","","","","","","","null","<div style=""font-size:60px;"">+</div>","null","fixation","","","","","","","","","","","",""
"revaluation","81","591043","0.0-3.0-11.0-4.0-0.1","spark_pilot_norest","9159","3","15","Male","","false","","","","","[546.7999999523163]","./assets/img/space/animals/cat.jpg","[""ArrowLeft""]","practice block","space","3","{""ArrowUp,ArrowLeft"":3,""ArrowUp,ArrowRight"":36,""ArrowDown,ArrowLeft"":15,""ArrowDown,ArrowRight"":23}","false","ArrowUp,ArrowLeft","","","","","","",""
"html-keyboard-response","82","591545","0.0-3.0-11.0-4.0-1.1","spark_pilot_norest","9159","3","15","Male","","","","","","","null","<div style=""font-size:60px;"">+</div>","null","fixation","","","","","","","","","","","",""
"revaluation","83","595549","0.0-3.0-11.0-4.0-0.2","spark_pilot_norest","9159","3","15","Male","","false","","","","","[419.2999999523163]","./assets/img/space/animals/cat.jpg","[""ArrowRight""]","practice block","space","36","{""ArrowUp,ArrowLeft"":3,""ArrowUp,ArrowRight"":36,""ArrowDown,ArrowLeft"":15,""ArrowDown,ArrowRight"":23}","true","ArrowUp,ArrowRight","","","","","","",""
"html-keyboard-response","84","596050","0.0-3.0-11.0-4.0-1.2","spark_pilot_norest","9159","3","15","Male","","","","","","","null","<div style=""font-size:60px;"">+</div>","null","fixation","","","","","","","","","","","",""
"revaluation","85","600054","0.0-3.0-11.0-4.0-0.3","spark_pilot_norest","9159","3","15","Male","","false","","","","","[1284.8999998569489]","./assets/img/space/animals/rabbit.jpg","[""ArrowRight""]","practice block","space","23","{""ArrowUp,ArrowLeft"":3,""ArrowUp,ArrowRight"":36,""ArrowDown,ArrowLeft"":15,""ArrowDown,ArrowRight"":23}","true","ArrowDown,ArrowRight","","","","","","",""
"html-keyboard-response","86","600555","0.0-3.0-11.0-4.0-1.3","spark_pilot_norest","9159","3","15","Male","","","","","","","null","<div style=""font-size:60px;"">+</div>","null","fixation","","","","","","","","","","","",""
"learning-instructions","87","608670","0.0-3.0-11.0-5.0-0.0","spark_pilot_norest","9159","3","15","Male","","","","","","","null","<p> You have almost finished this part of the game! </p>
            <p> We are going to ask you to make a few more choices. </p>","","instructions","","","","","","","","","","","",""
"learning-instructions","88","624670","0.0-3.0-11.0-5.0-0.1","spark_pilot_norest","9159","3","15","Male","","","","","","","null","<p> First, you need to decide whether to go up or down. When you see each picture, use the arrow keys to make your choice. </p>
            <p><b>You will not see which animal you found, but try to get to the one that will give you the most treasure.</b></p>","","instructions","","","","","","","","","","","",""
"html-keyboard-response","89","625672","0.0-3.0-11.0-6.0-0.0","spark_pilot_norest","9159","3","15","Male","","","","","","","null","<div style=""font-size:100px;color:red;"">Starting in...</div>","null","","","","","","","","","","","","",""
"html-keyboard-response","90","626673","0.0-3.0-11.0-6.0-1.0","spark_pilot_norest","9159","3","15","Male","","","","","","","null","<div style=""font-size:200px;color:red;"">3</div>","null","","","","","","","","","","","","",""
"html-keyboard-response","91","627675","0.0-3.0-11.0-6.0-2.0","spark_pilot_norest","9159","3","15","Male","","","","","","","null","<div style=""font-size:200px;color:red;"">2</div>","null","","","","","","","","","","","","",""
"html-keyboard-response","92","628676","0.0-3.0-11.0-6.0-3.0","spark_pilot_norest","9159","3","15","Male","","","","","","","null","<div style=""font-size:200px;color:red;"">1</div>","null","","","","","","","","","","","","",""
"revaluation","93","629026","0.0-3.0-11.0-7.0","spark_pilot_norest","9159","3","15","Male","","false","","","","","[348.60000014305115]","./assets/img/space/15.jpg","[""ArrowUp""]","practice block","space","0","{""ArrowUp,ArrowLeft"":3,""ArrowUp,ArrowRight"":36,""ArrowDown,ArrowLeft"":15,""ArrowDown,ArrowRight"":23}","true","ArrowUp","false","","","","","",""
"html-keyboard-response","94","629528","0.0-3.0-11.0-8.0","spark_pilot_norest","9159","3","15","Male","","","","","","","null","<div style=""font-size:60px;"">+</div>","null","fixation","","","","","","","","","","","",""
"learning-instructions","95","642900","0.0-3.0-11.0-9.0-0.0","spark_pilot_norest","9159","3","15","Male","","","","","","","null","<p> Now you will see the animals again and can search their chests for treasure. </p>
            <p> This time, you will not see how much treasure you earned, but you will earn more bonus money for making better choices. </p>","","instructions","","","","","","","","","","","",""
"html-keyboard-response","96","643901","0.0-3.0-11.0-10.0-0.0","spark_pilot_norest","9159","3","15","Male","","","","","","","null","<div style=""font-size:100px;color:red;"">Starting in...</div>","null","","","","","","","","","","","","",""
"html-keyboard-response","97","644903","0.0-3.0-11.0-10.0-1.0","spark_pilot_norest","9159","3","15","Male","","","","","","","null","<div style=""font-size:200px;color:red;"">3</div>","null","","","","","","","","","","","","",""
"html-keyboard-response","98","645904","0.0-3.0-11.0-10.0-2.0","spark_pilot_norest","9159","3","15","Male","","","","","","","null","<div style=""font-size:200px;color:red;"">2</div>","null","","","","","","","","","","","","",""
"html-keyboard-response","99","646906","0.0-3.0-11.0-10.0-3.0","spark_pilot_norest","9159","3","15","Male","","","","","","","null","<div style=""font-size:200px;color:red;"">1</div>","null","","","","","","","","","","","","",""
"revaluation","100","647484","0.0-3.0-11.0-11.0-0.0","spark_pilot_norest","9159","3","15","Male","","false","","","","","[574.5]","./assets/img/space/animals/cat.jpg","[""ArrowRight""]","practice block","space","0","{""ArrowUp,ArrowLeft"":3,""ArrowUp,ArrowRight"":36,""ArrowDown,ArrowLeft"":15,""ArrowDown,ArrowRight"":23}","true","ArrowUp,ArrowRight","","","","","","",""
"html-keyboard-response","101","647986","0.0-3.0-11.0-11.0-1.0","spark_pilot_norest","9159","3","15","Male","","","","","","","null","<div style=""font-size:60px;"">+</div>","null","fixation","","","","","","","","","","","",""
"revaluation","102","648754","0.0-3.0-11.0-11.0-0.1","spark_pilot_norest","9159","3","15","Male","","false","","","","","[763.7000000476837]","./assets/img/space/animals/rabbit.jpg","[""ArrowRight""]","practice block","space","0","{""ArrowUp,ArrowLeft"":3,""ArrowUp,ArrowRight"":36,""ArrowDown,ArrowLeft"":15,""ArrowDown,ArrowRight"":23}","true","ArrowDown,ArrowRight","","","","","","",""
"html-keyboard-response","103","649255","0.0-3.0-11.0-11.0-1.1","spark_pilot_norest","9159","3","15","Male","","","","","","","null","<div style=""font-size:60px;"">+</div>","null","fixation","","","","","","","","","","","",""
"learning-instructions","104","655307","0.0-3.0-12.0-0.0","spark_pilot_norest","9159","3","15","Male","","","","","","","1468.3999998569489","<p> Before you start, we're going to ask you a few questions about how the game works. </p>","","instructions","","","","","","","","","","","",""
"comp-q","105","662154","0.0-3.0-13.0-0.0-0.0","spark_pilot_norest","9159","3","15","Male","","","","","","","1249.5","<p> <b> True or False? </b> </p>
            <p> There can be 50 pieces of treasure in a given animal's chest. </p>","1","comp_question","","","","true","","","","","","","",""
"comp-q","106","670871","0.0-3.0-13.0-0.0-1.0","spark_pilot_norest","9159","3","15","Male","","","","","","","2066.5","<p> <b> That's right! </b> The amount of treasure in each chest can range from 0 to 40 pieces. </p>","0","comp_answer","","","","","","","","","","","",""
"comp-q","107","678693","0.0-3.0-13.0-0.1-0.1","spark_pilot_norest","9159","3","15","Male","","","","","","","704.5999999046326","<p> <b> True or False? </b> </p><p> In this game, all animals have the same amount of treasure in their left and right chests. </p>","1","comp_question","","","","true","","","","","","","",""
"comp-q","108","685803","0.0-3.0-13.0-0.1-1.1","spark_pilot_norest","9159","3","15","Male","","","","","","","1825.2999999523163","<p> <b> That's right! </b> Animals have different amounts of treasure in their treasure chests. </p>","0","comp_answer","","","","","","","","","","","",""
"comp-q","109","692501","0.0-3.0-13.0-0.2-0.2","spark_pilot_norest","9159","3","15","Male","","","","","","","854.7000000476837","<p> <b> True or False? </b> </p><p> The same animal will always be there if you go up in the same place. </p>","0","comp_question","","","","true","","","","","","","",""
"comp-q","110","700847","0.0-3.0-13.0-0.2-1.2","spark_pilot_norest","9159","3","15","Male","","","","","","","1904.1999998092651","<p> <b> That's right! </b> One animal lives in the upper part and one lives in the lower part of every place. </p>","0","comp_answer","","","","","","","","","","","",""
"comp-q","111","707053","0.0-3.0-13.0-0.3-0.3","spark_pilot_norest","9159","3","15","Male","","","","","","","686.5999999046326","<p> <b> True or False? </b> </p><p> If you see a different picture, it means you are in a new place. </p>","1","comp_question","","","","true","","","","","","","",""
"comp-q","112","719025","0.0-3.0-13.0-0.3-1.3","spark_pilot_norest","9159","3","15","Male","","","","","","","744.2000000476837","<p> <b> That's right! </b> Lots of different images may show the same place. For example,  you may see three different images that all remind you that you are in outer space. </p>","0","comp_answer","","","","","","","","","","","",""
"learning-instructions","113","732593","0.0-3.0-14.0-0.0","spark_pilot_norest","9159","3","15","Male","","","","","","","3719.5","<p> Good job. Remember to do your best because the amount of treasure you earn will be converted into bonus money. </p>
            <p> It’s time to start the real game! </p>","","instructions","","","","","","","","","","","",""
"learning-instructions","114","1435285","0.0-4.0-0.0-0.0","spark_pilot_norest","9159","3","15","Male","","","","","","","699979.6999998093","<p> This time you are searching for treasure in the <b>ocean</b>.</p>","","instructions","","","","","","","","","","","",""
"learning-instructions","115","1669199","0.0-4.0-0.0-0.1","spark_pilot_norest","9159","3","15","Male","","","","","","","216508.40000009537","<p><b>New</b> animals with <b>new</b> treasure chests live here. You need to explore to discover where the animal with the best treasure chest is.</p>
                    <p> Like before, once you figure out which animal has the chest with the most treasure, you should try to get to that animal and select that chest! </p>","","instructions","","","","","","","","","","","",""
"learning-instructions","116","1695979","0.0-4.0-1.0-0.0","spark_pilot_norest","9159","3","15","Male","","","","","","","11939.200000047684","<p> Remember, when you see a picture of the place, use the up and down keys to <b>find an animal</b>.</p>
            <p> When you encounter an animal, you should use the left and right keys to <b>select a treasure chest</b>.</p>
            <p> Don't forget to look out for the robber! </p>","","instructions","","","","","","","","","","","",""
"revaluation","117","1701984","0.0-4.0-2.0-0.0","spark_pilot_norest","9159","3","15","Male","","false","","","","","[1360,387.2000000476837]","./assets/img/ocean/memory/11.jpg","[""ArrowUp"",""ArrowRight""]","value training","ocean","10","{""ArrowUp,ArrowLeft"":23,""ArrowUp,ArrowRight"":10,""ArrowDown,ArrowLeft"":8,""ArrowDown,ArrowRight"":30}","false","ArrowUp,ArrowRight","false","original","1","0","","",""
"html-keyboard-response","118","1702490","0.0-4.0-2.0-1.0","spark_pilot_norest","9159","3","15","Male","","","","","","","null","<div style=""font-size:60px;"">+</div>","null","fixation","","","","","","","","","1","","",""
"revaluation","119","1708495","0.0-4.0-2.0-0.1","spark_pilot_norest","9159","3","15","Male","","false","","","","","[561.7000000476837,270.69999980926514]","./assets/img/ocean/memory/21.jpg","[""ArrowUp"",""ArrowLeft""]","value training","ocean","23","{""ArrowUp,ArrowLeft"":23,""ArrowUp,ArrowRight"":10,""ArrowDown,ArrowLeft"":8,""ArrowDown,ArrowRight"":30}","false","ArrowUp,ArrowLeft","false","original","1","2","","",""
"html-keyboard-response","120","1708996","0.0-4.0-2.0-1.1","spark_pilot_norest","9159","3","15","Male","","","","","","","null","<div style=""font-size:60px;"">+</div>","null","fixation","","","","","","","","","3","","",""
"revaluation","121","1713001","0.0-4.0-2.0-0.2","spark_pilot_norest","9159","3","15","Male","","false","","","","","[219.20000004768372]","./assets/img/ocean/catch/7.jpg","[""ArrowDown""]","value training","ocean","-10","{""ArrowUp,ArrowLeft"":23,""ArrowUp,ArrowRight"":10,""ArrowDown,ArrowLeft"":8,""ArrowDown,ArrowRight"":30}","false","ArrowDown","true","original","1","4","","",""
"html-keyboard-response","122","1713502","0.0-4.0-2.0-1.2","spark_pilot_norest","9159","3","15","Male","","","","","","","null","<div style=""font-size:60px;"">+</div>","null","fixation","","","","","","","","","5","","",""
"revaluation","123","1719507","0.0-4.0-2.0-0.3","spark_pilot_norest","9159","3","15","Male","","false","","","","","[394.7999999523163,552.8999998569489]","./assets/img/ocean/memory/36.jpg","[""ArrowDown"",""ArrowRight""]","value training","ocean","30","{""ArrowUp,ArrowLeft"":23,""ArrowUp,ArrowRight"":10,""ArrowDown,ArrowLeft"":8,""ArrowDown,ArrowRight"":30}","true","ArrowDown,ArrowRight","false","original","1","6","","",""
"html-keyboard-response","124","1720009","0.0-4.0-2.0-1.3","spark_pilot_norest","9159","3","15","Male","","","","","","","null","<div style=""font-size:60px;"">+</div>","null","fixation","","","","","","","","","7","","",""
"revaluation","125","1726014","0.0-4.0-2.0-0.4","spark_pilot_norest","9159","3","15","Male","","false","","","","","[561.9000000953674,289.40000009536743]","./assets/img/ocean/memory/0.jpg","[""ArrowDown"",""ArrowLeft""]","value training","ocean","8","{""ArrowUp,ArrowLeft"":23,""ArrowUp,ArrowRight"":10,""ArrowDown,ArrowLeft"":8,""ArrowDown,ArrowRight"":30}","false","ArrowDown,ArrowLeft","false","original","1","8","","",""
"html-keyboard-response","126","1726516","0.0-4.0-2.0-1.4","spark_pilot_norest","9159","3","15","Male","","","","","","","null","<div style=""font-size:60px;"">+</div>","null","fixation","","","","","","","","","9","","",""
"revaluation","127","1732521","0.0-4.0-2.0-0.5","spark_pilot_norest","9159","3","15","Male","","false","","","","","[536,389.10000014305115]","./assets/img/ocean/memory/29.jpg","[""ArrowDown"",""ArrowRight""]","value training","ocean","30","{""ArrowUp,ArrowLeft"":23,""ArrowUp,ArrowRight"":10,""ArrowDown,ArrowLeft"":8,""ArrowDown,ArrowRight"":30}","true","ArrowDown,ArrowRight","false","original","1","10","","",""
"html-keyboard-response","128","1733023","0.0-4.0-2.0-1.5","spark_pilot_norest","9159","3","15","Male","","","","","","","null","<div style=""font-size:60px;"">+</div>","null","fixation","","","","","","","","","11","","",""
"revaluation","129","1739029","0.0-4.0-2.0-0.6","spark_pilot_norest","9159","3","15","Male","","false","","","","","[410,642.7999999523163]","./assets/img/ocean/memory/16.jpg","[""ArrowDown"",""ArrowRight""]","value training","ocean","30","{""ArrowUp,ArrowLeft"":23,""ArrowUp,ArrowRight"":10,""ArrowDown,ArrowLeft"":8,""ArrowDown,ArrowRight"":30}","true","ArrowDown,ArrowRight","false","original","1","12","","",""
"html-keyboard-response","130","1739530","0.0-4.0-2.0-1.6","spark_pilot_norest","9159","3","15","Male","","","","","","","null","<div style=""font-size:60px;"">+</div>","null","fixation","","","","","","","","","13","","",""
"revaluation","131","1745535","0.0-4.0-2.0-0.7","spark_pilot_norest","9159","3","15","Male","","false","","","","","[431,423.5]","./assets/img/ocean/memory/16.jpg","[""ArrowDown"",""ArrowRight""]","value training","ocean","30","{""ArrowUp,ArrowLeft"":23,""ArrowUp,ArrowRight"":10,""ArrowDown,ArrowLeft"":8,""ArrowDown,ArrowRight"":30}","true","ArrowDown,ArrowRight","false","original","1","14","","",""
"html-keyboard-response","132","1746037","0.0-4.0-2.0-1.7","spark_pilot_norest","9159","3","15","Male","","","","","","","null","<div style=""font-size:60px;"">+</div>","null","fixation","","","","","","","","","15","","",""
"revaluation","133","1750042","0.0-4.0-2.0-0.8","spark_pilot_norest","9159","3","15","Male","","false","","","","","[757]","./assets/img/ocean/catch/0.jpg","[""spaceBar""]","value training","ocean","0","{""ArrowUp,ArrowLeft"":23,""ArrowUp,ArrowRight"":10,""ArrowDown,ArrowLeft"":8,""ArrowDown,ArrowRight"":30}","true","spaceBar","true","original","1","16","","",""
"html-keyboard-response","134","1750544","0.0-4.0-2.0-1.8","spark_pilot_norest","9159","3","15","Male","","","","","","","null","<div style=""font-size:60px;"">+</div>","null","fixation","","","","","","","","","17","","",""
"revaluation","135","1756550","0.0-4.0-2.0-0.9","spark_pilot_norest","9159","3","15","Male","","false","","","","","[501.90000009536743,375.2999999523163]","./assets/img/ocean/memory/12.jpg","[""ArrowDown"",""ArrowRight""]","value training","ocean","30","{""ArrowUp,ArrowLeft"":23,""ArrowUp,ArrowRight"":10,""ArrowDown,ArrowLeft"":8,""ArrowDown,ArrowRight"":30}","true","ArrowDown,ArrowRight","false","original","1","18","","",""
"html-keyboard-response","136","1757051","0.0-4.0-2.0-1.9","spark_pilot_norest","9159","3","15","Male","","","","","","","null","<div style=""font-size:60px;"">+</div>","null","fixation","","","","","","","","","19","","",""
"revaluation","137","1763057","0.0-4.0-2.0-0.10","spark_pilot_norest","9159","3","15","Male","","false","","","","","[666.8999998569489,462.7000000476837]","./assets/img/ocean/memory/15.jpg","[""ArrowDown"",""ArrowRight""]","value training","ocean","30","{""ArrowUp,ArrowLeft"":23,""ArrowUp,ArrowRight"":10,""ArrowDown,ArrowLeft"":8,""ArrowDown,ArrowRight"":30}","true","ArrowDown,ArrowRight","false","original","1","20","","",""
"html-keyboard-response","138","1763558","0.0-4.0-2.0-1.10","spark_pilot_norest","9159","3","15","Male","","","","","","","null","<div style=""font-size:60px;"">+</div>","null","fixation","","","","","","","","","21","","",""
"revaluation","139","1769564","0.0-4.0-2.0-0.11","spark_pilot_norest","9159","3","15","Male","","false","","","","","[462.09999990463257,373.89999985694885]","./assets/img/ocean/memory/29.jpg","[""ArrowDown"",""ArrowRight""]","value training","ocean","30","{""ArrowUp,ArrowLeft"":23,""ArrowUp,ArrowRight"":10,""ArrowDown,ArrowLeft"":8,""ArrowDown,ArrowRight"":30}","true","ArrowDown,ArrowRight","false","original","1","22","","",""
"html-keyboard-response","140","1770065","0.0-4.0-2.0-1.11","spark_pilot_norest","9159","3","15","Male","","","","","","","null","<div style=""font-size:60px;"">+</div>","null","fixation","","","","","","","","","23","","",""
"revaluation","141","1776071","0.0-4.0-2.0-0.12","spark_pilot_norest","9159","3","15","Male","","false","","","","","[807.6999998092651,614.2000000476837]","./assets/img/ocean/memory/27.jpg","[""ArrowDown"",""ArrowRight""]","value training","ocean","30","{""ArrowUp,ArrowLeft"":23,""ArrowUp,ArrowRight"":10,""ArrowDown,ArrowLeft"":8,""ArrowDown,ArrowRight"":30}","true","ArrowDown,ArrowRight","false","original","1","24","","",""
"html-keyboard-response","142","1776572","0.0-4.0-2.0-1.12","spark_pilot_norest","9159","3","15","Male","","","","","","","null","<div style=""font-size:60px;"">+</div>","null","fixation","","","","","","","","","25","","",""
"revaluation","143","1782578","0.0-4.0-2.0-0.13","spark_pilot_norest","9159","3","15","Male","","false","","","","","[389.90000009536743,258.39999985694885]","./assets/img/ocean/memory/7.jpg","[""ArrowDown"",""ArrowRight""]","value training","ocean","30","{""ArrowUp,ArrowLeft"":23,""ArrowUp,ArrowRight"":10,""ArrowDown,ArrowLeft"":8,""ArrowDown,ArrowRight"":30}","true","ArrowDown,ArrowRight","false","original","1","26","","",""
"html-keyboard-response","144","1783080","0.0-4.0-2.0-1.13","spark_pilot_norest","9159","3","15","Male","","","","","","","null","<div style=""font-size:60px;"">+</div>","null","fixation","","","","","","","","","27","","",""
"revaluation","145","1787085","0.0-4.0-2.0-0.14","spark_pilot_norest","9159","3","15","Male","","false","","","","","[677.5]","./assets/img/ocean/catch/3.jpg","[""spaceBar""]","value training","ocean","0","{""ArrowUp,ArrowLeft"":23,""ArrowUp,ArrowRight"":10,""ArrowDown,ArrowLeft"":8,""ArrowDown,ArrowRight"":30}","true","spaceBar","true","original","1","28","","",""
"html-keyboard-response","146","1787586","0.0-4.0-2.0-1.14","spark_pilot_norest","9159","3","15","Male","","","","","","","null","<div style=""font-size:60px;"">+</div>","null","fixation","","","","","","","","","29","","",""
"revaluation","147","1791591","0.0-4.0-2.0-0.15","spark_pilot_norest","9159","3","15","Male","","false","","","","","[414.69999980926514]","./assets/img/ocean/catch/2.jpg","[""ArrowDown""]","value training","ocean","-10","{""ArrowUp,ArrowLeft"":23,""ArrowUp,ArrowRight"":10,""ArrowDown,ArrowLeft"":8,""ArrowDown,ArrowRight"":30}","false","ArrowDown","true","original","1","30","","",""
"html-keyboard-response","148","1792093","0.0-4.0-2.0-1.15","spark_pilot_norest","9159","3","15","Male","","","","","","","null","<div style=""font-size:60px;"">+</div>","null","fixation","","","","","","","","","31","","",""
"revaluation","149","1798099","0.0-4.0-2.0-0.16","spark_pilot_norest","9159","3","15","Male","","false","","","","","[386.7000000476837,273.60000014305115]","./assets/img/ocean/memory/27.jpg","[""ArrowDown"",""ArrowRight""]","value training","ocean","30","{""ArrowUp,ArrowLeft"":23,""ArrowUp,ArrowRight"":10,""ArrowDown,ArrowLeft"":8,""ArrowDown,ArrowRight"":30}","true","ArrowDown,ArrowRight","false","original","1","32","","",""
"html-keyboard-response","150","1798601","0.0-4.0-2.0-1.16","spark_pilot_norest","9159","3","15","Male","","","","","","","null","<div style=""font-size:60px;"">+</div>","null","fixation","","","","","","","","","33","","",""
"revaluation","151","1804607","0.0-4.0-2.0-0.17","spark_pilot_norest","9159","3","15","Male","","false","","","","","[390,412.7000000476837]","./assets/img/ocean/memory/23.jpg","[""ArrowDown"",""ArrowRight""]","value training","ocean","30","{""ArrowUp,ArrowLeft"":23,""ArrowUp,ArrowRight"":10,""ArrowDown,ArrowLeft"":8,""ArrowDown,ArrowRight"":30}","true","ArrowDown,ArrowRight","false","original","1","34","","",""
"html-keyboard-response","152","1805108","0.0-4.0-2.0-1.17","spark_pilot_norest","9159","3","15","Male","","","","","","","null","<div style=""font-size:60px;"">+</div>","null","fixation","","","","","","","","","35","","",""
"revaluation","153","1809113","0.0-4.0-2.0-0.18","spark_pilot_norest","9159","3","15","Male","","false","","","","","[768.7999999523163]","./assets/img/ocean/catch/6.jpg","[""spaceBar""]","value training","ocean","0","{""ArrowUp,ArrowLeft"":23,""ArrowUp,ArrowRight"":10,""ArrowDown,ArrowLeft"":8,""ArrowDown,ArrowRight"":30}","true","spaceBar","true","original","1","36","","",""
"html-keyboard-response","154","1809615","0.0-4.0-2.0-1.18","spark_pilot_norest","9159","3","15","Male","","","","","","","null","<div style=""font-size:60px;"">+</div>","null","fixation","","","","","","","","","37","","",""
"revaluation","155","1813619","0.0-4.0-2.0-0.19","spark_pilot_norest","9159","3","15","Male","","false","","","","","[655.2999999523163]","./assets/img/ocean/catch/4.jpg","[""spaceBar""]","value training","ocean","0","{""ArrowUp,ArrowLeft"":23,""ArrowUp,ArrowRight"":10,""ArrowDown,ArrowLeft"":8,""ArrowDown,ArrowRight"":30}","true","spaceBar","true","original","1","38","","",""
"html-keyboard-response","156","1814121","0.0-4.0-2.0-1.19","spark_pilot_norest","9159","3","15","Male","","","","","","","null","<div style=""font-size:60px;"">+</div>","null","fixation","","","","","","","","","39","","",""
"revaluation","157","1820125","0.0-4.0-2.0-0.20","spark_pilot_norest","9159","3","15","Male","","false","","","","","[928.8999998569489,640.1000001430511]","./assets/img/ocean/memory/32.jpg","[""ArrowDown"",""ArrowRight""]","value training","ocean","30","{""ArrowUp,ArrowLeft"":23,""ArrowUp,ArrowRight"":10,""ArrowDown,ArrowLeft"":8,""ArrowDown,ArrowRight"":30}","true","ArrowDown,ArrowRight","false","original","1","40","","",""
"html-keyboard-response","158","1820627","0.0-4.0-2.0-1.20","spark_pilot_norest","9159","3","15","Male","","","","","","","null","<div style=""font-size:60px;"">+</div>","null","fixation","","","","","","","","","41","","",""
"revaluation","159","1826632","0.0-4.0-2.0-0.21","spark_pilot_norest","9159","3","15","Male","","false","","","","","[649.2000000476837,297.09999990463257]","./assets/img/ocean/memory/0.jpg","[""ArrowDown"",""ArrowRight""]","value training","ocean","30","{""ArrowUp,ArrowLeft"":23,""ArrowUp,ArrowRight"":10,""ArrowDown,ArrowLeft"":8,""ArrowDown,ArrowRight"":30}","true","ArrowDown,ArrowRight","false","original","1","42","","",""
"html-keyboard-response","160","1827134","0.0-4.0-2.0-1.21","spark_pilot_norest","9159","3","15","Male","","","","","","","null","<div style=""font-size:60px;"">+</div>","null","fixation","","","","","","","","","43","","",""
"revaluation","161","1833139","0.0-4.0-2.0-0.22","spark_pilot_norest","9159","3","15","Male","","false","","","","","[492,421.2000000476837]","./assets/img/ocean/memory/36.jpg","[""ArrowDown"",""ArrowRight""]","value training","ocean","30","{""ArrowUp,ArrowLeft"":23,""ArrowUp,ArrowRight"":10,""ArrowDown,ArrowLeft"":8,""ArrowDown,ArrowRight"":30}","true","ArrowDown,ArrowRight","false","original","1","44","","",""
"html-keyboard-response","162","1833640","0.0-4.0-2.0-1.22","spark_pilot_norest","9159","3","15","Male","","","","","","","null","<div style=""font-size:60px;"">+</div>","null","fixation","","","","","","","","","45","","",""
"revaluation","163","1839646","0.0-4.0-2.0-0.23","spark_pilot_norest","9159","3","15","Male","","false","","","","","[421.09999990463257,314.2999999523163]","./assets/img/ocean/memory/39.jpg","[""ArrowDown"",""ArrowRight""]","value training","ocean","30","{""ArrowUp,ArrowLeft"":23,""ArrowUp,ArrowRight"":10,""ArrowDown,ArrowLeft"":8,""ArrowDown,ArrowRight"":30}","true","ArrowDown,ArrowRight","false","original","1","46","","",""
"html-keyboard-response","164","1840147","0.0-4.0-2.0-1.23","spark_pilot_norest","9159","3","15","Male","","","","","","","null","<div style=""font-size:60px;"">+</div>","null","fixation","","","","","","","","","47","","",""
"revaluation","165","1846153","0.0-4.0-2.0-0.24","spark_pilot_norest","9159","3","15","Male","","false","","","","","[569.7999999523163,309.7000000476837]","./assets/img/ocean/memory/39.jpg","[""ArrowDown"",""ArrowRight""]","value training","ocean","30","{""ArrowUp,ArrowLeft"":23,""ArrowUp,ArrowRight"":10,""ArrowDown,ArrowLeft"":8,""ArrowDown,ArrowRight"":30}","true","ArrowDown,ArrowRight","false","original","1","48","","",""
"html-keyboard-response","166","1846655","0.0-4.0-2.0-1.24","spark_pilot_norest","9159","3","15","Male","","","","","","","null","<div style=""font-size:60px;"">+</div>","null","fixation","","","","","","","","","49","","",""
"revaluation","167","1852660","0.0-4.0-2.0-0.25","spark_pilot_norest","9159","3","15","Male","","false","","","","","[462,332.7999999523163]","./assets/img/ocean/memory/18.jpg","[""ArrowDown"",""ArrowRight""]","value training","ocean","30","{""ArrowUp,ArrowLeft"":23,""ArrowUp,ArrowRight"":10,""ArrowDown,ArrowLeft"":8,""ArrowDown,ArrowRight"":30}","true","ArrowDown,ArrowRight","false","original","1","50","","",""
"html-keyboard-response","168","1853162","0.0-4.0-2.0-1.25","spark_pilot_norest","9159","3","15","Male","","","","","","","null","<div style=""font-size:60px;"">+</div>","null","fixation","","","","","","","","","51","","",""
"revaluation","169","1859167","0.0-4.0-2.0-0.26","spark_pilot_norest","9159","3","15","Male","","false","","","","","[376.59999990463257,337.5]","./assets/img/ocean/memory/11.jpg","[""ArrowDown"",""ArrowRight""]","value training","ocean","30","{""ArrowUp,ArrowLeft"":23,""ArrowUp,ArrowRight"":10,""ArrowDown,ArrowLeft"":8,""ArrowDown,ArrowRight"":30}","true","ArrowDown,ArrowRight","false","original","1","52","","",""
"html-keyboard-response","170","1859668","0.0-4.0-2.0-1.26","spark_pilot_norest","9159","3","15","Male","","","","","","","null","<div style=""font-size:60px;"">+</div>","null","fixation","","","","","","","","","53","","",""
"revaluation","171","1865674","0.0-4.0-2.0-0.27","spark_pilot_norest","9159","3","15","Male","","false","","","","","[416.2999999523163,307.89999985694885]","./assets/img/ocean/memory/4.jpg","[""ArrowDown"",""ArrowRight""]","value training","ocean","30","{""ArrowUp,ArrowLeft"":23,""ArrowUp,ArrowRight"":10,""ArrowDown,ArrowLeft"":8,""ArrowDown,ArrowRight"":30}","true","ArrowDown,ArrowRight","false","original","1","54","","",""
"html-keyboard-response","172","1866175","0.0-4.0-2.0-1.27","spark_pilot_norest","9159","3","15","Male","","","","","","","null","<div style=""font-size:60px;"">+</div>","null","fixation","","","","","","","","","55","","",""
"revaluation","173","1872180","0.0-4.0-2.0-0.28","spark_pilot_norest","9159","3","15","Male","","false","","","","","[1011.7000000476837,214.70000004768372]","./assets/img/ocean/memory/20.jpg","[""ArrowDown"",""ArrowRight""]","value training","ocean","30","{""ArrowUp,ArrowLeft"":23,""ArrowUp,ArrowRight"":10,""ArrowDown,ArrowLeft"":8,""ArrowDown,ArrowRight"":30}","true","ArrowDown,ArrowRight","false","original","1","56","","",""
"html-keyboard-response","174","1872682","0.0-4.0-2.0-1.28","spark_pilot_norest","9159","3","15","Male","","","","","","","null","<div style=""font-size:60px;"">+</div>","null","fixation","","","","","","","","","57","","",""
"revaluation","175","1878688","0.0-4.0-2.0-0.29","spark_pilot_norest","9159","3","15","Male","","false","","","","","[462.59999990463257,399.59999990463257]","./assets/img/ocean/memory/7.jpg","[""ArrowDown"",""ArrowRight""]","value training","ocean","30","{""ArrowUp,ArrowLeft"":23,""ArrowUp,ArrowRight"":10,""ArrowDown,ArrowLeft"":8,""ArrowDown,ArrowRight"":30}","true","ArrowDown,ArrowRight","false","original","1","58","","",""
"html-keyboard-response","176","1879189","0.0-4.0-2.0-1.29","spark_pilot_norest","9159","3","15","Male","","","","","","","null","<div style=""font-size:60px;"">+</div>","null","fixation","","","","","","","","","59","","",""
"revaluation","177","1885193","0.0-4.0-2.0-0.30","spark_pilot_norest","9159","3","15","Male","","false","","","","","[502.59999990463257,66.79999995231628]","./assets/img/ocean/memory/31.jpg","[""ArrowDown"",""ArrowRight""]","value training","ocean","30","{""ArrowUp,ArrowLeft"":23,""ArrowUp,ArrowRight"":10,""ArrowDown,ArrowLeft"":8,""ArrowDown,ArrowRight"":30}","true","ArrowDown,ArrowRight","false","original","1","60","","",""
"html-keyboard-response","178","1885695","0.0-4.0-2.0-1.30","spark_pilot_norest","9159","3","15","Male","","","","","","","null","<div style=""font-size:60px;"">+</div>","null","fixation","","","","","","","","","61","","",""
"revaluation","179","1891700","0.0-4.0-2.0-0.31","spark_pilot_norest","9159","3","15","Male","","false","","","","","[402.09999990463257,291.2000000476837]","./assets/img/ocean/memory/4.jpg","[""ArrowDown"",""ArrowRight""]","value training","ocean","30","{""ArrowUp,ArrowLeft"":23,""ArrowUp,ArrowRight"":10,""ArrowDown,ArrowLeft"":8,""ArrowDown,ArrowRight"":30}","true","ArrowDown,ArrowRight","false","original","1","62","","",""
"html-keyboard-response","180","1892202","0.0-4.0-2.0-1.31","spark_pilot_norest","9159","3","15","Male","","","","","","","null","<div style=""font-size:60px;"">+</div>","null","fixation","","","","","","","","","63","","",""
"revaluation","181","1898207","0.0-4.0-2.0-0.32","spark_pilot_norest","9159","3","15","Male","","false","","","","","[462.10000014305115,366.59999990463257]","./assets/img/ocean/memory/31.jpg","[""ArrowDown"",""ArrowRight""]","value training","ocean","30","{""ArrowUp,ArrowLeft"":23,""ArrowUp,ArrowRight"":10,""ArrowDown,ArrowLeft"":8,""ArrowDown,ArrowRight"":30}","true","ArrowDown,ArrowRight","false","original","1","64","","",""
"html-keyboard-response","182","1898709","0.0-4.0-2.0-1.32","spark_pilot_norest","9159","3","15","Male","","","","","","","null","<div style=""font-size:60px;"">+</div>","null","fixation","","","","","","","","","65","","",""
"revaluation","183","1904714","0.0-4.0-2.0-0.33","spark_pilot_norest","9159","3","15","Male","","false","","","","","[686.2999999523163,596.7999999523163]","./assets/img/ocean/memory/20.jpg","[""ArrowDown"",""ArrowRight""]","value training","ocean","30","{""ArrowUp,ArrowLeft"":23,""ArrowUp,ArrowRight"":10,""ArrowDown,ArrowLeft"":8,""ArrowDown,ArrowRight"":30}","true","ArrowDown,ArrowRight","false","original","1","66","","",""
"html-keyboard-response","184","1905215","0.0-4.0-2.0-1.33","spark_pilot_norest","9159","3","15","Male","","","","","","","null","<div style=""font-size:60px;"">+</div>","null","fixation","","","","","","","","","67","","",""
"revaluation","185","1911221","0.0-4.0-2.0-0.34","spark_pilot_norest","9159","3","15","Male","","false","","","","","[492.89999985694885,325.2000000476837]","./assets/img/ocean/memory/18.jpg","[""ArrowDown"",""ArrowRight""]","value training","ocean","30","{""ArrowUp,ArrowLeft"":23,""ArrowUp,ArrowRight"":10,""ArrowDown,ArrowLeft"":8,""ArrowDown,ArrowRight"":30}","true","ArrowDown,ArrowRight","false","original","1","68","","",""
"html-keyboard-response","186","1911722","0.0-4.0-2.0-1.34","spark_pilot_norest","9159","3","15","Male","","","","","","","null","<div style=""font-size:60px;"">+</div>","null","fixation","","","","","","","","","69","","",""
"revaluation","187","1917727","0.0-4.0-2.0-0.35","spark_pilot_norest","9159","3","15","Male","","false","","","","","[418.90000009536743,228]","./assets/img/ocean/memory/3.jpg","[""ArrowDown"",""ArrowRight""]","value training","ocean","30","{""ArrowUp,ArrowLeft"":23,""ArrowUp,ArrowRight"":10,""ArrowDown,ArrowLeft"":8,""ArrowDown,ArrowRight"":30}","true","ArrowDown,ArrowRight","false","original","1","70","","",""
"html-keyboard-response","188","1918228","0.0-4.0-2.0-1.35","spark_pilot_norest","9159","3","15","Male","","","","","","","null","<div style=""font-size:60px;"">+</div>","null","fixation","","","","","","","","","71","","",""
"revaluation","189","1922233","0.0-4.0-2.0-0.36","spark_pilot_norest","9159","3","15","Male","","false","","","","","[516.6999998092651]","./assets/img/ocean/catch/5.jpg","[""ArrowDown""]","value training","ocean","-10","{""ArrowUp,ArrowLeft"":23,""ArrowUp,ArrowRight"":10,""ArrowDown,ArrowLeft"":8,""ArrowDown,ArrowRight"":30}","false","ArrowDown","true","original","1","72","","",""
"html-keyboard-response","190","1922734","0.0-4.0-2.0-1.36","spark_pilot_norest","9159","3","15","Male","","","","","","","null","<div style=""font-size:60px;"">+</div>","null","fixation","","","","","","","","","73","","",""
"revaluation","191","1928738","0.0-4.0-2.0-0.37","spark_pilot_norest","9159","3","15","Male","","false","","","","","[1105.5,668.7000000476837]","./assets/img/ocean/memory/19.jpg","[""ArrowDown"",""ArrowRight""]","value training","ocean","30","{""ArrowUp,ArrowLeft"":23,""ArrowUp,ArrowRight"":10,""ArrowDown,ArrowLeft"":8,""ArrowDown,ArrowRight"":30}","true","ArrowDown,ArrowRight","false","original","1","74","","",""
"html-keyboard-response","192","1929240","0.0-4.0-2.0-1.37","spark_pilot_norest","9159","3","15","Male","","","","","","","null","<div style=""font-size:60px;"">+</div>","null","fixation","","","","","","","","","75","","",""
"revaluation","193","1935245","0.0-4.0-2.0-0.38","spark_pilot_norest","9159","3","15","Male","","false","","","","","[474,396.5]","./assets/img/ocean/memory/1.jpg","[""ArrowDown"",""ArrowRight""]","value training","ocean","30","{""ArrowUp,ArrowLeft"":23,""ArrowUp,ArrowRight"":10,""ArrowDown,ArrowLeft"":8,""ArrowDown,ArrowRight"":30}","true","ArrowDown,ArrowRight","false","original","1","76","","",""
"html-keyboard-response","194","1935747","0.0-4.0-2.0-1.38","spark_pilot_norest","9159","3","15","Male","","","","","","","null","<div style=""font-size:60px;"">+</div>","null","fixation","","","","","","","","","77","","",""
"revaluation","195","1941753","0.0-4.0-2.0-0.39","spark_pilot_norest","9159","3","15","Male","","false","","","","","[642.2999999523163,353.40000009536743]","./assets/img/ocean/memory/32.jpg","[""ArrowDown"",""ArrowRight""]","value training","ocean","30","{""ArrowUp,ArrowLeft"":23,""ArrowUp,ArrowRight"":10,""ArrowDown,ArrowLeft"":8,""ArrowDown,ArrowRight"":30}","true","ArrowDown,ArrowRight","false","original","1","78","","",""
"html-keyboard-response","196","1942254","0.0-4.0-2.0-1.39","spark_pilot_norest","9159","3","15","Male","","","","","","","null","<div style=""font-size:60px;"">+</div>","null","fixation","","","","","","","","","79","","",""
"revaluation","197","1946258","0.0-4.0-2.0-0.40","spark_pilot_norest","9159","3","15","Male","","false","","","","","[873.8999998569489]","./assets/img/ocean/catch/1.jpg","[""spaceBar""]","value training","ocean","0","{""ArrowUp,ArrowLeft"":23,""ArrowUp,ArrowRight"":10,""ArrowDown,ArrowLeft"":8,""ArrowDown,ArrowRight"":30}","true","spaceBar","true","original","1","80","","",""
"html-keyboard-response","198","1946760","0.0-4.0-2.0-1.40","spark_pilot_norest","9159","3","15","Male","","","","","","","null","<div style=""font-size:60px;"">+</div>","null","fixation","","","","","","","","","81","","",""
"revaluation","199","1952766","0.0-4.0-2.0-0.41","spark_pilot_norest","9159","3","15","Male","","false","","","","","[760.7000000476837,959]","./assets/img/ocean/memory/1.jpg","[""ArrowDown"",""ArrowRight""]","value training","ocean","30","{""ArrowUp,ArrowLeft"":23,""ArrowUp,ArrowRight"":10,""ArrowDown,ArrowLeft"":8,""ArrowDown,ArrowRight"":30}","true","ArrowDown,ArrowRight","false","original","1","82","","",""
"html-keyboard-response","200","1953267","0.0-4.0-2.0-1.41","spark_pilot_norest","9159","3","15","Male","","","","","","","null","<div style=""font-size:60px;"">+</div>","null","fixation","","","","","","","","","83","","",""
"revaluation","201","1959272","0.0-4.0-2.0-0.42","spark_pilot_norest","9159","3","15","Male","","false","","","","","[752.3999998569489,398.19999980926514]","./assets/img/ocean/memory/8.jpg","[""ArrowDown"",""ArrowRight""]","value training","ocean","30","{""ArrowUp,ArrowLeft"":23,""ArrowUp,ArrowRight"":10,""ArrowDown,ArrowLeft"":8,""ArrowDown,ArrowRight"":30}","true","ArrowDown,ArrowRight","false","original","1","84","","",""
"html-keyboard-response","202","1959774","0.0-4.0-2.0-1.42","spark_pilot_norest","9159","3","15","Male","","","","","","","null","<div style=""font-size:60px;"">+</div>","null","fixation","","","","","","","","","85","","",""
"revaluation","203","1965779","0.0-4.0-2.0-0.43","spark_pilot_norest","9159","3","15","Male","","false","","","","","[453.40000009536743,311.2999999523163]","./assets/img/ocean/memory/21.jpg","[""ArrowDown"",""ArrowRight""]","value training","ocean","30","{""ArrowUp,ArrowLeft"":23,""ArrowUp,ArrowRight"":10,""ArrowDown,ArrowLeft"":8,""ArrowDown,ArrowRight"":30}","true","ArrowDown,ArrowRight","false","original","1","86","","",""
"html-keyboard-response","204","1966280","0.0-4.0-2.0-1.43","spark_pilot_norest","9159","3","15","Male","","","","","","","null","<div style=""font-size:60px;"">+</div>","null","fixation","","","","","","","","","87","","",""
"revaluation","205","1972285","0.0-4.0-2.0-0.44","spark_pilot_norest","9159","3","15","Male","","false","","","","","[436.89999985694885,368.60000014305115]","./assets/img/ocean/memory/23.jpg","[""ArrowDown"",""ArrowRight""]","value training","ocean","30","{""ArrowUp,ArrowLeft"":23,""ArrowUp,ArrowRight"":10,""ArrowDown,ArrowLeft"":8,""ArrowDown,ArrowRight"":30}","true","ArrowDown,ArrowRight","false","original","1","88","","",""
"html-keyboard-response","206","1972787","0.0-4.0-2.0-1.44","spark_pilot_norest","9159","3","15","Male","","","","","","","null","<div style=""font-size:60px;"">+</div>","null","fixation","","","","","","","","","89","","",""
"revaluation","207","1978793","0.0-4.0-2.0-0.45","spark_pilot_norest","9159","3","15","Male","","false","","","","","[472.2000000476837,175]","./assets/img/ocean/memory/8.jpg","[""ArrowDown"",""ArrowRight""]","value training","ocean","30","{""ArrowUp,ArrowLeft"":23,""ArrowUp,ArrowRight"":10,""ArrowDown,ArrowLeft"":8,""ArrowDown,ArrowRight"":30}","true","ArrowDown,ArrowRight","false","original","1","90","","",""
"html-keyboard-response","208","1979294","0.0-4.0-2.0-1.45","spark_pilot_norest","9159","3","15","Male","","","","","","","null","<div style=""font-size:60px;"">+</div>","null","fixation","","","","","","","","","91","","",""
"revaluation","209","1985299","0.0-4.0-2.0-0.46","spark_pilot_norest","9159","3","15","Male","","false","","","","","[813.5999999046326,275.5]","./assets/img/ocean/memory/15.jpg","[""ArrowDown"",""ArrowRight""]","value training","ocean","30","{""ArrowUp,ArrowLeft"":23,""ArrowUp,ArrowRight"":10,""ArrowDown,ArrowLeft"":8,""ArrowDown,ArrowRight"":30}","true","ArrowDown,ArrowRight","false","original","1","92","","",""
"html-keyboard-response","210","1985801","0.0-4.0-2.0-1.46","spark_pilot_norest","9159","3","15","Male","","","","","","","null","<div style=""font-size:60px;"">+</div>","null","fixation","","","","","","","","","93","","",""
"revaluation","211","1991807","0.0-4.0-2.0-0.47","spark_pilot_norest","9159","3","15","Male","","false","","","","","[725.2000000476837,448]","./assets/img/ocean/memory/12.jpg","[""ArrowUp"",""ArrowLeft""]","value training","ocean","23","{""ArrowUp,ArrowLeft"":23,""ArrowUp,ArrowRight"":10,""ArrowDown,ArrowLeft"":8,""ArrowDown,ArrowRight"":30}","false","ArrowUp,ArrowLeft","false","original","1","94","","",""
"html-keyboard-response","212","1992309","0.0-4.0-2.0-1.47","spark_pilot_norest","9159","3","15","Male","","","","","","","null","<div style=""font-size:60px;"">+</div>","null","fixation","","","","","","","","","95","","",""
"revaluation","213","1998314","0.0-4.0-2.0-0.48","spark_pilot_norest","9159","3","15","Male","","false","","","","","[681.1000001430511,297.90000009536743]","./assets/img/ocean/memory/3.jpg","[""ArrowUp"",""ArrowRight""]","value training","ocean","10","{""ArrowUp,ArrowLeft"":23,""ArrowUp,ArrowRight"":10,""ArrowDown,ArrowLeft"":8,""ArrowDown,ArrowRight"":30}","false","ArrowUp,ArrowRight","false","original","1","96","","",""
"html-keyboard-response","214","1998815","0.0-4.0-2.0-1.48","spark_pilot_norest","9159","3","15","Male","","","","","","","null","<div style=""font-size:60px;"">+</div>","null","fixation","","","","","","","","","97","","",""
"revaluation","215","2004821","0.0-4.0-2.0-0.49","spark_pilot_norest","9159","3","15","Male","","false","","","","","[523.6000001430511,265.59999990463257]","./assets/img/ocean/memory/19.jpg","[""ArrowUp"",""ArrowRight""]","value training","ocean","10","{""ArrowUp,ArrowLeft"":23,""ArrowUp,ArrowRight"":10,""ArrowDown,ArrowLeft"":8,""ArrowDown,ArrowRight"":30}","false","ArrowUp,ArrowRight","false","original","1","98","","",""
"html-keyboard-response","216","2005323","0.0-4.0-2.0-1.49","spark_pilot_norest","9159","3","15","Male","","","","","","","null","<div style=""font-size:60px;"">+</div>","null","fixation","","","","","","","","","99","","",""
"learning-instructions","217","2019045","0.0-4.0-3.0-0.0","spark_pilot_norest","9159","3","15","Male","","","","","","","722.5","<p> Now, you will travel with a friend who will choose whether you go up or down first. </p>
            <p> On these turns, you will just see the animal that they found. You will still get to choose which chest to search for treasure.</p>","","instructions","","","","","","","","","","","",""
"revaluation","218","2023049","0.0-4.0-4.0-0.0","spark_pilot_norest","9159","3","15","Male","","false","","","","","[1018.8999998569489]","./assets/img/ocean/animals/seahorse.jpg","[""ArrowRight""]","revaluation","ocean","30","{""ArrowUp,ArrowLeft"":23,""ArrowUp,ArrowRight"":10,""ArrowDown,ArrowLeft"":8,""ArrowDown,ArrowRight"":30}","true","ArrowDown,ArrowRight","","original","1","0","","",""
"html-keyboard-response","219","2023554","0.0-4.0-4.0-1.0","spark_pilot_norest","9159","3","15","Male","","","","","","","null","<div style=""font-size:60px;"">+</div>","null","fixation","","","","","","","","","1","","",""
"revaluation","220","2027559","0.0-4.0-4.0-0.1","spark_pilot_norest","9159","3","15","Male","","false","","","","","[382.59999990463257]","./assets/img/ocean/animals/octopus.jpg","[""ArrowLeft""]","revaluation","ocean","23","{""ArrowUp,ArrowLeft"":23,""ArrowUp,ArrowRight"":10,""ArrowDown,ArrowLeft"":8,""ArrowDown,ArrowRight"":30}","true","ArrowUp,ArrowLeft","","original","1","2","","",""
"html-keyboard-response","221","2028060","0.0-4.0-4.0-1.1","spark_pilot_norest","9159","3","15","Male","","","","","","","null","<div style=""font-size:60px;"">+</div>","null","fixation","","","","","","","","","3","","",""
"revaluation","222","2032064","0.0-4.0-4.0-0.2","spark_pilot_norest","9159","3","15","Male","","false","","","","","[479.60000014305115]","./assets/img/ocean/animals/seahorse.jpg","[""ArrowRight""]","revaluation","ocean","30","{""ArrowUp,ArrowLeft"":23,""ArrowUp,ArrowRight"":10,""ArrowDown,ArrowLeft"":8,""ArrowDown,ArrowRight"":30}","true","ArrowDown,ArrowRight","","original","1","4","","",""
"html-keyboard-response","223","2032566","0.0-4.0-4.0-1.2","spark_pilot_norest","9159","3","15","Male","","","","","","","null","<div style=""font-size:60px;"">+</div>","null","fixation","","","","","","","","","5","","",""
"revaluation","224","2036571","0.0-4.0-4.0-0.3","spark_pilot_norest","9159","3","15","Male","","false","","","","","[348.10000014305115]","./assets/img/ocean/animals/seahorse.jpg","[""ArrowRight""]","revaluation","ocean","30","{""ArrowUp,ArrowLeft"":23,""ArrowUp,ArrowRight"":10,""ArrowDown,ArrowLeft"":8,""ArrowDown,ArrowRight"":30}","true","ArrowDown,ArrowRight","","original","1","6","","",""
"html-keyboard-response","225","2037072","0.0-4.0-4.0-1.3","spark_pilot_norest","9159","3","15","Male","","","","","","","null","<div style=""font-size:60px;"">+</div>","null","fixation","","","","","","","","","7","","",""
"revaluation","226","2041077","0.0-4.0-4.0-0.4","spark_pilot_norest","9159","3","15","Male","","false","","","","","[630.7000000476837]","./assets/img/ocean/animals/octopus.jpg","[""ArrowLeft""]","revaluation","ocean","23","{""ArrowUp,ArrowLeft"":23,""ArrowUp,ArrowRight"":10,""ArrowDown,ArrowLeft"":8,""ArrowDown,ArrowRight"":30}","true","ArrowUp,ArrowLeft","","original","1","8","","",""
"html-keyboard-response","227","2041579","0.0-4.0-4.0-1.4","spark_pilot_norest","9159","3","15","Male","","","","","","","null","<div style=""font-size:60px;"">+</div>","null","fixation","","","","","","","","","9","","",""
"revaluation","228","2045583","0.0-4.0-4.0-0.5","spark_pilot_norest","9159","3","15","Male","","false","","","","","[370.5]","./assets/img/ocean/animals/seahorse.jpg","[""ArrowRight""]","revaluation","ocean","30","{""ArrowUp,ArrowLeft"":23,""ArrowUp,ArrowRight"":10,""ArrowDown,ArrowLeft"":8,""ArrowDown,ArrowRight"":30}","true","ArrowDown,ArrowRight","","original","1","10","","",""
"html-keyboard-response","229","2046084","0.0-4.0-4.0-1.5","spark_pilot_norest","9159","3","15","Male","","","","","","","null","<div style=""font-size:60px;"">+</div>","null","fixation","","","","","","","","","11","","",""
"revaluation","230","2050088","0.0-4.0-4.0-0.6","spark_pilot_norest","9159","3","15","Male","","false","","","","","[419.2999999523163]","./assets/img/ocean/animals/seahorse.jpg","[""ArrowRight""]","revaluation","ocean","30","{""ArrowUp,ArrowLeft"":23,""ArrowUp,ArrowRight"":10,""ArrowDown,ArrowLeft"":8,""ArrowDown,ArrowRight"":30}","true","ArrowDown,ArrowRight","","original","1","12","","",""
"html-keyboard-response","231","2050590","0.0-4.0-4.0-1.6","spark_pilot_norest","9159","3","15","Male","","","","","","","null","<div style=""font-size:60px;"">+</div>","null","fixation","","","","","","","","","13","","",""
"revaluation","232","2054596","0.0-4.0-4.0-0.7","spark_pilot_norest","9159","3","15","Male","","false","","","","","[587.5]","./assets/img/ocean/animals/octopus.jpg","[""ArrowLeft""]","revaluation","ocean","23","{""ArrowUp,ArrowLeft"":23,""ArrowUp,ArrowRight"":10,""ArrowDown,ArrowLeft"":8,""ArrowDown,ArrowRight"":30}","true","ArrowUp,ArrowLeft","","original","1","14","","",""
"html-keyboard-response","233","2055098","0.0-4.0-4.0-1.7","spark_pilot_norest","9159","3","15","Male","","","","","","","null","<div style=""font-size:60px;"">+</div>","null","fixation","","","","","","","","","15","","",""
"revaluation","234","2059102","0.0-4.0-4.0-0.8","spark_pilot_norest","9159","3","15","Male","","false","","","","","[419.7000000476837]","./assets/img/ocean/animals/seahorse.jpg","[""ArrowRight""]","revaluation","ocean","30","{""ArrowUp,ArrowLeft"":23,""ArrowUp,ArrowRight"":10,""ArrowDown,ArrowLeft"":8,""ArrowDown,ArrowRight"":30}","true","ArrowDown,ArrowRight","","original","1","16","","",""
"html-keyboard-response","235","2059604","0.0-4.0-4.0-1.8","spark_pilot_norest","9159","3","15","Male","","","","","","","null","<div style=""font-size:60px;"">+</div>","null","fixation","","","","","","","","","17","","",""
"revaluation","236","2063609","0.0-4.0-4.0-0.9","spark_pilot_norest","9159","3","15","Male","","false","","","","","[418.2999999523163]","./assets/img/ocean/animals/octopus.jpg","[""ArrowLeft""]","revaluation","ocean","23","{""ArrowUp,ArrowLeft"":23,""ArrowUp,ArrowRight"":10,""ArrowDown,ArrowLeft"":8,""ArrowDown,ArrowRight"":30}","true","ArrowUp,ArrowLeft","","original","1","18","","",""
"html-keyboard-response","237","2064110","0.0-4.0-4.0-1.9","spark_pilot_norest","9159","3","15","Male","","","","","","","null","<div style=""font-size:60px;"">+</div>","null","fixation","","","","","","","","","19","","",""
"revaluation","238","2068115","0.0-4.0-4.0-0.10","spark_pilot_norest","9159","3","15","Male","","false","","","","","[656.9000000953674]","./assets/img/ocean/animals/octopus.jpg","[""ArrowLeft""]","revaluation","ocean","23","{""ArrowUp,ArrowLeft"":23,""ArrowUp,ArrowRight"":10,""ArrowDown,ArrowLeft"":8,""ArrowDown,ArrowRight"":30}","true","ArrowUp,ArrowLeft","","original","1","20","","",""
"html-keyboard-response","239","2068617","0.0-4.0-4.0-1.10","spark_pilot_norest","9159","3","15","Male","","","","","","","null","<div style=""font-size:60px;"">+</div>","null","fixation","","","","","","","","","21","","",""
"revaluation","240","2072621","0.0-4.0-4.0-0.11","spark_pilot_norest","9159","3","15","Male","","false","","","","","[478.40000009536743]","./assets/img/ocean/animals/octopus.jpg","[""ArrowLeft""]","revaluation","ocean","23","{""ArrowUp,ArrowLeft"":23,""ArrowUp,ArrowRight"":10,""ArrowDown,ArrowLeft"":8,""ArrowDown,ArrowRight"":30}","true","ArrowUp,ArrowLeft","","original","1","22","","",""
"html-keyboard-response","241","2073122","0.0-4.0-4.0-1.11","spark_pilot_norest","9159","3","15","Male","","","","","","","null","<div style=""font-size:60px;"">+</div>","null","fixation","","","","","","","","","23","","",""
"revaluation","242","2077125","0.0-4.0-4.0-0.12","spark_pilot_norest","9159","3","15","Male","","false","","","","","[516.4000000953674]","./assets/img/ocean/animals/octopus.jpg","[""ArrowLeft""]","revaluation","ocean","23","{""ArrowUp,ArrowLeft"":23,""ArrowUp,ArrowRight"":10,""ArrowDown,ArrowLeft"":8,""ArrowDown,ArrowRight"":30}","true","ArrowUp,ArrowLeft","","original","1","24","","",""
"html-keyboard-response","243","2077627","0.0-4.0-4.0-1.12","spark_pilot_norest","9159","3","15","Male","","","","","","","null","<div style=""font-size:60px;"">+</div>","null","fixation","","","","","","","","","25","","",""
"revaluation","244","2081632","0.0-4.0-4.0-0.13","spark_pilot_norest","9159","3","15","Male","","false","","","","","[452.2000000476837]","./assets/img/ocean/animals/seahorse.jpg","[""ArrowRight""]","revaluation","ocean","30","{""ArrowUp,ArrowLeft"":23,""ArrowUp,ArrowRight"":10,""ArrowDown,ArrowLeft"":8,""ArrowDown,ArrowRight"":30}","true","ArrowDown,ArrowRight","","original","1","26","","",""
"html-keyboard-response","245","2082134","0.0-4.0-4.0-1.13","spark_pilot_norest","9159","3","15","Male","","","","","","","null","<div style=""font-size:60px;"">+</div>","null","fixation","","","","","","","","","27","","",""
"revaluation","246","2086139","0.0-4.0-4.0-0.14","spark_pilot_norest","9159","3","15","Male","","false","","","","","[577.0999999046326]","./assets/img/ocean/animals/seahorse.jpg","[""ArrowRight""]","revaluation","ocean","30","{""ArrowUp,ArrowLeft"":23,""ArrowUp,ArrowRight"":10,""ArrowDown,ArrowLeft"":8,""ArrowDown,ArrowRight"":30}","true","ArrowDown,ArrowRight","","original","1","28","","",""
"html-keyboard-response","247","2086640","0.0-4.0-4.0-1.14","spark_pilot_norest","9159","3","15","Male","","","","","","","null","<div style=""font-size:60px;"">+</div>","null","fixation","","","","","","","","","29","","",""
"revaluation","248","2090645","0.0-4.0-4.0-0.15","spark_pilot_norest","9159","3","15","Male","","false","","","","","[514.5]","./assets/img/ocean/animals/octopus.jpg","[""ArrowLeft""]","revaluation","ocean","23","{""ArrowUp,ArrowLeft"":23,""ArrowUp,ArrowRight"":10,""ArrowDown,ArrowLeft"":8,""ArrowDown,ArrowRight"":30}","true","ArrowUp,ArrowLeft","","original","1","30","","",""
"html-keyboard-response","249","2091147","0.0-4.0-4.0-1.15","spark_pilot_norest","9159","3","15","Male","","","","","","","null","<div style=""font-size:60px;"">+</div>","null","fixation","","","","","","","","","31","","",""
"revaluation","250","2095152","0.0-4.0-4.0-0.16","spark_pilot_norest","9159","3","15","Male","","false","","","","","[424.60000014305115]","./assets/img/ocean/animals/octopus.jpg","[""ArrowLeft""]","revaluation","ocean","23","{""ArrowUp,ArrowLeft"":23,""ArrowUp,ArrowRight"":10,""ArrowDown,ArrowLeft"":8,""ArrowDown,ArrowRight"":30}","true","ArrowUp,ArrowLeft","","original","1","32","","",""
"html-keyboard-response","251","2095653","0.0-4.0-4.0-1.16","spark_pilot_norest","9159","3","15","Male","","","","","","","null","<div style=""font-size:60px;"">+</div>","null","fixation","","","","","","","","","33","","",""
"revaluation","252","2099659","0.0-4.0-4.0-0.17","spark_pilot_norest","9159","3","15","Male","","false","","","","","[550.7999999523163]","./assets/img/ocean/animals/seahorse.jpg","[""ArrowRight""]","revaluation","ocean","30","{""ArrowUp,ArrowLeft"":23,""ArrowUp,ArrowRight"":10,""ArrowDown,ArrowLeft"":8,""ArrowDown,ArrowRight"":30}","true","ArrowDown,ArrowRight","","original","1","34","","",""
"html-keyboard-response","253","2100161","0.0-4.0-4.0-1.17","spark_pilot_norest","9159","3","15","Male","","","","","","","null","<div style=""font-size:60px;"">+</div>","null","fixation","","","","","","","","","35","","",""
"learning-instructions","254","2108375","0.0-4.0-5.0-0.0","spark_pilot_norest","9159","3","15","Male","","","","","","","null","<p> You have almost finished this part of the game! </p>
            <p> We are going to ask you to make a few more choices. </p>","","instructions","","","","","","","","","","","",""
"learning-instructions","255","2124343","0.0-4.0-5.0-0.1","spark_pilot_norest","9159","3","15","Male","","","","","","","null","<p> First, you need to decide whether to go up or down. When you see each picture, use the arrow keys to make your choice. </p>
            <p><b>You will not see which animal you found, but try to get to the one that will give you the most treasure.</b></p>","","instructions","","","","","","","","","","","",""
"html-keyboard-response","256","2125345","0.0-4.0-6.0-0.0","spark_pilot_norest","9159","3","15","Male","","","","","","","null","<div style=""font-size:100px;color:red;"">Starting in...</div>","null","","","","","","","","","","","","",""
"html-keyboard-response","257","2126346","0.0-4.0-6.0-1.0","spark_pilot_norest","9159","3","15","Male","","","","","","","null","<div style=""font-size:200px;color:red;"">3</div>","null","","","","","","","","","","","","",""
"html-keyboard-response","258","2127347","0.0-4.0-6.0-2.0","spark_pilot_norest","9159","3","15","Male","","","","","","","null","<div style=""font-size:200px;color:red;"">2</div>","null","","","","","","","","","","","","",""
"html-keyboard-response","259","2128348","0.0-4.0-6.0-3.0","spark_pilot_norest","9159","3","15","Male","","","","","","","null","<div style=""font-size:200px;color:red;"">1</div>","null","","","","","","","","","","","","",""
"revaluation","260","2129006","0.0-4.0-7.0-0.0","spark_pilot_norest","9159","3","15","Male","","false","","","","","[653.7000000476837]","./assets/img/ocean/test/2.jpg","[""ArrowDown""]","first stage test","ocean","0","{""ArrowUp,ArrowLeft"":23,""ArrowUp,ArrowRight"":10,""ArrowDown,ArrowLeft"":8,""ArrowDown,ArrowRight"":30}","true","ArrowDown","false","original","1","","","",""
"html-keyboard-response","261","2129507","0.0-4.0-7.0-1.0","spark_pilot_norest","9159","3","15","Male","","","","","","","null","<div style=""font-size:60px;"">+</div>","null","fixation","","","","","","","","","","","",""
"revaluation","262","2130273","0.0-4.0-7.0-0.1","spark_pilot_norest","9159","3","15","Male","","false","","","","","[762]","./assets/img/ocean/test/0.jpg","[""ArrowDown""]","first stage test","ocean","0","{""ArrowUp,ArrowLeft"":23,""ArrowUp,ArrowRight"":10,""ArrowDown,ArrowLeft"":8,""ArrowDown,ArrowRight"":30}","true","ArrowDown","false","original","1","","","",""
"html-keyboard-response","263","2130774","0.0-4.0-7.0-1.1","spark_pilot_norest","9159","3","15","Male","","","","","","","null","<div style=""font-size:60px;"">+</div>","null","fixation","","","","","","","","","","","",""
"revaluation","264","2131393","0.0-4.0-7.0-0.2","spark_pilot_norest","9159","3","15","Male","","false","","","","","[615.2000000476837]","./assets/img/ocean/test/1.jpg","[""ArrowDown""]","first stage test","ocean","0","{""ArrowUp,ArrowLeft"":23,""ArrowUp,ArrowRight"":10,""ArrowDown,ArrowLeft"":8,""ArrowDown,ArrowRight"":30}","true","ArrowDown","false","original","1","","","",""
"html-keyboard-response","265","2131894","0.0-4.0-7.0-1.2","spark_pilot_norest","9159","3","15","Male","","","","","","","null","<div style=""font-size:60px;"">+</div>","null","fixation","","","","","","","","","","","",""
"revaluation","266","2132630","0.0-4.0-7.0-0.3","spark_pilot_norest","9159","3","15","Male","","false","","","","","[732.2999999523163]","./assets/img/ocean/test/3.jpg","[""ArrowDown""]","first stage test","ocean","0","{""ArrowUp,ArrowLeft"":23,""ArrowUp,ArrowRight"":10,""ArrowDown,ArrowLeft"":8,""ArrowDown,ArrowRight"":30}","true","ArrowDown","false","original","1","","","",""
"html-keyboard-response","267","2133131","0.0-4.0-7.0-1.3","spark_pilot_norest","9159","3","15","Male","","","","","","","null","<div style=""font-size:60px;"">+</div>","null","fixation","","","","","","","","","","","",""
"learning-instructions","268","2146476","0.0-4.0-8.0-0.0","spark_pilot_norest","9159","3","15","Male","","","","","","","null","<p> Now you will see the animals again and can search their chests for treasure. </p>
            <p> This time, you will not see how much treasure you earned, but you will earn more bonus money for making better choices. </p>","","instructions","","","","","","","","","","","",""
"html-keyboard-response","269","2147478","0.0-4.0-9.0-0.0","spark_pilot_norest","9159","3","15","Male","","","","","","","null","<div style=""font-size:100px;color:red;"">Starting in...</div>","null","","","","","","","","","","","","",""
"html-keyboard-response","270","2148479","0.0-4.0-9.0-1.0","spark_pilot_norest","9159","3","15","Male","","","","","","","null","<div style=""font-size:200px;color:red;"">3</div>","null","","","","","","","","","","","","",""
"html-keyboard-response","271","2149481","0.0-4.0-9.0-2.0","spark_pilot_norest","9159","3","15","Male","","","","","","","null","<div style=""font-size:200px;color:red;"">2</div>","null","","","","","","","","","","","","",""
"html-keyboard-response","272","2150482","0.0-4.0-9.0-3.0","spark_pilot_norest","9159","3","15","Male","","","","","","","null","<div style=""font-size:200px;color:red;"">1</div>","null","","","","","","","","","","","","",""
"revaluation","273","2151374","0.0-4.0-10.0-0.0","spark_pilot_norest","9159","3","15","Male","","false","","","","","[887.7000000476837]","./assets/img/ocean/animals/octopus.jpg","[""ArrowLeft""]","second stage test","ocean","0","{""ArrowUp,ArrowLeft"":23,""ArrowUp,ArrowRight"":10,""ArrowDown,ArrowLeft"":8,""ArrowDown,ArrowRight"":30}","true","ArrowUp,ArrowLeft","","original","1","","","",""
"html-keyboard-response","274","2151875","0.0-4.0-10.0-1.0","spark_pilot_norest","9159","3","15","Male","","","","","","","null","<div style=""font-size:60px;"">+</div>","null","fixation","","","","","","","","","","","",""
"revaluation","275","2152602","0.0-4.0-10.0-0.1","spark_pilot_norest","9159","3","15","Male","","false","","","","","[723.2000000476837]","./assets/img/ocean/animals/octopus.jpg","[""ArrowLeft""]","second stage test","ocean","0","{""ArrowUp,ArrowLeft"":23,""ArrowUp,ArrowRight"":10,""ArrowDown,ArrowLeft"":8,""ArrowDown,ArrowRight"":30}","true","ArrowUp,ArrowLeft","","original","1","","","",""
"html-keyboard-response","276","2153103","0.0-4.0-10.0-1.1","spark_pilot_norest","9159","3","15","Male","","","","","","","null","<div style=""font-size:60px;"">+</div>","null","fixation","","","","","","","","","","","",""
"revaluation","277","2153644","0.0-4.0-10.0-0.2","spark_pilot_norest","9159","3","15","Male","","false","","","","","[537]","./assets/img/ocean/animals/octopus.jpg","[""ArrowLeft""]","second stage test","ocean","0","{""ArrowUp,ArrowLeft"":23,""ArrowUp,ArrowRight"":10,""ArrowDown,ArrowLeft"":8,""ArrowDown,ArrowRight"":30}","true","ArrowUp,ArrowLeft","","original","1","","","",""
"html-keyboard-response","278","2154146","0.0-4.0-10.0-1.2","spark_pilot_norest","9159","3","15","Male","","","","","","","null","<div style=""font-size:60px;"">+</div>","null","fixation","","","","","","","","","","","",""
"revaluation","279","2154611","0.0-4.0-10.0-0.3","spark_pilot_norest","9159","3","15","Male","","false","","","","","[461.7999999523163]","./assets/img/ocean/animals/octopus.jpg","[""ArrowLeft""]","second stage test","ocean","0","{""ArrowUp,ArrowLeft"":23,""ArrowUp,ArrowRight"":10,""ArrowDown,ArrowLeft"":8,""ArrowDown,ArrowRight"":30}","true","ArrowUp,ArrowLeft","","original","1","","","",""
"html-keyboard-response","280","2155113","0.0-4.0-10.0-1.3","spark_pilot_norest","9159","3","15","Male","","","","","","","null","<div style=""font-size:60px;"">+</div>","null","fixation","","","","","","","","","","","",""
"revaluation","281","2155565","0.0-4.0-10.0-0.4","spark_pilot_norest","9159","3","15","Male","","false","","","","","[448.7999999523163]","./assets/img/ocean/animals/seahorse.jpg","[""ArrowRight""]","second stage test","ocean","0","{""ArrowUp,ArrowLeft"":23,""ArrowUp,ArrowRight"":10,""ArrowDown,ArrowLeft"":8,""ArrowDown,ArrowRight"":30}","true","ArrowDown,ArrowRight","","original","1","","","",""
"html-keyboard-response","282","2156067","0.0-4.0-10.0-1.4","spark_pilot_norest","9159","3","15","Male","","","","","","","null","<div style=""font-size:60px;"">+</div>","null","fixation","","","","","","","","","","","",""
"revaluation","283","2156459","0.0-4.0-10.0-0.5","spark_pilot_norest","9159","3","15","Male","","false","","","","","[387]","./assets/img/ocean/animals/seahorse.jpg","[""ArrowRight""]","second stage test","ocean","0","{""ArrowUp,ArrowLeft"":23,""ArrowUp,ArrowRight"":10,""ArrowDown,ArrowLeft"":8,""ArrowDown,ArrowRight"":30}","true","ArrowDown,ArrowRight","","original","1","","","",""
"html-keyboard-response","284","2156960","0.0-4.0-10.0-1.5","spark_pilot_norest","9159","3","15","Male","","","","","","","null","<div style=""font-size:60px;"">+</div>","null","fixation","","","","","","","","","","","",""
"revaluation","285","2157368","0.0-4.0-10.0-0.6","spark_pilot_norest","9159","3","15","Male","","false","","","","","[403.90000009536743]","./assets/img/ocean/animals/seahorse.jpg","[""ArrowRight""]","second stage test","ocean","0","{""ArrowUp,ArrowLeft"":23,""ArrowUp,ArrowRight"":10,""ArrowDown,ArrowLeft"":8,""ArrowDown,ArrowRight"":30}","true","ArrowDown,ArrowRight","","original","1","","","",""
"html-keyboard-response","286","2157869","0.0-4.0-10.0-1.6","spark_pilot_norest","9159","3","15","Male","","","","","","","null","<div style=""font-size:60px;"">+</div>","null","fixation","","","","","","","","","","","",""
"revaluation","287","2158269","0.0-4.0-10.0-0.7","spark_pilot_norest","9159","3","15","Male","","false","","","","","[395.80000019073486]","./assets/img/ocean/animals/seahorse.jpg","[""ArrowRight""]","second stage test","ocean","0","{""ArrowUp,ArrowLeft"":23,""ArrowUp,ArrowRight"":10,""ArrowDown,ArrowLeft"":8,""ArrowDown,ArrowRight"":30}","true","ArrowDown,ArrowRight","","original","1","","","",""
"html-keyboard-response","288","2158770","0.0-4.0-10.0-1.7","spark_pilot_norest","9159","3","15","Male","","","","","","","null","<div style=""font-size:60px;"">+</div>","null","fixation","","","","","","","","","","","",""
"learning-instructions","289","2164449","0.0-4.0-0.1-0.2","spark_pilot_norest","9159","3","15","Male","","","","","","","2916.5","<p> This time you are searching for treasure in the <b>canyon</b>.</p>","","instructions","","","","","","","","","","","",""
"learning-instructions","290","2182337","0.0-4.0-0.1-0.3","spark_pilot_norest","9159","3","15","Male","","","","","","","633.3999998569489","<p><b>New</b> animals with <b>new</b> treasure chests live here. You need to explore to discover where the animal with the best treasure chest is.</p>
                    <p> Like before, once you figure out which animal has the chest with the most treasure, you should try to get to that animal and select that chest! </p>","","instructions","","","","","","","","","","","",""
"learning-instructions","291","2198133","0.0-4.0-1.1-0.1","spark_pilot_norest","9159","3","15","Male","","","","","","","1069.5999999046326","<p> Remember, when you see a picture of the place, use the up and down keys to <b>find an animal</b>.</p>
            <p> When you encounter an animal, you should use the left and right keys to <b>select a treasure chest</b>.</p>
            <p> Don't forget to look out for the robber! </p>","","instructions","","","","","","","","","","","",""
"revaluation","292","2204138","0.0-4.0-2.1-0.50","spark_pilot_norest","9159","3","15","Male","","false","","","","","[1121.6000001430511,402.59999990463257]","./assets/img/canyon/memory/4.jpg","[""ArrowUp"",""ArrowLeft""]","value training","canyon","26","{""ArrowUp,ArrowLeft"":26,""ArrowUp,ArrowRight"":10,""ArrowDown,ArrowLeft"":5,""ArrowDown,ArrowRight"":17}","true","ArrowUp,ArrowLeft","false","revaluation","2","0","","",""
"html-keyboard-response","293","2204639","0.0-4.0-2.1-1.50","spark_pilot_norest","9159","3","15","Male","","","","","","","null","<div style=""font-size:60px;"">+</div>","null","fixation","","","","","","","","","1","","",""
"revaluation","294","2208644","0.0-4.0-2.1-0.51","spark_pilot_norest","9159","3","15","Male","","false","","","","","[845.5]","./assets/img/canyon/catch/5.jpg","[""spaceBar""]","value training","canyon","0","{""ArrowUp,ArrowLeft"":26,""ArrowUp,ArrowRight"":10,""ArrowDown,ArrowLeft"":5,""ArrowDown,ArrowRight"":17}","true","spaceBar","true","revaluation","2","2","","",""
"html-keyboard-response","295","2209145","0.0-4.0-2.1-1.51","spark_pilot_norest","9159","3","15","Male","","","","","","","null","<div style=""font-size:60px;"">+</div>","null","fixation","","","","","","","","","3","","",""
"revaluation","296","2213148","0.0-4.0-2.1-0.52","spark_pilot_norest","9159","3","15","Male","","false","","","","","[362.10000014305115]","./assets/img/canyon/catch/2.jpg","[""ArrowUp""]","value training","canyon","-10","{""ArrowUp,ArrowLeft"":26,""ArrowUp,ArrowRight"":10,""ArrowDown,ArrowLeft"":5,""ArrowDown,ArrowRight"":17}","false","ArrowUp","true","revaluation","2","4","","",""
"html-keyboard-response","297","2213649","0.0-4.0-2.1-1.52","spark_pilot_norest","9159","3","15","Male","","","","","","","null","<div style=""font-size:60px;"">+</div>","null","fixation","","","","","","","","","5","","",""
"revaluation","298","2217654","0.0-4.0-2.1-0.53","spark_pilot_norest","9159","3","15","Male","","false","","","","","[864.2999999523163]","./assets/img/canyon/catch/6.jpg","[""spaceBar""]","value training","canyon","0","{""ArrowUp,ArrowLeft"":26,""ArrowUp,ArrowRight"":10,""ArrowDown,ArrowLeft"":5,""ArrowDown,ArrowRight"":17}","true","spaceBar","true","revaluation","2","6","","",""
"html-keyboard-response","299","2218155","0.0-4.0-2.1-1.53","spark_pilot_norest","9159","3","15","Male","","","","","","","null","<div style=""font-size:60px;"">+</div>","null","fixation","","","","","","","","","7","","",""
"revaluation","300","2224160","0.0-4.0-2.1-0.54","spark_pilot_norest","9159","3","15","Male","","false","","","","","[767.7000000476837,238.29999995231628]","./assets/img/canyon/memory/39.jpg","[""ArrowUp"",""ArrowRight""]","value training","canyon","10","{""ArrowUp,ArrowLeft"":26,""ArrowUp,ArrowRight"":10,""ArrowDown,ArrowLeft"":5,""ArrowDown,ArrowRight"":17}","false","ArrowUp,ArrowRight","false","revaluation","2","8","","",""
"html-keyboard-response","301","2224661","0.0-4.0-2.1-1.54","spark_pilot_norest","9159","3","15","Male","","","","","","","null","<div style=""font-size:60px;"">+</div>","null","fixation","","","","","","","","","9","","",""
"revaluation","302","2230668","0.0-4.0-2.1-0.55","spark_pilot_norest","9159","3","15","Male","","false","","","","","[477.40000009536743,310.59999990463257]","./assets/img/canyon/memory/36.jpg","[""ArrowDown"",""ArrowLeft""]","value training","canyon","5","{""ArrowUp,ArrowLeft"":26,""ArrowUp,ArrowRight"":10,""ArrowDown,ArrowLeft"":5,""ArrowDown,ArrowRight"":17}","false","ArrowDown,ArrowLeft","false","revaluation","2","10","","",""
"html-keyboard-response","303","2231169","0.0-4.0-2.1-1.55","spark_pilot_norest","9159","3","15","Male","","","","","","","null","<div style=""font-size:60px;"">+</div>","null","fixation","","","","","","","","","11","","",""
"revaluation","304","2237175","0.0-4.0-2.1-0.56","spark_pilot_norest","9159","3","15","Male","","false","","","","","[340.40000009536743,292.59999990463257]","./assets/img/canyon/memory/0.jpg","[""ArrowDown"",""ArrowRight""]","value training","canyon","17","{""ArrowUp,ArrowLeft"":26,""ArrowUp,ArrowRight"":10,""ArrowDown,ArrowLeft"":5,""ArrowDown,ArrowRight"":17}","false","ArrowDown,ArrowRight","false","revaluation","2","12","","",""
"html-keyboard-response","305","2237677","0.0-4.0-2.1-1.56","spark_pilot_norest","9159","3","15","Male","","","","","","","null","<div style=""font-size:60px;"">+</div>","null","fixation","","","","","","","","","13","","",""
"revaluation","306","2243683","0.0-4.0-2.1-0.57","spark_pilot_norest","9159","3","15","Male","","false","","","","","[419.7000000476837,281]","./assets/img/canyon/memory/23.jpg","[""ArrowUp"",""ArrowLeft""]","value training","canyon","26","{""ArrowUp,ArrowLeft"":26,""ArrowUp,ArrowRight"":10,""ArrowDown,ArrowLeft"":5,""ArrowDown,ArrowRight"":17}","true","ArrowUp,ArrowLeft","false","revaluation","2","14","","",""
"html-keyboard-response","307","2244184","0.0-4.0-2.1-1.57","spark_pilot_norest","9159","3","15","Male","","","","","","","null","<div style=""font-size:60px;"">+</div>","null","fixation","","","","","","","","","15","","",""
"revaluation","308","2250190","0.0-4.0-2.1-0.58","spark_pilot_norest","9159","3","15","Male","","false","","","","","[352.5,249.70000004768372]","./assets/img/canyon/memory/8.jpg","[""ArrowUp"",""ArrowLeft""]","value training","canyon","26","{""ArrowUp,ArrowLeft"":26,""ArrowUp,ArrowRight"":10,""ArrowDown,ArrowLeft"":5,""ArrowDown,ArrowRight"":17}","true","ArrowUp,ArrowLeft","false","revaluation","2","16","","",""
"html-keyboard-response","309","2250692","0.0-4.0-2.1-1.58","spark_pilot_norest","9159","3","15","Male","","","","","","","null","<div style=""font-size:60px;"">+</div>","null","fixation","","","","","","","","","17","","",""
"revaluation","310","2256697","0.0-4.0-2.1-0.59","spark_pilot_norest","9159","3","15","Male","","false","","","","","[702.5,251]","./assets/img/canyon/memory/21.jpg","[""ArrowUp"",""ArrowLeft""]","value training","canyon","26","{""ArrowUp,ArrowLeft"":26,""ArrowUp,ArrowRight"":10,""ArrowDown,ArrowLeft"":5,""ArrowDown,ArrowRight"":17}","true","ArrowUp,ArrowLeft","false","revaluation","2","18","","",""
"html-keyboard-response","311","2257198","0.0-4.0-2.1-1.59","spark_pilot_norest","9159","3","15","Male","","","","","","","null","<div style=""font-size:60px;"">+</div>","null","fixation","","","","","","","","","19","","",""
"revaluation","312","2263204","0.0-4.0-2.1-0.60","spark_pilot_norest","9159","3","15","Male","","false","","","","","[606.3999998569489,315.89999985694885]","./assets/img/canyon/memory/32.jpg","[""ArrowUp"",""ArrowLeft""]","value training","canyon","26","{""ArrowUp,ArrowLeft"":26,""ArrowUp,ArrowRight"":10,""ArrowDown,ArrowLeft"":5,""ArrowDown,ArrowRight"":17}","true","ArrowUp,ArrowLeft","false","revaluation","2","20","","",""
"html-keyboard-response","313","2263706","0.0-4.0-2.1-1.60","spark_pilot_norest","9159","3","15","Male","","","","","","","null","<div style=""font-size:60px;"">+</div>","null","fixation","","","","","","","","","21","","",""
