"trial_type","trial_index","time_elapsed","internal_node_id","task_version","subject_id","assigned_condition","age","gender","browser_interaction","success","timeout","failed_images","failed_audio","failed_video","rt","stimulus","response","task_part","environment","score","rewardMap","correct","fullState","isCatch","condition","order","trial_num","key_press","ground_truth","bonus"
"pavlovia","0","1869","0.0-0.0","spark_pilot_norest","8684","2","18","Female","[{""event"":""blur"",""trial"":1,""time"":95418},{""event"":""focus"",""trial"":2,""time"":118926},{""event"":""fullscreenenter"",""trial"":2,""time"":121903}]","","","","","","","","","","","","","","","","","","","","",""
"preload","1","102157","0.0-1.0","spark_pilot_norest","8684","2","18","Female","[{""event"":""blur"",""trial"":1,""time"":95418},{""event"":""focus"",""trial"":2,""time"":118926},{""event"":""fullscreenenter"",""trial"":2,""time"":121903}]","true","false","[]","[]","[]","","","","","","","","","","","","","","","",""
"fullscreen","2","122827","0.0-2.0","spark_pilot_norest","8684","2","18","Female","","true","","","","","","","","","","","","","","","","","","","",""
"audio-button-response","3","129806","0.0-3.0-0.0-0.0","spark_pilot_norest","8684","2","18","Female","","","","","","","6779","./assets/audio/audiotest/turtle.mp3","4","audio_test","","","","","","","","","","","",""
"audio-button-response","4","132394","0.0-3.0-0.1-0.1","spark_pilot_norest","8684","2","18","Female","","","","","","","1589","./assets/audio/audiotest/turtle.mp3","2","audio_test","","","","","","","","","","","",""
"learning-instructions","5","147108","0.0-3.0-1.0-0.0","spark_pilot_norest","8684","2","18","Female","","","","","","","4478.0999999940395","<p> Welcome! Please remember to stay in fullscreen mode and don't click away from the experiment. </p>","","instructions","","","","","","","","","","","",""
"learning-instructions","6","160740","0.0-3.0-1.0-0.1","spark_pilot_norest","8684","2","18","Female","","","","","","","1817.6000000089407","<p> Today you will be playing a game to earn treasure. </p>
            <p> At the end of the experiment, you will earn a bonus based on how much treasure you find. </p>
            <img src='./assets/img/instructions/treasure.jpg' class='instructions-image'>","","instructions","","","","","","","","","","","",""
"learning-instructions","7","172613","0.0-3.0-1.0-0.2","spark_pilot_norest","8684","2","18","Female","","","","","","","1040.5","<p> Animals have hidden treasure in treasure chests. </p>
            <p> You need to first find an animal and then choose which of their treasure chests to search. </p>
            <img src='./assets/img/space/animals/cat.jpg' class='instructions-image'>","","instructions","","","","","","","","","","","",""
"learning-instructions","8","192604","0.0-3.0-1.0-0.3","spark_pilot_norest","8684","2","18","Female","","","","","","","4461.29999999702","<p> In each round, you will search for treasure in a different place. In the real game, there will be two rounds. </p>
            <p> You will begin with a separate, practice round where you will search for treasure in outer space. </p>
            <img src='./assets/img/space/0.jpg' class='instructions-image'>","","instructions","","","","","","","","","","","",""
"learning-instructions","9","208202","0.0-3.0-1.0-0.4","spark_pilot_norest","8684","2","18","Female","","","","","","","2058.3999999910593","<p> On every turn, you will see a picture of the place that you are in, but the specific image may be different each time. </p>
            <p> For example, both of these images mean you are in outer space. </p>
            <img src='./assets/img/instructions/outerspace.jpg' class='instructions-image'>","","instructions","","","","","","","","","","","",""
"learning-instructions","10","219554","0.0-3.0-1.0-0.5","spark_pilot_norest","8684","2","18","Female","","","","","","","3490.7999999970198","<p> You need to decide which direction to travel in. </p>
            <p> You can choose between going <b>up or down</b> by using the arrow keys. </p>
            <img src='./assets/img/instructions/updown.jpg' class='instructions-image'>","","instructions","","","","","","","","","","","",""
"learning-instructions","11","232674","0.0-3.0-1.0-0.6","spark_pilot_norest","8684","2","18","Female","","","","","","","4250.79999999702","<p> You will have <b>2 seconds</b> to make your choice. </p>
            <p> If you do not make a choice within 2 seconds, you will not find an animal or earn treasure. </p>
            <img src='./assets/img/instructions/2seconds.jpg' class='instructions-image'>","","instructions","","","","","","","","","","","",""
"learning-instructions","12","241505","0.0-3.0-1.0-0.7","spark_pilot_norest","8684","2","18","Female","","","","","","","1742.2999999970198","<p> Let’s try practicing that now! </p>
            <p> When you see a picture of the place you are in, press the <b>up</b> key to travel up. </p>
            <img src='./assets/img/instructions/pressUp.jpg' class='instructions-image'>","","instructions","","","","","","","","","","","",""
"revaluation","13","245556","0.0-3.0-2.0-0.0","spark_pilot_norest","8684","2","18","Female","","","false","","","","[693.2999999970198]","./assets/img/space/0.jpg","[""ArrowUp""]","first stage practice","space","0","null","null","ArrowUp","false","","","","","",""
"html-keyboard-response","14","246058","0.0-3.0-2.0-1.0","spark_pilot_norest","8684","2","18","Female","","","","","","","null","<div style=""font-size:60px;"">+</div>","null","fixation","","","","","","","","","","","",""
"revaluation","15","250066","0.0-3.0-2.0-0.1","spark_pilot_norest","8684","2","18","Female","","","false","","","","[1361.1000000089407]","./assets/img/space/1.jpg","[""ArrowUp""]","first stage practice","space","0","null","null","ArrowUp","false","","","","","",""
"html-keyboard-response","16","250568","0.0-3.0-2.0-1.1","spark_pilot_norest","8684","2","18","Female","","","","","","","null","<div style=""font-size:60px;"">+</div>","null","fixation","","","","","","","","","","","",""
"revaluation","17","254575","0.0-3.0-2.0-0.2","spark_pilot_norest","8684","2","18","Female","","","false","","","","[199.5]","./assets/img/space/2.jpg","[""ArrowUp""]","first stage practice","space","0","null","null","ArrowUp","false","","","","","",""
"html-keyboard-response","18","255078","0.0-3.0-2.0-1.2","spark_pilot_norest","8684","2","18","Female","","","","","","","null","<div style=""font-size:60px;"">+</div>","null","fixation","","","","","","","","","","","",""
"learning-instructions","19","261876","0.0-3.0-3.0-0.0","spark_pilot_norest","8684","2","18","Female","","","","","","","2063.6000000089407","<p> Great job! Now try pressing the <b>down</b> key to travel down. </p>
            <img src='./assets/img/instructions/pressDown.jpg' class='instructions-image'>","","instructions","","","","","","","","","","","",""
"revaluation","20","265911","0.0-3.0-4.0-0.0","spark_pilot_norest","8684","2","18","Female","","","false","","","","[473.3999999910593]","./assets/img/space/3.jpg","[""ArrowDown""]","first stage practice","space","0","null","null","ArrowDown","false","","","","","",""
"html-keyboard-response","21","266412","0.0-3.0-4.0-1.0","spark_pilot_norest","8684","2","18","Female","","","","","","","null","<div style=""font-size:60px;"">+</div>","null","fixation","","","","","","","","","","","",""
"revaluation","22","270419","0.0-3.0-4.0-0.1","spark_pilot_norest","8684","2","18","Female","","","false","","","","[423.5]","./assets/img/space/4.jpg","[""ArrowDown""]","first stage practice","space","0","null","null","ArrowDown","false","","","","","",""
"html-keyboard-response","23","270921","0.0-3.0-4.0-1.1","spark_pilot_norest","8684","2","18","Female","","","","","","","null","<div style=""font-size:60px;"">+</div>","null","fixation","","","","","","","","","","","",""
"revaluation","24","274927","0.0-3.0-4.0-0.2","spark_pilot_norest","8684","2","18","Female","","","false","","","","[398.5]","./assets/img/space/5.jpg","[""ArrowDown""]","first stage practice","space","0","null","null","ArrowDown","false","","","","","",""
"html-keyboard-response","25","275429","0.0-3.0-4.0-1.2","spark_pilot_norest","8684","2","18","Female","","","","","","","null","<div style=""font-size:60px;"">+</div>","null","fixation","","","","","","","","","","","",""
"learning-instructions","26","289929","0.0-3.0-5.0-0.0","spark_pilot_norest","8684","2","18","Female","","","","","","","4586.29999999702","<p> The animals don’t move, so the animal in the upper part of a place will stay in the upper part of a place, and the animal in the lower part of a place will stay in the lower part of a place. </p>","","instructions","","","","","","","","","","","",""
"learning-instructions","27","300482","0.0-3.0-5.0-0.1","spark_pilot_norest","8684","2","18","Female","","","","","","","1359.7000000029802","<p> Each animal has two treasure chests for you to choose from. </p>
            <p> The amount of treasure in each chest can range from <b> 0 to 40 pieces.</b></p>","","instructions","","","","","","","","","","","",""
"learning-instructions","28","317848","0.0-3.0-5.0-0.2","spark_pilot_norest","8684","2","18","Female","","","","","","","6114.70000000298","<p> You should decide which chest to search for treasure by using the <b>left</b> and <b>right</b> arrow keys. </p>
            <p><b> Pay attention to which animal is on the screen, as the animals have different treasure chests. </b></p>
            <img src='./assets/img/instructions/leftright.jpg' class='instructions-image'>","","instructions","","","","","","","","","","","",""
"learning-instructions","29","325794","0.0-3.0-5.0-0.3","spark_pilot_norest","8684","2","18","Female","","","","","","","1541.2000000029802","<p> Let’s try practicing that now. </p>
            <p> When you see an animal, choose which chest to search for treasure. </p>
            <img src='./assets/img/instructions/chooseChest.jpg' class='instructions-image'>","","instructions","","","","","","","","","","","",""
"revaluation","30","329824","0.0-3.0-6.0-0.0","spark_pilot_norest","8684","2","18","Female","","","false","","","","[496.20000000298023]","./assets/img/space/animals/cat.jpg","[""ArrowLeft""]","second stage practice","space","3","{""ArrowUp,ArrowLeft"":3,""ArrowUp,ArrowRight"":36,""ArrowDown,ArrowLeft"":15,""ArrowDown,ArrowRight"":23}","false","ArrowUp,ArrowLeft","","","","","","",""
"html-keyboard-response","31","330327","0.0-3.0-6.0-1.0","spark_pilot_norest","8684","2","18","Female","","","","","","","null","<div style=""font-size:60px;"">+</div>","null","fixation","","","","","","","","","","","",""
"revaluation","32","334335","0.0-3.0-6.0-0.1","spark_pilot_norest","8684","2","18","Female","","","false","","","","[1356.5999999940395]","./assets/img/space/animals/rabbit.jpg","[""ArrowRight""]","second stage practice","space","23","{""ArrowUp,ArrowLeft"":3,""ArrowUp,ArrowRight"":36,""ArrowDown,ArrowLeft"":15,""ArrowDown,ArrowRight"":23}","true","ArrowDown,ArrowRight","","","","","","",""
"html-keyboard-response","33","334836","0.0-3.0-6.0-1.1","spark_pilot_norest","8684","2","18","Female","","","","","","","null","<div style=""font-size:60px;"">+</div>","null","fixation","","","","","","","","","","","",""
"revaluation","34","338843","0.0-3.0-6.0-0.2","spark_pilot_norest","8684","2","18","Female","","","false","","","","[23.700000002980232]","./assets/img/space/animals/rabbit.jpg","[""ArrowRight""]","second stage practice","space","23","{""ArrowUp,ArrowLeft"":3,""ArrowUp,ArrowRight"":36,""ArrowDown,ArrowLeft"":15,""ArrowDown,ArrowRight"":23}","true","ArrowDown,ArrowRight","","","","","","",""
"html-keyboard-response","35","339345","0.0-3.0-6.0-1.2","spark_pilot_norest","8684","2","18","Female","","","","","","","null","<div style=""font-size:60px;"">+</div>","null","fixation","","","","","","","","","","","",""
"revaluation","36","343350","0.0-3.0-6.0-0.3","spark_pilot_norest","8684","2","18","Female","","","false","","","","[279.5]","./assets/img/space/animals/cat.jpg","[""ArrowLeft""]","second stage practice","space","3","{""ArrowUp,ArrowLeft"":3,""ArrowUp,ArrowRight"":36,""ArrowDown,ArrowLeft"":15,""ArrowDown,ArrowRight"":23}","false","ArrowUp,ArrowLeft","","","","","","",""
"html-keyboard-response","37","343852","0.0-3.0-6.0-1.3","spark_pilot_norest","8684","2","18","Female","","","","","","","null","<div style=""font-size:60px;"">+</div>","null","fixation","","","","","","","","","","","",""
"learning-instructions","38","362316","0.0-3.0-7.0-0.0","spark_pilot_norest","8684","2","18","Female","","","","","","","1583.0999999940395","<p> Great job. Now let’s try putting it together. </p>
            <p> On each turn, you will first see a picture to remind you of the place you are in, and you need to choose whether to go up or down. </p>
            <p> Then you will see an animal and choose which of its chests to search for treasure. </p>","","instructions","","","","","","","","","","","",""
"learning-instructions","39","375586","0.0-3.0-7.0-0.1","spark_pilot_norest","8684","2","18","Female","","","","","","","1823.3999999910593","<p> When you choose whether to go up or down, try to go to the animal with the chest with the most treasure. </p>
            <p> Try practicing that now! </p>","","instructions","","","","","","","","","","","",""
"revaluation","40","381615","0.0-3.0-8.0-0.0","spark_pilot_norest","8684","2","18","Female","","","false","","","","[1045.5999999940395,816.4000000059605]","./assets/img/space/6.jpg","[""ArrowUp"",""ArrowRight""]","full practice","space","36","{""ArrowUp,ArrowLeft"":3,""ArrowUp,ArrowRight"":36,""ArrowDown,ArrowLeft"":15,""ArrowDown,ArrowRight"":23}","true","ArrowUp,ArrowRight","false","","","","","",""
"html-keyboard-response","41","382116","0.0-3.0-8.0-1.0","spark_pilot_norest","8684","2","18","Female","","","","","","","null","<div style=""font-size:60px;"">+</div>","null","fixation","","","","","","","","","","","",""
"revaluation","42","386122","0.0-3.0-8.0-0.1","spark_pilot_norest","8684","2","18","Female","","","true","","","","[]","./assets/img/space/7.jpg","[]","full practice","space","-5","{""ArrowUp,ArrowLeft"":3,""ArrowUp,ArrowRight"":36,""ArrowDown,ArrowLeft"":15,""ArrowDown,ArrowRight"":23}","false","","false","","","","","",""
"html-keyboard-response","43","386624","0.0-3.0-8.0-1.1","spark_pilot_norest","8684","2","18","Female","","","","","","","null","<div style=""font-size:60px;"">+</div>","null","fixation","","","","","","","","","","","",""
"revaluation","44","392632","0.0-3.0-8.0-0.2","spark_pilot_norest","8684","2","18","Female","","","false","","","","[805.1000000089407,777]","./assets/img/space/8.jpg","[""ArrowUp"",""ArrowLeft""]","full practice","space","3","{""ArrowUp,ArrowLeft"":3,""ArrowUp,ArrowRight"":36,""ArrowDown,ArrowLeft"":15,""ArrowDown,ArrowRight"":23}","false","ArrowUp,ArrowLeft","false","","","","","",""
"html-keyboard-response","45","393133","0.0-3.0-8.0-1.2","spark_pilot_norest","8684","2","18","Female","","","","","","","null","<div style=""font-size:60px;"">+</div>","null","fixation","","","","","","","","","","","",""
"revaluation","46","399140","0.0-3.0-8.0-0.3","spark_pilot_norest","8684","2","18","Female","","","false","","","","[791.7999999970198,491]","./assets/img/space/9.jpg","[""ArrowDown"",""ArrowRight""]","full practice","space","23","{""ArrowUp,ArrowLeft"":3,""ArrowUp,ArrowRight"":36,""ArrowDown,ArrowLeft"":15,""ArrowDown,ArrowRight"":23}","false","ArrowDown,ArrowRight","false","","","","","",""
"html-keyboard-response","47","399642","0.0-3.0-8.0-1.3","spark_pilot_norest","8684","2","18","Female","","","","","","","null","<div style=""font-size:60px;"">+</div>","null","fixation","","","","","","","","","","","",""
"revaluation","48","405649","0.0-3.0-8.0-0.4","spark_pilot_norest","8684","2","18","Female","","","false","","","","[402.09999999403954,393.40000000596046]","./assets/img/space/10.jpg","[""ArrowUp"",""ArrowRight""]","full practice","space","36","{""ArrowUp,ArrowLeft"":3,""ArrowUp,ArrowRight"":36,""ArrowDown,ArrowLeft"":15,""ArrowDown,ArrowRight"":23}","true","ArrowUp,ArrowRight","false","","","","","",""
"html-keyboard-response","49","406151","0.0-3.0-8.0-1.4","spark_pilot_norest","8684","2","18","Female","","","","","","","null","<div style=""font-size:60px;"">+</div>","null","fixation","","","","","","","","","","","",""
"learning-instructions","50","422110","0.0-3.0-9.0-0.0","spark_pilot_norest","8684","2","18","Female","","","","","","","1256.6000000089407","<p> One last thing: sometimes, you will see a robber. The robber can be anywhere in the picture. </p>
            <p> If you do not stop them, you will lose treasure. </p>
            <img src='./assets/img/instructions/robber.jpg' class='instructions-image'>","","instructions","","","","","","","","","","","",""
"learning-instructions","51","436025","0.0-3.0-9.0-0.1","spark_pilot_norest","8684","2","18","Female","","","","","","","3052.0999999940395","<p> If you see the robber, you should <b>press the space bar</b> rather than using the arrow keys. </p>
            <p> Try practicing that now! </p>","","instructions","","","","","","","","","","","",""
"revaluation","52","440049","0.0-3.0-10.0-0.0","spark_pilot_norest","8684","2","18","Female","","","false","","","","[1678]","./assets/img/space/catch/0.jpg","[""spaceBar""]","catch practice","space","0","{""ArrowUp,ArrowLeft"":3,""ArrowUp,ArrowRight"":36,""ArrowDown,ArrowLeft"":15,""ArrowDown,ArrowRight"":23}","true","spaceBar","true","","","","","",""
"html-keyboard-response","53","440552","0.0-3.0-10.0-1.0","spark_pilot_norest","8684","2","18","Female","","","","","","","null","<div style=""font-size:60px;"">+</div>","null","fixation","","","","","","","","","","","",""
"revaluation","54","444558","0.0-3.0-10.0-0.1","spark_pilot_norest","8684","2","18","Female","","","false","","","","[544.2000000029802]","./assets/img/space/catch/1.jpg","[""spaceBar""]","catch practice","space","0","{""ArrowUp,ArrowLeft"":3,""ArrowUp,ArrowRight"":36,""ArrowDown,ArrowLeft"":15,""ArrowDown,ArrowRight"":23}","true","spaceBar","true","","","","","",""
"html-keyboard-response","55","445060","0.0-3.0-10.0-1.1","spark_pilot_norest","8684","2","18","Female","","","","","","","null","<div style=""font-size:60px;"">+</div>","null","fixation","","","","","","","","","","","",""
"revaluation","56","449067","0.0-3.0-10.0-0.2","spark_pilot_norest","8684","2","18","Female","","","false","","","","[324.40000000596046]","./assets/img/space/catch/2.jpg","[""spaceBar""]","catch practice","space","0","{""ArrowUp,ArrowLeft"":3,""ArrowUp,ArrowRight"":36,""ArrowDown,ArrowLeft"":15,""ArrowDown,ArrowRight"":23}","true","spaceBar","true","","","","","",""
"html-keyboard-response","57","449569","0.0-3.0-10.0-1.2","spark_pilot_norest","8684","2","18","Female","","","","","","","null","<div style=""font-size:60px;"">+</div>","null","fixation","","","","","","","","","","","",""
"learning-instructions","58","458754","0.0-3.0-11.0-0.0-0.0","spark_pilot_norest","8684","2","18","Female","","","","","","","3891.1000000089407","<p> Now, you will practice a shortened version of the game to get a sense of how it all fits together. </p>","","instructions","","","","","","","","","","","",""
"learning-instructions","59","463887","0.0-3.0-11.0-0.0-0.1","spark_pilot_norest","8684","2","18","Female","","","","","","","1914.5999999940395","<p>This time you are searching for treasure in outer space.</p>","","instructions","","","","","","","","","","","",""
"learning-instructions","60","480338","0.0-3.0-11.0-1.0-0.0","spark_pilot_norest","8684","2","18","Female","","","","","","","1605.0999999940395","<p> Remember, when you see a picture of the place, use the up and down keys to <b>find an animal</b>.</p>
            <p> When you encounter an animal, you should use the left and right keys to <b>select a treasure chest</b>.</p>
            <p> Don't forget to look out for the robber! </p>","","instructions","","","","","","","","","","","",""
"revaluation","61","486377","0.0-3.0-11.0-2.0-0.0","spark_pilot_norest","8684","2","18","Female","","","false","","","","[1579.7999999970198,522.3999999910593]","./assets/img/space/11.jpg","[""ArrowUp"",""ArrowRight""]","practice block","space","36","{""ArrowUp,ArrowLeft"":3,""ArrowUp,ArrowRight"":36,""ArrowDown,ArrowLeft"":15,""ArrowDown,ArrowRight"":23}","true","ArrowUp,ArrowRight","false","","","","","",""
"html-keyboard-response","62","486879","0.0-3.0-11.0-2.0-1.0","spark_pilot_norest","8684","2","18","Female","","","","","","","null","<div style=""font-size:60px;"">+</div>","null","fixation","","","","","","","","","","","",""
"revaluation","63","492887","0.0-3.0-11.0-2.0-0.1","spark_pilot_norest","8684","2","18","Female","","","false","","","","[1067.3999999910593,241.3999999910593]","./assets/img/space/12.jpg","[""ArrowDown"",""ArrowRight""]","practice block","space","23","{""ArrowUp,ArrowLeft"":3,""ArrowUp,ArrowRight"":36,""ArrowDown,ArrowLeft"":15,""ArrowDown,ArrowRight"":23}","false","ArrowDown,ArrowRight","false","","","","","",""
"html-keyboard-response","64","493388","0.0-3.0-11.0-2.0-1.1","spark_pilot_norest","8684","2","18","Female","","","","","","","null","<div style=""font-size:60px;"">+</div>","null","fixation","","","","","","","","","","","",""
"revaluation","65","499397","0.0-3.0-11.0-2.0-0.2","spark_pilot_norest","8684","2","18","Female","","","false","","","","[820.5,370.90000000596046]","./assets/img/space/13.jpg","[""ArrowUp"",""ArrowRight""]","practice block","space","36","{""ArrowUp,ArrowLeft"":3,""ArrowUp,ArrowRight"":36,""ArrowDown,ArrowLeft"":15,""ArrowDown,ArrowRight"":23}","true","ArrowUp,ArrowRight","false","","","","","",""
"html-keyboard-response","66","499900","0.0-3.0-11.0-2.0-1.2","spark_pilot_norest","8684","2","18","Female","","","","","","","null","<div style=""font-size:60px;"">+</div>","null","fixation","","","","","","","","","","","",""
"revaluation","67","505909","0.0-3.0-11.0-2.0-0.3","spark_pilot_norest","8684","2","18","Female","","","false","","","","[707,384.09999999403954]","./assets/img/space/14.jpg","[""ArrowUp"",""ArrowRight""]","practice block","space","36","{""ArrowUp,ArrowLeft"":3,""ArrowUp,ArrowRight"":36,""ArrowDown,ArrowLeft"":15,""ArrowDown,ArrowRight"":23}","true","ArrowUp,ArrowRight","false","","","","","",""
"html-keyboard-response","68","506410","0.0-3.0-11.0-2.0-1.3","spark_pilot_norest","8684","2","18","Female","","","","","","","null","<div style=""font-size:60px;"">+</div>","null","fixation","","","","","","","","","","","",""
"revaluation","69","512418","0.0-3.0-11.0-2.0-0.4","spark_pilot_norest","8684","2","18","Female","","","false","","","","[1259.8999999910593,244.69999998807907]","./assets/img/space/11.jpg","[""ArrowDown"",""ArrowRight""]","practice block","space","23","{""ArrowUp,ArrowLeft"":3,""ArrowUp,ArrowRight"":36,""ArrowDown,ArrowLeft"":15,""ArrowDown,ArrowRight"":23}","false","ArrowDown,ArrowRight","false","","","","","",""
"html-keyboard-response","70","512920","0.0-3.0-11.0-2.0-1.4","spark_pilot_norest","8684","2","18","Female","","","","","","","null","<div style=""font-size:60px;"">+</div>","null","fixation","","","","","","","","","","","",""
"revaluation","71","518928","0.0-3.0-11.0-2.0-0.5","spark_pilot_norest","8684","2","18","Female","","","false","","","","[626.8000000119209,1789.2000000029802]","./assets/img/space/12.jpg","[""ArrowUp"",""ArrowRight""]","practice block","space","36","{""ArrowUp,ArrowLeft"":3,""ArrowUp,ArrowRight"":36,""ArrowDown,ArrowLeft"":15,""ArrowDown,ArrowRight"":23}","true","ArrowUp,ArrowRight","false","","","","","",""
"html-keyboard-response","72","519429","0.0-3.0-11.0-2.0-1.5","spark_pilot_norest","8684","2","18","Female","","","","","","","null","<div style=""font-size:60px;"">+</div>","null","fixation","","","","","","","","","","","",""
"revaluation","73","525439","0.0-3.0-11.0-2.0-0.6","spark_pilot_norest","8684","2","18","Female","","","false","","","","[894.2000000029802,401.59999999403954]","./assets/img/space/13.jpg","[""ArrowUp"",""ArrowRight""]","practice block","space","36","{""ArrowUp,ArrowLeft"":3,""ArrowUp,ArrowRight"":36,""ArrowDown,ArrowLeft"":15,""ArrowDown,ArrowRight"":23}","true","ArrowUp,ArrowRight","false","","","","","",""
"html-keyboard-response","74","525942","0.0-3.0-11.0-2.0-1.6","spark_pilot_norest","8684","2","18","Female","","","","","","","null","<div style=""font-size:60px;"">+</div>","null","fixation","","","","","","","","","","","",""
"revaluation","75","531951","0.0-3.0-11.0-2.0-0.7","spark_pilot_norest","8684","2","18","Female","","","false","","","","[570.4000000059605,321.5]","./assets/img/space/14.jpg","[""ArrowUp"",""ArrowRight""]","practice block","space","36","{""ArrowUp,ArrowLeft"":3,""ArrowUp,ArrowRight"":36,""ArrowDown,ArrowLeft"":15,""ArrowDown,ArrowRight"":23}","true","ArrowUp,ArrowRight","false","","","","","",""
"html-keyboard-response","76","532453","0.0-3.0-11.0-2.0-1.7","spark_pilot_norest","8684","2","18","Female","","","","","","","null","<div style=""font-size:60px;"">+</div>","null","fixation","","","","","","","","","","","",""
"revaluation","77","536459","0.0-3.0-11.0-2.0-0.8","spark_pilot_norest","8684","2","18","Female","","","false","","","","[1073.2000000029802]","./assets/img/space/catch/3.jpg","[""spaceBar""]","practice block","space","0","{""ArrowUp,ArrowLeft"":3,""ArrowUp,ArrowRight"":36,""ArrowDown,ArrowLeft"":15,""ArrowDown,ArrowRight"":23}","true","spaceBar","true","","","","","",""
"html-keyboard-response","78","536961","0.0-3.0-11.0-2.0-1.8","spark_pilot_norest","8684","2","18","Female","","","","","","","null","<div style=""font-size:60px;"">+</div>","null","fixation","","","","","","","","","","","",""
"learning-instructions","79","555718","0.0-3.0-11.0-3.0-0.0","spark_pilot_norest","8684","2","18","Female","","","","","","","5764.79999999702","<p> Now, you will travel with a friend who will choose whether you go up or down first. </p>
            <p> On these turns, you will just see the animal that they found. You will still get to choose which chest to search for treasure.</p>","","instructions","","","","","","","","","","","",""
"revaluation","80","559745","0.0-3.0-11.0-4.0-0.0","spark_pilot_norest","8684","2","18","Female","","","false","","","","[1050.1000000089407]","./assets/img/space/animals/rabbit.jpg","[""ArrowRight""]","practice block","space","23","{""ArrowUp,ArrowLeft"":3,""ArrowUp,ArrowRight"":36,""ArrowDown,ArrowLeft"":15,""ArrowDown,ArrowRight"":23}","true","ArrowDown,ArrowRight","","","","","","",""
"html-keyboard-response","81","560246","0.0-3.0-11.0-4.0-1.0","spark_pilot_norest","8684","2","18","Female","","","","","","","null","<div style=""font-size:60px;"">+</div>","null","fixation","","","","","","","","","","","",""
"revaluation","82","564253","0.0-3.0-11.0-4.0-0.1","spark_pilot_norest","8684","2","18","Female","","","false","","","","[474.90000000596046]","./assets/img/space/animals/cat.jpg","[""ArrowRight""]","practice block","space","36","{""ArrowUp,ArrowLeft"":3,""ArrowUp,ArrowRight"":36,""ArrowDown,ArrowLeft"":15,""ArrowDown,ArrowRight"":23}","true","ArrowUp,ArrowRight","","","","","","",""
"html-keyboard-response","83","564755","0.0-3.0-11.0-4.0-1.1","spark_pilot_norest","8684","2","18","Female","","","","","","","null","<div style=""font-size:60px;"">+</div>","null","fixation","","","","","","","","","","","",""
"revaluation","84","568761","0.0-3.0-11.0-4.0-0.2","spark_pilot_norest","8684","2","18","Female","","","false","","","","[384.29999999701977]","./assets/img/space/animals/rabbit.jpg","[""ArrowRight""]","practice block","space","23","{""ArrowUp,ArrowLeft"":3,""ArrowUp,ArrowRight"":36,""ArrowDown,ArrowLeft"":15,""ArrowDown,ArrowRight"":23}","true","ArrowDown,ArrowRight","","","","","","",""
"html-keyboard-response","85","569263","0.0-3.0-11.0-4.0-1.2","spark_pilot_norest","8684","2","18","Female","","","","","","","null","<div style=""font-size:60px;"">+</div>","null","fixation","","","","","","","","","","","",""
"revaluation","86","573270","0.0-3.0-11.0-4.0-0.3","spark_pilot_norest","8684","2","18","Female","","","false","","","","[289.70000000298023]","./assets/img/space/animals/cat.jpg","[""ArrowRight""]","practice block","space","36","{""ArrowUp,ArrowLeft"":3,""ArrowUp,ArrowRight"":36,""ArrowDown,ArrowLeft"":15,""ArrowDown,ArrowRight"":23}","true","ArrowUp,ArrowRight","","","","","","",""
"html-keyboard-response","87","573772","0.0-3.0-11.0-4.0-1.3","spark_pilot_norest","8684","2","18","Female","","","","","","","null","<div style=""font-size:60px;"">+</div>","null","fixation","","","","","","","","","","","",""
"learning-instructions","88","585753","0.0-3.0-11.0-5.0-0.0","spark_pilot_norest","8684","2","18","Female","","","","","","","null","<p> You have almost finished this part of the game! </p>
            <p> We are going to ask you to make a few more choices. </p>","","instructions","","","","","","","","","","","",""
"learning-instructions","89","606262","0.0-3.0-11.0-5.0-0.1","spark_pilot_norest","8684","2","18","Female","","","","","","","null","<p> First, you need to decide whether to go up or down. When you see each picture, use the arrow keys to make your choice. </p>
            <p><b>You will not see which animal you found, but try to get to the one that will give you the most treasure.</b></p>","","instructions","","","","","","","","","","","",""
"html-keyboard-response","90","607264","0.0-3.0-11.0-6.0-0.0","spark_pilot_norest","8684","2","18","Female","","","","","","","null","<div style=""font-size:100px;color:red;"">Starting in...</div>","null","","","","","","","","","","","","",""
"html-keyboard-response","91","608266","0.0-3.0-11.0-6.0-1.0","spark_pilot_norest","8684","2","18","Female","","","","","","","null","<div style=""font-size:200px;color:red;"">3</div>","null","","","","","","","","","","","","",""
"html-keyboard-response","92","609267","0.0-3.0-11.0-6.0-2.0","spark_pilot_norest","8684","2","18","Female","","","","","","","null","<div style=""font-size:200px;color:red;"">2</div>","null","","","","","","","","","","","","",""
"html-keyboard-response","93","610270","0.0-3.0-11.0-6.0-3.0","spark_pilot_norest","8684","2","18","Female","","","","","","","null","<div style=""font-size:200px;color:red;"">1</div>","null","","","","","","","","","","","","",""
"revaluation","94","610941","0.0-3.0-11.0-7.0","spark_pilot_norest","8684","2","18","Female","","","false","","","","[638]","./assets/img/space/15.jpg","[""ArrowUp""]","practice block","space","0","{""ArrowUp,ArrowLeft"":3,""ArrowUp,ArrowRight"":36,""ArrowDown,ArrowLeft"":15,""ArrowDown,ArrowRight"":23}","true","ArrowUp","false","","","","","",""
"html-keyboard-response","95","611443","0.0-3.0-11.0-8.0","spark_pilot_norest","8684","2","18","Female","","","","","","","null","<div style=""font-size:60px;"">+</div>","null","fixation","","","","","","","","","","","",""
"learning-instructions","96","624883","0.0-3.0-11.0-9.0-0.0","spark_pilot_norest","8684","2","18","Female","","","","","","","null","<p> Now you will see the animals again and can search their chests for treasure. </p>
            <p> This time, you will not see how much treasure you earned, but you will earn more bonus money for making better choices. </p>","","instructions","","","","","","","","","","","",""
"html-keyboard-response","97","625885","0.0-3.0-11.0-10.0-0.0","spark_pilot_norest","8684","2","18","Female","","","","","","","null","<div style=""font-size:100px;color:red;"">Starting in...</div>","null","","","","","","","","","","","","",""
"html-keyboard-response","98","626888","0.0-3.0-11.0-10.0-1.0","spark_pilot_norest","8684","2","18","Female","","","","","","","null","<div style=""font-size:200px;color:red;"">3</div>","null","","","","","","","","","","","","",""
"html-keyboard-response","99","627891","0.0-3.0-11.0-10.0-2.0","spark_pilot_norest","8684","2","18","Female","","","","","","","null","<div style=""font-size:200px;color:red;"">2</div>","null","","","","","","","","","","","","",""
"html-keyboard-response","100","628892","0.0-3.0-11.0-10.0-3.0","spark_pilot_norest","8684","2","18","Female","","","","","","","null","<div style=""font-size:200px;color:red;"">1</div>","null","","","","","","","","","","","","",""
"revaluation","101","629706","0.0-3.0-11.0-11.0-0.0","spark_pilot_norest","8684","2","18","Female","","","false","","","","[780.7000000029802]","./assets/img/space/animals/cat.jpg","[""ArrowRight""]","practice block","space","0","{""ArrowUp,ArrowLeft"":3,""ArrowUp,ArrowRight"":36,""ArrowDown,ArrowLeft"":15,""ArrowDown,ArrowRight"":23}","true","ArrowUp,ArrowRight","","","","","","",""
"html-keyboard-response","102","630209","0.0-3.0-11.0-11.0-1.0","spark_pilot_norest","8684","2","18","Female","","","","","","","null","<div style=""font-size:60px;"">+</div>","null","fixation","","","","","","","","","","","",""
"revaluation","103","630826","0.0-3.0-11.0-11.0-0.1","spark_pilot_norest","8684","2","18","Female","","","false","","","","[612.4000000059605]","./assets/img/space/animals/rabbit.jpg","[""ArrowRight""]","practice block","space","0","{""ArrowUp,ArrowLeft"":3,""ArrowUp,ArrowRight"":36,""ArrowDown,ArrowLeft"":15,""ArrowDown,ArrowRight"":23}","true","ArrowDown,ArrowRight","","","","","","",""
"html-keyboard-response","104","631329","0.0-3.0-11.0-11.0-1.1","spark_pilot_norest","8684","2","18","Female","","","","","","","null","<div style=""font-size:60px;"">+</div>","null","fixation","","","","","","","","","","","",""
"learning-instructions","105","639798","0.0-3.0-12.0-0.0","spark_pilot_norest","8684","2","18","Female","","","","","","","3855","<p> Before you start, we're going to ask you a few questions about how the game works. </p>","","instructions","","","","","","","","","","","",""
"comp-q","106","656137","0.0-3.0-13.0-0.0-0.0","spark_pilot_norest","8684","2","18","Female","","","","","","","10718.59999999404","<p> <b> True or False? </b> </p>
            <p> There can be 50 pieces of treasure in a given animal's chest. </p>","1","comp_question","","","","true","","","","","","","",""
"comp-q","107","664882","0.0-3.0-13.0-0.0-1.0","spark_pilot_norest","8684","2","18","Female","","","","","","","2049.0999999940395","<p> <b> That's right! </b> The amount of treasure in each chest can range from 0 to 40 pieces. </p>","0","comp_answer","","","","","","","","","","","",""
"comp-q","108","673175","0.0-3.0-13.0-0.1-0.1","spark_pilot_norest","8684","2","18","Female","","","","","","","1141.7999999970198","<p> <b> True or False? </b> </p><p> In this game, all animals have the same amount of treasure in their left and right chests. </p>","1","comp_question","","","","true","","","","","","","",""
"comp-q","109","680134","0.0-3.0-13.0-0.1-1.1","spark_pilot_norest","8684","2","18","Female","","","","","","","1690.800000011921","<p> <b> That's right! </b> Animals have different amounts of treasure in their treasure chests. </p>","0","comp_answer","","","","","","","","","","","",""
"comp-q","110","689295","0.0-3.0-13.0-0.2-0.2","spark_pilot_norest","8684","2","18","Female","","","","","","","3292.6000000089407","<p> <b> True or False? </b> </p><p> The same animal will always be there if you go up in the same place. </p>","0","comp_question","","","","true","","","","","","","",""
"comp-q","111","697835","0.0-3.0-13.0-0.2-1.2","spark_pilot_norest","8684","2","18","Female","","","","","","","2052.5999999940395","<p> <b> That's right! </b> One animal lives in the upper part and one lives in the lower part of every place. </p>","0","comp_answer","","","","","","","","","","","",""
"comp-q","112","704693","0.0-3.0-13.0-0.3-0.3","spark_pilot_norest","8684","2","18","Female","","","","","","","1301.4000000059605","<p> <b> True or False? </b> </p><p> If you see a different picture, it means you are in a new place. </p>","0","comp_question","","","","false","","","","","","","",""
"comp-q","113","716691","0.0-3.0-13.0-0.3-1.3","spark_pilot_norest","8684","2","18","Female","","","","","","","858.8000000119209","<p> <b>Incorrect.</b> Lots of different images may show the same place. For example,  you may see three different images that all remind you that you are in outer space. </p>","0","comp_answer","","","","","","","","","","","",""
"comp-q","114","723417","0.0-3.0-13.0-0.4-0.4","spark_pilot_norest","8684","2","18","Female","","","","","","","1223.9000000059605","<p> <b> True or False? </b> </p><p> If you see a different picture, it means you are in a new place. </p>","1","comp_question","","","","true","","","","","","","",""
"comp-q","115","736213","0.0-3.0-13.0-0.4-1.4","spark_pilot_norest","8684","2","18","Female","","","","","","","1510.9000000059605","<p> <b> That's right! </b> Lots of different images may show the same place. For example,  you may see three different images that all remind you that you are in outer space. </p>","0","comp_answer","","","","","","","","","","","",""
"learning-instructions","116","750739","0.0-3.0-14.0-0.0","spark_pilot_norest","8684","2","18","Female","","","","","","","4627.5999999940395","<p> Good job. Remember to do your best because the amount of treasure you earn will be converted into bonus money. </p>
            <p> It’s time to start the real game! </p>","","instructions","","","","","","","","","","","",""
"learning-instructions","117","755599","0.0-4.0-0.0-0.0","spark_pilot_norest","8684","2","18","Female","","","","","","","2137.8999999910593","<p> This time you are searching for treasure in the <b>ocean</b>.</p>","","instructions","","","","","","","","","","","",""
"learning-instructions","118","775380","0.0-4.0-0.0-0.1","spark_pilot_norest","8684","2","18","Female","","","","","","","2418.800000011921","<p><b>New</b> animals with <b>new</b> treasure chests live here. You need to explore to discover where the animal with the best treasure chest is.</p>
                    <p> Like before, once you figure out which animal has the chest with the most treasure, you should try to get to that animal and select that chest! </p>","","instructions","","","","","","","","","","","",""
"learning-instructions","119","791528","0.0-4.0-1.0-0.0","spark_pilot_norest","8684","2","18","Female","","","","","","","1416","<p> Remember, when you see a picture of the place, use the up and down keys to <b>find an animal</b>.</p>
            <p> When you encounter an animal, you should use the left and right keys to <b>select a treasure chest</b>.</p>
            <p> Don't forget to look out for the robber! </p>","","instructions","","","","","","","","","","","",""
"revaluation","120","797554","0.0-4.0-2.0-0.0","spark_pilot_norest","8684","2","18","Female","","","false","","","","[1137.699999988079,422.79999999701977]","./assets/img/ocean/memory/41.jpg","[""ArrowUp"",""ArrowRight""]","value training","ocean","10","{""ArrowUp,ArrowLeft"":23,""ArrowUp,ArrowRight"":10,""ArrowDown,ArrowLeft"":8,""ArrowDown,ArrowRight"":30}","false","ArrowUp,ArrowRight","false","revaluation","1","0","","",""
"html-keyboard-response","121","798062","0.0-4.0-2.0-1.0","spark_pilot_norest","8684","2","18","Female","","","","","","","null","<div style=""font-size:60px;"">+</div>","null","fixation","","","","","","","","","1","","",""
"revaluation","122","804070","0.0-4.0-2.0-0.1","spark_pilot_norest","8684","2","18","Female","","","false","","","","[790.7000000029802,269.1000000089407]","./assets/img/ocean/memory/35.jpg","[""ArrowUp"",""ArrowLeft""]","value training","ocean","23","{""ArrowUp,ArrowLeft"":23,""ArrowUp,ArrowRight"":10,""ArrowDown,ArrowLeft"":8,""ArrowDown,ArrowRight"":30}","false","ArrowUp,ArrowLeft","false","revaluation","1","2","","",""
"html-keyboard-response","123","804572","0.0-4.0-2.0-1.1","spark_pilot_norest","8684","2","18","Female","","","","","","","null","<div style=""font-size:60px;"">+</div>","null","fixation","","","","","","","","","3","","",""
"revaluation","124","810580","0.0-4.0-2.0-0.2","spark_pilot_norest","8684","2","18","Female","","","false","","","","[301.19999998807907,261.09999999403954]","./assets/img/ocean/memory/24.jpg","[""ArrowDown"",""ArrowRight""]","value training","ocean","30","{""ArrowUp,ArrowLeft"":23,""ArrowUp,ArrowRight"":10,""ArrowDown,ArrowLeft"":8,""ArrowDown,ArrowRight"":30}","true","ArrowDown,ArrowRight","false","revaluation","1","4","","",""
"html-keyboard-response","125","811083","0.0-4.0-2.0-1.2","spark_pilot_norest","8684","2","18","Female","","","","","","","null","<div style=""font-size:60px;"">+</div>","null","fixation","","","","","","","","","5","","",""
"revaluation","126","815090","0.0-4.0-2.0-0.3","spark_pilot_norest","8684","2","18","Female","","","false","","","","[731.6000000089407]","./assets/img/ocean/catch/0.jpg","[""spaceBar""]","value training","ocean","0","{""ArrowUp,ArrowLeft"":23,""ArrowUp,ArrowRight"":10,""ArrowDown,ArrowLeft"":8,""ArrowDown,ArrowRight"":30}","true","spaceBar","true","revaluation","1","6","","",""
"html-keyboard-response","127","815593","0.0-4.0-2.0-1.3","spark_pilot_norest","8684","2","18","Female","","","","","","","null","<div style=""font-size:60px;"">+</div>","null","fixation","","","","","","","","","7","","",""
"revaluation","128","821602","0.0-4.0-2.0-0.4","spark_pilot_norest","8684","2","18","Female","","","false","","","","[305.5,451.1000000089407]","./assets/img/ocean/memory/38.jpg","[""ArrowDown"",""ArrowLeft""]","value training","ocean","8","{""ArrowUp,ArrowLeft"":23,""ArrowUp,ArrowRight"":10,""ArrowDown,ArrowLeft"":8,""ArrowDown,ArrowRight"":30}","false","ArrowDown,ArrowLeft","false","revaluation","1","8","","",""
"html-keyboard-response","129","822104","0.0-4.0-2.0-1.4","spark_pilot_norest","8684","2","18","Female","","","","","","","null","<div style=""font-size:60px;"">+</div>","null","fixation","","","","","","","","","9","","",""
"revaluation","130","828113","0.0-4.0-2.0-0.5","spark_pilot_norest","8684","2","18","Female","","","false","","","","[741,285.69999998807907]","./assets/img/ocean/memory/15.jpg","[""ArrowUp"",""ArrowLeft""]","value training","ocean","23","{""ArrowUp,ArrowLeft"":23,""ArrowUp,ArrowRight"":10,""ArrowDown,ArrowLeft"":8,""ArrowDown,ArrowRight"":30}","false","ArrowUp,ArrowLeft","false","revaluation","1","10","","",""
"html-keyboard-response","131","828616","0.0-4.0-2.0-1.5","spark_pilot_norest","8684","2","18","Female","","","","","","","null","<div style=""font-size:60px;"">+</div>","null","fixation","","","","","","","","","11","","",""
"revaluation","132","834624","0.0-4.0-2.0-0.6","spark_pilot_norest","8684","2","18","Female","","","false","","","","[706.9000000059605,253.30000001192093]","./assets/img/ocean/memory/3.jpg","[""ArrowDown"",""ArrowRight""]","value training","ocean","30","{""ArrowUp,ArrowLeft"":23,""ArrowUp,ArrowRight"":10,""ArrowDown,ArrowLeft"":8,""ArrowDown,ArrowRight"":30}","true","ArrowDown,ArrowRight","false","revaluation","1","12","","",""
"html-keyboard-response","133","835126","0.0-4.0-2.0-1.6","spark_pilot_norest","8684","2","18","Female","","","","","","","null","<div style=""font-size:60px;"">+</div>","null","fixation","","","","","","","","","13","","",""
"revaluation","134","841134","0.0-4.0-2.0-0.7","spark_pilot_norest","8684","2","18","Female","","","false","","","","[602.4000000059605,84.70000000298023]","./assets/img/ocean/memory/40.jpg","[""ArrowUp"",""ArrowLeft""]","value training","ocean","23","{""ArrowUp,ArrowLeft"":23,""ArrowUp,ArrowRight"":10,""ArrowDown,ArrowLeft"":8,""ArrowDown,ArrowRight"":30}","false","ArrowUp,ArrowLeft","false","revaluation","1","14","","",""
"html-keyboard-response","135","841636","0.0-4.0-2.0-1.7","spark_pilot_norest","8684","2","18","Female","","","","","","","null","<div style=""font-size:60px;"">+</div>","null","fixation","","","","","","","","","15","","",""
"revaluation","136","847644","0.0-4.0-2.0-0.8","spark_pilot_norest","8684","2","18","Female","","","false","","","","[717.7999999970198,506.79999999701977]","./assets/img/ocean/memory/5.jpg","[""ArrowDown"",""ArrowLeft""]","value training","ocean","8","{""ArrowUp,ArrowLeft"":23,""ArrowUp,ArrowRight"":10,""ArrowDown,ArrowLeft"":8,""ArrowDown,ArrowRight"":30}","false","ArrowDown,ArrowLeft","false","revaluation","1","16","","",""
"html-keyboard-response","137","848146","0.0-4.0-2.0-1.8","spark_pilot_norest","8684","2","18","Female","","","","","","","null","<div style=""font-size:60px;"">+</div>","null","fixation","","","","","","","","","17","","",""
"revaluation","138","854155","0.0-4.0-2.0-0.9","spark_pilot_norest","8684","2","18","Female","","","false","","","","[673.2999999970198,378.79999999701977]","./assets/img/ocean/memory/22.jpg","[""ArrowDown"",""ArrowRight""]","value training","ocean","30","{""ArrowUp,ArrowLeft"":23,""ArrowUp,ArrowRight"":10,""ArrowDown,ArrowLeft"":8,""ArrowDown,ArrowRight"":30}","true","ArrowDown,ArrowRight","false","revaluation","1","18","","",""
"html-keyboard-response","139","854656","0.0-4.0-2.0-1.9","spark_pilot_norest","8684","2","18","Female","","","","","","","null","<div style=""font-size:60px;"">+</div>","null","fixation","","","","","","","","","19","","",""
"revaluation","140","860662","0.0-4.0-2.0-0.10","spark_pilot_norest","8684","2","18","Female","","","false","","","","[471.1000000089407,285.29999999701977]","./assets/img/ocean/memory/23.jpg","[""ArrowUp"",""ArrowLeft""]","value training","ocean","23","{""ArrowUp,ArrowLeft"":23,""ArrowUp,ArrowRight"":10,""ArrowDown,ArrowLeft"":8,""ArrowDown,ArrowRight"":30}","false","ArrowUp,ArrowLeft","false","revaluation","1","20","","",""
"html-keyboard-response","141","861164","0.0-4.0-2.0-1.10","spark_pilot_norest","8684","2","18","Female","","","","","","","null","<div style=""font-size:60px;"">+</div>","null","fixation","","","","","","","","","21","","",""
"revaluation","142","867171","0.0-4.0-2.0-0.11","spark_pilot_norest","8684","2","18","Female","","","false","","","","[345.40000000596046,240.59999999403954]","./assets/img/ocean/memory/9.jpg","[""ArrowDown"",""ArrowRight""]","value training","ocean","30","{""ArrowUp,ArrowLeft"":23,""ArrowUp,ArrowRight"":10,""ArrowDown,ArrowLeft"":8,""ArrowDown,ArrowRight"":30}","true","ArrowDown,ArrowRight","false","revaluation","1","22","","",""
"html-keyboard-response","143","867673","0.0-4.0-2.0-1.11","spark_pilot_norest","8684","2","18","Female","","","","","","","null","<div style=""font-size:60px;"">+</div>","null","fixation","","","","","","","","","23","","",""
"revaluation","144","873681","0.0-4.0-2.0-0.12","spark_pilot_norest","8684","2","18","Female","","","false","","","","[1368.3999999910593,994.7999999970198]","./assets/img/ocean/memory/8.jpg","[""ArrowDown"",""ArrowRight""]","value training","ocean","30","{""ArrowUp,ArrowLeft"":23,""ArrowUp,ArrowRight"":10,""ArrowDown,ArrowLeft"":8,""ArrowDown,ArrowRight"":30}","true","ArrowDown,ArrowRight","false","revaluation","1","24","","",""
"html-keyboard-response","145","874183","0.0-4.0-2.0-1.12","spark_pilot_norest","8684","2","18","Female","","","","","","","null","<div style=""font-size:60px;"">+</div>","null","fixation","","","","","","","","","25","","",""
"revaluation","146","880190","0.0-4.0-2.0-0.13","spark_pilot_norest","8684","2","18","Female","","","false","","","","[369.29999999701977,351.59999999403954]","./assets/img/ocean/memory/12.jpg","[""ArrowDown"",""ArrowRight""]","value training","ocean","30","{""ArrowUp,ArrowLeft"":23,""ArrowUp,ArrowRight"":10,""ArrowDown,ArrowLeft"":8,""ArrowDown,ArrowRight"":30}","true","ArrowDown,ArrowRight","false","revaluation","1","26","","",""
"html-keyboard-response","147","880692","0.0-4.0-2.0-1.13","spark_pilot_norest","8684","2","18","Female","","","","","","","null","<div style=""font-size:60px;"">+</div>","null","fixation","","","","","","","","","27","","",""
"revaluation","148","886698","0.0-4.0-2.0-0.14","spark_pilot_norest","8684","2","18","Female","","","false","","","","[843.5,607]","./assets/img/ocean/memory/12.jpg","[""ArrowDown"",""ArrowRight""]","value training","ocean","30","{""ArrowUp,ArrowLeft"":23,""ArrowUp,ArrowRight"":10,""ArrowDown,ArrowLeft"":8,""ArrowDown,ArrowRight"":30}","true","ArrowDown,ArrowRight","false","revaluation","1","28","","",""
"html-keyboard-response","149","887199","0.0-4.0-2.0-1.14","spark_pilot_norest","8684","2","18","Female","","","","","","","null","<div style=""font-size:60px;"">+</div>","null","fixation","","","","","","","","","29","","",""
"revaluation","150","893206","0.0-4.0-2.0-0.15","spark_pilot_norest","8684","2","18","Female","","","false","","","","[754.0999999940395,297.20000000298023]","./assets/img/ocean/memory/24.jpg","[""ArrowDown"",""ArrowRight""]","value training","ocean","30","{""ArrowUp,ArrowLeft"":23,""ArrowUp,ArrowRight"":10,""ArrowDown,ArrowLeft"":8,""ArrowDown,ArrowRight"":30}","true","ArrowDown,ArrowRight","false","revaluation","1","30","","",""
"html-keyboard-response","151","893709","0.0-4.0-2.0-1.15","spark_pilot_norest","8684","2","18","Female","","","","","","","null","<div style=""font-size:60px;"">+</div>","null","fixation","","","","","","","","","31","","",""
"revaluation","152","899715","0.0-4.0-2.0-0.16","spark_pilot_norest","8684","2","18","Female","","","false","","","","[699.2000000029802,485.40000000596046]","./assets/img/ocean/memory/13.jpg","[""ArrowDown"",""ArrowRight""]","value training","ocean","30","{""ArrowUp,ArrowLeft"":23,""ArrowUp,ArrowRight"":10,""ArrowDown,ArrowLeft"":8,""ArrowDown,ArrowRight"":30}","true","ArrowDown,ArrowRight","false","revaluation","1","32","","",""
"html-keyboard-response","153","900217","0.0-4.0-2.0-1.16","spark_pilot_norest","8684","2","18","Female","","","","","","","null","<div style=""font-size:60px;"">+</div>","null","fixation","","","","","","","","","33","","",""
"revaluation","154","906224","0.0-4.0-2.0-0.17","spark_pilot_norest","8684","2","18","Female","","","false","","","","[634.2000000029802,307.29999999701977]","./assets/img/ocean/memory/37.jpg","[""ArrowDown"",""ArrowRight""]","value training","ocean","30","{""ArrowUp,ArrowLeft"":23,""ArrowUp,ArrowRight"":10,""ArrowDown,ArrowLeft"":8,""ArrowDown,ArrowRight"":30}","true","ArrowDown,ArrowRight","false","revaluation","1","34","","",""
"html-keyboard-response","155","906726","0.0-4.0-2.0-1.17","spark_pilot_norest","8684","2","18","Female","","","","","","","null","<div style=""font-size:60px;"">+</div>","null","fixation","","","","","","","","","35","","",""
"revaluation","156","912733","0.0-4.0-2.0-0.18","spark_pilot_norest","8684","2","18","Female","","","false","","","","[342.5,448.5]","./assets/img/ocean/memory/2.jpg","[""ArrowDown"",""ArrowRight""]","value training","ocean","30","{""ArrowUp,ArrowLeft"":23,""ArrowUp,ArrowRight"":10,""ArrowDown,ArrowLeft"":8,""ArrowDown,ArrowRight"":30}","true","ArrowDown,ArrowRight","false","revaluation","1","36","","",""
"html-keyboard-response","157","913235","0.0-4.0-2.0-1.18","spark_pilot_norest","8684","2","18","Female","","","","","","","null","<div style=""font-size:60px;"">+</div>","null","fixation","","","","","","","","","37","","",""
"revaluation","158","919242","0.0-4.0-2.0-0.19","spark_pilot_norest","8684","2","18","Female","","","false","","","","[551.8999999910593,430.70000000298023]","./assets/img/ocean/memory/22.jpg","[""ArrowDown"",""ArrowRight""]","value training","ocean","30","{""ArrowUp,ArrowLeft"":23,""ArrowUp,ArrowRight"":10,""ArrowDown,ArrowLeft"":8,""ArrowDown,ArrowRight"":30}","true","ArrowDown,ArrowRight","false","revaluation","1","38","","",""
"html-keyboard-response","159","919744","0.0-4.0-2.0-1.19","spark_pilot_norest","8684","2","18","Female","","","","","","","null","<div style=""font-size:60px;"">+</div>","null","fixation","","","","","","","","","39","","",""
"revaluation","160","925752","0.0-4.0-2.0-0.20","spark_pilot_norest","8684","2","18","Female","","","false","","","","[807.3999999910593,325.79999999701977]","./assets/img/ocean/memory/30.jpg","[""ArrowDown"",""ArrowRight""]","value training","ocean","30","{""ArrowUp,ArrowLeft"":23,""ArrowUp,ArrowRight"":10,""ArrowDown,ArrowLeft"":8,""ArrowDown,ArrowRight"":30}","true","ArrowDown,ArrowRight","false","revaluation","1","40","","",""
"html-keyboard-response","161","926254","0.0-4.0-2.0-1.20","spark_pilot_norest","8684","2","18","Female","","","","","","","null","<div style=""font-size:60px;"">+</div>","null","fixation","","","","","","","","","41","","",""
"revaluation","162","930262","0.0-4.0-2.0-0.21","spark_pilot_norest","8684","2","18","Female","","","false","","","","[1369.2000000029802]","./assets/img/ocean/catch/2.jpg","[""spaceBar""]","value training","ocean","0","{""ArrowUp,ArrowLeft"":23,""ArrowUp,ArrowRight"":10,""ArrowDown,ArrowLeft"":8,""ArrowDown,ArrowRight"":30}","true","spaceBar","true","revaluation","1","42","","",""
"html-keyboard-response","163","930764","0.0-4.0-2.0-1.21","spark_pilot_norest","8684","2","18","Female","","","","","","","null","<div style=""font-size:60px;"">+</div>","null","fixation","","","","","","","","","43","","",""
"revaluation","164","934775","0.0-4.0-2.0-0.22","spark_pilot_norest","8684","2","18","Female","","","true","","","","[]","./assets/img/ocean/catch/6.jpg","[]","value training","ocean","-5","{""ArrowUp,ArrowLeft"":23,""ArrowUp,ArrowRight"":10,""ArrowDown,ArrowLeft"":8,""ArrowDown,ArrowRight"":30}","false","","true","revaluation","1","44","","",""
"html-keyboard-response","165","935277","0.0-4.0-2.0-1.22","spark_pilot_norest","8684","2","18","Female","","","","","","","null","<div style=""font-size:60px;"">+</div>","null","fixation","","","","","","","","","45","","",""
"revaluation","166","941285","0.0-4.0-2.0-0.23","spark_pilot_norest","8684","2","18","Female","","","false","","","","[740.2000000029802,481.6000000089407]","./assets/img/ocean/memory/41.jpg","[""ArrowDown"",""ArrowRight""]","value training","ocean","30","{""ArrowUp,ArrowLeft"":23,""ArrowUp,ArrowRight"":10,""ArrowDown,ArrowLeft"":8,""ArrowDown,ArrowRight"":30}","true","ArrowDown,ArrowRight","false","revaluation","1","46","","",""
"html-keyboard-response","167","941786","0.0-4.0-2.0-1.23","spark_pilot_norest","8684","2","18","Female","","","","","","","null","<div style=""font-size:60px;"">+</div>","null","fixation","","","","","","","","","47","","",""
"revaluation","168","947796","0.0-4.0-2.0-0.24","spark_pilot_norest","8684","2","18","Female","","","false","","","","[372.40000000596046,590.9000000059605]","./assets/img/ocean/memory/8.jpg","[""ArrowDown"",""ArrowRight""]","value training","ocean","30","{""ArrowUp,ArrowLeft"":23,""ArrowUp,ArrowRight"":10,""ArrowDown,ArrowLeft"":8,""ArrowDown,ArrowRight"":30}","true","ArrowDown,ArrowRight","false","revaluation","1","48","","",""
"html-keyboard-response","169","948298","0.0-4.0-2.0-1.24","spark_pilot_norest","8684","2","18","Female","","","","","","","null","<div style=""font-size:60px;"">+</div>","null","fixation","","","","","","","","","49","","",""
"revaluation","170","952303","0.0-4.0-2.0-0.25","spark_pilot_norest","8684","2","18","Female","","","false","","","","[782.8999999910593]","./assets/img/ocean/catch/5.jpg","[""spaceBar""]","value training","ocean","0","{""ArrowUp,ArrowLeft"":23,""ArrowUp,ArrowRight"":10,""ArrowDown,ArrowLeft"":8,""ArrowDown,ArrowRight"":30}","true","spaceBar","true","revaluation","1","50","","",""
"html-keyboard-response","171","952805","0.0-4.0-2.0-1.25","spark_pilot_norest","8684","2","18","Female","","","","","","","null","<div style=""font-size:60px;"">+</div>","null","fixation","","","","","","","","","51","","",""
"revaluation","172","958811","0.0-4.0-2.0-0.26","spark_pilot_norest","8684","2","18","Female","","","false","","","","[494.5,288.40000000596046]","./assets/img/ocean/memory/9.jpg","[""ArrowDown"",""ArrowRight""]","value training","ocean","30","{""ArrowUp,ArrowLeft"":23,""ArrowUp,ArrowRight"":10,""ArrowDown,ArrowLeft"":8,""ArrowDown,ArrowRight"":30}","true","ArrowDown,ArrowRight","false","revaluation","1","52","","",""
"html-keyboard-response","173","959314","0.0-4.0-2.0-1.26","spark_pilot_norest","8684","2","18","Female","","","","","","","null","<div style=""font-size:60px;"">+</div>","null","fixation","","","","","","","","","53","","",""
"revaluation","174","965321","0.0-4.0-2.0-0.27","spark_pilot_norest","8684","2","18","Female","","","false","","","","[435.29999999701977,519]","./assets/img/ocean/memory/40.jpg","[""ArrowDown"",""ArrowRight""]","value training","ocean","30","{""ArrowUp,ArrowLeft"":23,""ArrowUp,ArrowRight"":10,""ArrowDown,ArrowLeft"":8,""ArrowDown,ArrowRight"":30}","true","ArrowDown,ArrowRight","false","revaluation","1","54","","",""
"html-keyboard-response","175","965822","0.0-4.0-2.0-1.27","spark_pilot_norest","8684","2","18","Female","","","","","","","null","<div style=""font-size:60px;"">+</div>","null","fixation","","","","","","","","","55","","",""
"revaluation","176","971830","0.0-4.0-2.0-0.28","spark_pilot_norest","8684","2","18","Female","","","false","","","","[356.3999999910593,356.5]","./assets/img/ocean/memory/2.jpg","[""ArrowDown"",""ArrowRight""]","value training","ocean","30","{""ArrowUp,ArrowLeft"":23,""ArrowUp,ArrowRight"":10,""ArrowDown,ArrowLeft"":8,""ArrowDown,ArrowRight"":30}","true","ArrowDown,ArrowRight","false","revaluation","1","56","","",""
"html-keyboard-response","177","972332","0.0-4.0-2.0-1.28","spark_pilot_norest","8684","2","18","Female","","","","","","","null","<div style=""font-size:60px;"">+</div>","null","fixation","","","","","","","","","57","","",""
"revaluation","178","978338","0.0-4.0-2.0-0.29","spark_pilot_norest","8684","2","18","Female","","","false","","","","[763,490]","./assets/img/ocean/memory/30.jpg","[""ArrowDown"",""ArrowRight""]","value training","ocean","30","{""ArrowUp,ArrowLeft"":23,""ArrowUp,ArrowRight"":10,""ArrowDown,ArrowLeft"":8,""ArrowDown,ArrowRight"":30}","true","ArrowDown,ArrowRight","false","revaluation","1","58","","",""
"html-keyboard-response","179","978841","0.0-4.0-2.0-1.29","spark_pilot_norest","8684","2","18","Female","","","","","","","null","<div style=""font-size:60px;"">+</div>","null","fixation","","","","","","","","","59","","",""
"revaluation","180","984850","0.0-4.0-2.0-0.30","spark_pilot_norest","8684","2","18","Female","","","false","","","","[350.5,395.5]","./assets/img/ocean/memory/34.jpg","[""ArrowDown"",""ArrowRight""]","value training","ocean","30","{""ArrowUp,ArrowLeft"":23,""ArrowUp,ArrowRight"":10,""ArrowDown,ArrowLeft"":8,""ArrowDown,ArrowRight"":30}","true","ArrowDown,ArrowRight","false","revaluation","1","60","","",""
"html-keyboard-response","181","985352","0.0-4.0-2.0-1.30","spark_pilot_norest","8684","2","18","Female","","","","","","","null","<div style=""font-size:60px;"">+</div>","null","fixation","","","","","","","","","61","","",""
"revaluation","182","991361","0.0-4.0-2.0-0.31","spark_pilot_norest","8684","2","18","Female","","","false","","","","[438.29999999701977,540.3000000119209]","./assets/img/ocean/memory/34.jpg","[""ArrowDown"",""ArrowRight""]","value training","ocean","30","{""ArrowUp,ArrowLeft"":23,""ArrowUp,ArrowRight"":10,""ArrowDown,ArrowLeft"":8,""ArrowDown,ArrowRight"":30}","true","ArrowDown,ArrowRight","false","revaluation","1","62","","",""
"html-keyboard-response","183","991863","0.0-4.0-2.0-1.31","spark_pilot_norest","8684","2","18","Female","","","","","","","null","<div style=""font-size:60px;"">+</div>","null","fixation","","","","","","","","","63","","",""
"revaluation","184","997871","0.0-4.0-2.0-0.32","spark_pilot_norest","8684","2","18","Female","","","false","","","","[503.09999999403954,621.7000000029802]","./assets/img/ocean/memory/31.jpg","[""ArrowDown"",""ArrowRight""]","value training","ocean","30","{""ArrowUp,ArrowLeft"":23,""ArrowUp,ArrowRight"":10,""ArrowDown,ArrowLeft"":8,""ArrowDown,ArrowRight"":30}","true","ArrowDown,ArrowRight","false","revaluation","1","64","","",""
"html-keyboard-response","185","998373","0.0-4.0-2.0-1.32","spark_pilot_norest","8684","2","18","Female","","","","","","","null","<div style=""font-size:60px;"">+</div>","null","fixation","","","","","","","","","65","","",""
"revaluation","186","1004379","0.0-4.0-2.0-0.33","spark_pilot_norest","8684","2","18","Female","","","false","","","","[473.1000000089407,510]","./assets/img/ocean/memory/25.jpg","[""ArrowDown"",""ArrowRight""]","value training","ocean","30","{""ArrowUp,ArrowLeft"":23,""ArrowUp,ArrowRight"":10,""ArrowDown,ArrowLeft"":8,""ArrowDown,ArrowRight"":30}","true","ArrowDown,ArrowRight","false","revaluation","1","66","","",""
"html-keyboard-response","187","1004882","0.0-4.0-2.0-1.33","spark_pilot_norest","8684","2","18","Female","","","","","","","null","<div style=""font-size:60px;"">+</div>","null","fixation","","","","","","","","","67","","",""
"revaluation","188","1010889","0.0-4.0-2.0-0.34","spark_pilot_norest","8684","2","18","Female","","","false","","","","[363.20000000298023,317.59999999403954]","./assets/img/ocean/memory/3.jpg","[""ArrowDown"",""ArrowRight""]","value training","ocean","30","{""ArrowUp,ArrowLeft"":23,""ArrowUp,ArrowRight"":10,""ArrowDown,ArrowLeft"":8,""ArrowDown,ArrowRight"":30}","true","ArrowDown,ArrowRight","false","revaluation","1","68","","",""
"html-keyboard-response","189","1011391","0.0-4.0-2.0-1.34","spark_pilot_norest","8684","2","18","Female","","","","","","","null","<div style=""font-size:60px;"">+</div>","null","fixation","","","","","","","","","69","","",""
"revaluation","190","1017399","0.0-4.0-2.0-0.35","spark_pilot_norest","8684","2","18","Female","","","false","","","","[539.0999999940395,398.59999999403954]","./assets/img/ocean/memory/37.jpg","[""ArrowDown"",""ArrowRight""]","value training","ocean","30","{""ArrowUp,ArrowLeft"":23,""ArrowUp,ArrowRight"":10,""ArrowDown,ArrowLeft"":8,""ArrowDown,ArrowRight"":30}","true","ArrowDown,ArrowRight","false","revaluation","1","70","","",""
"html-keyboard-response","191","1017901","0.0-4.0-2.0-1.35","spark_pilot_norest","8684","2","18","Female","","","","","","","null","<div style=""font-size:60px;"">+</div>","null","fixation","","","","","","","","","71","","",""
"revaluation","192","1023911","0.0-4.0-2.0-0.36","spark_pilot_norest","8684","2","18","Female","","","false","","","","[306.40000000596046,287.80000001192093]","./assets/img/ocean/memory/16.jpg","[""ArrowDown"",""ArrowRight""]","value training","ocean","30","{""ArrowUp,ArrowLeft"":23,""ArrowUp,ArrowRight"":10,""ArrowDown,ArrowLeft"":8,""ArrowDown,ArrowRight"":30}","true","ArrowDown,ArrowRight","false","revaluation","1","72","","",""
"html-keyboard-response","193","1024413","0.0-4.0-2.0-1.36","spark_pilot_norest","8684","2","18","Female","","","","","","","null","<div style=""font-size:60px;"">+</div>","null","fixation","","","","","","","","","73","","",""
"revaluation","194","1030419","0.0-4.0-2.0-0.37","spark_pilot_norest","8684","2","18","Female","","","false","","","","[519.5999999940395,484.30000001192093]","./assets/img/ocean/memory/38.jpg","[""ArrowDown"",""ArrowRight""]","value training","ocean","30","{""ArrowUp,ArrowLeft"":23,""ArrowUp,ArrowRight"":10,""ArrowDown,ArrowLeft"":8,""ArrowDown,ArrowRight"":30}","true","ArrowDown,ArrowRight","false","revaluation","1","74","","",""
"html-keyboard-response","195","1030921","0.0-4.0-2.0-1.37","spark_pilot_norest","8684","2","18","Female","","","","","","","null","<div style=""font-size:60px;"">+</div>","null","fixation","","","","","","","","","75","","",""
"revaluation","196","1036929","0.0-4.0-2.0-0.38","spark_pilot_norest","8684","2","18","Female","","","false","","","","[493.8999999910593,291]","./assets/img/ocean/memory/25.jpg","[""ArrowDown"",""ArrowRight""]","value training","ocean","30","{""ArrowUp,ArrowLeft"":23,""ArrowUp,ArrowRight"":10,""ArrowDown,ArrowLeft"":8,""ArrowDown,ArrowRight"":30}","true","ArrowDown,ArrowRight","false","revaluation","1","76","","",""
"html-keyboard-response","197","1037431","0.0-4.0-2.0-1.38","spark_pilot_norest","8684","2","18","Female","","","","","","","null","<div style=""font-size:60px;"">+</div>","null","fixation","","","","","","","","","77","","",""
"revaluation","198","1043437","0.0-4.0-2.0-0.39","spark_pilot_norest","8684","2","18","Female","","","false","","","","[701.2000000029802,714.5]","./assets/img/ocean/memory/15.jpg","[""ArrowDown"",""ArrowRight""]","value training","ocean","30","{""ArrowUp,ArrowLeft"":23,""ArrowUp,ArrowRight"":10,""ArrowDown,ArrowLeft"":8,""ArrowDown,ArrowRight"":30}","true","ArrowDown,ArrowRight","false","revaluation","1","78","","",""
"html-keyboard-response","199","1043940","0.0-4.0-2.0-1.39","spark_pilot_norest","8684","2","18","Female","","","","","","","null","<div style=""font-size:60px;"">+</div>","null","fixation","","","","","","","","","79","","",""
"revaluation","200","1049946","0.0-4.0-2.0-0.40","spark_pilot_norest","8684","2","18","Female","","","false","","","","[746.2999999970198,656.2999999970198]","./assets/img/ocean/memory/35.jpg","[""ArrowDown"",""ArrowRight""]","value training","ocean","30","{""ArrowUp,ArrowLeft"":23,""ArrowUp,ArrowRight"":10,""ArrowDown,ArrowLeft"":8,""ArrowDown,ArrowRight"":30}","true","ArrowDown,ArrowRight","false","revaluation","1","80","","",""
"html-keyboard-response","201","1050449","0.0-4.0-2.0-1.40","spark_pilot_norest","8684","2","18","Female","","","","","","","null","<div style=""font-size:60px;"">+</div>","null","fixation","","","","","","","","","81","","",""
"revaluation","202","1056456","0.0-4.0-2.0-0.41","spark_pilot_norest","8684","2","18","Female","","","false","","","","[1427.2999999970198,459.59999999403954]","./assets/img/ocean/memory/31.jpg","[""ArrowDown"",""ArrowRight""]","value training","ocean","30","{""ArrowUp,ArrowLeft"":23,""ArrowUp,ArrowRight"":10,""ArrowDown,ArrowLeft"":8,""ArrowDown,ArrowRight"":30}","true","ArrowDown,ArrowRight","false","revaluation","1","82","","",""
"html-keyboard-response","203","1056959","0.0-4.0-2.0-1.41","spark_pilot_norest","8684","2","18","Female","","","","","","","null","<div style=""font-size:60px;"">+</div>","null","fixation","","","","","","","","","83","","",""
"revaluation","204","1060964","0.0-4.0-2.0-0.42","spark_pilot_norest","8684","2","18","Female","","","false","","","","[638]","./assets/img/ocean/catch/3.jpg","[""spaceBar""]","value training","ocean","0","{""ArrowUp,ArrowLeft"":23,""ArrowUp,ArrowRight"":10,""ArrowDown,ArrowLeft"":8,""ArrowDown,ArrowRight"":30}","true","spaceBar","true","revaluation","1","84","","",""
"html-keyboard-response","205","1061467","0.0-4.0-2.0-1.42","spark_pilot_norest","8684","2","18","Female","","","","","","","null","<div style=""font-size:60px;"">+</div>","null","fixation","","","","","","","","","85","","",""
"revaluation","206","1067476","0.0-4.0-2.0-0.43","spark_pilot_norest","8684","2","18","Female","","","false","","","","[1046.800000011921,222.29999999701977]","./assets/img/ocean/memory/13.jpg","[""ArrowDown"",""ArrowRight""]","value training","ocean","30","{""ArrowUp,ArrowLeft"":23,""ArrowUp,ArrowRight"":10,""ArrowDown,ArrowLeft"":8,""ArrowDown,ArrowRight"":30}","true","ArrowDown,ArrowRight","false","revaluation","1","86","","",""
"html-keyboard-response","207","1067978","0.0-4.0-2.0-1.43","spark_pilot_norest","8684","2","18","Female","","","","","","","null","<div style=""font-size:60px;"">+</div>","null","fixation","","","","","","","","","87","","",""
"revaluation","208","1073987","0.0-4.0-2.0-0.44","spark_pilot_norest","8684","2","18","Female","","","false","","","","[491.29999999701977,263.40000000596046]","./assets/img/ocean/memory/5.jpg","[""ArrowDown"",""ArrowRight""]","value training","ocean","30","{""ArrowUp,ArrowLeft"":23,""ArrowUp,ArrowRight"":10,""ArrowDown,ArrowLeft"":8,""ArrowDown,ArrowRight"":30}","true","ArrowDown,ArrowRight","false","revaluation","1","88","","",""
"html-keyboard-response","209","1074490","0.0-4.0-2.0-1.44","spark_pilot_norest","8684","2","18","Female","","","","","","","null","<div style=""font-size:60px;"">+</div>","null","fixation","","","","","","","","","89","","",""
"revaluation","210","1078496","0.0-4.0-2.0-0.45","spark_pilot_norest","8684","2","18","Female","","","false","","","","[784.8999999910593]","./assets/img/ocean/catch/1.jpg","[""spaceBar""]","value training","ocean","0","{""ArrowUp,ArrowLeft"":23,""ArrowUp,ArrowRight"":10,""ArrowDown,ArrowLeft"":8,""ArrowDown,ArrowRight"":30}","true","spaceBar","true","revaluation","1","90","","",""
"html-keyboard-response","211","1078998","0.0-4.0-2.0-1.45","spark_pilot_norest","8684","2","18","Female","","","","","","","null","<div style=""font-size:60px;"">+</div>","null","fixation","","","","","","","","","91","","",""
"revaluation","212","1085005","0.0-4.0-2.0-0.46","spark_pilot_norest","8684","2","18","Female","","","false","","","","[1149.2999999970198,310.29999999701977]","./assets/img/ocean/memory/23.jpg","[""ArrowDown"",""ArrowRight""]","value training","ocean","30","{""ArrowUp,ArrowLeft"":23,""ArrowUp,ArrowRight"":10,""ArrowDown,ArrowLeft"":8,""ArrowDown,ArrowRight"":30}","true","ArrowDown,ArrowRight","false","revaluation","1","92","","",""
"html-keyboard-response","213","1085507","0.0-4.0-2.0-1.46","spark_pilot_norest","8684","2","18","Female","","","","","","","null","<div style=""font-size:60px;"">+</div>","null","fixation","","","","","","","","","93","","",""
"revaluation","214","1089513","0.0-4.0-2.0-0.47","spark_pilot_norest","8684","2","18","Female","","","false","","","","[608.9000000059605]","./assets/img/ocean/catch/4.jpg","[""spaceBar""]","value training","ocean","0","{""ArrowUp,ArrowLeft"":23,""ArrowUp,ArrowRight"":10,""ArrowDown,ArrowLeft"":8,""ArrowDown,ArrowRight"":30}","true","spaceBar","true","revaluation","1","94","","",""
"html-keyboard-response","215","1090015","0.0-4.0-2.0-1.47","spark_pilot_norest","8684","2","18","Female","","","","","","","null","<div style=""font-size:60px;"">+</div>","null","fixation","","","","","","","","","95","","",""
"revaluation","216","1096024","0.0-4.0-2.0-0.48","spark_pilot_norest","8684","2","18","Female","","","false","","","","[487.09999999403954,443.40000000596046]","./assets/img/ocean/memory/16.jpg","[""ArrowDown"",""ArrowRight""]","value training","ocean","30","{""ArrowUp,ArrowLeft"":23,""ArrowUp,ArrowRight"":10,""ArrowDown,ArrowLeft"":8,""ArrowDown,ArrowRight"":30}","true","ArrowDown,ArrowRight","false","revaluation","1","96","","",""
"html-keyboard-response","217","1096526","0.0-4.0-2.0-1.48","spark_pilot_norest","8684","2","18","Female","","","","","","","null","<div style=""font-size:60px;"">+</div>","null","fixation","","","","","","","","","97","","",""
"revaluation","218","1100533","0.0-4.0-2.0-0.49","spark_pilot_norest","8684","2","18","Female","","","false","","","","[801.5999999940395]","./assets/img/ocean/catch/7.jpg","[""spaceBar""]","value training","ocean","0","{""ArrowUp,ArrowLeft"":23,""ArrowUp,ArrowRight"":10,""ArrowDown,ArrowLeft"":8,""ArrowDown,ArrowRight"":30}","true","spaceBar","true","revaluation","1","98","","",""
"html-keyboard-response","219","1101035","0.0-4.0-2.0-1.49","spark_pilot_norest","8684","2","18","Female","","","","","","","null","<div style=""font-size:60px;"">+</div>","null","fixation","","","","","","","","","99","","",""
"learning-instructions","220","1117342","0.0-4.0-3.0-0.0","spark_pilot_norest","8684","2","18","Female","","","","","","","3403.5999999940395","<p> Now, you will travel with a friend who will choose whether you go up or down first. </p>
            <p> On these turns, you will just see the animal that they found. You will still get to choose which chest to search for treasure.</p>","","instructions","","","","","","","","","","","",""
"revaluation","221","1121376","0.0-4.0-4.0-0.0","spark_pilot_norest","8684","2","18","Female","","","false","","","","[941.8999999910593]","./assets/img/ocean/animals/octopus.jpg","[""ArrowRight""]","revaluation","ocean","7","{""ArrowUp,ArrowLeft"":27,""ArrowUp,ArrowRight"":15,""ArrowDown,ArrowLeft"":21,""ArrowDown,ArrowRight"":7}","false","ArrowDown,ArrowRight","","revaluation","1","0","","",""
"html-keyboard-response","222","1121883","0.0-4.0-4.0-1.0","spark_pilot_norest","8684","2","18","Female","","","","","","","null","<div style=""font-size:60px;"">+</div>","null","fixation","","","","","","","","","1","","",""
"revaluation","223","1125889","0.0-4.0-4.0-0.1","spark_pilot_norest","8684","2","18","Female","","","false","","","","[1307.5]","./assets/img/ocean/animals/seahorse.jpg","[""ArrowLeft""]","revaluation","ocean","27","{""ArrowUp,ArrowLeft"":27,""ArrowUp,ArrowRight"":15,""ArrowDown,ArrowLeft"":21,""ArrowDown,ArrowRight"":7}","true","ArrowUp,ArrowLeft","","revaluation","1","2","","",""
"html-keyboard-response","224","1126392","0.0-4.0-4.0-1.1","spark_pilot_norest","8684","2","18","Female","","","","","","","null","<div style=""font-size:60px;"">+</div>","null","fixation","","","","","","","","","3","","",""
"revaluation","225","1130399","0.0-4.0-4.0-0.2","spark_pilot_norest","8684","2","18","Female","","","false","","","","[1155.2999999970198]","./assets/img/ocean/animals/octopus.jpg","[""ArrowRight""]","revaluation","ocean","7","{""ArrowUp,ArrowLeft"":27,""ArrowUp,ArrowRight"":15,""ArrowDown,ArrowLeft"":21,""ArrowDown,ArrowRight"":7}","false","ArrowDown,ArrowRight","","revaluation","1","4","","",""
"html-keyboard-response","226","1130901","0.0-4.0-4.0-1.2","spark_pilot_norest","8684","2","18","Female","","","","","","","null","<div style=""font-size:60px;"">+</div>","null","fixation","","","","","","","","","5","","",""
"revaluation","227","1134907","0.0-4.0-4.0-0.3","spark_pilot_norest","8684","2","18","Female","","","false","","","","[1121.7000000029802]","./assets/img/ocean/animals/seahorse.jpg","[""ArrowLeft""]","revaluation","ocean","27","{""ArrowUp,ArrowLeft"":27,""ArrowUp,ArrowRight"":15,""ArrowDown,ArrowLeft"":21,""ArrowDown,ArrowRight"":7}","true","ArrowUp,ArrowLeft","","revaluation","1","6","","",""
"html-keyboard-response","228","1135409","0.0-4.0-4.0-1.3","spark_pilot_norest","8684","2","18","Female","","","","","","","null","<div style=""font-size:60px;"">+</div>","null","fixation","","","","","","","","","7","","",""
"revaluation","229","1139416","0.0-4.0-4.0-0.4","spark_pilot_norest","8684","2","18","Female","","","false","","","","[447.90000000596046]","./assets/img/ocean/animals/octopus.jpg","[""ArrowLeft""]","revaluation","ocean","21","{""ArrowUp,ArrowLeft"":27,""ArrowUp,ArrowRight"":15,""ArrowDown,ArrowLeft"":21,""ArrowDown,ArrowRight"":7}","true","ArrowDown,ArrowLeft","","revaluation","1","8","","",""
"html-keyboard-response","230","1139918","0.0-4.0-4.0-1.4","spark_pilot_norest","8684","2","18","Female","","","","","","","null","<div style=""font-size:60px;"">+</div>","null","fixation","","","","","","","","","9","","",""
"revaluation","231","1143924","0.0-4.0-4.0-0.5","spark_pilot_norest","8684","2","18","Female","","","false","","","","[245.5]","./assets/img/ocean/animals/seahorse.jpg","[""ArrowLeft""]","revaluation","ocean","27","{""ArrowUp,ArrowLeft"":27,""ArrowUp,ArrowRight"":15,""ArrowDown,ArrowLeft"":21,""ArrowDown,ArrowRight"":7}","true","ArrowUp,ArrowLeft","","revaluation","1","10","","",""
"html-keyboard-response","232","1144427","0.0-4.0-4.0-1.5","spark_pilot_norest","8684","2","18","Female","","","","","","","null","<div style=""font-size:60px;"">+</div>","null","fixation","","","","","","","","","11","","",""
"revaluation","233","1148435","0.0-4.0-4.0-0.6","spark_pilot_norest","8684","2","18","Female","","","false","","","","[483.90000000596046]","./assets/img/ocean/animals/seahorse.jpg","[""ArrowLeft""]","revaluation","ocean","27","{""ArrowUp,ArrowLeft"":27,""ArrowUp,ArrowRight"":15,""ArrowDown,ArrowLeft"":21,""ArrowDown,ArrowRight"":7}","true","ArrowUp,ArrowLeft","","revaluation","1","12","","",""
"html-keyboard-response","234","1148937","0.0-4.0-4.0-1.6","spark_pilot_norest","8684","2","18","Female","","","","","","","null","<div style=""font-size:60px;"">+</div>","null","fixation","","","","","","","","","13","","",""
"revaluation","235","1152944","0.0-4.0-4.0-0.7","spark_pilot_norest","8684","2","18","Female","","","false","","","","[426.3999999910593]","./assets/img/ocean/animals/seahorse.jpg","[""ArrowLeft""]","revaluation","ocean","27","{""ArrowUp,ArrowLeft"":27,""ArrowUp,ArrowRight"":15,""ArrowDown,ArrowLeft"":21,""ArrowDown,ArrowRight"":7}","true","ArrowUp,ArrowLeft","","revaluation","1","14","","",""
"html-keyboard-response","236","1153446","0.0-4.0-4.0-1.7","spark_pilot_norest","8684","2","18","Female","","","","","","","null","<div style=""font-size:60px;"">+</div>","null","fixation","","","","","","","","","15","","",""
"revaluation","237","1157452","0.0-4.0-4.0-0.8","spark_pilot_norest","8684","2","18","Female","","","false","","","","[229.59999999403954]","./assets/img/ocean/animals/octopus.jpg","[""ArrowLeft""]","revaluation","ocean","21","{""ArrowUp,ArrowLeft"":27,""ArrowUp,ArrowRight"":15,""ArrowDown,ArrowLeft"":21,""ArrowDown,ArrowRight"":7}","true","ArrowDown,ArrowLeft","","revaluation","1","16","","",""
"html-keyboard-response","238","1157954","0.0-4.0-4.0-1.8","spark_pilot_norest","8684","2","18","Female","","","","","","","null","<div style=""font-size:60px;"">+</div>","null","fixation","","","","","","","","","17","","",""
"revaluation","239","1161961","0.0-4.0-4.0-0.9","spark_pilot_norest","8684","2","18","Female","","","false","","","","[1306.7000000029802]","./assets/img/ocean/animals/seahorse.jpg","[""ArrowLeft""]","revaluation","ocean","27","{""ArrowUp,ArrowLeft"":27,""ArrowUp,ArrowRight"":15,""ArrowDown,ArrowLeft"":21,""ArrowDown,ArrowRight"":7}","true","ArrowUp,ArrowLeft","","revaluation","1","18","","",""
"html-keyboard-response","240","1162463","0.0-4.0-4.0-1.9","spark_pilot_norest","8684","2","18","Female","","","","","","","null","<div style=""font-size:60px;"">+</div>","null","fixation","","","","","","","","","19","","",""
"revaluation","241","1166469","0.0-4.0-4.0-0.10","spark_pilot_norest","8684","2","18","Female","","","false","","","","[342.20000000298023]","./assets/img/ocean/animals/seahorse.jpg","[""ArrowLeft""]","revaluation","ocean","27","{""ArrowUp,ArrowLeft"":27,""ArrowUp,ArrowRight"":15,""ArrowDown,ArrowLeft"":21,""ArrowDown,ArrowRight"":7}","true","ArrowUp,ArrowLeft","","revaluation","1","20","","",""
"html-keyboard-response","242","1166971","0.0-4.0-4.0-1.10","spark_pilot_norest","8684","2","18","Female","","","","","","","null","<div style=""font-size:60px;"">+</div>","null","fixation","","","","","","","","","21","","",""
"revaluation","243","1170976","0.0-4.0-4.0-0.11","spark_pilot_norest","8684","2","18","Female","","","false","","","","[284.29999999701977]","./assets/img/ocean/animals/seahorse.jpg","[""ArrowLeft""]","revaluation","ocean","27","{""ArrowUp,ArrowLeft"":27,""ArrowUp,ArrowRight"":15,""ArrowDown,ArrowLeft"":21,""ArrowDown,ArrowRight"":7}","true","ArrowUp,ArrowLeft","","revaluation","1","22","","",""
"html-keyboard-response","244","1171479","0.0-4.0-4.0-1.11","spark_pilot_norest","8684","2","18","Female","","","","","","","null","<div style=""font-size:60px;"">+</div>","null","fixation","","","","","","","","","23","","",""
"revaluation","245","1175484","0.0-4.0-4.0-0.12","spark_pilot_norest","8684","2","18","Female","","","false","","","","[215]","./assets/img/ocean/animals/octopus.jpg","[""ArrowLeft""]","revaluation","ocean","21","{""ArrowUp,ArrowLeft"":27,""ArrowUp,ArrowRight"":15,""ArrowDown,ArrowLeft"":21,""ArrowDown,ArrowRight"":7}","true","ArrowDown,ArrowLeft","","revaluation","1","24","","",""
"html-keyboard-response","246","1175986","0.0-4.0-4.0-1.12","spark_pilot_norest","8684","2","18","Female","","","","","","","null","<div style=""font-size:60px;"">+</div>","null","fixation","","","","","","","","","25","","",""
"revaluation","247","1179993","0.0-4.0-4.0-0.13","spark_pilot_norest","8684","2","18","Female","","","false","","","","[392.8999999910593]","./assets/img/ocean/animals/seahorse.jpg","[""ArrowLeft""]","revaluation","ocean","27","{""ArrowUp,ArrowLeft"":27,""ArrowUp,ArrowRight"":15,""ArrowDown,ArrowLeft"":21,""ArrowDown,ArrowRight"":7}","true","ArrowUp,ArrowLeft","","revaluation","1","26","","",""
"html-keyboard-response","248","1180494","0.0-4.0-4.0-1.13","spark_pilot_norest","8684","2","18","Female","","","","","","","null","<div style=""font-size:60px;"">+</div>","null","fixation","","","","","","","","","27","","",""
"revaluation","249","1184502","0.0-4.0-4.0-0.14","spark_pilot_norest","8684","2","18","Female","","","false","","","","[360.40000000596046]","./assets/img/ocean/animals/octopus.jpg","[""ArrowLeft""]","revaluation","ocean","21","{""ArrowUp,ArrowLeft"":27,""ArrowUp,ArrowRight"":15,""ArrowDown,ArrowLeft"":21,""ArrowDown,ArrowRight"":7}","true","ArrowDown,ArrowLeft","","revaluation","1","28","","",""
"html-keyboard-response","250","1185006","0.0-4.0-4.0-1.14","spark_pilot_norest","8684","2","18","Female","","","","","","","null","<div style=""font-size:60px;"">+</div>","null","fixation","","","","","","","","","29","","",""
"revaluation","251","1189011","0.0-4.0-4.0-0.15","spark_pilot_norest","8684","2","18","Female","","","false","","","","[316.70000000298023]","./assets/img/ocean/animals/octopus.jpg","[""ArrowLeft""]","revaluation","ocean","21","{""ArrowUp,ArrowLeft"":27,""ArrowUp,ArrowRight"":15,""ArrowDown,ArrowLeft"":21,""ArrowDown,ArrowRight"":7}","true","ArrowDown,ArrowLeft","","revaluation","1","30","","",""
"html-keyboard-response","252","1189513","0.0-4.0-4.0-1.15","spark_pilot_norest","8684","2","18","Female","","","","","","","null","<div style=""font-size:60px;"">+</div>","null","fixation","","","","","","","","","31","","",""
"revaluation","253","1193521","0.0-4.0-4.0-0.16","spark_pilot_norest","8684","2","18","Female","","","false","","","","[276.6000000089407]","./assets/img/ocean/animals/octopus.jpg","[""ArrowLeft""]","revaluation","ocean","21","{""ArrowUp,ArrowLeft"":27,""ArrowUp,ArrowRight"":15,""ArrowDown,ArrowLeft"":21,""ArrowDown,ArrowRight"":7}","true","ArrowDown,ArrowLeft","","revaluation","1","32","","",""
"html-keyboard-response","254","1194023","0.0-4.0-4.0-1.16","spark_pilot_norest","8684","2","18","Female","","","","","","","null","<div style=""font-size:60px;"">+</div>","null","fixation","","","","","","","","","33","","",""
"revaluation","255","1198028","0.0-4.0-4.0-0.17","spark_pilot_norest","8684","2","18","Female","","","false","","","","[670.7999999970198]","./assets/img/ocean/animals/octopus.jpg","[""ArrowLeft""]","revaluation","ocean","21","{""ArrowUp,ArrowLeft"":27,""ArrowUp,ArrowRight"":15,""ArrowDown,ArrowLeft"":21,""ArrowDown,ArrowRight"":7}","true","ArrowDown,ArrowLeft","","revaluation","1","34","","",""
"html-keyboard-response","256","1198530","0.0-4.0-4.0-1.17","spark_pilot_norest","8684","2","18","Female","","","","","","","null","<div style=""font-size:60px;"">+</div>","null","fixation","","","","","","","","","35","","",""
"learning-instructions","257","1206657","0.0-4.0-5.0-0.0","spark_pilot_norest","8684","2","18","Female","","","","","","","null","<p> You have almost finished this part of the game! </p>
            <p> We are going to ask you to make a few more choices. </p>","","instructions","","","","","","","","","","","",""
"learning-instructions","258","1222627","0.0-4.0-5.0-0.1","spark_pilot_norest","8684","2","18","Female","","","","","","","null","<p> First, you need to decide whether to go up or down. When you see each picture, use the arrow keys to make your choice. </p>
            <p><b>You will not see which animal you found, but try to get to the one that will give you the most treasure.</b></p>","","instructions","","","","","","","","","","","",""
"html-keyboard-response","259","1223629","0.0-4.0-6.0-0.0","spark_pilot_norest","8684","2","18","Female","","","","","","","null","<div style=""font-size:100px;color:red;"">Starting in...</div>","null","","","","","","","","","","","","",""
"html-keyboard-response","260","1224631","0.0-4.0-6.0-1.0","spark_pilot_norest","8684","2","18","Female","","","","","","","null","<div style=""font-size:200px;color:red;"">3</div>","null","","","","","","","","","","","","",""
"html-keyboard-response","261","1225633","0.0-4.0-6.0-2.0","spark_pilot_norest","8684","2","18","Female","","","","","","","null","<div style=""font-size:200px;color:red;"">2</div>","null","","","","","","","","","","","","",""
"html-keyboard-response","262","1226635","0.0-4.0-6.0-3.0","spark_pilot_norest","8684","2","18","Female","","","","","","","null","<div style=""font-size:200px;color:red;"">1</div>","null","","","","","","","","","","","","",""
"revaluation","263","1227466","0.0-4.0-7.0-0.0","spark_pilot_norest","8684","2","18","Female","","","false","","","","[805.1000000089407]","./assets/img/ocean/test/1.jpg","[""ArrowUp""]","first stage test","ocean","0","{""ArrowUp,ArrowLeft"":27,""ArrowUp,ArrowRight"":15,""ArrowDown,ArrowLeft"":21,""ArrowDown,ArrowRight"":7}","true","ArrowUp","false","revaluation","1","","","",""
"html-keyboard-response","264","1227968","0.0-4.0-7.0-1.0","spark_pilot_norest","8684","2","18","Female","","","","","","","null","<div style=""font-size:60px;"">+</div>","null","fixation","","","","","","","","","","","",""
"revaluation","265","1230333","0.0-4.0-7.0-0.1","spark_pilot_norest","8684","2","18","Female","","","false","","","","[2359.5]","./assets/img/ocean/test/0.jpg","[""ArrowUp""]","first stage test","ocean","0","{""ArrowUp,ArrowLeft"":27,""ArrowUp,ArrowRight"":15,""ArrowDown,ArrowLeft"":21,""ArrowDown,ArrowRight"":7}","true","ArrowUp","false","revaluation","1","","","",""
"html-keyboard-response","266","1230835","0.0-4.0-7.0-1.1","spark_pilot_norest","8684","2","18","Female","","","","","","","null","<div style=""font-size:60px;"">+</div>","null","fixation","","","","","","","","","","","",""
"revaluation","267","1233009","0.0-4.0-7.0-0.2","spark_pilot_norest","8684","2","18","Female","","","false","","","","[2169.1000000089407]","./assets/img/ocean/test/3.jpg","[""ArrowUp""]","first stage test","ocean","0","{""ArrowUp,ArrowLeft"":27,""ArrowUp,ArrowRight"":15,""ArrowDown,ArrowLeft"":21,""ArrowDown,ArrowRight"":7}","true","ArrowUp","false","revaluation","1","","","",""
"html-keyboard-response","268","1233512","0.0-4.0-7.0-1.2","spark_pilot_norest","8684","2","18","Female","","","","","","","null","<div style=""font-size:60px;"">+</div>","null","fixation","","","","","","","","","","","",""
"revaluation","269","1234676","0.0-4.0-7.0-0.3","spark_pilot_norest","8684","2","18","Female","","","false","","","","[1159.5999999940395]","./assets/img/ocean/test/2.jpg","[""ArrowDown""]","first stage test","ocean","0","{""ArrowUp,ArrowLeft"":27,""ArrowUp,ArrowRight"":15,""ArrowDown,ArrowLeft"":21,""ArrowDown,ArrowRight"":7}","false","ArrowDown","false","revaluation","1","","","",""
"html-keyboard-response","270","1235177","0.0-4.0-7.0-1.3","spark_pilot_norest","8684","2","18","Female","","","","","","","null","<div style=""font-size:60px;"">+</div>","null","fixation","","","","","","","","","","","",""
"learning-instructions","271","1248528","0.0-4.0-8.0-0.0","spark_pilot_norest","8684","2","18","Female","","","","","","","null","<p> Now you will see the animals again and can search their chests for treasure. </p>
            <p> This time, you will not see how much treasure you earned, but you will earn more bonus money for making better choices. </p>","","instructions","","","","","","","","","","","",""
"html-keyboard-response","272","1249530","0.0-4.0-9.0-0.0","spark_pilot_norest","8684","2","18","Female","","","","","","","null","<div style=""font-size:100px;color:red;"">Starting in...</div>","null","","","","","","","","","","","","",""
"html-keyboard-response","273","1250532","0.0-4.0-9.0-1.0","spark_pilot_norest","8684","2","18","Female","","","","","","","null","<div style=""font-size:200px;color:red;"">3</div>","null","","","","","","","","","","","","",""
"html-keyboard-response","274","1251534","0.0-4.0-9.0-2.0","spark_pilot_norest","8684","2","18","Female","","","","","","","null","<div style=""font-size:200px;color:red;"">2</div>","null","","","","","","","","","","","","",""
"html-keyboard-response","275","1252536","0.0-4.0-9.0-3.0","spark_pilot_norest","8684","2","18","Female","","","","","","","null","<div style=""font-size:200px;color:red;"">1</div>","null","","","","","","","","","","","","",""
"revaluation","276","1254688","0.0-4.0-10.0-0.0","spark_pilot_norest","8684","2","18","Female","","","false","","","","[2116]","./assets/img/ocean/animals/seahorse.jpg","[""ArrowLeft""]","second stage test","ocean","0","{""ArrowUp,ArrowLeft"":27,""ArrowUp,ArrowRight"":15,""ArrowDown,ArrowLeft"":21,""ArrowDown,ArrowRight"":7}","true","ArrowUp,ArrowLeft","","revaluation","1","","","",""
"html-keyboard-response","277","1255190","0.0-4.0-10.0-1.0","spark_pilot_norest","8684","2","18","Female","","","","","","","null","<div style=""font-size:60px;"">+</div>","null","fixation","","","","","","","","","","","",""
"revaluation","278","1255953","0.0-4.0-10.0-0.1","spark_pilot_norest","8684","2","18","Female","","","false","","","","[758.0999999940395]","./assets/img/ocean/animals/seahorse.jpg","[""ArrowLeft""]","second stage test","ocean","0","{""ArrowUp,ArrowLeft"":27,""ArrowUp,ArrowRight"":15,""ArrowDown,ArrowLeft"":21,""ArrowDown,ArrowRight"":7}","true","ArrowUp,ArrowLeft","","revaluation","1","","","",""
"html-keyboard-response","279","1256455","0.0-4.0-10.0-1.1","spark_pilot_norest","8684","2","18","Female","","","","","","","null","<div style=""font-size:60px;"">+</div>","null","fixation","","","","","","","","","","","",""
"revaluation","280","1256871","0.0-4.0-10.0-0.2","spark_pilot_norest","8684","2","18","Female","","","false","","","","[411.30000001192093]","./assets/img/ocean/animals/seahorse.jpg","[""ArrowLeft""]","second stage test","ocean","0","{""ArrowUp,ArrowLeft"":27,""ArrowUp,ArrowRight"":15,""ArrowDown,ArrowLeft"":21,""ArrowDown,ArrowRight"":7}","true","ArrowUp,ArrowLeft","","revaluation","1","","","",""
"html-keyboard-response","281","1257373","0.0-4.0-10.0-1.2","spark_pilot_norest","8684","2","18","Female","","","","","","","null","<div style=""font-size:60px;"">+</div>","null","fixation","","","","","","","","","","","",""
"revaluation","282","1257752","0.0-4.0-10.0-0.3","spark_pilot_norest","8684","2","18","Female","","","false","","","","[374.20000000298023]","./assets/img/ocean/animals/seahorse.jpg","[""ArrowLeft""]","second stage test","ocean","0","{""ArrowUp,ArrowLeft"":27,""ArrowUp,ArrowRight"":15,""ArrowDown,ArrowLeft"":21,""ArrowDown,ArrowRight"":7}","true","ArrowUp,ArrowLeft","","revaluation","1","","","",""
"html-keyboard-response","283","1258255","0.0-4.0-10.0-1.3","spark_pilot_norest","8684","2","18","Female","","","","","","","null","<div style=""font-size:60px;"">+</div>","null","fixation","","","","","","","","","","","",""
"revaluation","284","1259031","0.0-4.0-10.0-0.4","spark_pilot_norest","8684","2","18","Female","","","false","","","","[770.7000000029802]","./assets/img/ocean/animals/octopus.jpg","[""ArrowRight""]","second stage test","ocean","0","{""ArrowUp,ArrowLeft"":27,""ArrowUp,ArrowRight"":15,""ArrowDown,ArrowLeft"":21,""ArrowDown,ArrowRight"":7}","false","ArrowDown,ArrowRight","","revaluation","1","","","",""
"html-keyboard-response","285","1259532","0.0-4.0-10.0-1.4","spark_pilot_norest","8684","2","18","Female","","","","","","","null","<div style=""font-size:60px;"">+</div>","null","fixation","","","","","","","","","","","",""
"revaluation","286","1259927","0.0-4.0-10.0-0.5","spark_pilot_norest","8684","2","18","Female","","","false","","","","[390.69999998807907]","./assets/img/ocean/animals/octopus.jpg","[""ArrowRight""]","second stage test","ocean","0","{""ArrowUp,ArrowLeft"":27,""ArrowUp,ArrowRight"":15,""ArrowDown,ArrowLeft"":21,""ArrowDown,ArrowRight"":7}","false","ArrowDown,ArrowRight","","revaluation","1","","","",""
"html-keyboard-response","287","1260429","0.0-4.0-10.0-1.5","spark_pilot_norest","8684","2","18","Female","","","","","","","null","<div style=""font-size:60px;"">+</div>","null","fixation","","","","","","","","","","","",""
"revaluation","288","1260751","0.0-4.0-10.0-0.6","spark_pilot_norest","8684","2","18","Female","","","false","","","","[317.5]","./assets/img/ocean/animals/octopus.jpg","[""ArrowRight""]","second stage test","ocean","0","{""ArrowUp,ArrowLeft"":27,""ArrowUp,ArrowRight"":15,""ArrowDown,ArrowLeft"":21,""ArrowDown,ArrowRight"":7}","false","ArrowDown,ArrowRight","","revaluation","1","","","",""
"html-keyboard-response","289","1261255","0.0-4.0-10.0-1.6","spark_pilot_norest","8684","2","18","Female","","","","","","","null","<div style=""font-size:60px;"">+</div>","null","fixation","","","","","","","","","","","",""
"revaluation","290","1261539","0.0-4.0-10.0-0.7","spark_pilot_norest","8684","2","18","Female","","","false","","","","[279.5]","./assets/img/ocean/animals/octopus.jpg","[""ArrowRight""]","second stage test","ocean","0","{""ArrowUp,ArrowLeft"":27,""ArrowUp,ArrowRight"":15,""ArrowDown,ArrowLeft"":21,""ArrowDown,ArrowRight"":7}","false","ArrowDown,ArrowRight","","revaluation","1","","","",""
"html-keyboard-response","291","1262040","0.0-4.0-10.0-1.7","spark_pilot_norest","8684","2","18","Female","","","","","","","null","<div style=""font-size:60px;"">+</div>","null","fixation","","","","","","","","","","","",""
"learning-instructions","292","1266265","0.0-4.0-0.1-0.2","spark_pilot_norest","8684","2","18","Female","","","","","","","1437.2999999970198","<p> This time you are searching for treasure in the <b>canyon</b>.</p>","","instructions","","","","","","","","","","","",""
"learning-instructions","293","1284718","0.0-4.0-0.1-0.3","spark_pilot_norest","8684","2","18","Female","","","","","","","1190.9000000059605","<p><b>New</b> animals with <b>new</b> treasure chests live here. You need to explore to discover where the animal with the best treasure chest is.</p>
                    <p> Like before, once you figure out which animal has the chest with the most treasure, you should try to get to that animal and select that chest! </p>","","instructions","","","","","","","","","","","",""
"learning-instructions","294","1301238","0.0-4.0-1.1-0.1","spark_pilot_norest","8684","2","18","Female","","","","","","","1790.2000000029802","<p> Remember, when you see a picture of the place, use the up and down keys to <b>find an animal</b>.</p>
            <p> When you encounter an animal, you should use the left and right keys to <b>select a treasure chest</b>.</p>
            <p> Don't forget to look out for the robber! </p>","","instructions","","","","","","","","","","","",""
"revaluation","295","1307264","0.0-4.0-2.1-0.50","spark_pilot_norest","8684","2","18","Female","","","false","","","","[1339.7999999970198,815]","./assets/img/canyon/memory/2.jpg","[""ArrowUp"",""ArrowLeft""]","value training","canyon","26","{""ArrowUp,ArrowLeft"":26,""ArrowUp,ArrowRight"":10,""ArrowDown,ArrowLeft"":5,""ArrowDown,ArrowRight"":17}","true","ArrowUp,ArrowLeft","false","original","2","0","","",""
"html-keyboard-response","296","1307765","0.0-4.0-2.1-1.50","spark_pilot_norest","8684","2","18","Female","","","","","","","null","<div style=""font-size:60px;"">+</div>","null","fixation","","","","","","","","","1","","",""
"revaluation","297","1313771","0.0-4.0-2.1-0.51","spark_pilot_norest","8684","2","18","Female","","","false","","","","[288.40000000596046,388.59999999403954]","./assets/img/canyon/memory/15.jpg","[""ArrowDown"",""ArrowRight""]","value training","canyon","17","{""ArrowUp,ArrowLeft"":26,""ArrowUp,ArrowRight"":10,""ArrowDown,ArrowLeft"":5,""ArrowDown,ArrowRight"":17}","false","ArrowDown,ArrowRight","false","original","2","2","","",""
"html-keyboard-response","298","1314273","0.0-4.0-2.1-1.51","spark_pilot_norest","8684","2","18","Female","","","","","","","null","<div style=""font-size:60px;"">+</div>","null","fixation","","","","","","","","","3","","",""
"revaluation","299","1320280","0.0-4.0-2.1-0.52","spark_pilot_norest","8684","2","18","Female","","","false","","","","[276.40000000596046,237.8999999910593]","./assets/img/canyon/memory/35.jpg","[""ArrowDown"",""ArrowLeft""]","value training","canyon","5","{""ArrowUp,ArrowLeft"":26,""ArrowUp,ArrowRight"":10,""ArrowDown,ArrowLeft"":5,""ArrowDown,ArrowRight"":17}","false","ArrowDown,ArrowLeft","false","original","2","4","","",""
"html-keyboard-response","300","1320782","0.0-4.0-2.1-1.52","spark_pilot_norest","8684","2","18","Female","","","","","","","null","<div style=""font-size:60px;"">+</div>","null","fixation","","","","","","","","","5","","",""
"revaluation","301","1326791","0.0-4.0-2.1-0.53","spark_pilot_norest","8684","2","18","Female","","","false","","","","[473.59999999403954,202.79999999701977]","./assets/img/canyon/memory/41.jpg","[""ArrowUp"",""ArrowLeft""]","value training","canyon","26","{""ArrowUp,ArrowLeft"":26,""ArrowUp,ArrowRight"":10,""ArrowDown,ArrowLeft"":5,""ArrowDown,ArrowRight"":17}","true","ArrowUp,ArrowLeft","false","original","2","6","","",""
"html-keyboard-response","302","1327292","0.0-4.0-2.1-1.53","spark_pilot_norest","8684","2","18","Female","","","","","","","null","<div style=""font-size:60px;"">+</div>","null","fixation","","","","","","","","","7","","",""
"revaluation","303","1331302","0.0-4.0-2.1-0.54","spark_pilot_norest","8684","2","18","Female","","","false","","","","[308.8999999910593]","./assets/img/canyon/catch/3.jpg","[""ArrowDown""]","value training","canyon","-10","{""ArrowUp,ArrowLeft"":26,""ArrowUp,ArrowRight"":10,""ArrowDown,ArrowLeft"":5,""ArrowDown,ArrowRight"":17}","false","ArrowDown","true","original","2","8","","",""
"html-keyboard-response","304","1331804","0.0-4.0-2.1-1.54","spark_pilot_norest","8684","2","18","Female","","","","","","","null","<div style=""font-size:60px;"">+</div>","null","fixation","","","","","","","","","9","","",""
"revaluation","305","1337812","0.0-4.0-2.1-0.55","spark_pilot_norest","8684","2","18","Female","","","false","","","","[1047.5,828.2999999970198]","./assets/img/canyon/memory/3.jpg","[""ArrowUp"",""ArrowLeft""]","value training","canyon","26","{""ArrowUp,ArrowLeft"":26,""ArrowUp,ArrowRight"":10,""ArrowDown,ArrowLeft"":5,""ArrowDown,ArrowRight"":17}","true","ArrowUp,ArrowLeft","false","original","2","10","","",""
"html-keyboard-response","306","1338315","0.0-4.0-2.1-1.55","spark_pilot_norest","8684","2","18","Female","","","","","","","null","<div style=""font-size:60px;"">+</div>","null","fixation","","","","","","","","","11","","",""
"revaluation","307","1344321","0.0-4.0-2.1-0.56","spark_pilot_norest","8684","2","18","Female","","","false","","","","[668.7000000029802,808.4000000059605]","./assets/img/canyon/memory/40.jpg","[""ArrowDown"",""ArrowRight""]","value training","canyon","17","{""ArrowUp,ArrowLeft"":26,""ArrowUp,ArrowRight"":10,""ArrowDown,ArrowLeft"":5,""ArrowDown,ArrowRight"":17}","false","ArrowDown,ArrowRight","false","original","2","12","","",""
"html-keyboard-response","308","1344823","0.0-4.0-2.1-1.56","spark_pilot_norest","8684","2","18","Female","","","","","","","null","<div style=""font-size:60px;"">+</div>","null","fixation","","","","","","","","","13","","",""
"revaluation","309","1350830","0.0-4.0-2.1-0.57","spark_pilot_norest","8684","2","18","Female","","","false","","","","[583.5999999940395,236.1000000089407]","./assets/img/canyon/memory/25.jpg","[""ArrowUp"",""ArrowLeft""]","value training","canyon","26","{""ArrowUp,ArrowLeft"":26,""ArrowUp,ArrowRight"":10,""ArrowDown,ArrowLeft"":5,""ArrowDown,ArrowRight"":17}","true","ArrowUp,ArrowLeft","false","original","2","14","","",""
"html-keyboard-response","310","1351332","0.0-4.0-2.1-1.57","spark_pilot_norest","8684","2","18","Female","","","","","","","null","<div style=""font-size:60px;"">+</div>","null","fixation","","","","","","","","","15","","",""
