"trial_type","trial_index","time_elapsed","internal_node_id","task_version","subject_id","assigned_condition","age","gender","success","timeout","failed_images","failed_audio","failed_video","browser_interaction","rt","stimulus","response","task_part","environment","score","rewardMap","correct","fullState","isCatch","condition","order","trial_num","key_press","ground_truth","bonus"
"pavlovia","0","784","0.0-0.0","spark_pilot_norest","9973","5","7","Female","","","","","","","","","","","","","","","","","","","","","",""
"preload","1","25872","0.0-1.0","spark_pilot_norest","9973","5","7","Female","true","false","[]","[]","[]","[{""event"":""fullscreenenter"",""trial"":2,""time"":35128},{""event"":""blur"",""trial"":80,""time"":446650},{""event"":""focus"",""trial"":88,""time"":484494},{""event"":""blur"",""trial"":330,""time"":1326614},{""event"":""focus"",""trial"":332,""time"":1334688}]","","","","","","","","","","","","","","","",""
"fullscreen","2","36084","0.0-2.0","spark_pilot_norest","9973","5","7","Female","true","","","","","","","","","","","","","","","","","","","","",""
"audio-button-response","3","43661","0.0-3.0-0.0-0.0","spark_pilot_norest","9973","5","7","Female","","","","","","","7401","./assets/audio/audiotest/turtle.mp3","2","audio_test","","","","","","","","","","","",""
"learning-instructions","4","53023","0.0-3.0-1.0-0.0","spark_pilot_norest","9973","5","7","Female","","","","","","","2354.300000011921","<p> Welcome! Please remember to stay in fullscreen mode and don't click away from the experiment. </p>","","instructions","","","","","","","","","","","",""
"learning-instructions","5","70141","0.0-3.0-1.0-0.1","spark_pilot_norest","9973","5","7","Female","","","","","","","8674.399999976158","<p> Today you will be playing a game to earn treasure. </p>
            <p> At the end of the experiment, you will earn a bonus based on how much treasure you find. </p>
            <img src='./assets/img/instructions/treasure.jpg' class='instructions-image'>","","instructions","","","","","","","","","","","",""
"learning-instructions","6","80926","0.0-3.0-1.0-0.2","spark_pilot_norest","9973","5","7","Female","","","","","","","2488.699999988079","<p> Animals have hidden treasure in treasure chests. </p>
            <p> You need to first find an animal and then choose which of their treasure chests to search. </p>
            <img src='./assets/img/space/animals/cat.jpg' class='instructions-image'>","","instructions","","","","","","","","","","","",""
"learning-instructions","7","98177","0.0-3.0-1.0-0.3","spark_pilot_norest","9973","5","7","Female","","","","","","","4044.900000035763","<p> In each round, you will search for treasure in a different place. In the real game, there will be two rounds. </p>
            <p> You will begin with a separate, practice round where you will search for treasure in outer space. </p>
            <img src='./assets/img/space/0.jpg' class='instructions-image'>","","instructions","","","","","","","","","","","",""
"learning-instructions","8","113194","0.0-3.0-1.0-0.4","spark_pilot_norest","9973","5","7","Female","","","","","","","3550.899999976158","<p> On every turn, you will see a picture of the place that you are in, but the specific image may be different each time. </p>
            <p> For example, both of these images mean you are in outer space. </p>
            <img src='./assets/img/instructions/outerspace.jpg' class='instructions-image'>","","instructions","","","","","","","","","","","",""
"learning-instructions","9","122646","0.0-3.0-1.0-0.5","spark_pilot_norest","9973","5","7","Female","","","","","","","1572.300000011921","<p> You need to decide which direction to travel in. </p>
            <p> You can choose between going <b>up or down</b> by using the arrow keys. </p>
            <img src='./assets/img/instructions/updown.jpg' class='instructions-image'>","","instructions","","","","","","","","","","","",""
"learning-instructions","10","134130","0.0-3.0-1.0-0.6","spark_pilot_norest","9973","5","7","Female","","","","","","","2636.099999964237","<p> You will have <b>2 seconds</b> to make your choice. </p>
            <p> If you do not make a choice within 2 seconds, you will not find an animal or earn treasure. </p>
            <img src='./assets/img/instructions/2seconds.jpg' class='instructions-image'>","","instructions","","","","","","","","","","","",""
"learning-instructions","11","144451","0.0-3.0-1.0-0.7","spark_pilot_norest","9973","5","7","Female","","","","","","","3237.899999976158","<p> Let’s try practicing that now! </p>
            <p> When you see a picture of the place you are in, press the <b>up</b> key to travel up. </p>
            <img src='./assets/img/instructions/pressUp.jpg' class='instructions-image'>","","instructions","","","","","","","","","","","",""
"revaluation","12","148480","0.0-3.0-2.0-0.0","spark_pilot_norest","9973","5","7","Female","","false","","","","","[1182.6000000238419]","./assets/img/space/0.jpg","[""ArrowUp""]","first stage practice","space","0","null","null","ArrowUp","false","","","","","",""
"html-keyboard-response","13","148992","0.0-3.0-2.0-1.0","spark_pilot_norest","9973","5","7","Female","","","","","","","null","<div style=""font-size:60px;"">+</div>","null","fixation","","","","","","","","","","","",""
"revaluation","14","153007","0.0-3.0-2.0-0.1","spark_pilot_norest","9973","5","7","Female","","false","","","","","[1055]","./assets/img/space/1.jpg","[""ArrowUp""]","first stage practice","space","0","null","null","ArrowUp","false","","","","","",""
"html-keyboard-response","15","153518","0.0-3.0-2.0-1.1","spark_pilot_norest","9973","5","7","Female","","","","","","","null","<div style=""font-size:60px;"">+</div>","null","fixation","","","","","","","","","","","",""
"revaluation","16","157535","0.0-3.0-2.0-0.2","spark_pilot_norest","9973","5","7","Female","","false","","","","","[1713.7000000476837]","./assets/img/space/2.jpg","[""ArrowUp""]","first stage practice","space","0","null","null","ArrowUp","false","","","","","",""
"html-keyboard-response","17","158045","0.0-3.0-2.0-1.2","spark_pilot_norest","9973","5","7","Female","","","","","","","null","<div style=""font-size:60px;"">+</div>","null","fixation","","","","","","","","","","","",""
"learning-instructions","18","164884","0.0-3.0-3.0-0.0","spark_pilot_norest","9973","5","7","Female","","","","","","","2111.899999976158","<p> Great job! Now try pressing the <b>down</b> key to travel down. </p>
            <img src='./assets/img/instructions/pressDown.jpg' class='instructions-image'>","","instructions","","","","","","","","","","","",""
"revaluation","19","168902","0.0-3.0-4.0-0.0","spark_pilot_norest","9973","5","7","Female","","false","","","","","[1127.6000000238419]","./assets/img/space/3.jpg","[""ArrowDown""]","first stage practice","space","0","null","null","ArrowDown","false","","","","","",""
"html-keyboard-response","20","169406","0.0-3.0-4.0-1.0","spark_pilot_norest","9973","5","7","Female","","","","","","","null","<div style=""font-size:60px;"">+</div>","null","fixation","","","","","","","","","","","",""
"revaluation","21","173420","0.0-3.0-4.0-0.1","spark_pilot_norest","9973","5","7","Female","","false","","","","","[1673.8999999761581]","./assets/img/space/4.jpg","[""ArrowDown""]","first stage practice","space","0","null","null","ArrowDown","false","","","","","",""
"html-keyboard-response","22","173929","0.0-3.0-4.0-1.1","spark_pilot_norest","9973","5","7","Female","","","","","","","null","<div style=""font-size:60px;"">+</div>","null","fixation","","","","","","","","","","","",""
"revaluation","23","177952","0.0-3.0-4.0-0.2","spark_pilot_norest","9973","5","7","Female","","false","","","","","[1286.5999999642372]","./assets/img/space/5.jpg","[""ArrowDown""]","first stage practice","space","0","null","null","ArrowDown","false","","","","","",""
"html-keyboard-response","24","178462","0.0-3.0-4.0-1.2","spark_pilot_norest","9973","5","7","Female","","","","","","","null","<div style=""font-size:60px;"">+</div>","null","fixation","","","","","","","","","","","",""
"learning-instructions","25","191470","0.0-3.0-5.0-0.0","spark_pilot_norest","9973","5","7","Female","","","","","","","3114.5","<p> The animals don’t move, so the animal in the upper part of a place will stay in the upper part of a place, and the animal in the lower part of a place will stay in the lower part of a place. </p>","","instructions","","","","","","","","","","","",""
"learning-instructions","26","203539","0.0-3.0-5.0-0.1","spark_pilot_norest","9973","5","7","Female","","","","","","","2893.5","<p> Each animal has two treasure chests for you to choose from. </p>
            <p> The amount of treasure in each chest can range from <b> 0 to 40 pieces.</b></p>","","instructions","","","","","","","","","","","",""
"learning-instructions","27","216506","0.0-3.0-5.0-0.2","spark_pilot_norest","9973","5","7","Female","","","","","","","1730.8999999761581","<p> You should decide which chest to search for treasure by using the <b>left</b> and <b>right</b> arrow keys. </p>
            <p><b> Pay attention to which animal is on the screen, as the animals have different treasure chests. </b></p>
            <img src='./assets/img/instructions/leftright.jpg' class='instructions-image'>","","instructions","","","","","","","","","","","",""
"learning-instructions","28","225423","0.0-3.0-5.0-0.3","spark_pilot_norest","9973","5","7","Female","","","","","","","2515.600000023842","<p> Let’s try practicing that now. </p>
            <p> When you see an animal, choose which chest to search for treasure. </p>
            <img src='./assets/img/instructions/chooseChest.jpg' class='instructions-image'>","","instructions","","","","","","","","","","","",""
"revaluation","29","229444","0.0-3.0-6.0-0.0","spark_pilot_norest","9973","5","7","Female","","false","","","","","[1788.6000000238419]","./assets/img/space/animals/rabbit.jpg","[""ArrowRight""]","second stage practice","space","23","{""ArrowUp,ArrowLeft"":3,""ArrowUp,ArrowRight"":36,""ArrowDown,ArrowLeft"":15,""ArrowDown,ArrowRight"":23}","true","ArrowDown,ArrowRight","","","","","","",""
"html-keyboard-response","30","229954","0.0-3.0-6.0-1.0","spark_pilot_norest","9973","5","7","Female","","","","","","","null","<div style=""font-size:60px;"">+</div>","null","fixation","","","","","","","","","","","",""
"revaluation","31","233972","0.0-3.0-6.0-0.1","spark_pilot_norest","9973","5","7","Female","","false","","","","","[566.8000000119209]","./assets/img/space/animals/rabbit.jpg","[""ArrowLeft""]","second stage practice","space","15","{""ArrowUp,ArrowLeft"":3,""ArrowUp,ArrowRight"":36,""ArrowDown,ArrowLeft"":15,""ArrowDown,ArrowRight"":23}","false","ArrowDown,ArrowLeft","","","","","","",""
"html-keyboard-response","32","234479","0.0-3.0-6.0-1.1","spark_pilot_norest","9973","5","7","Female","","","","","","","null","<div style=""font-size:60px;"">+</div>","null","fixation","","","","","","","","","","","",""
"revaluation","33","238495","0.0-3.0-6.0-0.2","spark_pilot_norest","9973","5","7","Female","","false","","","","","[752.6000000238419]","./assets/img/space/animals/cat.jpg","[""ArrowRight""]","second stage practice","space","36","{""ArrowUp,ArrowLeft"":3,""ArrowUp,ArrowRight"":36,""ArrowDown,ArrowLeft"":15,""ArrowDown,ArrowRight"":23}","true","ArrowUp,ArrowRight","","","","","","",""
"html-keyboard-response","34","239001","0.0-3.0-6.0-1.2","spark_pilot_norest","9973","5","7","Female","","","","","","","null","<div style=""font-size:60px;"">+</div>","null","fixation","","","","","","","","","","","",""
"revaluation","35","243016","0.0-3.0-6.0-0.3","spark_pilot_norest","9973","5","7","Female","","false","","","","","[659.2000000476837]","./assets/img/space/animals/cat.jpg","[""ArrowLeft""]","second stage practice","space","3","{""ArrowUp,ArrowLeft"":3,""ArrowUp,ArrowRight"":36,""ArrowDown,ArrowLeft"":15,""ArrowDown,ArrowRight"":23}","false","ArrowUp,ArrowLeft","","","","","","",""
"html-keyboard-response","36","243521","0.0-3.0-6.0-1.3","spark_pilot_norest","9973","5","7","Female","","","","","","","null","<div style=""font-size:60px;"">+</div>","null","fixation","","","","","","","","","","","",""
"learning-instructions","37","262927","0.0-3.0-7.0-0.0","spark_pilot_norest","9973","5","7","Female","","","","","","","2518.399999976158","<p> Great job. Now let’s try putting it together. </p>
            <p> On each turn, you will first see a picture to remind you of the place you are in, and you need to choose whether to go up or down. </p>
            <p> Then you will see an animal and choose which of its chests to search for treasure. </p>","","instructions","","","","","","","","","","","",""
"learning-instructions","38","274261","0.0-3.0-7.0-0.1","spark_pilot_norest","9973","5","7","Female","","","","","","","3025.800000011921","<p> When you choose whether to go up or down, try to go to the animal with the chest with the most treasure. </p>
            <p> Try practicing that now! </p>","","instructions","","","","","","","","","","","",""
"revaluation","39","278285","0.0-3.0-8.0-0.0","spark_pilot_norest","9973","5","7","Female","","true","","","","","[]","./assets/img/space/6.jpg","[]","full practice","space","-5","{""ArrowUp,ArrowLeft"":3,""ArrowUp,ArrowRight"":36,""ArrowDown,ArrowLeft"":15,""ArrowDown,ArrowRight"":23}","false","","false","","","","","",""
"html-keyboard-response","40","278793","0.0-3.0-8.0-1.0","spark_pilot_norest","9973","5","7","Female","","","","","","","null","<div style=""font-size:60px;"">+</div>","null","fixation","","","","","","","","","","","",""
"revaluation","41","284811","0.0-3.0-8.0-0.1","spark_pilot_norest","9973","5","7","Female","","false","","","","","[633.0999999642372,892.3999999761581]","./assets/img/space/7.jpg","[""ArrowUp"",""ArrowRight""]","full practice","space","36","{""ArrowUp,ArrowLeft"":3,""ArrowUp,ArrowRight"":36,""ArrowDown,ArrowLeft"":15,""ArrowDown,ArrowRight"":23}","true","ArrowUp,ArrowRight","false","","","","","",""
"html-keyboard-response","42","285324","0.0-3.0-8.0-1.1","spark_pilot_norest","9973","5","7","Female","","","","","","","null","<div style=""font-size:60px;"">+</div>","null","fixation","","","","","","","","","","","",""
"revaluation","43","291349","0.0-3.0-8.0-0.2","spark_pilot_norest","9973","5","7","Female","","false","","","","","[387,951.7000000476837]","./assets/img/space/8.jpg","[""ArrowUp"",""ArrowRight""]","full practice","space","36","{""ArrowUp,ArrowLeft"":3,""ArrowUp,ArrowRight"":36,""ArrowDown,ArrowLeft"":15,""ArrowDown,ArrowRight"":23}","true","ArrowUp,ArrowRight","false","","","","","",""
"html-keyboard-response","44","291860","0.0-3.0-8.0-1.2","spark_pilot_norest","9973","5","7","Female","","","","","","","null","<div style=""font-size:60px;"">+</div>","null","fixation","","","","","","","","","","","",""
"revaluation","45","295878","0.0-3.0-8.0-0.3","spark_pilot_norest","9973","5","7","Female","","true","","","","","[]","./assets/img/space/9.jpg","[]","full practice","space","-5","{""ArrowUp,ArrowLeft"":3,""ArrowUp,ArrowRight"":36,""ArrowDown,ArrowLeft"":15,""ArrowDown,ArrowRight"":23}","false","","false","","","","","",""
"html-keyboard-response","46","296386","0.0-3.0-8.0-1.3","spark_pilot_norest","9973","5","7","Female","","","","","","","null","<div style=""font-size:60px;"">+</div>","null","fixation","","","","","","","","","","","",""
"revaluation","47","302409","0.0-3.0-8.0-0.4","spark_pilot_norest","9973","5","7","Female","","false","","","","","[545.6999999880791,886.2999999523163]","./assets/img/space/10.jpg","[""ArrowUp"",""ArrowRight""]","full practice","space","36","{""ArrowUp,ArrowLeft"":3,""ArrowUp,ArrowRight"":36,""ArrowDown,ArrowLeft"":15,""ArrowDown,ArrowRight"":23}","true","ArrowUp,ArrowRight","false","","","","","",""
"html-keyboard-response","48","302915","0.0-3.0-8.0-1.4","spark_pilot_norest","9973","5","7","Female","","","","","","","null","<div style=""font-size:60px;"">+</div>","null","fixation","","","","","","","","","","","",""
"learning-instructions","49","317734","0.0-3.0-9.0-0.0","spark_pilot_norest","9973","5","7","Female","","","","","","","4455.200000047684","<p> One last thing: sometimes, you will see a robber. The robber can be anywhere in the picture. </p>
            <p> If you do not stop them, you will lose treasure. </p>
            <img src='./assets/img/instructions/robber.jpg' class='instructions-image'>","","instructions","","","","","","","","","","","",""
"learning-instructions","50","328434","0.0-3.0-9.0-0.1","spark_pilot_norest","9973","5","7","Female","","","","","","","3492.5","<p> If you see the robber, you should <b>press the space bar</b> rather than using the arrow keys. </p>
            <p> Try practicing that now! </p>","","instructions","","","","","","","","","","","",""
"revaluation","51","332450","0.0-3.0-10.0-0.0","spark_pilot_norest","9973","5","7","Female","","true","","","","","[]","./assets/img/space/catch/0.jpg","[]","catch practice","space","-5","{""ArrowUp,ArrowLeft"":3,""ArrowUp,ArrowRight"":36,""ArrowDown,ArrowLeft"":15,""ArrowDown,ArrowRight"":23}","false","","true","","","","","",""
"html-keyboard-response","52","332957","0.0-3.0-10.0-1.0","spark_pilot_norest","9973","5","7","Female","","","","","","","null","<div style=""font-size:60px;"">+</div>","null","fixation","","","","","","","","","","","",""
"revaluation","53","336981","0.0-3.0-10.0-0.1","spark_pilot_norest","9973","5","7","Female","","false","","","","","[751.7000000476837]","./assets/img/space/catch/1.jpg","[""spaceBar""]","catch practice","space","0","{""ArrowUp,ArrowLeft"":3,""ArrowUp,ArrowRight"":36,""ArrowDown,ArrowLeft"":15,""ArrowDown,ArrowRight"":23}","true","spaceBar","true","","","","","",""
"html-keyboard-response","54","337494","0.0-3.0-10.0-1.1","spark_pilot_norest","9973","5","7","Female","","","","","","","null","<div style=""font-size:60px;"">+</div>","null","fixation","","","","","","","","","","","",""
"revaluation","55","341511","0.0-3.0-10.0-0.2","spark_pilot_norest","9973","5","7","Female","","false","","","","","[1003.7999999523163]","./assets/img/space/catch/2.jpg","[""spaceBar""]","catch practice","space","0","{""ArrowUp,ArrowLeft"":3,""ArrowUp,ArrowRight"":36,""ArrowDown,ArrowLeft"":15,""ArrowDown,ArrowRight"":23}","true","spaceBar","true","","","","","",""
"html-keyboard-response","56","342019","0.0-3.0-10.0-1.2","spark_pilot_norest","9973","5","7","Female","","","","","","","null","<div style=""font-size:60px;"">+</div>","null","fixation","","","","","","","","","","","",""
"learning-instructions","57","350352","0.0-3.0-11.0-0.0-0.0","spark_pilot_norest","9973","5","7","Female","","","","","","","3078.2999999523163","<p> Now, you will practice a shortened version of the game to get a sense of how it all fits together. </p>","","instructions","","","","","","","","","","","",""
"learning-instructions","58","355052","0.0-3.0-11.0-0.0-0.1","spark_pilot_norest","9973","5","7","Female","","","","","","","1492","<p>This time you are searching for treasure in outer space.</p>","","instructions","","","","","","","","","","","",""
"learning-instructions","59","372290","0.0-3.0-11.0-1.0-0.0","spark_pilot_norest","9973","5","7","Female","","","","","","","2392","<p> Remember, when you see a picture of the place, use the up and down keys to <b>find an animal</b>.</p>
            <p> When you encounter an animal, you should use the left and right keys to <b>select a treasure chest</b>.</p>
            <p> Don't forget to look out for the robber! </p>","","instructions","","","","","","","","","","","",""
"revaluation","60","376310","0.0-3.0-11.0-2.0-0.0","spark_pilot_norest","9973","5","7","Female","","true","","","","","[]","./assets/img/space/11.jpg","[]","practice block","space","-5","{""ArrowUp,ArrowLeft"":3,""ArrowUp,ArrowRight"":36,""ArrowDown,ArrowLeft"":15,""ArrowDown,ArrowRight"":23}","false","","false","","","","","",""
"html-keyboard-response","61","376821","0.0-3.0-11.0-2.0-1.0","spark_pilot_norest","9973","5","7","Female","","","","","","","null","<div style=""font-size:60px;"">+</div>","null","fixation","","","","","","","","","","","",""
"revaluation","62","382847","0.0-3.0-11.0-2.0-0.1","spark_pilot_norest","9973","5","7","Female","","false","","","","","[1080,626.8000000119209]","./assets/img/space/12.jpg","[""ArrowUp"",""ArrowRight""]","practice block","space","36","{""ArrowUp,ArrowLeft"":3,""ArrowUp,ArrowRight"":36,""ArrowDown,ArrowLeft"":15,""ArrowDown,ArrowRight"":23}","true","ArrowUp,ArrowRight","false","","","","","",""
"html-keyboard-response","63","383358","0.0-3.0-11.0-2.0-1.1","spark_pilot_norest","9973","5","7","Female","","","","","","","null","<div style=""font-size:60px;"">+</div>","null","fixation","","","","","","","","","","","",""
"revaluation","64","387374","0.0-3.0-11.0-2.0-0.2","spark_pilot_norest","9973","5","7","Female","","true","","","","","[]","./assets/img/space/13.jpg","[]","practice block","space","-5","{""ArrowUp,ArrowLeft"":3,""ArrowUp,ArrowRight"":36,""ArrowDown,ArrowLeft"":15,""ArrowDown,ArrowRight"":23}","false","","false","","","","","",""
"html-keyboard-response","65","387879","0.0-3.0-11.0-2.0-1.2","spark_pilot_norest","9973","5","7","Female","","","","","","","null","<div style=""font-size:60px;"">+</div>","null","fixation","","","","","","","","","","","",""
"revaluation","66","393891","0.0-3.0-11.0-2.0-0.3","spark_pilot_norest","9973","5","7","Female","","false","","","","","[723.0999999642372,816.1000000238419]","./assets/img/space/14.jpg","[""ArrowUp"",""ArrowLeft""]","practice block","space","3","{""ArrowUp,ArrowLeft"":3,""ArrowUp,ArrowRight"":36,""ArrowDown,ArrowLeft"":15,""ArrowDown,ArrowRight"":23}","false","ArrowUp,ArrowLeft","false","","","","","",""
"html-keyboard-response","67","394399","0.0-3.0-11.0-2.0-1.3","spark_pilot_norest","9973","5","7","Female","","","","","","","null","<div style=""font-size:60px;"">+</div>","null","fixation","","","","","","","","","","","",""
"revaluation","68","400432","0.0-3.0-11.0-2.0-0.4","spark_pilot_norest","9973","5","7","Female","","false","","","","","[1342,543.6000000238419]","./assets/img/space/11.jpg","[""ArrowUp"",""ArrowRight""]","practice block","space","36","{""ArrowUp,ArrowLeft"":3,""ArrowUp,ArrowRight"":36,""ArrowDown,ArrowLeft"":15,""ArrowDown,ArrowRight"":23}","true","ArrowUp,ArrowRight","false","","","","","",""
"html-keyboard-response","69","400943","0.0-3.0-11.0-2.0-1.4","spark_pilot_norest","9973","5","7","Female","","","","","","","null","<div style=""font-size:60px;"">+</div>","null","fixation","","","","","","","","","","","",""
"revaluation","70","406976","0.0-3.0-11.0-2.0-0.5","spark_pilot_norest","9973","5","7","Female","","false","","","","","[648.1999999880791,609.3999999761581]","./assets/img/space/12.jpg","[""ArrowUp"",""ArrowRight""]","practice block","space","36","{""ArrowUp,ArrowLeft"":3,""ArrowUp,ArrowRight"":36,""ArrowDown,ArrowLeft"":15,""ArrowDown,ArrowRight"":23}","true","ArrowUp,ArrowRight","false","","","","","",""
"html-keyboard-response","71","407486","0.0-3.0-11.0-2.0-1.5","spark_pilot_norest","9973","5","7","Female","","","","","","","null","<div style=""font-size:60px;"">+</div>","null","fixation","","","","","","","","","","","",""
"revaluation","72","411503","0.0-3.0-11.0-2.0-0.6","spark_pilot_norest","9973","5","7","Female","","true","","","","","[]","./assets/img/space/13.jpg","[]","practice block","space","-5","{""ArrowUp,ArrowLeft"":3,""ArrowUp,ArrowRight"":36,""ArrowDown,ArrowLeft"":15,""ArrowDown,ArrowRight"":23}","false","","false","","","","","",""
"html-keyboard-response","73","412014","0.0-3.0-11.0-2.0-1.6","spark_pilot_norest","9973","5","7","Female","","","","","","","null","<div style=""font-size:60px;"">+</div>","null","fixation","","","","","","","","","","","",""
"revaluation","74","418032","0.0-3.0-11.0-2.0-0.7","spark_pilot_norest","9973","5","7","Female","","false","","","","","[898.3000000119209,662]","./assets/img/space/14.jpg","[""ArrowUp"",""ArrowRight""]","practice block","space","36","{""ArrowUp,ArrowLeft"":3,""ArrowUp,ArrowRight"":36,""ArrowDown,ArrowLeft"":15,""ArrowDown,ArrowRight"":23}","true","ArrowUp,ArrowRight","false","","","","","",""
"html-keyboard-response","75","418544","0.0-3.0-11.0-2.0-1.7","spark_pilot_norest","9973","5","7","Female","","","","","","","null","<div style=""font-size:60px;"">+</div>","null","fixation","","","","","","","","","","","",""
"revaluation","76","422556","0.0-3.0-11.0-2.0-0.8","spark_pilot_norest","9973","5","7","Female","","false","","","","","[441]","./assets/img/space/catch/3.jpg","[""spaceBar""]","practice block","space","0","{""ArrowUp,ArrowLeft"":3,""ArrowUp,ArrowRight"":36,""ArrowDown,ArrowLeft"":15,""ArrowDown,ArrowRight"":23}","true","spaceBar","true","","","","","",""
"html-keyboard-response","77","423061","0.0-3.0-11.0-2.0-1.8","spark_pilot_norest","9973","5","7","Female","","","","","","","null","<div style=""font-size:60px;"">+</div>","null","fixation","","","","","","","","","","","",""
"learning-instructions","78","442345","0.0-3.0-11.0-3.0-0.0","spark_pilot_norest","9973","5","7","Female","","","","","","","6180.699999988079","<p> Now, you will travel with a friend who will choose whether you go up or down first. </p>
            <p> On these turns, you will just see the animal that they found. You will still get to choose which chest to search for treasure.</p>","","instructions","","","","","","","","","","","",""
"revaluation","79","446360","0.0-3.0-11.0-4.0-0.0","spark_pilot_norest","9973","5","7","Female","","true","","","","[{""event"":""fullscreenenter"",""trial"":2,""time"":35128},{""event"":""blur"",""trial"":80,""time"":446650},{""event"":""focus"",""trial"":88,""time"":484494},{""event"":""blur"",""trial"":330,""time"":1326614},{""event"":""focus"",""trial"":332,""time"":1334688}]","[]","./assets/img/space/animals/cat.jpg","[]","practice block","space","-5","{""ArrowUp,ArrowLeft"":3,""ArrowUp,ArrowRight"":36,""ArrowDown,ArrowLeft"":15,""ArrowDown,ArrowRight"":23}","false","ArrowUp","","","","","","",""
"html-keyboard-response","80","446873","0.0-3.0-11.0-4.0-1.0","spark_pilot_norest","9973","5","7","Female","","","","","","","null","<div style=""font-size:60px;"">+</div>","null","fixation","","","","","","","","","","","",""
"revaluation","81","450886","0.0-3.0-11.0-4.0-0.1","spark_pilot_norest","9973","5","7","Female","","true","","","","","[]","./assets/img/space/animals/rabbit.jpg","[]","practice block","space","-5","{""ArrowUp,ArrowLeft"":3,""ArrowUp,ArrowRight"":36,""ArrowDown,ArrowLeft"":15,""ArrowDown,ArrowRight"":23}","false","ArrowDown","","","","","","",""
"html-keyboard-response","82","451390","0.0-3.0-11.0-4.0-1.1","spark_pilot_norest","9973","5","7","Female","","","","","","","null","<div style=""font-size:60px;"">+</div>","null","fixation","","","","","","","","","","","",""
"revaluation","83","455407","0.0-3.0-11.0-4.0-0.2","spark_pilot_norest","9973","5","7","Female","","true","","","","","[]","./assets/img/space/animals/cat.jpg","[]","practice block","space","-5","{""ArrowUp,ArrowLeft"":3,""ArrowUp,ArrowRight"":36,""ArrowDown,ArrowLeft"":15,""ArrowDown,ArrowRight"":23}","false","ArrowUp","","","","","","",""
"html-keyboard-response","84","455912","0.0-3.0-11.0-4.0-1.2","spark_pilot_norest","9973","5","7","Female","","","","","","","null","<div style=""font-size:60px;"">+</div>","null","fixation","","","","","","","","","","","",""
"revaluation","85","459930","0.0-3.0-11.0-4.0-0.3","spark_pilot_norest","9973","5","7","Female","","true","","","","","[]","./assets/img/space/animals/rabbit.jpg","[]","practice block","space","-5","{""ArrowUp,ArrowLeft"":3,""ArrowUp,ArrowRight"":36,""ArrowDown,ArrowLeft"":15,""ArrowDown,ArrowRight"":23}","false","ArrowDown","","","","","","",""
"html-keyboard-response","86","460440","0.0-3.0-11.0-4.0-1.3","spark_pilot_norest","9973","5","7","Female","","","","","","","null","<div style=""font-size:60px;"">+</div>","null","fixation","","","","","","","","","","","",""
"learning-instructions","87","468591","0.0-3.0-11.0-5.0-0.0","spark_pilot_norest","9973","5","7","Female","","","","","","[{""event"":""fullscreenenter"",""trial"":2,""time"":35128},{""event"":""blur"",""trial"":80,""time"":446650},{""event"":""focus"",""trial"":88,""time"":484494},{""event"":""blur"",""trial"":330,""time"":1326614},{""event"":""focus"",""trial"":332,""time"":1334688}]","null","<p> You have almost finished this part of the game! </p>
            <p> We are going to ask you to make a few more choices. </p>","","instructions","","","","","","","","","","","",""
"learning-instructions","88","484697","0.0-3.0-11.0-5.0-0.1","spark_pilot_norest","9973","5","7","Female","","","","","","","null","<p> First, you need to decide whether to go up or down. When you see each picture, use the arrow keys to make your choice. </p>
            <p><b>You will not see which animal you found, but try to get to the one that will give you the most treasure.</b></p>","","instructions","","","","","","","","","","","",""
"html-keyboard-response","89","485705","0.0-3.0-11.0-6.0-0.0","spark_pilot_norest","9973","5","7","Female","","","","","","","null","<div style=""font-size:100px;color:red;"">Starting in...</div>","null","","","","","","","","","","","","",""
"html-keyboard-response","90","486714","0.0-3.0-11.0-6.0-1.0","spark_pilot_norest","9973","5","7","Female","","","","","","","null","<div style=""font-size:200px;color:red;"">3</div>","null","","","","","","","","","","","","",""
"html-keyboard-response","91","487719","0.0-3.0-11.0-6.0-2.0","spark_pilot_norest","9973","5","7","Female","","","","","","","null","<div style=""font-size:200px;color:red;"">2</div>","null","","","","","","","","","","","","",""
"html-keyboard-response","92","488729","0.0-3.0-11.0-6.0-3.0","spark_pilot_norest","9973","5","7","Female","","","","","","","null","<div style=""font-size:200px;color:red;"">1</div>","null","","","","","","","","","","","","",""
"revaluation","93","490635","0.0-3.0-11.0-7.0","spark_pilot_norest","9973","5","7","Female","","false","","","","","[1903.199999988079]","./assets/img/space/15.jpg","[""ArrowUp""]","practice block","space","0","{""ArrowUp,ArrowLeft"":3,""ArrowUp,ArrowRight"":36,""ArrowDown,ArrowLeft"":15,""ArrowDown,ArrowRight"":23}","true","ArrowUp","false","","","","","",""
"html-keyboard-response","94","491144","0.0-3.0-11.0-8.0","spark_pilot_norest","9973","5","7","Female","","","","","","","null","<div style=""font-size:60px;"">+</div>","null","fixation","","","","","","","","","","","",""
"learning-instructions","95","504571","0.0-3.0-11.0-9.0-0.0","spark_pilot_norest","9973","5","7","Female","","","","","","","null","<p> Now you will see the animals again and can search their chests for treasure. </p>
            <p> This time, you will not see how much treasure you earned, but you will earn more bonus money for making better choices. </p>","","instructions","","","","","","","","","","","",""
"html-keyboard-response","96","505578","0.0-3.0-11.0-10.0-0.0","spark_pilot_norest","9973","5","7","Female","","","","","","","null","<div style=""font-size:100px;color:red;"">Starting in...</div>","null","","","","","","","","","","","","",""
"html-keyboard-response","97","506579","0.0-3.0-11.0-10.0-1.0","spark_pilot_norest","9973","5","7","Female","","","","","","","null","<div style=""font-size:200px;color:red;"">3</div>","null","","","","","","","","","","","","",""
"html-keyboard-response","98","507584","0.0-3.0-11.0-10.0-2.0","spark_pilot_norest","9973","5","7","Female","","","","","","","null","<div style=""font-size:200px;color:red;"">2</div>","null","","","","","","","","","","","","",""
"html-keyboard-response","99","508594","0.0-3.0-11.0-10.0-3.0","spark_pilot_norest","9973","5","7","Female","","","","","","","null","<div style=""font-size:200px;color:red;"">1</div>","null","","","","","","","","","","","","",""
"revaluation","100","510119","0.0-3.0-11.0-11.0-0.0","spark_pilot_norest","9973","5","7","Female","","false","","","","","[1521.1000000238419]","./assets/img/space/animals/cat.jpg","[""ArrowRight""]","practice block","space","0","{""ArrowUp,ArrowLeft"":3,""ArrowUp,ArrowRight"":36,""ArrowDown,ArrowLeft"":15,""ArrowDown,ArrowRight"":23}","true","ArrowUp,ArrowRight","","","","","","",""
"html-keyboard-response","101","510626","0.0-3.0-11.0-11.0-1.0","spark_pilot_norest","9973","5","7","Female","","","","","","","null","<div style=""font-size:60px;"">+</div>","null","fixation","","","","","","","","","","","",""
"revaluation","102","512569","0.0-3.0-11.0-11.0-0.1","spark_pilot_norest","9973","5","7","Female","","false","","","","","[1940.5999999642372]","./assets/img/space/animals/rabbit.jpg","[""ArrowLeft""]","practice block","space","0","{""ArrowUp,ArrowLeft"":3,""ArrowUp,ArrowRight"":36,""ArrowDown,ArrowLeft"":15,""ArrowDown,ArrowRight"":23}","false","ArrowDown,ArrowLeft","","","","","","",""
"html-keyboard-response","103","513076","0.0-3.0-11.0-11.0-1.1","spark_pilot_norest","9973","5","7","Female","","","","","","","null","<div style=""font-size:60px;"">+</div>","null","fixation","","","","","","","","","","","",""
"learning-instructions","104","520754","0.0-3.0-12.0-0.0","spark_pilot_norest","9973","5","7","Female","","","","","","","3062.2000000476837","<p> Before you start, we're going to ask you a few questions about how the game works. </p>","","instructions","","","","","","","","","","","",""
"comp-q","105","529459","0.0-3.0-13.0-0.0-0.0","spark_pilot_norest","9973","5","7","Female","","","","","","","3083.099999964237","<p> <b> True or False? </b> </p>
            <p> There can be 50 pieces of treasure in a given animal's chest. </p>","1","comp_question","","","","true","","","","","","","",""
"comp-q","106","538608","0.0-3.0-13.0-0.0-1.0","spark_pilot_norest","9973","5","7","Female","","","","","","","2456.300000011921","<p> <b> That's right! </b> The amount of treasure in each chest can range from 0 to 40 pieces. </p>","0","comp_answer","","","","","","","","","","","",""
"comp-q","107","548189","0.0-3.0-13.0-0.1-0.1","spark_pilot_norest","9973","5","7","Female","","","","","","","2428.5","<p> <b> True or False? </b> </p><p> In this game, all animals have the same amount of treasure in their left and right chests. </p>","1","comp_question","","","","true","","","","","","","",""
"comp-q","108","555989","0.0-3.0-13.0-0.1-1.1","spark_pilot_norest","9973","5","7","Female","","","","","","","2543.600000023842","<p> <b> That's right! </b> Animals have different amounts of treasure in their treasure chests. </p>","0","comp_answer","","","","","","","","","","","",""
"comp-q","109","563690","0.0-3.0-13.0-0.2-0.2","spark_pilot_norest","9973","5","7","Female","","","","","","","1826.5","<p> <b> True or False? </b> </p><p> The same animal will always be there if you go up in the same place. </p>","0","comp_question","","","","true","","","","","","","",""
"comp-q","110","571524","0.0-3.0-13.0-0.2-1.2","spark_pilot_norest","9973","5","7","Female","","","","","","","1359","<p> <b> That's right! </b> One animal lives in the upper part and one lives in the lower part of every place. </p>","0","comp_answer","","","","","","","","","","","",""
"comp-q","111","579275","0.0-3.0-13.0-0.3-0.3","spark_pilot_norest","9973","5","7","Female","","","","","","","2202.699999988079","<p> <b> True or False? </b> </p><p> If you see a different picture, it means you are in a new place. </p>","0","comp_question","","","","false","","","","","","","",""
"comp-q","112","594509","0.0-3.0-13.0-0.3-1.3","spark_pilot_norest","9973","5","7","Female","","","","","","","4084.699999988079","<p> <b>Incorrect.</b> Lots of different images may show the same place. For example,  you may see three different images that all remind you that you are in outer space. </p>","0","comp_answer","","","","","","","","","","","",""
"comp-q","113","607627","0.0-3.0-13.0-0.4-0.4","spark_pilot_norest","9973","5","7","Female","","","","","","","7612.200000047684","<p> <b> True or False? </b> </p><p> If you see a different picture, it means you are in a new place. </p>","0","comp_question","","","","false","","","","","","","",""
"comp-q","114","621497","0.0-3.0-13.0-0.4-1.4","spark_pilot_norest","9973","5","7","Female","","","","","","","2806.399999976158","<p> <b>Incorrect.</b> Lots of different images may show the same place. For example,  you may see three different images that all remind you that you are in outer space. </p>","0","comp_answer","","","","","","","","","","","",""
"comp-q","115","628380","0.0-3.0-13.0-0.5-0.5","spark_pilot_norest","9973","5","7","Female","","","","","","","1383.1000000238419","<p> <b> True or False? </b> </p><p> If you see a different picture, it means you are in a new place. </p>","1","comp_question","","","","true","","","","","","","",""
"comp-q","116","643168","0.0-3.0-13.0-0.5-1.5","spark_pilot_norest","9973","5","7","Female","","","","","","","3472.599999964237","<p> <b> That's right! </b> Lots of different images may show the same place. For example,  you may see three different images that all remind you that you are in outer space. </p>","0","comp_answer","","","","","","","","","","","",""
"learning-instructions","117","656466","0.0-3.0-14.0-0.0","spark_pilot_norest","9973","5","7","Female","","","","","","","3403.199999988079","<p> Good job. Remember to do your best because the amount of treasure you earn will be converted into bonus money. </p>
            <p> It’s time to start the real game! </p>","","instructions","","","","","","","","","","","",""
"learning-instructions","118","660883","0.0-4.0-0.0-0.0","spark_pilot_norest","9973","5","7","Female","","","","","","","1632.5","<p> This time you are searching for treasure in the <b>canyon</b>.</p>","","instructions","","","","","","","","","","","",""
"learning-instructions","119","681885","0.0-4.0-0.0-0.1","spark_pilot_norest","9973","5","7","Female","","","","","","","3628.600000023842","<p><b>New</b> animals with <b>new</b> treasure chests live here. You need to explore to discover where the animal with the best treasure chest is.</p>
                    <p> Like before, once you figure out which animal has the chest with the most treasure, you should try to get to that animal and select that chest! </p>","","instructions","","","","","","","","","","","",""
"learning-instructions","120","702071","0.0-4.0-1.0-0.0","spark_pilot_norest","9973","5","7","Female","","","","","","","5452.400000035763","<p> Remember, when you see a picture of the place, use the up and down keys to <b>find an animal</b>.</p>
            <p> When you encounter an animal, you should use the left and right keys to <b>select a treasure chest</b>.</p>
            <p> Don't forget to look out for the robber! </p>","","instructions","","","","","","","","","","","",""
"revaluation","121","708098","0.0-4.0-2.0-0.0","spark_pilot_norest","9973","5","7","Female","","false","","","","","[1204.0999999642372,818.8000000119209]","./assets/img/canyon/memory/1.jpg","[""ArrowUp"",""ArrowRight""]","value training","canyon","10","{""ArrowUp,ArrowLeft"":26,""ArrowUp,ArrowRight"":10,""ArrowDown,ArrowLeft"":5,""ArrowDown,ArrowRight"":17}","false","ArrowUp,ArrowRight","false","original","1","0","","",""
"html-keyboard-response","122","708617","0.0-4.0-2.0-1.0","spark_pilot_norest","9973","5","7","Female","","","","","","","null","<div style=""font-size:60px;"">+</div>","null","fixation","","","","","","","","","1","","",""
"revaluation","123","714639","0.0-4.0-2.0-0.1","spark_pilot_norest","9973","5","7","Female","","false","","","","","[522,1406.0999999642372]","./assets/img/canyon/memory/5.jpg","[""ArrowUp"",""ArrowLeft""]","value training","canyon","26","{""ArrowUp,ArrowLeft"":26,""ArrowUp,ArrowRight"":10,""ArrowDown,ArrowLeft"":5,""ArrowDown,ArrowRight"":17}","true","ArrowUp,ArrowLeft","false","original","1","2","","",""
"html-keyboard-response","124","715142","0.0-4.0-2.0-1.1","spark_pilot_norest","9973","5","7","Female","","","","","","","null","<div style=""font-size:60px;"">+</div>","null","fixation","","","","","","","","","3","","",""
"revaluation","125","721168","0.0-4.0-2.0-0.2","spark_pilot_norest","9973","5","7","Female","","false","","","","","[1460.699999988079,1040]","./assets/img/canyon/memory/23.jpg","[""ArrowUp"",""ArrowLeft""]","value training","canyon","26","{""ArrowUp,ArrowLeft"":26,""ArrowUp,ArrowRight"":10,""ArrowDown,ArrowLeft"":5,""ArrowDown,ArrowRight"":17}","true","ArrowUp,ArrowLeft","false","original","1","4","","",""
"html-keyboard-response","126","721673","0.0-4.0-2.0-1.2","spark_pilot_norest","9973","5","7","Female","","","","","","","null","<div style=""font-size:60px;"">+</div>","null","fixation","","","","","","","","","5","","",""
"revaluation","127","725687","0.0-4.0-2.0-0.3","spark_pilot_norest","9973","5","7","Female","","true","","","","","[]","./assets/img/canyon/memory/11.jpg","[]","value training","canyon","-5","{""ArrowUp,ArrowLeft"":26,""ArrowUp,ArrowRight"":10,""ArrowDown,ArrowLeft"":5,""ArrowDown,ArrowRight"":17}","false","","false","original","1","6","","",""
"html-keyboard-response","128","726190","0.0-4.0-2.0-1.3","spark_pilot_norest","9973","5","7","Female","","","","","","","null","<div style=""font-size:60px;"">+</div>","null","fixation","","","","","","","","","7","","",""
"revaluation","129","732218","0.0-4.0-2.0-0.4","spark_pilot_norest","9973","5","7","Female","","false","","","","","[744.1999999880791,845.3000000119209]","./assets/img/canyon/memory/2.jpg","[""ArrowUp"",""ArrowLeft""]","value training","canyon","26","{""ArrowUp,ArrowLeft"":26,""ArrowUp,ArrowRight"":10,""ArrowDown,ArrowLeft"":5,""ArrowDown,ArrowRight"":17}","true","ArrowUp,ArrowLeft","false","original","1","8","","",""
"html-keyboard-response","130","732728","0.0-4.0-2.0-1.4","spark_pilot_norest","9973","5","7","Female","","","","","","","null","<div style=""font-size:60px;"">+</div>","null","fixation","","","","","","","","","9","","",""
"revaluation","131","738755","0.0-4.0-2.0-0.5","spark_pilot_norest","9973","5","7","Female","","false","","","","","[1300.7000000476837,1312.6000000238419]","./assets/img/canyon/memory/33.jpg","[""ArrowUp"",""ArrowLeft""]","value training","canyon","26","{""ArrowUp,ArrowLeft"":26,""ArrowUp,ArrowRight"":10,""ArrowDown,ArrowLeft"":5,""ArrowDown,ArrowRight"":17}","true","ArrowUp,ArrowLeft","false","original","1","10","","",""
"html-keyboard-response","132","739266","0.0-4.0-2.0-1.5","spark_pilot_norest","9973","5","7","Female","","","","","","","null","<div style=""font-size:60px;"">+</div>","null","fixation","","","","","","","","","11","","",""
"revaluation","133","745291","0.0-4.0-2.0-0.6","spark_pilot_norest","9973","5","7","Female","","false","","","","","[706.4000000357628,1059.4000000357628]","./assets/img/canyon/memory/14.jpg","[""ArrowUp"",""ArrowLeft""]","value training","canyon","26","{""ArrowUp,ArrowLeft"":26,""ArrowUp,ArrowRight"":10,""ArrowDown,ArrowLeft"":5,""ArrowDown,ArrowRight"":17}","true","ArrowUp,ArrowLeft","false","original","1","12","","",""
"html-keyboard-response","134","745802","0.0-4.0-2.0-1.6","spark_pilot_norest","9973","5","7","Female","","","","","","","null","<div style=""font-size:60px;"">+</div>","null","fixation","","","","","","","","","13","","",""
"revaluation","135","751823","0.0-4.0-2.0-0.7","spark_pilot_norest","9973","5","7","Female","","false","","","","","[1036.5,802]","./assets/img/canyon/memory/33.jpg","[""ArrowUp"",""ArrowLeft""]","value training","canyon","26","{""ArrowUp,ArrowLeft"":26,""ArrowUp,ArrowRight"":10,""ArrowDown,ArrowLeft"":5,""ArrowDown,ArrowRight"":17}","true","ArrowUp,ArrowLeft","false","original","1","14","","",""
"html-keyboard-response","136","752329","0.0-4.0-2.0-1.7","spark_pilot_norest","9973","5","7","Female","","","","","","","null","<div style=""font-size:60px;"">+</div>","null","fixation","","","","","","","","","15","","",""
"revaluation","137","758363","0.0-4.0-2.0-0.8","spark_pilot_norest","9973","5","7","Female","","false","","","","","[987.6999999880791,1070.300000011921]","./assets/img/canyon/memory/14.jpg","[""ArrowUp"",""ArrowLeft""]","value training","canyon","26","{""ArrowUp,ArrowLeft"":26,""ArrowUp,ArrowRight"":10,""ArrowDown,ArrowLeft"":5,""ArrowDown,ArrowRight"":17}","true","ArrowUp,ArrowLeft","false","original","1","16","","",""
"html-keyboard-response","138","758874","0.0-4.0-2.0-1.8","spark_pilot_norest","9973","5","7","Female","","","","","","","null","<div style=""font-size:60px;"">+</div>","null","fixation","","","","","","","","","17","","",""
"revaluation","139","764895","0.0-4.0-2.0-0.9","spark_pilot_norest","9973","5","7","Female","","false","","","","","[817.3999999761581,603.5999999642372]","./assets/img/canyon/memory/28.jpg","[""ArrowUp"",""ArrowLeft""]","value training","canyon","26","{""ArrowUp,ArrowLeft"":26,""ArrowUp,ArrowRight"":10,""ArrowDown,ArrowLeft"":5,""ArrowDown,ArrowRight"":17}","true","ArrowUp,ArrowLeft","false","original","1","18","","",""
"html-keyboard-response","140","765399","0.0-4.0-2.0-1.9","spark_pilot_norest","9973","5","7","Female","","","","","","","null","<div style=""font-size:60px;"">+</div>","null","fixation","","","","","","","","","19","","",""
"revaluation","141","771415","0.0-4.0-2.0-0.10","spark_pilot_norest","9973","5","7","Female","","false","","","","","[1062.199999988079,958.1999999880791]","./assets/img/canyon/memory/32.jpg","[""ArrowUp"",""ArrowLeft""]","value training","canyon","26","{""ArrowUp,ArrowLeft"":26,""ArrowUp,ArrowRight"":10,""ArrowDown,ArrowLeft"":5,""ArrowDown,ArrowRight"":17}","true","ArrowUp,ArrowLeft","false","original","1","20","","",""
"html-keyboard-response","142","771923","0.0-4.0-2.0-1.10","spark_pilot_norest","9973","5","7","Female","","","","","","","null","<div style=""font-size:60px;"">+</div>","null","fixation","","","","","","","","","21","","",""
"revaluation","143","777952","0.0-4.0-2.0-0.11","spark_pilot_norest","9973","5","7","Female","","false","","","","","[934.5,1246.3999999761581]","./assets/img/canyon/memory/19.jpg","[""ArrowUp"",""ArrowLeft""]","value training","canyon","26","{""ArrowUp,ArrowLeft"":26,""ArrowUp,ArrowRight"":10,""ArrowDown,ArrowLeft"":5,""ArrowDown,ArrowRight"":17}","true","ArrowUp,ArrowLeft","false","original","1","22","","",""
"html-keyboard-response","144","778455","0.0-4.0-2.0-1.11","spark_pilot_norest","9973","5","7","Female","","","","","","","null","<div style=""font-size:60px;"">+</div>","null","fixation","","","","","","","","","23","","",""
"revaluation","145","784484","0.0-4.0-2.0-0.12","spark_pilot_norest","9973","5","7","Female","","false","","","","","[687.6000000238419,1678.3999999761581]","./assets/img/canyon/memory/32.jpg","[""ArrowUp"",""ArrowLeft""]","value training","canyon","26","{""ArrowUp,ArrowLeft"":26,""ArrowUp,ArrowRight"":10,""ArrowDown,ArrowLeft"":5,""ArrowDown,ArrowRight"":17}","true","ArrowUp,ArrowLeft","false","original","1","24","","",""
"html-keyboard-response","146","784992","0.0-4.0-2.0-1.12","spark_pilot_norest","9973","5","7","Female","","","","","","","null","<div style=""font-size:60px;"">+</div>","null","fixation","","","","","","","","","25","","",""
"revaluation","147","789010","0.0-4.0-2.0-0.13","spark_pilot_norest","9973","5","7","Female","","false","","","","","[1409.300000011921]","./assets/img/canyon/catch/4.jpg","[""ArrowUp""]","value training","canyon","-10","{""ArrowUp,ArrowLeft"":26,""ArrowUp,ArrowRight"":10,""ArrowDown,ArrowLeft"":5,""ArrowDown,ArrowRight"":17}","false","ArrowUp","true","original","1","26","","",""
"html-keyboard-response","148","789519","0.0-4.0-2.0-1.13","spark_pilot_norest","9973","5","7","Female","","","","","","","null","<div style=""font-size:60px;"">+</div>","null","fixation","","","","","","","","","27","","",""
"revaluation","149","793540","0.0-4.0-2.0-0.14","spark_pilot_norest","9973","5","7","Female","","true","","","","","[]","./assets/img/canyon/memory/1.jpg","[]","value training","canyon","-5","{""ArrowUp,ArrowLeft"":26,""ArrowUp,ArrowRight"":10,""ArrowDown,ArrowLeft"":5,""ArrowDown,ArrowRight"":17}","false","","false","original","1","28","","",""
"html-keyboard-response","150","794048","0.0-4.0-2.0-1.14","spark_pilot_norest","9973","5","7","Female","","","","","","","null","<div style=""font-size:60px;"">+</div>","null","fixation","","","","","","","","","29","","",""
"revaluation","151","800070","0.0-4.0-2.0-0.15","spark_pilot_norest","9973","5","7","Female","","false","","","","","[1767.7000000476837,902.5999999642372]","./assets/img/canyon/memory/38.jpg","[""ArrowUp"",""ArrowLeft""]","value training","canyon","26","{""ArrowUp,ArrowLeft"":26,""ArrowUp,ArrowRight"":10,""ArrowDown,ArrowLeft"":5,""ArrowDown,ArrowRight"":17}","true","ArrowUp,ArrowLeft","false","original","1","30","","",""
"html-keyboard-response","152","800576","0.0-4.0-2.0-1.15","spark_pilot_norest","9973","5","7","Female","","","","","","","null","<div style=""font-size:60px;"">+</div>","null","fixation","","","","","","","","","31","","",""
"revaluation","153","804592","0.0-4.0-2.0-0.16","spark_pilot_norest","9973","5","7","Female","","false","","","","","[968]","./assets/img/canyon/catch/7.jpg","[""spaceBar""]","value training","canyon","0","{""ArrowUp,ArrowLeft"":26,""ArrowUp,ArrowRight"":10,""ArrowDown,ArrowLeft"":5,""ArrowDown,ArrowRight"":17}","true","spaceBar","true","original","1","32","","",""
"html-keyboard-response","154","805096","0.0-4.0-2.0-1.16","spark_pilot_norest","9973","5","7","Female","","","","","","","null","<div style=""font-size:60px;"">+</div>","null","fixation","","","","","","","","","33","","",""
"revaluation","155","811114","0.0-4.0-2.0-0.17","spark_pilot_norest","9973","5","7","Female","","false","","","","","[1141.1000000238419,1015.2999999523163]","./assets/img/canyon/memory/7.jpg","[""ArrowUp"",""ArrowLeft""]","value training","canyon","26","{""ArrowUp,ArrowLeft"":26,""ArrowUp,ArrowRight"":10,""ArrowDown,ArrowLeft"":5,""ArrowDown,ArrowRight"":17}","true","ArrowUp,ArrowLeft","false","original","1","34","","",""
"html-keyboard-response","156","811620","0.0-4.0-2.0-1.17","spark_pilot_norest","9973","5","7","Female","","","","","","","null","<div style=""font-size:60px;"">+</div>","null","fixation","","","","","","","","","35","","",""
"revaluation","157","817652","0.0-4.0-2.0-0.18","spark_pilot_norest","9973","5","7","Female","","false","","","","","[763.1999999880791,872.1000000238419]","./assets/img/canyon/memory/38.jpg","[""ArrowUp"",""ArrowLeft""]","value training","canyon","26","{""ArrowUp,ArrowLeft"":26,""ArrowUp,ArrowRight"":10,""ArrowDown,ArrowLeft"":5,""ArrowDown,ArrowRight"":17}","true","ArrowUp,ArrowLeft","false","original","1","36","","",""
"html-keyboard-response","158","818155","0.0-4.0-2.0-1.18","spark_pilot_norest","9973","5","7","Female","","","","","","","null","<div style=""font-size:60px;"">+</div>","null","fixation","","","","","","","","","37","","",""
"revaluation","159","824178","0.0-4.0-2.0-0.19","spark_pilot_norest","9973","5","7","Female","","false","","","","","[863,784.5999999642372]","./assets/img/canyon/memory/23.jpg","[""ArrowUp"",""ArrowLeft""]","value training","canyon","26","{""ArrowUp,ArrowLeft"":26,""ArrowUp,ArrowRight"":10,""ArrowDown,ArrowLeft"":5,""ArrowDown,ArrowRight"":17}","true","ArrowUp,ArrowLeft","false","original","1","38","","",""
"html-keyboard-response","160","824682","0.0-4.0-2.0-1.19","spark_pilot_norest","9973","5","7","Female","","","","","","","null","<div style=""font-size:60px;"">+</div>","null","fixation","","","","","","","","","39","","",""
"revaluation","161","830699","0.0-4.0-2.0-0.20","spark_pilot_norest","9973","5","7","Female","","false","","","","","[736,848.6000000238419]","./assets/img/canyon/memory/37.jpg","[""ArrowUp"",""ArrowLeft""]","value training","canyon","26","{""ArrowUp,ArrowLeft"":26,""ArrowUp,ArrowRight"":10,""ArrowDown,ArrowLeft"":5,""ArrowDown,ArrowRight"":17}","true","ArrowUp,ArrowLeft","false","original","1","40","","",""
"html-keyboard-response","162","831208","0.0-4.0-2.0-1.20","spark_pilot_norest","9973","5","7","Female","","","","","","","null","<div style=""font-size:60px;"">+</div>","null","fixation","","","","","","","","","41","","",""
"revaluation","163","837234","0.0-4.0-2.0-0.21","spark_pilot_norest","9973","5","7","Female","","false","","","","","[692.1000000238419,887.1999999880791]","./assets/img/canyon/memory/27.jpg","[""ArrowUp"",""ArrowLeft""]","value training","canyon","26","{""ArrowUp,ArrowLeft"":26,""ArrowUp,ArrowRight"":10,""ArrowDown,ArrowLeft"":5,""ArrowDown,ArrowRight"":17}","true","ArrowUp,ArrowLeft","false","original","1","42","","",""
"html-keyboard-response","164","837738","0.0-4.0-2.0-1.21","spark_pilot_norest","9973","5","7","Female","","","","","","","null","<div style=""font-size:60px;"">+</div>","null","fixation","","","","","","","","","43","","",""
"revaluation","165","841755","0.0-4.0-2.0-0.22","spark_pilot_norest","9973","5","7","Female","","false","","","","","[1437.7000000476837]","./assets/img/canyon/catch/5.jpg","[""spaceBar""]","value training","canyon","0","{""ArrowUp,ArrowLeft"":26,""ArrowUp,ArrowRight"":10,""ArrowDown,ArrowLeft"":5,""ArrowDown,ArrowRight"":17}","true","spaceBar","true","original","1","44","","",""
"html-keyboard-response","166","842257","0.0-4.0-2.0-1.22","spark_pilot_norest","9973","5","7","Female","","","","","","","null","<div style=""font-size:60px;"">+</div>","null","fixation","","","","","","","","","45","","",""
"revaluation","167","846272","0.0-4.0-2.0-0.23","spark_pilot_norest","9973","5","7","Female","","false","","","","","[1198.699999988079]","./assets/img/canyon/catch/0.jpg","[""spaceBar""]","value training","canyon","0","{""ArrowUp,ArrowLeft"":26,""ArrowUp,ArrowRight"":10,""ArrowDown,ArrowLeft"":5,""ArrowDown,ArrowRight"":17}","true","spaceBar","true","original","1","46","","",""
"html-keyboard-response","168","846777","0.0-4.0-2.0-1.23","spark_pilot_norest","9973","5","7","Female","","","","","","","null","<div style=""font-size:60px;"">+</div>","null","fixation","","","","","","","","","47","","",""
"revaluation","169","850794","0.0-4.0-2.0-0.24","spark_pilot_norest","9973","5","7","Female","","false","","","","","[782.5]","./assets/img/canyon/catch/3.jpg","[""spaceBar""]","value training","canyon","0","{""ArrowUp,ArrowLeft"":26,""ArrowUp,ArrowRight"":10,""ArrowDown,ArrowLeft"":5,""ArrowDown,ArrowRight"":17}","true","spaceBar","true","original","1","48","","",""
"html-keyboard-response","170","851297","0.0-4.0-2.0-1.24","spark_pilot_norest","9973","5","7","Female","","","","","","","null","<div style=""font-size:60px;"">+</div>","null","fixation","","","","","","","","","49","","",""
"revaluation","171","857315","0.0-4.0-2.0-0.25","spark_pilot_norest","9973","5","7","Female","","false","","","","","[648.1000000238419,829.1999999880791]","./assets/img/canyon/memory/7.jpg","[""ArrowUp"",""ArrowLeft""]","value training","canyon","26","{""ArrowUp,ArrowLeft"":26,""ArrowUp,ArrowRight"":10,""ArrowDown,ArrowLeft"":5,""ArrowDown,ArrowRight"":17}","true","ArrowUp,ArrowLeft","false","original","1","50","","",""
"html-keyboard-response","172","857819","0.0-4.0-2.0-1.25","spark_pilot_norest","9973","5","7","Female","","","","","","","null","<div style=""font-size:60px;"">+</div>","null","fixation","","","","","","","","","51","","",""
"revaluation","173","861836","0.0-4.0-2.0-0.26","spark_pilot_norest","9973","5","7","Female","","false","","","","","[701.8000000119209]","./assets/img/canyon/catch/6.jpg","[""spaceBar""]","value training","canyon","0","{""ArrowUp,ArrowLeft"":26,""ArrowUp,ArrowRight"":10,""ArrowDown,ArrowLeft"":5,""ArrowDown,ArrowRight"":17}","true","spaceBar","true","original","1","52","","",""
"html-keyboard-response","174","862348","0.0-4.0-2.0-1.26","spark_pilot_norest","9973","5","7","Female","","","","","","","null","<div style=""font-size:60px;"">+</div>","null","fixation","","","","","","","","","53","","",""
"revaluation","175","868373","0.0-4.0-2.0-0.27","spark_pilot_norest","9973","5","7","Female","","false","","","","","[1193.5999999642372,529.1000000238419]","./assets/img/canyon/memory/9.jpg","[""ArrowUp"",""ArrowLeft""]","value training","canyon","26","{""ArrowUp,ArrowLeft"":26,""ArrowUp,ArrowRight"":10,""ArrowDown,ArrowLeft"":5,""ArrowDown,ArrowRight"":17}","true","ArrowUp,ArrowLeft","false","original","1","54","","",""
"html-keyboard-response","176","868883","0.0-4.0-2.0-1.27","spark_pilot_norest","9973","5","7","Female","","","","","","","null","<div style=""font-size:60px;"">+</div>","null","fixation","","","","","","","","","55","","",""
"revaluation","177","874910","0.0-4.0-2.0-0.28","spark_pilot_norest","9973","5","7","Female","","false","","","","","[1369,648.3999999761581]","./assets/img/canyon/memory/0.jpg","[""ArrowUp"",""ArrowLeft""]","value training","canyon","26","{""ArrowUp,ArrowLeft"":26,""ArrowUp,ArrowRight"":10,""ArrowDown,ArrowLeft"":5,""ArrowDown,ArrowRight"":17}","true","ArrowUp,ArrowLeft","false","original","1","56","","",""
"html-keyboard-response","178","875420","0.0-4.0-2.0-1.28","spark_pilot_norest","9973","5","7","Female","","","","","","","null","<div style=""font-size:60px;"">+</div>","null","fixation","","","","","","","","","57","","",""
"revaluation","179","881445","0.0-4.0-2.0-0.29","spark_pilot_norest","9973","5","7","Female","","false","","","","","[913,780.6000000238419]","./assets/img/canyon/memory/24.jpg","[""ArrowUp"",""ArrowLeft""]","value training","canyon","26","{""ArrowUp,ArrowLeft"":26,""ArrowUp,ArrowRight"":10,""ArrowDown,ArrowLeft"":5,""ArrowDown,ArrowRight"":17}","true","ArrowUp,ArrowLeft","false","original","1","58","","",""
"html-keyboard-response","180","881958","0.0-4.0-2.0-1.29","spark_pilot_norest","9973","5","7","Female","","","","","","","null","<div style=""font-size:60px;"">+</div>","null","fixation","","","","","","","","","59","","",""
"revaluation","181","885970","0.0-4.0-2.0-0.30","spark_pilot_norest","9973","5","7","Female","","false","","","","","[119.69999998807907]","./assets/img/canyon/catch/2.jpg","[""spaceBar""]","value training","canyon","0","{""ArrowUp,ArrowLeft"":26,""ArrowUp,ArrowRight"":10,""ArrowDown,ArrowLeft"":5,""ArrowDown,ArrowRight"":17}","true","spaceBar","true","original","1","60","","",""
"html-keyboard-response","182","886474","0.0-4.0-2.0-1.30","spark_pilot_norest","9973","5","7","Female","","","","","","","null","<div style=""font-size:60px;"">+</div>","null","fixation","","","","","","","","","61","","",""
"revaluation","183","890491","0.0-4.0-2.0-0.31","spark_pilot_norest","9973","5","7","Female","","true","","","","","[]","./assets/img/canyon/memory/27.jpg","[]","value training","canyon","-5","{""ArrowUp,ArrowLeft"":26,""ArrowUp,ArrowRight"":10,""ArrowDown,ArrowLeft"":5,""ArrowDown,ArrowRight"":17}","false","","false","original","1","62","","",""
"html-keyboard-response","184","890999","0.0-4.0-2.0-1.31","spark_pilot_norest","9973","5","7","Female","","","","","","","null","<div style=""font-size:60px;"">+</div>","null","fixation","","","","","","","","","63","","",""
"revaluation","185","897017","0.0-4.0-2.0-0.32","spark_pilot_norest","9973","5","7","Female","","false","","","","","[800.7999999523163,710.1000000238419]","./assets/img/canyon/memory/28.jpg","[""ArrowUp"",""ArrowLeft""]","value training","canyon","26","{""ArrowUp,ArrowLeft"":26,""ArrowUp,ArrowRight"":10,""ArrowDown,ArrowLeft"":5,""ArrowDown,ArrowRight"":17}","true","ArrowUp,ArrowLeft","false","original","1","64","","",""
"html-keyboard-response","186","897522","0.0-4.0-2.0-1.32","spark_pilot_norest","9973","5","7","Female","","","","","","","null","<div style=""font-size:60px;"">+</div>","null","fixation","","","","","","","","","65","","",""
"revaluation","187","901540","0.0-4.0-2.0-0.33","spark_pilot_norest","9973","5","7","Female","","false","","","","","[1022.3999999761581]","./assets/img/canyon/catch/1.jpg","[""spaceBar""]","value training","canyon","0","{""ArrowUp,ArrowLeft"":26,""ArrowUp,ArrowRight"":10,""ArrowDown,ArrowLeft"":5,""ArrowDown,ArrowRight"":17}","true","spaceBar","true","original","1","66","","",""
"html-keyboard-response","188","902045","0.0-4.0-2.0-1.33","spark_pilot_norest","9973","5","7","Female","","","","","","","null","<div style=""font-size:60px;"">+</div>","null","fixation","","","","","","","","","67","","",""
"revaluation","189","908068","0.0-4.0-2.0-0.34","spark_pilot_norest","9973","5","7","Female","","false","","","","","[1778.3999999761581,963.4000000357628]","./assets/img/canyon/memory/34.jpg","[""ArrowUp"",""ArrowLeft""]","value training","canyon","26","{""ArrowUp,ArrowLeft"":26,""ArrowUp,ArrowRight"":10,""ArrowDown,ArrowLeft"":5,""ArrowDown,ArrowRight"":17}","true","ArrowUp,ArrowLeft","false","original","1","68","","",""
"html-keyboard-response","190","908571","0.0-4.0-2.0-1.34","spark_pilot_norest","9973","5","7","Female","","","","","","","null","<div style=""font-size:60px;"">+</div>","null","fixation","","","","","","","","","69","","",""
"revaluation","191","914599","0.0-4.0-2.0-0.35","spark_pilot_norest","9973","5","7","Female","","false","","","","","[1286.7999999523163,982]","./assets/img/canyon/memory/4.jpg","[""ArrowUp"",""ArrowLeft""]","value training","canyon","26","{""ArrowUp,ArrowLeft"":26,""ArrowUp,ArrowRight"":10,""ArrowDown,ArrowLeft"":5,""ArrowDown,ArrowRight"":17}","true","ArrowUp,ArrowLeft","false","original","1","70","","",""
"html-keyboard-response","192","915110","0.0-4.0-2.0-1.35","spark_pilot_norest","9973","5","7","Female","","","","","","","null","<div style=""font-size:60px;"">+</div>","null","fixation","","","","","","","","","71","","",""
"revaluation","193","921131","0.0-4.0-2.0-0.36","spark_pilot_norest","9973","5","7","Female","","false","","","","","[1337.7999999523163,679.8000000119209]","./assets/img/canyon/memory/0.jpg","[""ArrowUp"",""ArrowLeft""]","value training","canyon","26","{""ArrowUp,ArrowLeft"":26,""ArrowUp,ArrowRight"":10,""ArrowDown,ArrowLeft"":5,""ArrowDown,ArrowRight"":17}","true","ArrowUp,ArrowLeft","false","original","1","72","","",""
"html-keyboard-response","194","921639","0.0-4.0-2.0-1.36","spark_pilot_norest","9973","5","7","Female","","","","","","","null","<div style=""font-size:60px;"">+</div>","null","fixation","","","","","","","","","73","","",""
"revaluation","195","927661","0.0-4.0-2.0-0.37","spark_pilot_norest","9973","5","7","Female","","false","","","","","[1157.6000000238419,1921.2000000476837]","./assets/img/canyon/memory/24.jpg","[""ArrowUp"",""ArrowLeft""]","value training","canyon","26","{""ArrowUp,ArrowLeft"":26,""ArrowUp,ArrowRight"":10,""ArrowDown,ArrowLeft"":5,""ArrowDown,ArrowRight"":17}","true","ArrowUp,ArrowLeft","false","original","1","74","","",""
"html-keyboard-response","196","928165","0.0-4.0-2.0-1.37","spark_pilot_norest","9973","5","7","Female","","","","","","","null","<div style=""font-size:60px;"">+</div>","null","fixation","","","","","","","","","75","","",""
"revaluation","197","934188","0.0-4.0-2.0-0.38","spark_pilot_norest","9973","5","7","Female","","false","","","","","[1186.5,636.0999999642372]","./assets/img/canyon/memory/34.jpg","[""ArrowUp"",""ArrowLeft""]","value training","canyon","26","{""ArrowUp,ArrowLeft"":26,""ArrowUp,ArrowRight"":10,""ArrowDown,ArrowLeft"":5,""ArrowDown,ArrowRight"":17}","true","ArrowUp,ArrowLeft","false","original","1","76","","",""
"html-keyboard-response","198","934697","0.0-4.0-2.0-1.38","spark_pilot_norest","9973","5","7","Female","","","","","","","null","<div style=""font-size:60px;"">+</div>","null","fixation","","","","","","","","","77","","",""
"revaluation","199","940726","0.0-4.0-2.0-0.39","spark_pilot_norest","9973","5","7","Female","","false","","","","","[734.1000000238419,724.1999999880791]","./assets/img/canyon/memory/25.jpg","[""ArrowUp"",""ArrowLeft""]","value training","canyon","26","{""ArrowUp,ArrowLeft"":26,""ArrowUp,ArrowRight"":10,""ArrowDown,ArrowLeft"":5,""ArrowDown,ArrowRight"":17}","true","ArrowUp,ArrowLeft","false","original","1","78","","",""
"html-keyboard-response","200","941228","0.0-4.0-2.0-1.39","spark_pilot_norest","9973","5","7","Female","","","","","","","null","<div style=""font-size:60px;"">+</div>","null","fixation","","","","","","","","","79","","",""
"revaluation","201","947253","0.0-4.0-2.0-0.40","spark_pilot_norest","9973","5","7","Female","","false","","","","","[814.5,918.8000000119209]","./assets/img/canyon/memory/15.jpg","[""ArrowUp"",""ArrowLeft""]","value training","canyon","26","{""ArrowUp,ArrowLeft"":26,""ArrowUp,ArrowRight"":10,""ArrowDown,ArrowLeft"":5,""ArrowDown,ArrowRight"":17}","true","ArrowUp,ArrowLeft","false","original","1","80","","",""
"html-keyboard-response","202","947758","0.0-4.0-2.0-1.40","spark_pilot_norest","9973","5","7","Female","","","","","","","null","<div style=""font-size:60px;"">+</div>","null","fixation","","","","","","","","","81","","",""
"revaluation","203","953781","0.0-4.0-2.0-0.41","spark_pilot_norest","9973","5","7","Female","","false","","","","","[771.4000000357628,925.2000000476837]","./assets/img/canyon/memory/37.jpg","[""ArrowUp"",""ArrowLeft""]","value training","canyon","26","{""ArrowUp,ArrowLeft"":26,""ArrowUp,ArrowRight"":10,""ArrowDown,ArrowLeft"":5,""ArrowDown,ArrowRight"":17}","true","ArrowUp,ArrowLeft","false","original","1","82","","",""
"html-keyboard-response","204","954289","0.0-4.0-2.0-1.41","spark_pilot_norest","9973","5","7","Female","","","","","","","null","<div style=""font-size:60px;"">+</div>","null","fixation","","","","","","","","","83","","",""
"revaluation","205","960321","0.0-4.0-2.0-0.42","spark_pilot_norest","9973","5","7","Female","","false","","","","","[1147.199999988079,809.1999999880791]","./assets/img/canyon/memory/5.jpg","[""ArrowUp"",""ArrowLeft""]","value training","canyon","26","{""ArrowUp,ArrowLeft"":26,""ArrowUp,ArrowRight"":10,""ArrowDown,ArrowLeft"":5,""ArrowDown,ArrowRight"":17}","true","ArrowUp,ArrowLeft","false","original","1","84","","",""
"html-keyboard-response","206","960830","0.0-4.0-2.0-1.42","spark_pilot_norest","9973","5","7","Female","","","","","","","null","<div style=""font-size:60px;"">+</div>","null","fixation","","","","","","","","","85","","",""
"revaluation","207","966857","0.0-4.0-2.0-0.43","spark_pilot_norest","9973","5","7","Female","","false","","","","","[1041.8999999761581,977]","./assets/img/canyon/memory/11.jpg","[""ArrowUp"",""ArrowLeft""]","value training","canyon","26","{""ArrowUp,ArrowLeft"":26,""ArrowUp,ArrowRight"":10,""ArrowDown,ArrowLeft"":5,""ArrowDown,ArrowRight"":17}","true","ArrowUp,ArrowLeft","false","original","1","86","","",""
"html-keyboard-response","208","967363","0.0-4.0-2.0-1.43","spark_pilot_norest","9973","5","7","Female","","","","","","","null","<div style=""font-size:60px;"">+</div>","null","fixation","","","","","","","","","87","","",""
"revaluation","209","973392","0.0-4.0-2.0-0.44","spark_pilot_norest","9973","5","7","Female","","false","","","","","[797.0999999642372,799.1999999880791]","./assets/img/canyon/memory/4.jpg","[""ArrowUp"",""ArrowLeft""]","value training","canyon","26","{""ArrowUp,ArrowLeft"":26,""ArrowUp,ArrowRight"":10,""ArrowDown,ArrowLeft"":5,""ArrowDown,ArrowRight"":17}","true","ArrowUp,ArrowLeft","false","original","1","88","","",""
"html-keyboard-response","210","973902","0.0-4.0-2.0-1.44","spark_pilot_norest","9973","5","7","Female","","","","","","","null","<div style=""font-size:60px;"">+</div>","null","fixation","","","","","","","","","89","","",""
"revaluation","211","979927","0.0-4.0-2.0-0.45","spark_pilot_norest","9973","5","7","Female","","false","","","","","[1117.6000000238419,592.8999999761581]","./assets/img/canyon/memory/15.jpg","[""ArrowUp"",""ArrowLeft""]","value training","canyon","26","{""ArrowUp,ArrowLeft"":26,""ArrowUp,ArrowRight"":10,""ArrowDown,ArrowLeft"":5,""ArrowDown,ArrowRight"":17}","true","ArrowUp,ArrowLeft","false","original","1","90","","",""
"html-keyboard-response","212","980432","0.0-4.0-2.0-1.45","spark_pilot_norest","9973","5","7","Female","","","","","","","null","<div style=""font-size:60px;"">+</div>","null","fixation","","","","","","","","","91","","",""
"revaluation","213","986450","0.0-4.0-2.0-0.46","spark_pilot_norest","9973","5","7","Female","","false","","","","","[904,716.1000000238419]","./assets/img/canyon/memory/2.jpg","[""ArrowUp"",""ArrowLeft""]","value training","canyon","26","{""ArrowUp,ArrowLeft"":26,""ArrowUp,ArrowRight"":10,""ArrowDown,ArrowLeft"":5,""ArrowDown,ArrowRight"":17}","true","ArrowUp,ArrowLeft","false","original","1","92","","",""
"html-keyboard-response","214","986960","0.0-4.0-2.0-1.46","spark_pilot_norest","9973","5","7","Female","","","","","","","null","<div style=""font-size:60px;"">+</div>","null","fixation","","","","","","","","","93","","",""
"revaluation","215","992982","0.0-4.0-2.0-0.47","spark_pilot_norest","9973","5","7","Female","","false","","","","","[1032.5,742.6000000238419]","./assets/img/canyon/memory/19.jpg","[""ArrowUp"",""ArrowLeft""]","value training","canyon","26","{""ArrowUp,ArrowLeft"":26,""ArrowUp,ArrowRight"":10,""ArrowDown,ArrowLeft"":5,""ArrowDown,ArrowRight"":17}","true","ArrowUp,ArrowLeft","false","original","1","94","","",""
"html-keyboard-response","216","993489","0.0-4.0-2.0-1.47","spark_pilot_norest","9973","5","7","Female","","","","","","","null","<div style=""font-size:60px;"">+</div>","null","fixation","","","","","","","","","95","","",""
"revaluation","217","999512","0.0-4.0-2.0-0.48","spark_pilot_norest","9973","5","7","Female","","false","","","","","[1102.300000011921,1011.5]","./assets/img/canyon/memory/9.jpg","[""ArrowUp"",""ArrowLeft""]","value training","canyon","26","{""ArrowUp,ArrowLeft"":26,""ArrowUp,ArrowRight"":10,""ArrowDown,ArrowLeft"":5,""ArrowDown,ArrowRight"":17}","true","ArrowUp,ArrowLeft","false","original","1","96","","",""
"html-keyboard-response","218","1000016","0.0-4.0-2.0-1.48","spark_pilot_norest","9973","5","7","Female","","","","","","","null","<div style=""font-size:60px;"">+</div>","null","fixation","","","","","","","","","97","","",""
"revaluation","219","1006030","0.0-4.0-2.0-0.49","spark_pilot_norest","9973","5","7","Female","","false","","","","","[599.6999999880791,691.1000000238419]","./assets/img/canyon/memory/25.jpg","[""ArrowUp"",""ArrowLeft""]","value training","canyon","26","{""ArrowUp,ArrowLeft"":26,""ArrowUp,ArrowRight"":10,""ArrowDown,ArrowLeft"":5,""ArrowDown,ArrowRight"":17}","true","ArrowUp,ArrowLeft","false","original","1","98","","",""
"html-keyboard-response","220","1006535","0.0-4.0-2.0-1.49","spark_pilot_norest","9973","5","7","Female","","","","","","","null","<div style=""font-size:60px;"">+</div>","null","fixation","","","","","","","","","99","","",""
"learning-instructions","221","1026219","0.0-4.0-3.0-0.0","spark_pilot_norest","9973","5","7","Female","","","","","","","6671.100000023842","<p> Now, you will travel with a friend who will choose whether you go up or down first. </p>
            <p> On these turns, you will just see the animal that they found. You will still get to choose which chest to search for treasure.</p>","","instructions","","","","","","","","","","","",""
"revaluation","222","1030239","0.0-4.0-4.0-0.0","spark_pilot_norest","9973","5","7","Female","","true","","","","","[]","./assets/img/canyon/animals/lion.jpg","[]","revaluation","canyon","-5","{""ArrowUp,ArrowLeft"":26,""ArrowUp,ArrowRight"":10,""ArrowDown,ArrowLeft"":5,""ArrowDown,ArrowRight"":17}","false","ArrowDown","","original","1","0","","",""
"html-keyboard-response","223","1030751","0.0-4.0-4.0-1.0","spark_pilot_norest","9973","5","7","Female","","","","","","","null","<div style=""font-size:60px;"">+</div>","null","fixation","","","","","","","","","1","","",""
"revaluation","224","1034772","0.0-4.0-4.0-0.1","spark_pilot_norest","9973","5","7","Female","","false","","","","","[649]","./assets/img/canyon/animals/lion.jpg","[""ArrowRight""]","revaluation","canyon","17","{""ArrowUp,ArrowLeft"":26,""ArrowUp,ArrowRight"":10,""ArrowDown,ArrowLeft"":5,""ArrowDown,ArrowRight"":17}","true","ArrowDown,ArrowRight","","original","1","2","","",""
"html-keyboard-response","225","1035281","0.0-4.0-4.0-1.1","spark_pilot_norest","9973","5","7","Female","","","","","","","null","<div style=""font-size:60px;"">+</div>","null","fixation","","","","","","","","","3","","",""
"revaluation","226","1039297","0.0-4.0-4.0-0.2","spark_pilot_norest","9973","5","7","Female","","false","","","","","[1113.300000011921]","./assets/img/canyon/animals/giraffe.jpg","[""ArrowRight""]","revaluation","canyon","10","{""ArrowUp,ArrowLeft"":26,""ArrowUp,ArrowRight"":10,""ArrowDown,ArrowLeft"":5,""ArrowDown,ArrowRight"":17}","false","ArrowUp,ArrowRight","","original","1","4","","",""
"html-keyboard-response","227","1039809","0.0-4.0-4.0-1.2","spark_pilot_norest","9973","5","7","Female","","","","","","","null","<div style=""font-size:60px;"">+</div>","null","fixation","","","","","","","","","5","","",""
"revaluation","228","1043825","0.0-4.0-4.0-0.3","spark_pilot_norest","9973","5","7","Female","","false","","","","","[717.0999999642372]","./assets/img/canyon/animals/lion.jpg","[""ArrowLeft""]","revaluation","canyon","5","{""ArrowUp,ArrowLeft"":26,""ArrowUp,ArrowRight"":10,""ArrowDown,ArrowLeft"":5,""ArrowDown,ArrowRight"":17}","false","ArrowDown,ArrowLeft","","original","1","6","","",""
"html-keyboard-response","229","1044330","0.0-4.0-4.0-1.3","spark_pilot_norest","9973","5","7","Female","","","","","","","null","<div style=""font-size:60px;"">+</div>","null","fixation","","","","","","","","","7","","",""
"revaluation","230","1048416","0.0-4.0-4.0-0.4","spark_pilot_norest","9973","5","7","Female","","false","","","","","[955.3000000119209]","./assets/img/canyon/animals/giraffe.jpg","[""ArrowLeft""]","revaluation","canyon","26","{""ArrowUp,ArrowLeft"":26,""ArrowUp,ArrowRight"":10,""ArrowDown,ArrowLeft"":5,""ArrowDown,ArrowRight"":17}","true","ArrowUp,ArrowLeft","","original","1","8","","",""
"html-keyboard-response","231","1048923","0.0-4.0-4.0-1.4","spark_pilot_norest","9973","5","7","Female","","","","","","","null","<div style=""font-size:60px;"">+</div>","null","fixation","","","","","","","","","9","","",""
"revaluation","232","1052981","0.0-4.0-4.0-0.5","spark_pilot_norest","9973","5","7","Female","","false","","","","","[828.8000000119209]","./assets/img/canyon/animals/lion.jpg","[""ArrowLeft""]","revaluation","canyon","5","{""ArrowUp,ArrowLeft"":26,""ArrowUp,ArrowRight"":10,""ArrowDown,ArrowLeft"":5,""ArrowDown,ArrowRight"":17}","false","ArrowDown,ArrowLeft","","original","1","10","","",""
"html-keyboard-response","233","1053488","0.0-4.0-4.0-1.5","spark_pilot_norest","9973","5","7","Female","","","","","","","null","<div style=""font-size:60px;"">+</div>","null","fixation","","","","","","","","","11","","",""
"revaluation","234","1057503","0.0-4.0-4.0-0.6","spark_pilot_norest","9973","5","7","Female","","false","","","","","[66.79999995231628]","./assets/img/canyon/animals/giraffe.jpg","[""ArrowLeft""]","revaluation","canyon","26","{""ArrowUp,ArrowLeft"":26,""ArrowUp,ArrowRight"":10,""ArrowDown,ArrowLeft"":5,""ArrowDown,ArrowRight"":17}","true","ArrowUp,ArrowLeft","","original","1","12","","",""
"html-keyboard-response","235","1058008","0.0-4.0-4.0-1.6","spark_pilot_norest","9973","5","7","Female","","","","","","","null","<div style=""font-size:60px;"">+</div>","null","fixation","","","","","","","","","13","","",""
"revaluation","236","1062022","0.0-4.0-4.0-0.7","spark_pilot_norest","9973","5","7","Female","","false","","","","","[215.69999998807907]","./assets/img/canyon/animals/giraffe.jpg","[""ArrowRight""]","revaluation","canyon","10","{""ArrowUp,ArrowLeft"":26,""ArrowUp,ArrowRight"":10,""ArrowDown,ArrowLeft"":5,""ArrowDown,ArrowRight"":17}","false","ArrowUp,ArrowRight","","original","1","14","","",""
"html-keyboard-response","237","1062530","0.0-4.0-4.0-1.7","spark_pilot_norest","9973","5","7","Female","","","","","","","null","<div style=""font-size:60px;"">+</div>","null","fixation","","","","","","","","","15","","",""
"revaluation","238","1066553","0.0-4.0-4.0-0.8","spark_pilot_norest","9973","5","7","Female","","false","","","","","[664.2000000476837]","./assets/img/canyon/animals/lion.jpg","[""ArrowLeft""]","revaluation","canyon","5","{""ArrowUp,ArrowLeft"":26,""ArrowUp,ArrowRight"":10,""ArrowDown,ArrowLeft"":5,""ArrowDown,ArrowRight"":17}","false","ArrowDown,ArrowLeft","","original","1","16","","",""
"html-keyboard-response","239","1067064","0.0-4.0-4.0-1.8","spark_pilot_norest","9973","5","7","Female","","","","","","","null","<div style=""font-size:60px;"">+</div>","null","fixation","","","","","","","","","17","","",""
"revaluation","240","1071081","0.0-4.0-4.0-0.9","spark_pilot_norest","9973","5","7","Female","","false","","","","","[202.10000002384186]","./assets/img/canyon/animals/giraffe.jpg","[""ArrowLeft""]","revaluation","canyon","26","{""ArrowUp,ArrowLeft"":26,""ArrowUp,ArrowRight"":10,""ArrowDown,ArrowLeft"":5,""ArrowDown,ArrowRight"":17}","true","ArrowUp,ArrowLeft","","original","1","18","","",""
"html-keyboard-response","241","1071592","0.0-4.0-4.0-1.9","spark_pilot_norest","9973","5","7","Female","","","","","","","null","<div style=""font-size:60px;"">+</div>","null","fixation","","","","","","","","","19","","",""
"revaluation","242","1075609","0.0-4.0-4.0-0.10","spark_pilot_norest","9973","5","7","Female","","false","","","","","[1339.199999988079]","./assets/img/canyon/animals/lion.jpg","[""ArrowLeft""]","revaluation","canyon","5","{""ArrowUp,ArrowLeft"":26,""ArrowUp,ArrowRight"":10,""ArrowDown,ArrowLeft"":5,""ArrowDown,ArrowRight"":17}","false","ArrowDown,ArrowLeft","","original","1","20","","",""
"html-keyboard-response","243","1076120","0.0-4.0-4.0-1.10","spark_pilot_norest","9973","5","7","Female","","","","","","","null","<div style=""font-size:60px;"">+</div>","null","fixation","","","","","","","","","21","","",""
"revaluation","244","1080137","0.0-4.0-4.0-0.11","spark_pilot_norest","9973","5","7","Female","","false","","","","","[45.60000002384186]","./assets/img/canyon/animals/lion.jpg","[""ArrowRight""]","revaluation","canyon","17","{""ArrowUp,ArrowLeft"":26,""ArrowUp,ArrowRight"":10,""ArrowDown,ArrowLeft"":5,""ArrowDown,ArrowRight"":17}","true","ArrowDown,ArrowRight","","original","1","22","","",""
"html-keyboard-response","245","1080648","0.0-4.0-4.0-1.11","spark_pilot_norest","9973","5","7","Female","","","","","","","null","<div style=""font-size:60px;"">+</div>","null","fixation","","","","","","","","","23","","",""
"revaluation","246","1084665","0.0-4.0-4.0-0.12","spark_pilot_norest","9973","5","7","Female","","false","","","","","[691]","./assets/img/canyon/animals/giraffe.jpg","[""ArrowLeft""]","revaluation","canyon","26","{""ArrowUp,ArrowLeft"":26,""ArrowUp,ArrowRight"":10,""ArrowDown,ArrowLeft"":5,""ArrowDown,ArrowRight"":17}","true","ArrowUp,ArrowLeft","","original","1","24","","",""
"html-keyboard-response","247","1085176","0.0-4.0-4.0-1.12","spark_pilot_norest","9973","5","7","Female","","","","","","","null","<div style=""font-size:60px;"">+</div>","null","fixation","","","","","","","","","25","","",""
"revaluation","248","1089194","0.0-4.0-4.0-0.13","spark_pilot_norest","9973","5","7","Female","","false","","","","","[1991]","./assets/img/canyon/animals/giraffe.jpg","[""ArrowRight""]","revaluation","canyon","10","{""ArrowUp,ArrowLeft"":26,""ArrowUp,ArrowRight"":10,""ArrowDown,ArrowLeft"":5,""ArrowDown,ArrowRight"":17}","false","ArrowUp,ArrowRight","","original","1","26","","",""
"html-keyboard-response","249","1089706","0.0-4.0-4.0-1.13","spark_pilot_norest","9973","5","7","Female","","","","","","","null","<div style=""font-size:60px;"">+</div>","null","fixation","","","","","","","","","27","","",""
"revaluation","250","1093729","0.0-4.0-4.0-0.14","spark_pilot_norest","9973","5","7","Female","","false","","","","","[65.19999998807907]","./assets/img/canyon/animals/giraffe.jpg","[""ArrowLeft""]","revaluation","canyon","26","{""ArrowUp,ArrowLeft"":26,""ArrowUp,ArrowRight"":10,""ArrowDown,ArrowLeft"":5,""ArrowDown,ArrowRight"":17}","true","ArrowUp,ArrowLeft","","original","1","28","","",""
"html-keyboard-response","251","1094238","0.0-4.0-4.0-1.14","spark_pilot_norest","9973","5","7","Female","","","","","","","null","<div style=""font-size:60px;"">+</div>","null","fixation","","","","","","","","","29","","",""
"revaluation","252","1098256","0.0-4.0-4.0-0.15","spark_pilot_norest","9973","5","7","Female","","false","","","","","[528.5]","./assets/img/canyon/animals/giraffe.jpg","[""ArrowLeft""]","revaluation","canyon","26","{""ArrowUp,ArrowLeft"":26,""ArrowUp,ArrowRight"":10,""ArrowDown,ArrowLeft"":5,""ArrowDown,ArrowRight"":17}","true","ArrowUp,ArrowLeft","","original","1","30","","",""
"html-keyboard-response","253","1098760","0.0-4.0-4.0-1.15","spark_pilot_norest","9973","5","7","Female","","","","","","","null","<div style=""font-size:60px;"">+</div>","null","fixation","","","","","","","","","31","","",""
"revaluation","254","1102778","0.0-4.0-4.0-0.16","spark_pilot_norest","9973","5","7","Female","","false","","","","","[1349.5]","./assets/img/canyon/animals/lion.jpg","[""ArrowLeft""]","revaluation","canyon","5","{""ArrowUp,ArrowLeft"":26,""ArrowUp,ArrowRight"":10,""ArrowDown,ArrowLeft"":5,""ArrowDown,ArrowRight"":17}","false","ArrowDown,ArrowLeft","","original","1","32","","",""
"html-keyboard-response","255","1103288","0.0-4.0-4.0-1.16","spark_pilot_norest","9973","5","7","Female","","","","","","","null","<div style=""font-size:60px;"">+</div>","null","fixation","","","","","","","","","33","","",""
"revaluation","256","1107306","0.0-4.0-4.0-0.17","spark_pilot_norest","9973","5","7","Female","","false","","","","","[976.2999999523163]","./assets/img/canyon/animals/lion.jpg","[""ArrowRight""]","revaluation","canyon","17","{""ArrowUp,ArrowLeft"":26,""ArrowUp,ArrowRight"":10,""ArrowDown,ArrowLeft"":5,""ArrowDown,ArrowRight"":17}","true","ArrowDown,ArrowRight","","original","1","34","","",""
"html-keyboard-response","257","1107816","0.0-4.0-4.0-1.17","spark_pilot_norest","9973","5","7","Female","","","","","","","null","<div style=""font-size:60px;"">+</div>","null","fixation","","","","","","","","","35","","",""
"learning-instructions","258","1116038","0.0-4.0-5.0-0.0","spark_pilot_norest","9973","5","7","Female","","","","","","","null","<p> You have almost finished this part of the game! </p>
            <p> We are going to ask you to make a few more choices. </p>","","instructions","","","","","","","","","","","",""
"learning-instructions","259","1132020","0.0-4.0-5.0-0.1","spark_pilot_norest","9973","5","7","Female","","","","","","","null","<p> First, you need to decide whether to go up or down. When you see each picture, use the arrow keys to make your choice. </p>
            <p><b>You will not see which animal you found, but try to get to the one that will give you the most treasure.</b></p>","","instructions","","","","","","","","","","","",""
"html-keyboard-response","260","1133028","0.0-4.0-6.0-0.0","spark_pilot_norest","9973","5","7","Female","","","","","","","null","<div style=""font-size:100px;color:red;"">Starting in...</div>","null","","","","","","","","","","","","",""
"html-keyboard-response","261","1134033","0.0-4.0-6.0-1.0","spark_pilot_norest","9973","5","7","Female","","","","","","","null","<div style=""font-size:200px;color:red;"">3</div>","null","","","","","","","","","","","","",""
"html-keyboard-response","262","1135044","0.0-4.0-6.0-2.0","spark_pilot_norest","9973","5","7","Female","","","","","","","null","<div style=""font-size:200px;color:red;"">2</div>","null","","","","","","","","","","","","",""
"html-keyboard-response","263","1136051","0.0-4.0-6.0-3.0","spark_pilot_norest","9973","5","7","Female","","","","","","","null","<div style=""font-size:200px;color:red;"">1</div>","null","","","","","","","","","","","","",""
"revaluation","264","1136650","0.0-4.0-7.0-0.0","spark_pilot_norest","9973","5","7","Female","","false","","","","","[595]","./assets/img/canyon/test/0.jpg","[""ArrowUp""]","first stage test","canyon","0","{""ArrowUp,ArrowLeft"":26,""ArrowUp,ArrowRight"":10,""ArrowDown,ArrowLeft"":5,""ArrowDown,ArrowRight"":17}","true","ArrowUp","false","original","1","","","",""
"html-keyboard-response","265","1137151","0.0-4.0-7.0-1.0","spark_pilot_norest","9973","5","7","Female","","","","","","","null","<div style=""font-size:60px;"">+</div>","null","fixation","","","","","","","","","","","",""
"revaluation","266","1139991","0.0-4.0-7.0-0.1","spark_pilot_norest","9973","5","7","Female","","false","","","","","[2837.100000023842]","./assets/img/canyon/test/2.jpg","[""ArrowUp""]","first stage test","canyon","0","{""ArrowUp,ArrowLeft"":26,""ArrowUp,ArrowRight"":10,""ArrowDown,ArrowLeft"":5,""ArrowDown,ArrowRight"":17}","true","ArrowUp","false","original","1","","","",""
"html-keyboard-response","267","1140495","0.0-4.0-7.0-1.1","spark_pilot_norest","9973","5","7","Female","","","","","","","null","<div style=""font-size:60px;"">+</div>","null","fixation","","","","","","","","","","","",""
"revaluation","268","1141943","0.0-4.0-7.0-0.2","spark_pilot_norest","9973","5","7","Female","","false","","","","","[1443.199999988079]","./assets/img/canyon/test/1.jpg","[""ArrowUp""]","first stage test","canyon","0","{""ArrowUp,ArrowLeft"":26,""ArrowUp,ArrowRight"":10,""ArrowDown,ArrowLeft"":5,""ArrowDown,ArrowRight"":17}","true","ArrowUp","false","original","1","","","",""
"html-keyboard-response","269","1142452","0.0-4.0-7.0-1.2","spark_pilot_norest","9973","5","7","Female","","","","","","","null","<div style=""font-size:60px;"">+</div>","null","fixation","","","","","","","","","","","",""
"revaluation","270","1143750","0.0-4.0-7.0-0.3","spark_pilot_norest","9973","5","7","Female","","false","","","","","[1295.5999999642372]","./assets/img/canyon/test/3.jpg","[""ArrowUp""]","first stage test","canyon","0","{""ArrowUp,ArrowLeft"":26,""ArrowUp,ArrowRight"":10,""ArrowDown,ArrowLeft"":5,""ArrowDown,ArrowRight"":17}","true","ArrowUp","false","original","1","","","",""
"html-keyboard-response","271","1144257","0.0-4.0-7.0-1.3","spark_pilot_norest","9973","5","7","Female","","","","","","","null","<div style=""font-size:60px;"">+</div>","null","fixation","","","","","","","","","","","",""
"learning-instructions","272","1157609","0.0-4.0-8.0-0.0","spark_pilot_norest","9973","5","7","Female","","","","","","","null","<p> Now you will see the animals again and can search their chests for treasure. </p>
            <p> This time, you will not see how much treasure you earned, but you will earn more bonus money for making better choices. </p>","","instructions","","","","","","","","","","","",""
"html-keyboard-response","273","1158619","0.0-4.0-9.0-0.0","spark_pilot_norest","9973","5","7","Female","","","","","","","null","<div style=""font-size:100px;color:red;"">Starting in...</div>","null","","","","","","","","","","","","",""
"html-keyboard-response","274","1159627","0.0-4.0-9.0-1.0","spark_pilot_norest","9973","5","7","Female","","","","","","","null","<div style=""font-size:200px;color:red;"">3</div>","null","","","","","","","","","","","","",""
"html-keyboard-response","275","1160633","0.0-4.0-9.0-2.0","spark_pilot_norest","9973","5","7","Female","","","","","","","null","<div style=""font-size:200px;color:red;"">2</div>","null","","","","","","","","","","","","",""
"html-keyboard-response","276","1161643","0.0-4.0-9.0-3.0","spark_pilot_norest","9973","5","7","Female","","","","","","","null","<div style=""font-size:200px;color:red;"">1</div>","null","","","","","","","","","","","","",""
"revaluation","277","1161787","0.0-4.0-10.0-0.0","spark_pilot_norest","9973","5","7","Female","","false","","","","","[141.69999998807907]","./assets/img/canyon/animals/giraffe.jpg","[""ArrowLeft""]","second stage test","canyon","0","{""ArrowUp,ArrowLeft"":26,""ArrowUp,ArrowRight"":10,""ArrowDown,ArrowLeft"":5,""ArrowDown,ArrowRight"":17}","true","ArrowUp,ArrowLeft","","original","1","","","",""
"html-keyboard-response","278","1162296","0.0-4.0-10.0-1.0","spark_pilot_norest","9973","5","7","Female","","","","","","","null","<div style=""font-size:60px;"">+</div>","null","fixation","","","","","","","","","","","",""
"revaluation","279","1162326","0.0-4.0-10.0-0.1","spark_pilot_norest","9973","5","7","Female","","false","","","","","[25.69999998807907]","./assets/img/canyon/animals/giraffe.jpg","[""ArrowLeft""]","second stage test","canyon","0","{""ArrowUp,ArrowLeft"":26,""ArrowUp,ArrowRight"":10,""ArrowDown,ArrowLeft"":5,""ArrowDown,ArrowRight"":17}","true","ArrowUp,ArrowLeft","","original","1","","","",""
"html-keyboard-response","280","1162832","0.0-4.0-10.0-1.1","spark_pilot_norest","9973","5","7","Female","","","","","","","null","<div style=""font-size:60px;"">+</div>","null","fixation","","","","","","","","","","","",""
"revaluation","281","1165412","0.0-4.0-10.0-0.2","spark_pilot_norest","9973","5","7","Female","","false","","","","","[2575.899999976158]","./assets/img/canyon/animals/giraffe.jpg","[""ArrowLeft""]","second stage test","canyon","0","{""ArrowUp,ArrowLeft"":26,""ArrowUp,ArrowRight"":10,""ArrowDown,ArrowLeft"":5,""ArrowDown,ArrowRight"":17}","true","ArrowUp,ArrowLeft","","original","1","","","",""
"html-keyboard-response","282","1165922","0.0-4.0-10.0-1.2","spark_pilot_norest","9973","5","7","Female","","","","","","","null","<div style=""font-size:60px;"">+</div>","null","fixation","","","","","","","","","","","",""
"revaluation","283","1168847","0.0-4.0-10.0-0.3","spark_pilot_norest","9973","5","7","Female","","false","","","","","[2922.800000011921]","./assets/img/canyon/animals/giraffe.jpg","[""ArrowLeft""]","second stage test","canyon","0","{""ArrowUp,ArrowLeft"":26,""ArrowUp,ArrowRight"":10,""ArrowDown,ArrowLeft"":5,""ArrowDown,ArrowRight"":17}","true","ArrowUp,ArrowLeft","","original","1","","","",""
"html-keyboard-response","284","1169353","0.0-4.0-10.0-1.3","spark_pilot_norest","9973","5","7","Female","","","","","","","null","<div style=""font-size:60px;"">+</div>","null","fixation","","","","","","","","","","","",""
"revaluation","285","1169432","0.0-4.0-10.0-0.4","spark_pilot_norest","9973","5","7","Female","","false","","","","","[76]","./assets/img/canyon/animals/lion.jpg","[""ArrowLeft""]","second stage test","canyon","0","{""ArrowUp,ArrowLeft"":26,""ArrowUp,ArrowRight"":10,""ArrowDown,ArrowLeft"":5,""ArrowDown,ArrowRight"":17}","false","ArrowDown,ArrowLeft","","original","1","","","",""
"html-keyboard-response","286","1169939","0.0-4.0-10.0-1.4","spark_pilot_norest","9973","5","7","Female","","","","","","","null","<div style=""font-size:60px;"">+</div>","null","fixation","","","","","","","","","","","",""
"revaluation","287","1171457","0.0-4.0-10.0-0.5","spark_pilot_norest","9973","5","7","Female","","false","","","","","[1514.6000000238419]","./assets/img/canyon/animals/lion.jpg","[""ArrowRight""]","second stage test","canyon","0","{""ArrowUp,ArrowLeft"":26,""ArrowUp,ArrowRight"":10,""ArrowDown,ArrowLeft"":5,""ArrowDown,ArrowRight"":17}","true","ArrowDown,ArrowRight","","original","1","","","",""
"html-keyboard-response","288","1171965","0.0-4.0-10.0-1.5","spark_pilot_norest","9973","5","7","Female","","","","","","","null","<div style=""font-size:60px;"">+</div>","null","fixation","","","","","","","","","","","",""
"revaluation","289","1173289","0.0-4.0-10.0-0.6","spark_pilot_norest","9973","5","7","Female","","false","","","","","[1319.4000000357628]","./assets/img/canyon/animals/lion.jpg","[""ArrowLeft""]","second stage test","canyon","0","{""ArrowUp,ArrowLeft"":26,""ArrowUp,ArrowRight"":10,""ArrowDown,ArrowLeft"":5,""ArrowDown,ArrowRight"":17}","false","ArrowDown,ArrowLeft","","original","1","","","",""
"html-keyboard-response","290","1173797","0.0-4.0-10.0-1.6","spark_pilot_norest","9973","5","7","Female","","","","","","","null","<div style=""font-size:60px;"">+</div>","null","fixation","","","","","","","","","","","",""
"revaluation","291","1174522","0.0-4.0-10.0-0.7","spark_pilot_norest","9973","5","7","Female","","false","","","","","[721.4000000357628]","./assets/img/canyon/animals/lion.jpg","[""ArrowRight""]","second stage test","canyon","0","{""ArrowUp,ArrowLeft"":26,""ArrowUp,ArrowRight"":10,""ArrowDown,ArrowLeft"":5,""ArrowDown,ArrowRight"":17}","true","ArrowDown,ArrowRight","","original","1","","","",""
"html-keyboard-response","292","1175024","0.0-4.0-10.0-1.7","spark_pilot_norest","9973","5","7","Female","","","","","","","null","<div style=""font-size:60px;"">+</div>","null","fixation","","","","","","","","","","","",""
"learning-instructions","293","1181441","0.0-4.0-0.1-0.2","spark_pilot_norest","9973","5","7","Female","","","","","","","3686.399999976158","<p> This time you are searching for treasure in the <b>ocean</b>.</p>","","instructions","","","","","","","","","","","",""
"learning-instructions","294","1202307","0.0-4.0-0.1-0.3","spark_pilot_norest","9973","5","7","Female","","","","","","","3614.300000011921","<p><b>New</b> animals with <b>new</b> treasure chests live here. You need to explore to discover where the animal with the best treasure chest is.</p>
                    <p> Like before, once you figure out which animal has the chest with the most treasure, you should try to get to that animal and select that chest! </p>","","instructions","","","","","","","","","","","",""
"learning-instructions","295","1223862","0.0-4.0-1.1-0.1","spark_pilot_norest","9973","5","7","Female","","","","","","","6818.800000011921","<p> Remember, when you see a picture of the place, use the up and down keys to <b>find an animal</b>.</p>
            <p> When you encounter an animal, you should use the left and right keys to <b>select a treasure chest</b>.</p>
            <p> Don't forget to look out for the robber! </p>","","instructions","","","","","","","","","","","",""
"revaluation","296","1227875","0.0-4.0-2.1-0.50","spark_pilot_norest","9973","5","7","Female","","true","","","","","[]","./assets/img/ocean/memory/7.jpg","[]","value training","ocean","-5","{""ArrowUp,ArrowLeft"":23,""ArrowUp,ArrowRight"":10,""ArrowDown,ArrowLeft"":8,""ArrowDown,ArrowRight"":30}","false","","false","revaluation","2","0","","",""
"html-keyboard-response","297","1228380","0.0-4.0-2.1-1.50","spark_pilot_norest","9973","5","7","Female","","","","","","","null","<div style=""font-size:60px;"">+</div>","null","fixation","","","","","","","","","1","","",""
"revaluation","298","1234406","0.0-4.0-2.1-0.51","spark_pilot_norest","9973","5","7","Female","","false","","","","","[1149.199999988079,1524.5]","./assets/img/ocean/memory/32.jpg","[""ArrowUp"",""ArrowLeft""]","value training","ocean","23","{""ArrowUp,ArrowLeft"":23,""ArrowUp,ArrowRight"":10,""ArrowDown,ArrowLeft"":8,""ArrowDown,ArrowRight"":30}","false","ArrowUp,ArrowLeft","false","revaluation","2","2","","",""
"html-keyboard-response","299","1234916","0.0-4.0-2.1-1.51","spark_pilot_norest","9973","5","7","Female","","","","","","","null","<div style=""font-size:60px;"">+</div>","null","fixation","","","","","","","","","3","","",""
"revaluation","300","1238934","0.0-4.0-2.1-0.52","spark_pilot_norest","9973","5","7","Female","","false","","","","","[1243.1000000238419]","./assets/img/ocean/catch/7.jpg","[""ArrowUp""]","value training","ocean","-10","{""ArrowUp,ArrowLeft"":23,""ArrowUp,ArrowRight"":10,""ArrowDown,ArrowLeft"":8,""ArrowDown,ArrowRight"":30}","false","ArrowUp","true","revaluation","2","4","","",""
"html-keyboard-response","301","1239445","0.0-4.0-2.1-1.52","spark_pilot_norest","9973","5","7","Female","","","","","","","null","<div style=""font-size:60px;"">+</div>","null","fixation","","","","","","","","","5","","",""
"revaluation","302","1243459","0.0-4.0-2.1-0.53","spark_pilot_norest","9973","5","7","Female","","false","","","","","[677.8000000119209]","./assets/img/ocean/catch/0.jpg","[""spaceBar""]","value training","ocean","0","{""ArrowUp,ArrowLeft"":23,""ArrowUp,ArrowRight"":10,""ArrowDown,ArrowLeft"":8,""ArrowDown,ArrowRight"":30}","true","spaceBar","true","revaluation","2","6","","",""
"html-keyboard-response","303","1243966","0.0-4.0-2.1-1.53","spark_pilot_norest","9973","5","7","Female","","","","","","","null","<div style=""font-size:60px;"">+</div>","null","fixation","","","","","","","","","7","","",""
"revaluation","304","1249991","0.0-4.0-2.1-0.54","spark_pilot_norest","9973","5","7","Female","","false","","","","","[1398.300000011921,1620.800000011921]","./assets/img/ocean/memory/2.jpg","[""ArrowUp"",""ArrowRight""]","value training","ocean","10","{""ArrowUp,ArrowLeft"":23,""ArrowUp,ArrowRight"":10,""ArrowDown,ArrowLeft"":8,""ArrowDown,ArrowRight"":30}","false","ArrowUp,ArrowRight","false","revaluation","2","8","","",""
"html-keyboard-response","305","1250499","0.0-4.0-2.1-1.54","spark_pilot_norest","9973","5","7","Female","","","","","","","null","<div style=""font-size:60px;"">+</div>","null","fixation","","","","","","","","","9","","",""
"revaluation","306","1256525","0.0-4.0-2.1-0.55","spark_pilot_norest","9973","5","7","Female","","false","","","","","[1792.2999999523163,872.3000000119209]","./assets/img/ocean/memory/7.jpg","[""ArrowUp"",""ArrowLeft""]","value training","ocean","23","{""ArrowUp,ArrowLeft"":23,""ArrowUp,ArrowRight"":10,""ArrowDown,ArrowLeft"":8,""ArrowDown,ArrowRight"":30}","false","ArrowUp,ArrowLeft","false","revaluation","2","10","","",""
"html-keyboard-response","307","1257030","0.0-4.0-2.1-1.55","spark_pilot_norest","9973","5","7","Female","","","","","","","null","<div style=""font-size:60px;"">+</div>","null","fixation","","","","","","","","","11","","",""
"revaluation","308","1261047","0.0-4.0-2.1-0.56","spark_pilot_norest","9973","5","7","Female","","true","","","","","[]","./assets/img/ocean/memory/28.jpg","[]","value training","ocean","-5","{""ArrowUp,ArrowLeft"":23,""ArrowUp,ArrowRight"":10,""ArrowDown,ArrowLeft"":8,""ArrowDown,ArrowRight"":30}","false","","false","revaluation","2","12","","",""
"html-keyboard-response","309","1261558","0.0-4.0-2.1-1.56","spark_pilot_norest","9973","5","7","Female","","","","","","","null","<div style=""font-size:60px;"">+</div>","null","fixation","","","","","","","","","13","","",""
"revaluation","310","1267584","0.0-4.0-2.1-0.57","spark_pilot_norest","9973","5","7","Female","","false","","","","","[166,1005.5999999642372]","./assets/img/ocean/memory/5.jpg","[""ArrowUp"",""ArrowLeft""]","value training","ocean","23","{""ArrowUp,ArrowLeft"":23,""ArrowUp,ArrowRight"":10,""ArrowDown,ArrowLeft"":8,""ArrowDown,ArrowRight"":30}","false","ArrowUp,ArrowLeft","false","revaluation","2","14","","",""
"html-keyboard-response","311","1268094","0.0-4.0-2.1-1.57","spark_pilot_norest","9973","5","7","Female","","","","","","","null","<div style=""font-size:60px;"">+</div>","null","fixation","","","","","","","","","15","","",""
"revaluation","312","1272112","0.0-4.0-2.1-0.58","spark_pilot_norest","9973","5","7","Female","","false","","","","","[1307.4000000357628]","./assets/img/ocean/catch/2.jpg","[""spaceBar""]","value training","ocean","0","{""ArrowUp,ArrowLeft"":23,""ArrowUp,ArrowRight"":10,""ArrowDown,ArrowLeft"":8,""ArrowDown,ArrowRight"":30}","true","spaceBar","true","revaluation","2","16","","",""
"html-keyboard-response","313","1272622","0.0-4.0-2.1-1.58","spark_pilot_norest","9973","5","7","Female","","","","","","","null","<div style=""font-size:60px;"">+</div>","null","fixation","","","","","","","","","17","","",""
