"trial_type","trial_index","time_elapsed","internal_node_id","task_version","subject_id","assigned_condition","age","gender","success","timeout","failed_images","failed_audio","failed_video","browser_interaction","rt","stimulus","response","task_part","environment","score","rewardMap","correct","fullState","isCatch","condition","order","trial_num","key_press","ground_truth","bonus"
"pavlovia","0","2014","0.0-0.0","spark_pilot_norest","8861","5","9","Female","","","","","","","","","","","","","","","","","","","","","",""
"preload","1","74175","0.0-1.0","spark_pilot_norest","8861","5","9","Female","true","false","[]","[]","[]","[{""event"":""fullscreenenter"",""trial"":2,""time"":86769}]","","","","","","","","","","","","","","","",""
"fullscreen","2","87744","0.0-2.0","spark_pilot_norest","8861","5","9","Female","true","","","","","","","","","","","","","","","","","","","","",""
"audio-button-response","3","99791","0.0-3.0-0.0-0.0","spark_pilot_norest","8861","5","9","Female","","","","","","","11829","./assets/audio/audiotest/turtle.mp3","2","audio_test","","","","","","","","","","","",""
"learning-instructions","4","110958","0.0-3.0-1.0-0.0","spark_pilot_norest","8861","5","9","Female","","","","","","","2755.7999999998137","<p> Welcome! Please remember to stay in fullscreen mode and don't click away from the experiment. </p>","","instructions","","","","","","","","","","","",""
"learning-instructions","5","122224","0.0-3.0-1.0-0.1","spark_pilot_norest","8861","5","9","Female","","","","","","","1360.699999999255","<p> Today you will be playing a game to earn treasure. </p>
            <p> At the end of the experiment, you will earn a bonus based on how much treasure you find. </p>
            <img src='./assets/img/instructions/treasure.jpg' class='instructions-image'>","","instructions","","","","","","","","","","","",""
"learning-instructions","6","134566","0.0-3.0-1.0-0.2","spark_pilot_norest","8861","5","9","Female","","","","","","","2403.5999999996275","<p> Animals have hidden treasure in treasure chests. </p>
            <p> You need to first find an animal and then choose which of their treasure chests to search. </p>
            <img src='./assets/img/space/animals/cat.jpg' class='instructions-image'>","","instructions","","","","","","","","","","","",""
"learning-instructions","7","150644","0.0-3.0-1.0-0.3","spark_pilot_norest","8861","5","9","Female","","","","","","","1268.4000000003725","<p> In each round, you will search for treasure in a different place. In the real game, there will be two rounds. </p>
            <p> You will begin with a separate, practice round where you will search for treasure in outer space. </p>
            <img src='./assets/img/space/0.jpg' class='instructions-image'>","","instructions","","","","","","","","","","","",""
"learning-instructions","8","165600","0.0-3.0-1.0-0.4","spark_pilot_norest","8861","5","9","Female","","","","","","","2070.7000000001863","<p> On every turn, you will see a picture of the place that you are in, but the specific image may be different each time. </p>
            <p> For example, both of these images mean you are in outer space. </p>
            <img src='./assets/img/instructions/outerspace.jpg' class='instructions-image'>","","instructions","","","","","","","","","","","",""
"learning-instructions","9","177137","0.0-3.0-1.0-0.5","spark_pilot_norest","8861","5","9","Female","","","","","","","2575.399999999441","<p> You need to decide which direction to travel in. </p>
            <p> You can choose between going <b>up or down</b> by using the arrow keys. </p>
            <img src='./assets/img/instructions/updown.jpg' class='instructions-image'>","","instructions","","","","","","","","","","","",""
"learning-instructions","10","190787","0.0-3.0-1.0-0.6","spark_pilot_norest","8861","5","9","Female","","","","","","","3286.7999999998137","<p> You will have <b>2 seconds</b> to make your choice. </p>
            <p> If you do not make a choice within 2 seconds, you will not find an animal or earn treasure. </p>
            <img src='./assets/img/instructions/2seconds.jpg' class='instructions-image'>","","instructions","","","","","","","","","","","",""
"learning-instructions","11","200567","0.0-3.0-1.0-0.7","spark_pilot_norest","8861","5","9","Female","","","","","","","1321.0999999996275","<p> Let’s try practicing that now! </p>
            <p> When you see a picture of the place you are in, press the <b>up</b> key to travel up. </p>
            <img src='./assets/img/instructions/pressUp.jpg' class='instructions-image'>","","instructions","","","","","","","","","","","",""
"revaluation","12","204613","0.0-3.0-2.0-0.0","spark_pilot_norest","8861","5","9","Female","","false","","","","","[607.5]","./assets/img/space/0.jpg","[""ArrowUp""]","first stage practice","space","0","null","null","ArrowUp","false","","","","","",""
"html-keyboard-response","13","205121","0.0-3.0-2.0-1.0","spark_pilot_norest","8861","5","9","Female","","","","","","","null","<div style=""font-size:60px;"">+</div>","null","fixation","","","","","","","","","","","",""
"revaluation","14","209140","0.0-3.0-2.0-0.1","spark_pilot_norest","8861","5","9","Female","","true","","","","","[]","./assets/img/space/1.jpg","[]","first stage practice","space","-5","null","null","","false","","","","","",""
"html-keyboard-response","15","209647","0.0-3.0-2.0-1.1","spark_pilot_norest","8861","5","9","Female","","","","","","","null","<div style=""font-size:60px;"">+</div>","null","fixation","","","","","","","","","","","",""
"revaluation","16","213670","0.0-3.0-2.0-0.2","spark_pilot_norest","8861","5","9","Female","","false","","","","","[565]","./assets/img/space/2.jpg","[""ArrowUp""]","first stage practice","space","0","null","null","ArrowUp","false","","","","","",""
"html-keyboard-response","17","214175","0.0-3.0-2.0-1.2","spark_pilot_norest","8861","5","9","Female","","","","","","","null","<div style=""font-size:60px;"">+</div>","null","fixation","","","","","","","","","","","",""
"learning-instructions","18","222730","0.0-3.0-3.0-0.0","spark_pilot_norest","8861","5","9","Female","","","","","","","3817","<p> Great job! Now try pressing the <b>down</b> key to travel down. </p>
            <img src='./assets/img/instructions/pressDown.jpg' class='instructions-image'>","","instructions","","","","","","","","","","","",""
"revaluation","19","226742","0.0-3.0-4.0-0.0","spark_pilot_norest","8861","5","9","Female","","false","","","","","[421.5]","./assets/img/space/3.jpg","[""ArrowDown""]","first stage practice","space","0","null","null","ArrowDown","false","","","","","",""
"html-keyboard-response","20","227249","0.0-3.0-4.0-1.0","spark_pilot_norest","8861","5","9","Female","","","","","","","null","<div style=""font-size:60px;"">+</div>","null","fixation","","","","","","","","","","","",""
"revaluation","21","231269","0.0-3.0-4.0-0.1","spark_pilot_norest","8861","5","9","Female","","false","","","","","[308.80000000074506]","./assets/img/space/4.jpg","[""ArrowDown""]","first stage practice","space","0","null","null","ArrowDown","false","","","","","",""
"html-keyboard-response","22","231774","0.0-3.0-4.0-1.1","spark_pilot_norest","8861","5","9","Female","","","","","","","null","<div style=""font-size:60px;"">+</div>","null","fixation","","","","","","","","","","","",""
"revaluation","23","235801","0.0-3.0-4.0-0.2","spark_pilot_norest","8861","5","9","Female","","false","","","","","[551.5]","./assets/img/space/5.jpg","[""ArrowDown""]","first stage practice","space","0","null","null","ArrowDown","false","","","","","",""
"html-keyboard-response","24","236306","0.0-3.0-4.0-1.2","spark_pilot_norest","8861","5","9","Female","","","","","","","null","<div style=""font-size:60px;"">+</div>","null","fixation","","","","","","","","","","","",""
"learning-instructions","25","251068","0.0-3.0-5.0-0.0","spark_pilot_norest","8861","5","9","Female","","","","","","","4851.299999999814","<p> The animals don’t move, so the animal in the upper part of a place will stay in the upper part of a place, and the animal in the lower part of a place will stay in the lower part of a place. </p>","","instructions","","","","","","","","","","","",""
"learning-instructions","26","262759","0.0-3.0-5.0-0.1","spark_pilot_norest","8861","5","9","Female","","","","","","","2491.5","<p> Each animal has two treasure chests for you to choose from. </p>
            <p> The amount of treasure in each chest can range from <b> 0 to 40 pieces.</b></p>","","instructions","","","","","","","","","","","",""
"learning-instructions","27","276465","0.0-3.0-5.0-0.2","spark_pilot_norest","8861","5","9","Female","","","","","","","2446.9000000003725","<p> You should decide which chest to search for treasure by using the <b>left</b> and <b>right</b> arrow keys. </p>
            <p><b> Pay attention to which animal is on the screen, as the animals have different treasure chests. </b></p>
            <img src='./assets/img/instructions/leftright.jpg' class='instructions-image'>","","instructions","","","","","","","","","","","",""
"learning-instructions","28","285351","0.0-3.0-5.0-0.3","spark_pilot_norest","8861","5","9","Female","","","","","","","2457.5","<p> Let’s try practicing that now. </p>
            <p> When you see an animal, choose which chest to search for treasure. </p>
            <img src='./assets/img/instructions/chooseChest.jpg' class='instructions-image'>","","instructions","","","","","","","","","","","",""
"revaluation","29","289374","0.0-3.0-6.0-0.0","spark_pilot_norest","8861","5","9","Female","","false","","","","","[1712.7999999998137]","./assets/img/space/animals/cat.jpg","[""ArrowRight""]","second stage practice","space","36","{""ArrowUp,ArrowLeft"":3,""ArrowUp,ArrowRight"":36,""ArrowDown,ArrowLeft"":15,""ArrowDown,ArrowRight"":23}","true","ArrowUp,ArrowRight","","","","","","",""
"html-keyboard-response","30","289877","0.0-3.0-6.0-1.0","spark_pilot_norest","8861","5","9","Female","","","","","","","null","<div style=""font-size:60px;"">+</div>","null","fixation","","","","","","","","","","","",""
"revaluation","31","293898","0.0-3.0-6.0-0.1","spark_pilot_norest","8861","5","9","Female","","false","","","","","[485.40000000037253]","./assets/img/space/animals/rabbit.jpg","[""ArrowRight""]","second stage practice","space","23","{""ArrowUp,ArrowLeft"":3,""ArrowUp,ArrowRight"":36,""ArrowDown,ArrowLeft"":15,""ArrowDown,ArrowRight"":23}","true","ArrowDown,ArrowRight","","","","","","",""
"html-keyboard-response","32","294405","0.0-3.0-6.0-1.1","spark_pilot_norest","8861","5","9","Female","","","","","","","null","<div style=""font-size:60px;"">+</div>","null","fixation","","","","","","","","","","","",""
"revaluation","33","298424","0.0-3.0-6.0-0.2","spark_pilot_norest","8861","5","9","Female","","false","","","","","[706]","./assets/img/space/animals/cat.jpg","[""ArrowLeft""]","second stage practice","space","3","{""ArrowUp,ArrowLeft"":3,""ArrowUp,ArrowRight"":36,""ArrowDown,ArrowLeft"":15,""ArrowDown,ArrowRight"":23}","false","ArrowUp,ArrowLeft","","","","","","",""
"html-keyboard-response","34","298929","0.0-3.0-6.0-1.2","spark_pilot_norest","8861","5","9","Female","","","","","","","null","<div style=""font-size:60px;"">+</div>","null","fixation","","","","","","","","","","","",""
"revaluation","35","302948","0.0-3.0-6.0-0.3","spark_pilot_norest","8861","5","9","Female","","false","","","","","[1817.4000000003725]","./assets/img/space/animals/rabbit.jpg","[""ArrowRight""]","second stage practice","space","23","{""ArrowUp,ArrowLeft"":3,""ArrowUp,ArrowRight"":36,""ArrowDown,ArrowLeft"":15,""ArrowDown,ArrowRight"":23}","true","ArrowDown,ArrowRight","","","","","","",""
"html-keyboard-response","36","303452","0.0-3.0-6.0-1.3","spark_pilot_norest","8861","5","9","Female","","","","","","","null","<div style=""font-size:60px;"">+</div>","null","fixation","","","","","","","","","","","",""
"learning-instructions","37","326261","0.0-3.0-7.0-0.0","spark_pilot_norest","8861","5","9","Female","","","","","","","3947.699999999255","<p> Great job. Now let’s try putting it together. </p>
            <p> On each turn, you will first see a picture to remind you of the place you are in, and you need to choose whether to go up or down. </p>
            <p> Then you will see an animal and choose which of its chests to search for treasure. </p>","","instructions","","","","","","","","","","","",""
"learning-instructions","38","337259","0.0-3.0-7.0-0.1","spark_pilot_norest","8861","5","9","Female","","","","","","","1324.7000000001863","<p> When you choose whether to go up or down, try to go to the animal with the chest with the most treasure. </p>
            <p> Try practicing that now! </p>","","instructions","","","","","","","","","","","",""
"revaluation","39","343273","0.0-3.0-8.0-0.0","spark_pilot_norest","8861","5","9","Female","","false","","","","","[712,1349.7999999998137]","./assets/img/space/6.jpg","[""ArrowUp"",""ArrowRight""]","full practice","space","36","{""ArrowUp,ArrowLeft"":3,""ArrowUp,ArrowRight"":36,""ArrowDown,ArrowLeft"":15,""ArrowDown,ArrowRight"":23}","true","ArrowUp,ArrowRight","false","","","","","",""
"html-keyboard-response","40","343784","0.0-3.0-8.0-1.0","spark_pilot_norest","8861","5","9","Female","","","","","","","null","<div style=""font-size:60px;"">+</div>","null","fixation","","","","","","","","","","","",""
"revaluation","41","349809","0.0-3.0-8.0-0.1","spark_pilot_norest","8861","5","9","Female","","false","","","","","[373.40000000037253,466.8999999994412]","./assets/img/space/7.jpg","[""ArrowDown"",""ArrowLeft""]","full practice","space","15","{""ArrowUp,ArrowLeft"":3,""ArrowUp,ArrowRight"":36,""ArrowDown,ArrowLeft"":15,""ArrowDown,ArrowRight"":23}","false","ArrowDown,ArrowLeft","false","","","","","",""
"html-keyboard-response","42","350315","0.0-3.0-8.0-1.1","spark_pilot_norest","8861","5","9","Female","","","","","","","null","<div style=""font-size:60px;"">+</div>","null","fixation","","","","","","","","","","","",""
"revaluation","43","356339","0.0-3.0-8.0-0.2","spark_pilot_norest","8861","5","9","Female","","false","","","","","[545.2000000001863,425.5]","./assets/img/space/8.jpg","[""ArrowUp"",""ArrowRight""]","full practice","space","36","{""ArrowUp,ArrowLeft"":3,""ArrowUp,ArrowRight"":36,""ArrowDown,ArrowLeft"":15,""ArrowDown,ArrowRight"":23}","true","ArrowUp,ArrowRight","false","","","","","",""
"html-keyboard-response","44","356843","0.0-3.0-8.0-1.2","spark_pilot_norest","8861","5","9","Female","","","","","","","null","<div style=""font-size:60px;"">+</div>","null","fixation","","","","","","","","","","","",""
"revaluation","45","362864","0.0-3.0-8.0-0.3","spark_pilot_norest","8861","5","9","Female","","false","","","","","[1015,1299.4000000003725]","./assets/img/space/9.jpg","[""ArrowDown"",""ArrowLeft""]","full practice","space","15","{""ArrowUp,ArrowLeft"":3,""ArrowUp,ArrowRight"":36,""ArrowDown,ArrowLeft"":15,""ArrowDown,ArrowRight"":23}","false","ArrowDown,ArrowLeft","false","","","","","",""
"html-keyboard-response","46","363370","0.0-3.0-8.0-1.3","spark_pilot_norest","8861","5","9","Female","","","","","","","null","<div style=""font-size:60px;"">+</div>","null","fixation","","","","","","","","","","","",""
"revaluation","47","369388","0.0-3.0-8.0-0.4","spark_pilot_norest","8861","5","9","Female","","false","","","","","[1312.5,656.0999999996275]","./assets/img/space/10.jpg","[""ArrowUp"",""ArrowRight""]","full practice","space","36","{""ArrowUp,ArrowLeft"":3,""ArrowUp,ArrowRight"":36,""ArrowDown,ArrowLeft"":15,""ArrowDown,ArrowRight"":23}","true","ArrowUp,ArrowRight","false","","","","","",""
"html-keyboard-response","48","369897","0.0-3.0-8.0-1.4","spark_pilot_norest","8861","5","9","Female","","","","","","","null","<div style=""font-size:60px;"">+</div>","null","fixation","","","","","","","","","","","",""
"learning-instructions","49","385350","0.0-3.0-9.0-0.0","spark_pilot_norest","8861","5","9","Female","","","","","","","3632.800000000745","<p> One last thing: sometimes, you will see a robber. The robber can be anywhere in the picture. </p>
            <p> If you do not stop them, you will lose treasure. </p>
            <img src='./assets/img/instructions/robber.jpg' class='instructions-image'>","","instructions","","","","","","","","","","","",""
"learning-instructions","50","395297","0.0-3.0-9.0-0.1","spark_pilot_norest","8861","5","9","Female","","","","","","","1357.9000000003725","<p> If you see the robber, you should <b>press the space bar</b> rather than using the arrow keys. </p>
            <p> Try practicing that now! </p>","","instructions","","","","","","","","","","","",""
"revaluation","51","399307","0.0-3.0-10.0-0.0","spark_pilot_norest","8861","5","9","Female","","false","","","","","[659.4000000003725]","./assets/img/space/catch/0.jpg","[""spaceBar""]","catch practice","space","0","{""ArrowUp,ArrowLeft"":3,""ArrowUp,ArrowRight"":36,""ArrowDown,ArrowLeft"":15,""ArrowDown,ArrowRight"":23}","true","spaceBar","true","","","","","",""
"html-keyboard-response","52","399813","0.0-3.0-10.0-1.0","spark_pilot_norest","8861","5","9","Female","","","","","","","null","<div style=""font-size:60px;"">+</div>","null","fixation","","","","","","","","","","","",""
"revaluation","53","403828","0.0-3.0-10.0-0.1","spark_pilot_norest","8861","5","9","Female","","false","","","","","[450.30000000074506]","./assets/img/space/catch/1.jpg","[""spaceBar""]","catch practice","space","0","{""ArrowUp,ArrowLeft"":3,""ArrowUp,ArrowRight"":36,""ArrowDown,ArrowLeft"":15,""ArrowDown,ArrowRight"":23}","true","spaceBar","true","","","","","",""
"html-keyboard-response","54","404333","0.0-3.0-10.0-1.1","spark_pilot_norest","8861","5","9","Female","","","","","","","null","<div style=""font-size:60px;"">+</div>","null","fixation","","","","","","","","","","","",""
"revaluation","55","408353","0.0-3.0-10.0-0.2","spark_pilot_norest","8861","5","9","Female","","false","","","","","[393.40000000037253]","./assets/img/space/catch/2.jpg","[""spaceBar""]","catch practice","space","0","{""ArrowUp,ArrowLeft"":3,""ArrowUp,ArrowRight"":36,""ArrowDown,ArrowLeft"":15,""ArrowDown,ArrowRight"":23}","true","spaceBar","true","","","","","",""
"html-keyboard-response","56","408857","0.0-3.0-10.0-1.2","spark_pilot_norest","8861","5","9","Female","","","","","","","null","<div style=""font-size:60px;"">+</div>","null","fixation","","","","","","","","","","","",""
"learning-instructions","57","419254","0.0-3.0-11.0-0.0-0.0","spark_pilot_norest","8861","5","9","Female","","","","","","","3855.800000000745","<p> Now, you will practice a shortened version of the game to get a sense of how it all fits together. </p>","","instructions","","","","","","","","","","","",""
"learning-instructions","58","426138","0.0-3.0-11.0-0.0-0.1","spark_pilot_norest","8861","5","9","Female","","","","","","","2792.100000000559","<p>This time you are searching for treasure in outer space.</p>","","instructions","","","","","","","","","","","",""
"learning-instructions","59","444293","0.0-3.0-11.0-1.0-0.0","spark_pilot_norest","8861","5","9","Female","","","","","","","3292.300000000745","<p> Remember, when you see a picture of the place, use the up and down keys to <b>find an animal</b>.</p>
            <p> When you encounter an animal, you should use the left and right keys to <b>select a treasure chest</b>.</p>
            <p> Don't forget to look out for the robber! </p>","","instructions","","","","","","","","","","","",""
"revaluation","60","450308","0.0-3.0-11.0-2.0-0.0","spark_pilot_norest","8861","5","9","Female","","false","","","","","[1248.4000000003725,498.59999999962747]","./assets/img/space/11.jpg","[""ArrowDown"",""ArrowRight""]","practice block","space","23","{""ArrowUp,ArrowLeft"":3,""ArrowUp,ArrowRight"":36,""ArrowDown,ArrowLeft"":15,""ArrowDown,ArrowRight"":23}","false","ArrowDown,ArrowRight","false","","","","","",""
"html-keyboard-response","61","450814","0.0-3.0-11.0-2.0-1.0","spark_pilot_norest","8861","5","9","Female","","","","","","","null","<div style=""font-size:60px;"">+</div>","null","fixation","","","","","","","","","","","",""
"revaluation","62","456839","0.0-3.0-11.0-2.0-0.1","spark_pilot_norest","8861","5","9","Female","","false","","","","","[447.29999999981374,1143.6000000005588]","./assets/img/space/12.jpg","[""ArrowUp"",""ArrowRight""]","practice block","space","36","{""ArrowUp,ArrowLeft"":3,""ArrowUp,ArrowRight"":36,""ArrowDown,ArrowLeft"":15,""ArrowDown,ArrowRight"":23}","true","ArrowUp,ArrowRight","false","","","","","",""
"html-keyboard-response","63","457344","0.0-3.0-11.0-2.0-1.1","spark_pilot_norest","8861","5","9","Female","","","","","","","null","<div style=""font-size:60px;"">+</div>","null","fixation","","","","","","","","","","","",""
"revaluation","64","463367","0.0-3.0-11.0-2.0-0.2","spark_pilot_norest","8861","5","9","Female","","false","","","","","[798.0999999996275,369.09999999962747]","./assets/img/space/13.jpg","[""ArrowDown"",""ArrowRight""]","practice block","space","23","{""ArrowUp,ArrowLeft"":3,""ArrowUp,ArrowRight"":36,""ArrowDown,ArrowLeft"":15,""ArrowDown,ArrowRight"":23}","false","ArrowDown,ArrowRight","false","","","","","",""
"html-keyboard-response","65","463874","0.0-3.0-11.0-2.0-1.2","spark_pilot_norest","8861","5","9","Female","","","","","","","null","<div style=""font-size:60px;"">+</div>","null","fixation","","","","","","","","","","","",""
"revaluation","66","469900","0.0-3.0-11.0-2.0-0.3","spark_pilot_norest","8861","5","9","Female","","false","","","","","[491.59999999962747,894.6000000005588]","./assets/img/space/14.jpg","[""ArrowUp"",""ArrowLeft""]","practice block","space","3","{""ArrowUp,ArrowLeft"":3,""ArrowUp,ArrowRight"":36,""ArrowDown,ArrowLeft"":15,""ArrowDown,ArrowRight"":23}","false","ArrowUp,ArrowLeft","false","","","","","",""
"html-keyboard-response","67","470405","0.0-3.0-11.0-2.0-1.3","spark_pilot_norest","8861","5","9","Female","","","","","","","null","<div style=""font-size:60px;"">+</div>","null","fixation","","","","","","","","","","","",""
"revaluation","68","476423","0.0-3.0-11.0-2.0-0.4","spark_pilot_norest","8861","5","9","Female","","false","","","","","[749.7999999998137,332.90000000037253]","./assets/img/space/11.jpg","[""ArrowDown"",""ArrowRight""]","practice block","space","23","{""ArrowUp,ArrowLeft"":3,""ArrowUp,ArrowRight"":36,""ArrowDown,ArrowLeft"":15,""ArrowDown,ArrowRight"":23}","false","ArrowDown,ArrowRight","false","","","","","",""
"html-keyboard-response","69","476931","0.0-3.0-11.0-2.0-1.4","spark_pilot_norest","8861","5","9","Female","","","","","","","null","<div style=""font-size:60px;"">+</div>","null","fixation","","","","","","","","","","","",""
"revaluation","70","482951","0.0-3.0-11.0-2.0-0.5","spark_pilot_norest","8861","5","9","Female","","false","","","","","[705.6000000005588,350.40000000037253]","./assets/img/space/12.jpg","[""ArrowDown"",""ArrowRight""]","practice block","space","23","{""ArrowUp,ArrowLeft"":3,""ArrowUp,ArrowRight"":36,""ArrowDown,ArrowLeft"":15,""ArrowDown,ArrowRight"":23}","false","ArrowDown,ArrowRight","false","","","","","",""
"html-keyboard-response","71","483466","0.0-3.0-11.0-2.0-1.5","spark_pilot_norest","8861","5","9","Female","","","","","","","null","<div style=""font-size:60px;"">+</div>","null","fixation","","","","","","","","","","","",""
"revaluation","72","487485","0.0-3.0-11.0-2.0-0.6","spark_pilot_norest","8861","5","9","Female","","true","","","","","[]","./assets/img/space/13.jpg","[]","practice block","space","-5","{""ArrowUp,ArrowLeft"":3,""ArrowUp,ArrowRight"":36,""ArrowDown,ArrowLeft"":15,""ArrowDown,ArrowRight"":23}","false","","false","","","","","",""
"html-keyboard-response","73","487993","0.0-3.0-11.0-2.0-1.6","spark_pilot_norest","8861","5","9","Female","","","","","","","null","<div style=""font-size:60px;"">+</div>","null","fixation","","","","","","","","","","","",""
"revaluation","74","494023","0.0-3.0-11.0-2.0-0.7","spark_pilot_norest","8861","5","9","Female","","false","","","","","[500.3999999994412,736.2999999998137]","./assets/img/space/14.jpg","[""ArrowUp"",""ArrowRight""]","practice block","space","36","{""ArrowUp,ArrowLeft"":3,""ArrowUp,ArrowRight"":36,""ArrowDown,ArrowLeft"":15,""ArrowDown,ArrowRight"":23}","true","ArrowUp,ArrowRight","false","","","","","",""
"html-keyboard-response","75","494532","0.0-3.0-11.0-2.0-1.7","spark_pilot_norest","8861","5","9","Female","","","","","","","null","<div style=""font-size:60px;"">+</div>","null","fixation","","","","","","","","","","","",""
"revaluation","76","498552","0.0-3.0-11.0-2.0-0.8","spark_pilot_norest","8861","5","9","Female","","false","","","","","[972.2999999998137]","./assets/img/space/catch/3.jpg","[""spaceBar""]","practice block","space","0","{""ArrowUp,ArrowLeft"":3,""ArrowUp,ArrowRight"":36,""ArrowDown,ArrowLeft"":15,""ArrowDown,ArrowRight"":23}","true","spaceBar","true","","","","","",""
"html-keyboard-response","77","499057","0.0-3.0-11.0-2.0-1.8","spark_pilot_norest","8861","5","9","Female","","","","","","","null","<div style=""font-size:60px;"">+</div>","null","fixation","","","","","","","","","","","",""
"learning-instructions","78","529125","0.0-3.0-11.0-3.0-0.0","spark_pilot_norest","8861","5","9","Female","","","","","","","14443.100000000559","<p> Now, you will travel with a friend who will choose whether you go up or down first. </p>
            <p> On these turns, you will just see the animal that they found. You will still get to choose which chest to search for treasure.</p>","","instructions","","","","","","","","","","","",""
"revaluation","79","533139","0.0-3.0-11.0-4.0-0.0","spark_pilot_norest","8861","5","9","Female","","false","","","","","[1204.6000000005588]","./assets/img/space/animals/rabbit.jpg","[""ArrowRight""]","practice block","space","23","{""ArrowUp,ArrowLeft"":3,""ArrowUp,ArrowRight"":36,""ArrowDown,ArrowLeft"":15,""ArrowDown,ArrowRight"":23}","true","ArrowDown,ArrowRight","","","","","","",""
"html-keyboard-response","80","533643","0.0-3.0-11.0-4.0-1.0","spark_pilot_norest","8861","5","9","Female","","","","","","","null","<div style=""font-size:60px;"">+</div>","null","fixation","","","","","","","","","","","",""
"revaluation","81","537658","0.0-3.0-11.0-4.0-0.1","spark_pilot_norest","8861","5","9","Female","","false","","","","","[981.9000000003725]","./assets/img/space/animals/cat.jpg","[""ArrowRight""]","practice block","space","36","{""ArrowUp,ArrowLeft"":3,""ArrowUp,ArrowRight"":36,""ArrowDown,ArrowLeft"":15,""ArrowDown,ArrowRight"":23}","true","ArrowUp,ArrowRight","","","","","","",""
"html-keyboard-response","82","538165","0.0-3.0-11.0-4.0-1.1","spark_pilot_norest","8861","5","9","Female","","","","","","","null","<div style=""font-size:60px;"">+</div>","null","fixation","","","","","","","","","","","",""
"revaluation","83","542184","0.0-3.0-11.0-4.0-0.2","spark_pilot_norest","8861","5","9","Female","","false","","","","","[402.5]","./assets/img/space/animals/cat.jpg","[""ArrowLeft""]","practice block","space","3","{""ArrowUp,ArrowLeft"":3,""ArrowUp,ArrowRight"":36,""ArrowDown,ArrowLeft"":15,""ArrowDown,ArrowRight"":23}","false","ArrowUp,ArrowLeft","","","","","","",""
"html-keyboard-response","84","542688","0.0-3.0-11.0-4.0-1.2","spark_pilot_norest","8861","5","9","Female","","","","","","","null","<div style=""font-size:60px;"">+</div>","null","fixation","","","","","","","","","","","",""
"revaluation","85","546706","0.0-3.0-11.0-4.0-0.3","spark_pilot_norest","8861","5","9","Female","","false","","","","","[406.70000000018626]","./assets/img/space/animals/rabbit.jpg","[""ArrowRight""]","practice block","space","23","{""ArrowUp,ArrowLeft"":3,""ArrowUp,ArrowRight"":36,""ArrowDown,ArrowLeft"":15,""ArrowDown,ArrowRight"":23}","true","ArrowDown,ArrowRight","","","","","","",""
"html-keyboard-response","86","547210","0.0-3.0-11.0-4.0-1.3","spark_pilot_norest","8861","5","9","Female","","","","","","","null","<div style=""font-size:60px;"">+</div>","null","fixation","","","","","","","","","","","",""
"learning-instructions","87","556515","0.0-3.0-11.0-5.0-0.0","spark_pilot_norest","8861","5","9","Female","","","","","","","null","<p> You have almost finished this part of the game! </p>
            <p> We are going to ask you to make a few more choices. </p>","","instructions","","","","","","","","","","","",""
"learning-instructions","88","574083","0.0-3.0-11.0-5.0-0.1","spark_pilot_norest","8861","5","9","Female","","","","","","","null","<p> First, you need to decide whether to go up or down. When you see each picture, use the arrow keys to make your choice. </p>
            <p><b>You will not see which animal you found, but try to get to the one that will give you the most treasure.</b></p>","","instructions","","","","","","","","","","","",""
"html-keyboard-response","89","575089","0.0-3.0-11.0-6.0-0.0","spark_pilot_norest","8861","5","9","Female","","","","","","","null","<div style=""font-size:100px;color:red;"">Starting in...</div>","null","","","","","","","","","","","","",""
"html-keyboard-response","90","576094","0.0-3.0-11.0-6.0-1.0","spark_pilot_norest","8861","5","9","Female","","","","","","","null","<div style=""font-size:200px;color:red;"">3</div>","null","","","","","","","","","","","","",""
"html-keyboard-response","91","577101","0.0-3.0-11.0-6.0-2.0","spark_pilot_norest","8861","5","9","Female","","","","","","","null","<div style=""font-size:200px;color:red;"">2</div>","null","","","","","","","","","","","","",""
"html-keyboard-response","92","578107","0.0-3.0-11.0-6.0-3.0","spark_pilot_norest","8861","5","9","Female","","","","","","","null","<div style=""font-size:200px;color:red;"">1</div>","null","","","","","","","","","","","","",""
"revaluation","93","578685","0.0-3.0-11.0-7.0","spark_pilot_norest","8861","5","9","Female","","false","","","","","[558]","./assets/img/space/15.jpg","[""ArrowDown""]","practice block","space","0","{""ArrowUp,ArrowLeft"":3,""ArrowUp,ArrowRight"":36,""ArrowDown,ArrowLeft"":15,""ArrowDown,ArrowRight"":23}","false","ArrowDown","false","","","","","",""
"html-keyboard-response","94","579190","0.0-3.0-11.0-8.0","spark_pilot_norest","8861","5","9","Female","","","","","","","null","<div style=""font-size:60px;"">+</div>","null","fixation","","","","","","","","","","","",""
"learning-instructions","95","594167","0.0-3.0-11.0-9.0-0.0","spark_pilot_norest","8861","5","9","Female","","","","","","","null","<p> Now you will see the animals again and can search their chests for treasure. </p>
            <p> This time, you will not see how much treasure you earned, but you will earn more bonus money for making better choices. </p>","","instructions","","","","","","","","","","","",""
"html-keyboard-response","96","595173","0.0-3.0-11.0-10.0-0.0","spark_pilot_norest","8861","5","9","Female","","","","","","","null","<div style=""font-size:100px;color:red;"">Starting in...</div>","null","","","","","","","","","","","","",""
"html-keyboard-response","97","596176","0.0-3.0-11.0-10.0-1.0","spark_pilot_norest","8861","5","9","Female","","","","","","","null","<div style=""font-size:200px;color:red;"">3</div>","null","","","","","","","","","","","","",""
"html-keyboard-response","98","597181","0.0-3.0-11.0-10.0-2.0","spark_pilot_norest","8861","5","9","Female","","","","","","","null","<div style=""font-size:200px;color:red;"">2</div>","null","","","","","","","","","","","","",""
"html-keyboard-response","99","598189","0.0-3.0-11.0-10.0-3.0","spark_pilot_norest","8861","5","9","Female","","","","","","","null","<div style=""font-size:200px;color:red;"">1</div>","null","","","","","","","","","","","","",""
"revaluation","100","599114","0.0-3.0-11.0-11.0-0.0","spark_pilot_norest","8861","5","9","Female","","false","","","","","[906.2000000001863]","./assets/img/space/animals/cat.jpg","[""ArrowRight""]","practice block","space","0","{""ArrowUp,ArrowLeft"":3,""ArrowUp,ArrowRight"":36,""ArrowDown,ArrowLeft"":15,""ArrowDown,ArrowRight"":23}","true","ArrowUp,ArrowRight","","","","","","",""
"html-keyboard-response","101","599621","0.0-3.0-11.0-11.0-1.0","spark_pilot_norest","8861","5","9","Female","","","","","","","null","<div style=""font-size:60px;"">+</div>","null","fixation","","","","","","","","","","","",""
"revaluation","102","600300","0.0-3.0-11.0-11.0-0.1","spark_pilot_norest","8861","5","9","Female","","false","","","","","[658.2999999998137]","./assets/img/space/animals/rabbit.jpg","[""ArrowLeft""]","practice block","space","0","{""ArrowUp,ArrowLeft"":3,""ArrowUp,ArrowRight"":36,""ArrowDown,ArrowLeft"":15,""ArrowDown,ArrowRight"":23}","false","ArrowDown,ArrowLeft","","","","","","",""
"html-keyboard-response","103","600806","0.0-3.0-11.0-11.0-1.1","spark_pilot_norest","8861","5","9","Female","","","","","","","null","<div style=""font-size:60px;"">+</div>","null","fixation","","","","","","","","","","","",""
"learning-instructions","104","609389","0.0-3.0-12.0-0.0","spark_pilot_norest","8861","5","9","Female","","","","","","","2796.0999999996275","<p> Before you start, we're going to ask you a few questions about how the game works. </p>","","instructions","","","","","","","","","","","",""
"comp-q","105","617317","0.0-3.0-13.0-0.0-0.0","spark_pilot_norest","8861","5","9","Female","","","","","","","1264","<p> <b> True or False? </b> </p>
            <p> There can be 50 pieces of treasure in a given animal's chest. </p>","1","comp_question","","","","true","","","","","","","",""
"comp-q","106","627279","0.0-3.0-13.0-0.0-1.0","spark_pilot_norest","8861","5","9","Female","","","","","","","1623.7999999998137","<p> <b> That's right! </b> The amount of treasure in each chest can range from 0 to 40 pieces. </p>","0","comp_answer","","","","","","","","","","","",""
"comp-q","107","636951","0.0-3.0-13.0-0.1-0.1","spark_pilot_norest","8861","5","9","Female","","","","","","","1263.8999999994412","<p> <b> True or False? </b> </p><p> In this game, all animals have the same amount of treasure in their left and right chests. </p>","1","comp_question","","","","true","","","","","","","",""
"comp-q","108","644894","0.0-3.0-13.0-0.1-1.1","spark_pilot_norest","8861","5","9","Female","","","","","","","1596.3999999994412","<p> <b> That's right! </b> Animals have different amounts of treasure in their treasure chests. </p>","0","comp_answer","","","","","","","","","","","",""
"comp-q","109","653560","0.0-3.0-13.0-0.2-0.2","spark_pilot_norest","8861","5","9","Female","","","","","","","1374.7999999998137","<p> <b> True or False? </b> </p><p> The same animal will always be there if you go up in the same place. </p>","0","comp_question","","","","true","","","","","","","",""
"comp-q","110","662750","0.0-3.0-13.0-0.2-1.2","spark_pilot_norest","8861","5","9","Female","","","","","","","1739.0999999996275","<p> <b> That's right! </b> One animal lives in the upper part and one lives in the lower part of every place. </p>","0","comp_answer","","","","","","","","","","","",""
"comp-q","111","670321","0.0-3.0-13.0-0.3-0.3","spark_pilot_norest","8861","5","9","Female","","","","","","","754.7000000001863","<p> <b> True or False? </b> </p><p> If you see a different picture, it means you are in a new place. </p>","0","comp_question","","","","false","","","","","","","",""
"comp-q","112","684247","0.0-3.0-13.0-0.3-1.3","spark_pilot_norest","8861","5","9","Female","","","","","","","1301.7999999998137","<p> <b>Incorrect.</b> Lots of different images may show the same place. For example,  you may see three different images that all remind you that you are in outer space. </p>","0","comp_answer","","","","","","","","","","","",""
"comp-q","113","690791","0.0-3.0-13.0-0.4-0.4","spark_pilot_norest","8861","5","9","Female","","","","","","","1034.8999999994412","<p> <b> True or False? </b> </p><p> If you see a different picture, it means you are in a new place. </p>","1","comp_question","","","","true","","","","","","","",""
"comp-q","114","708367","0.0-3.0-13.0-0.4-1.4","spark_pilot_norest","8861","5","9","Female","","","","","","","4813.5","<p> <b> That's right! </b> Lots of different images may show the same place. For example,  you may see three different images that all remind you that you are in outer space. </p>","0","comp_answer","","","","","","","","","","","",""
"learning-instructions","115","724284","0.0-3.0-14.0-0.0","spark_pilot_norest","8861","5","9","Female","","","","","","","4680.799999999814","<p> Good job. Remember to do your best because the amount of treasure you earn will be converted into bonus money. </p>
            <p> It’s time to start the real game! </p>","","instructions","","","","","","","","","","","",""
"learning-instructions","116","730337","0.0-4.0-0.0-0.0","spark_pilot_norest","8861","5","9","Female","","","","","","","2381","<p> This time you are searching for treasure in the <b>canyon</b>.</p>","","instructions","","","","","","","","","","","",""
"learning-instructions","117","753215","0.0-4.0-0.0-0.1","spark_pilot_norest","8861","5","9","Female","","","","","","","3281.7999999998137","<p><b>New</b> animals with <b>new</b> treasure chests live here. You need to explore to discover where the animal with the best treasure chest is.</p>
                    <p> Like before, once you figure out which animal has the chest with the most treasure, you should try to get to that animal and select that chest! </p>","","instructions","","","","","","","","","","","",""
"learning-instructions","118","769462","0.0-4.0-1.0-0.0","spark_pilot_norest","8861","5","9","Female","","","","","","","1501.9000000003725","<p> Remember, when you see a picture of the place, use the up and down keys to <b>find an animal</b>.</p>
            <p> When you encounter an animal, you should use the left and right keys to <b>select a treasure chest</b>.</p>
            <p> Don't forget to look out for the robber! </p>","","instructions","","","","","","","","","","","",""
"revaluation","119","775476","0.0-4.0-2.0-0.0","spark_pilot_norest","8861","5","9","Female","","false","","","","","[962.4000000003725,1228.5999999996275]","./assets/img/canyon/memory/5.jpg","[""ArrowDown"",""ArrowRight""]","value training","canyon","17","{""ArrowUp,ArrowLeft"":26,""ArrowUp,ArrowRight"":10,""ArrowDown,ArrowLeft"":5,""ArrowDown,ArrowRight"":17}","false","ArrowDown,ArrowRight","false","original","1","0","","",""
"html-keyboard-response","120","775986","0.0-4.0-2.0-1.0","spark_pilot_norest","8861","5","9","Female","","","","","","","null","<div style=""font-size:60px;"">+</div>","null","fixation","","","","","","","","","1","","",""
"revaluation","121","782003","0.0-4.0-2.0-0.1","spark_pilot_norest","8861","5","9","Female","","false","","","","","[495.79999999981374,541.7999999998137]","./assets/img/canyon/memory/17.jpg","[""ArrowUp"",""ArrowLeft""]","value training","canyon","26","{""ArrowUp,ArrowLeft"":26,""ArrowUp,ArrowRight"":10,""ArrowDown,ArrowLeft"":5,""ArrowDown,ArrowRight"":17}","true","ArrowUp,ArrowLeft","false","original","1","2","","",""
"html-keyboard-response","122","782506","0.0-4.0-2.0-1.1","spark_pilot_norest","8861","5","9","Female","","","","","","","null","<div style=""font-size:60px;"">+</div>","null","fixation","","","","","","","","","3","","",""
"revaluation","123","788529","0.0-4.0-2.0-0.2","spark_pilot_norest","8861","5","9","Female","","false","","","","","[493.5,435.29999999981374]","./assets/img/canyon/memory/4.jpg","[""ArrowDown"",""ArrowLeft""]","value training","canyon","5","{""ArrowUp,ArrowLeft"":26,""ArrowUp,ArrowRight"":10,""ArrowDown,ArrowLeft"":5,""ArrowDown,ArrowRight"":17}","false","ArrowDown,ArrowLeft","false","original","1","4","","",""
"html-keyboard-response","124","789035","0.0-4.0-2.0-1.2","spark_pilot_norest","8861","5","9","Female","","","","","","","null","<div style=""font-size:60px;"">+</div>","null","fixation","","","","","","","","","5","","",""
"revaluation","125","795055","0.0-4.0-2.0-0.3","spark_pilot_norest","8861","5","9","Female","","false","","","","","[992.1000000005588,1701]","./assets/img/canyon/memory/1.jpg","[""ArrowUp"",""ArrowRight""]","value training","canyon","10","{""ArrowUp,ArrowLeft"":26,""ArrowUp,ArrowRight"":10,""ArrowDown,ArrowLeft"":5,""ArrowDown,ArrowRight"":17}","false","ArrowUp,ArrowRight","false","original","1","6","","",""
"html-keyboard-response","126","795559","0.0-4.0-2.0-1.3","spark_pilot_norest","8861","5","9","Female","","","","","","","null","<div style=""font-size:60px;"">+</div>","null","fixation","","","","","","","","","7","","",""
"revaluation","127","799572","0.0-4.0-2.0-0.4","spark_pilot_norest","8861","5","9","Female","","false","","","","","[1370.5999999996275]","./assets/img/canyon/catch/4.jpg","[""spaceBar""]","value training","canyon","0","{""ArrowUp,ArrowLeft"":26,""ArrowUp,ArrowRight"":10,""ArrowDown,ArrowLeft"":5,""ArrowDown,ArrowRight"":17}","true","spaceBar","true","original","1","8","","",""
"html-keyboard-response","128","800077","0.0-4.0-2.0-1.4","spark_pilot_norest","8861","5","9","Female","","","","","","","null","<div style=""font-size:60px;"">+</div>","null","fixation","","","","","","","","","9","","",""
"revaluation","129","804097","0.0-4.0-2.0-0.5","spark_pilot_norest","8861","5","9","Female","","false","","","","","[1068.4000000003725]","./assets/img/canyon/catch/2.jpg","[""spaceBar""]","value training","canyon","0","{""ArrowUp,ArrowLeft"":26,""ArrowUp,ArrowRight"":10,""ArrowDown,ArrowLeft"":5,""ArrowDown,ArrowRight"":17}","true","spaceBar","true","original","1","10","","",""
"html-keyboard-response","130","804603","0.0-4.0-2.0-1.5","spark_pilot_norest","8861","5","9","Female","","","","","","","null","<div style=""font-size:60px;"">+</div>","null","fixation","","","","","","","","","11","","",""
"revaluation","131","810621","0.0-4.0-2.0-0.6","spark_pilot_norest","8861","5","9","Female","","false","","","","","[936.2999999998137,1842.6000000005588]","./assets/img/canyon/memory/8.jpg","[""ArrowDown"",""ArrowRight""]","value training","canyon","17","{""ArrowUp,ArrowLeft"":26,""ArrowUp,ArrowRight"":10,""ArrowDown,ArrowLeft"":5,""ArrowDown,ArrowRight"":17}","false","ArrowDown,ArrowRight","false","original","1","12","","",""
"html-keyboard-response","132","811129","0.0-4.0-2.0-1.6","spark_pilot_norest","8861","5","9","Female","","","","","","","null","<div style=""font-size:60px;"">+</div>","null","fixation","","","","","","","","","13","","",""
"revaluation","133","817158","0.0-4.0-2.0-0.7","spark_pilot_norest","8861","5","9","Female","","false","","","","","[606.7999999998137,717.1000000005588]","./assets/img/canyon/memory/8.jpg","[""ArrowUp"",""ArrowLeft""]","value training","canyon","26","{""ArrowUp,ArrowLeft"":26,""ArrowUp,ArrowRight"":10,""ArrowDown,ArrowLeft"":5,""ArrowDown,ArrowRight"":17}","true","ArrowUp,ArrowLeft","false","original","1","14","","",""
"html-keyboard-response","134","817664","0.0-4.0-2.0-1.7","spark_pilot_norest","8861","5","9","Female","","","","","","","null","<div style=""font-size:60px;"">+</div>","null","fixation","","","","","","","","","15","","",""
"revaluation","135","821686","0.0-4.0-2.0-0.8","spark_pilot_norest","8861","5","9","Female","","false","","","","","[826.5999999996275]","./assets/img/canyon/catch/0.jpg","[""spaceBar""]","value training","canyon","0","{""ArrowUp,ArrowLeft"":26,""ArrowUp,ArrowRight"":10,""ArrowDown,ArrowLeft"":5,""ArrowDown,ArrowRight"":17}","true","spaceBar","true","original","1","16","","",""
"html-keyboard-response","136","822195","0.0-4.0-2.0-1.8","spark_pilot_norest","8861","5","9","Female","","","","","","","null","<div style=""font-size:60px;"">+</div>","null","fixation","","","","","","","","","17","","",""
"revaluation","137","828220","0.0-4.0-2.0-0.9","spark_pilot_norest","8861","5","9","Female","","true","","","","","[1132.7999999998137]","./assets/img/canyon/memory/1.jpg","[""ArrowDown""]","value training","canyon","-5","{""ArrowUp,ArrowLeft"":26,""ArrowUp,ArrowRight"":10,""ArrowDown,ArrowLeft"":5,""ArrowDown,ArrowRight"":17}","false","ArrowDown","false","original","1","18","","",""
"html-keyboard-response","138","828727","0.0-4.0-2.0-1.9","spark_pilot_norest","8861","5","9","Female","","","","","","","null","<div style=""font-size:60px;"">+</div>","null","fixation","","","","","","","","","19","","",""
"revaluation","139","832749","0.0-4.0-2.0-0.10","spark_pilot_norest","8861","5","9","Female","","false","","","","","[853.5]","./assets/img/canyon/catch/1.jpg","[""spaceBar""]","value training","canyon","0","{""ArrowUp,ArrowLeft"":26,""ArrowUp,ArrowRight"":10,""ArrowDown,ArrowLeft"":5,""ArrowDown,ArrowRight"":17}","true","spaceBar","true","original","1","20","","",""
"html-keyboard-response","140","833252","0.0-4.0-2.0-1.10","spark_pilot_norest","8861","5","9","Female","","","","","","","null","<div style=""font-size:60px;"">+</div>","null","fixation","","","","","","","","","21","","",""
"revaluation","141","839267","0.0-4.0-2.0-0.11","spark_pilot_norest","8861","5","9","Female","","false","","","","","[1514,903.5]","./assets/img/canyon/memory/7.jpg","[""ArrowDown"",""ArrowRight""]","value training","canyon","17","{""ArrowUp,ArrowLeft"":26,""ArrowUp,ArrowRight"":10,""ArrowDown,ArrowLeft"":5,""ArrowDown,ArrowRight"":17}","false","ArrowDown,ArrowRight","false","original","1","22","","",""
"html-keyboard-response","142","839778","0.0-4.0-2.0-1.11","spark_pilot_norest","8861","5","9","Female","","","","","","","null","<div style=""font-size:60px;"">+</div>","null","fixation","","","","","","","","","23","","",""
"revaluation","143","845795","0.0-4.0-2.0-0.12","spark_pilot_norest","8861","5","9","Female","","false","","","","","[552.5,511.29999999981374]","./assets/img/canyon/memory/5.jpg","[""ArrowDown"",""ArrowRight""]","value training","canyon","17","{""ArrowUp,ArrowLeft"":26,""ArrowUp,ArrowRight"":10,""ArrowDown,ArrowLeft"":5,""ArrowDown,ArrowRight"":17}","false","ArrowDown,ArrowRight","false","original","1","24","","",""
"html-keyboard-response","144","846303","0.0-4.0-2.0-1.12","spark_pilot_norest","8861","5","9","Female","","","","","","","null","<div style=""font-size:60px;"">+</div>","null","fixation","","","","","","","","","25","","",""
"revaluation","145","852323","0.0-4.0-2.0-0.13","spark_pilot_norest","8861","5","9","Female","","false","","","","","[776.5999999996275,601.5]","./assets/img/canyon/memory/25.jpg","[""ArrowUp"",""ArrowLeft""]","value training","canyon","26","{""ArrowUp,ArrowLeft"":26,""ArrowUp,ArrowRight"":10,""ArrowDown,ArrowLeft"":5,""ArrowDown,ArrowRight"":17}","true","ArrowUp,ArrowLeft","false","original","1","26","","",""
"html-keyboard-response","146","852833","0.0-4.0-2.0-1.13","spark_pilot_norest","8861","5","9","Female","","","","","","","null","<div style=""font-size:60px;"">+</div>","null","fixation","","","","","","","","","27","","",""
"revaluation","147","858858","0.0-4.0-2.0-0.14","spark_pilot_norest","8861","5","9","Female","","false","","","","","[728.2000000001863,1595.0999999996275]","./assets/img/canyon/memory/18.jpg","[""ArrowDown"",""ArrowRight""]","value training","canyon","17","{""ArrowUp,ArrowLeft"":26,""ArrowUp,ArrowRight"":10,""ArrowDown,ArrowLeft"":5,""ArrowDown,ArrowRight"":17}","false","ArrowDown,ArrowRight","false","original","1","28","","",""
"html-keyboard-response","148","859363","0.0-4.0-2.0-1.14","spark_pilot_norest","8861","5","9","Female","","","","","","","null","<div style=""font-size:60px;"">+</div>","null","fixation","","","","","","","","","29","","",""
"revaluation","149","865383","0.0-4.0-2.0-0.15","spark_pilot_norest","8861","5","9","Female","","false","","","","","[645.2000000001863,1242.7000000001863]","./assets/img/canyon/memory/28.jpg","[""ArrowDown"",""ArrowRight""]","value training","canyon","17","{""ArrowUp,ArrowLeft"":26,""ArrowUp,ArrowRight"":10,""ArrowDown,ArrowLeft"":5,""ArrowDown,ArrowRight"":17}","false","ArrowDown,ArrowRight","false","original","1","30","","",""
"html-keyboard-response","150","865888","0.0-4.0-2.0-1.15","spark_pilot_norest","8861","5","9","Female","","","","","","","null","<div style=""font-size:60px;"">+</div>","null","fixation","","","","","","","","","31","","",""
"revaluation","151","871912","0.0-4.0-2.0-0.16","spark_pilot_norest","8861","5","9","Female","","false","","","","","[470.20000000018626,360.80000000074506]","./assets/img/canyon/memory/20.jpg","[""ArrowUp"",""ArrowLeft""]","value training","canyon","26","{""ArrowUp,ArrowLeft"":26,""ArrowUp,ArrowRight"":10,""ArrowDown,ArrowLeft"":5,""ArrowDown,ArrowRight"":17}","true","ArrowUp,ArrowLeft","false","original","1","32","","",""
"html-keyboard-response","152","872417","0.0-4.0-2.0-1.16","spark_pilot_norest","8861","5","9","Female","","","","","","","null","<div style=""font-size:60px;"">+</div>","null","fixation","","","","","","","","","33","","",""
"revaluation","153","878434","0.0-4.0-2.0-0.17","spark_pilot_norest","8861","5","9","Female","","false","","","","","[468.29999999981374,691.8000000007451]","./assets/img/canyon/memory/7.jpg","[""ArrowUp"",""ArrowLeft""]","value training","canyon","26","{""ArrowUp,ArrowLeft"":26,""ArrowUp,ArrowRight"":10,""ArrowDown,ArrowLeft"":5,""ArrowDown,ArrowRight"":17}","true","ArrowUp,ArrowLeft","false","original","1","34","","",""
"html-keyboard-response","154","878941","0.0-4.0-2.0-1.17","spark_pilot_norest","8861","5","9","Female","","","","","","","null","<div style=""font-size:60px;"">+</div>","null","fixation","","","","","","","","","35","","",""
"revaluation","155","884967","0.0-4.0-2.0-0.18","spark_pilot_norest","8861","5","9","Female","","false","","","","","[919.7999999998137,635.9000000003725]","./assets/img/canyon/memory/14.jpg","[""ArrowDown"",""ArrowRight""]","value training","canyon","17","{""ArrowUp,ArrowLeft"":26,""ArrowUp,ArrowRight"":10,""ArrowDown,ArrowLeft"":5,""ArrowDown,ArrowRight"":17}","false","ArrowDown,ArrowRight","false","original","1","36","","",""
"html-keyboard-response","156","885475","0.0-4.0-2.0-1.18","spark_pilot_norest","8861","5","9","Female","","","","","","","null","<div style=""font-size:60px;"">+</div>","null","fixation","","","","","","","","","37","","",""
"revaluation","157","889493","0.0-4.0-2.0-0.19","spark_pilot_norest","8861","5","9","Female","","false","","","","","[674]","./assets/img/canyon/catch/6.jpg","[""spaceBar""]","value training","canyon","0","{""ArrowUp,ArrowLeft"":26,""ArrowUp,ArrowRight"":10,""ArrowDown,ArrowLeft"":5,""ArrowDown,ArrowRight"":17}","true","spaceBar","true","original","1","38","","",""
"html-keyboard-response","158","890002","0.0-4.0-2.0-1.19","spark_pilot_norest","8861","5","9","Female","","","","","","","null","<div style=""font-size:60px;"">+</div>","null","fixation","","","","","","","","","39","","",""
"revaluation","159","896023","0.0-4.0-2.0-0.20","spark_pilot_norest","8861","5","9","Female","","false","","","","","[718.7000000001863,1329.8999999994412]","./assets/img/canyon/memory/20.jpg","[""ArrowDown"",""ArrowRight""]","value training","canyon","17","{""ArrowUp,ArrowLeft"":26,""ArrowUp,ArrowRight"":10,""ArrowDown,ArrowLeft"":5,""ArrowDown,ArrowRight"":17}","false","ArrowDown,ArrowRight","false","original","1","40","","",""
"html-keyboard-response","160","896528","0.0-4.0-2.0-1.20","spark_pilot_norest","8861","5","9","Female","","","","","","","null","<div style=""font-size:60px;"">+</div>","null","fixation","","","","","","","","","41","","",""
"revaluation","161","902541","0.0-4.0-2.0-0.21","spark_pilot_norest","8861","5","9","Female","","false","","","","","[1672.2000000001863,800.7000000001863]","./assets/img/canyon/memory/24.jpg","[""ArrowDown"",""ArrowRight""]","value training","canyon","17","{""ArrowUp,ArrowLeft"":26,""ArrowUp,ArrowRight"":10,""ArrowDown,ArrowLeft"":5,""ArrowDown,ArrowRight"":17}","false","ArrowDown,ArrowRight","false","original","1","42","","",""
"html-keyboard-response","162","903049","0.0-4.0-2.0-1.21","spark_pilot_norest","8861","5","9","Female","","","","","","","null","<div style=""font-size:60px;"">+</div>","null","fixation","","","","","","","","","43","","",""
"revaluation","163","909070","0.0-4.0-2.0-0.22","spark_pilot_norest","8861","5","9","Female","","false","","","","","[1299.1000000005588,736.5]","./assets/img/canyon/memory/25.jpg","[""ArrowDown"",""ArrowRight""]","value training","canyon","17","{""ArrowUp,ArrowLeft"":26,""ArrowUp,ArrowRight"":10,""ArrowDown,ArrowLeft"":5,""ArrowDown,ArrowRight"":17}","false","ArrowDown,ArrowRight","false","original","1","44","","",""
"html-keyboard-response","164","909576","0.0-4.0-2.0-1.22","spark_pilot_norest","8861","5","9","Female","","","","","","","null","<div style=""font-size:60px;"">+</div>","null","fixation","","","","","","","","","45","","",""
"revaluation","165","915593","0.0-4.0-2.0-0.23","spark_pilot_norest","8861","5","9","Female","","false","","","","","[780.4000000003725,632.1999999992549]","./assets/img/canyon/memory/23.jpg","[""ArrowUp"",""ArrowLeft""]","value training","canyon","26","{""ArrowUp,ArrowLeft"":26,""ArrowUp,ArrowRight"":10,""ArrowDown,ArrowLeft"":5,""ArrowDown,ArrowRight"":17}","true","ArrowUp,ArrowLeft","false","original","1","46","","",""
"html-keyboard-response","166","916098","0.0-4.0-2.0-1.23","spark_pilot_norest","8861","5","9","Female","","","","","","","null","<div style=""font-size:60px;"">+</div>","null","fixation","","","","","","","","","47","","",""
"revaluation","167","922118","0.0-4.0-2.0-0.24","spark_pilot_norest","8861","5","9","Female","","false","","","","","[649.1000000005588,352]","./assets/img/canyon/memory/2.jpg","[""ArrowDown"",""ArrowRight""]","value training","canyon","17","{""ArrowUp,ArrowLeft"":26,""ArrowUp,ArrowRight"":10,""ArrowDown,ArrowLeft"":5,""ArrowDown,ArrowRight"":17}","false","ArrowDown,ArrowRight","false","original","1","48","","",""
"html-keyboard-response","168","922622","0.0-4.0-2.0-1.24","spark_pilot_norest","8861","5","9","Female","","","","","","","null","<div style=""font-size:60px;"">+</div>","null","fixation","","","","","","","","","49","","",""
"revaluation","169","928644","0.0-4.0-2.0-0.25","spark_pilot_norest","8861","5","9","Female","","false","","","","","[523.7999999998137,516.6999999992549]","./assets/img/canyon/memory/26.jpg","[""ArrowDown"",""ArrowRight""]","value training","canyon","17","{""ArrowUp,ArrowLeft"":26,""ArrowUp,ArrowRight"":10,""ArrowDown,ArrowLeft"":5,""ArrowDown,ArrowRight"":17}","false","ArrowDown,ArrowRight","false","original","1","50","","",""
"html-keyboard-response","170","929149","0.0-4.0-2.0-1.25","spark_pilot_norest","8861","5","9","Female","","","","","","","null","<div style=""font-size:60px;"">+</div>","null","fixation","","","","","","","","","51","","",""
"revaluation","171","935167","0.0-4.0-2.0-0.26","spark_pilot_norest","8861","5","9","Female","","false","","","","","[790.1000000005588,981.5999999996275]","./assets/img/canyon/memory/2.jpg","[""ArrowDown"",""ArrowRight""]","value training","canyon","17","{""ArrowUp,ArrowLeft"":26,""ArrowUp,ArrowRight"":10,""ArrowDown,ArrowLeft"":5,""ArrowDown,ArrowRight"":17}","false","ArrowDown,ArrowRight","false","original","1","52","","",""
"html-keyboard-response","172","935674","0.0-4.0-2.0-1.26","spark_pilot_norest","8861","5","9","Female","","","","","","","null","<div style=""font-size:60px;"">+</div>","null","fixation","","","","","","","","","53","","",""
"revaluation","173","941702","0.0-4.0-2.0-0.27","spark_pilot_norest","8861","5","9","Female","","false","","","","","[431.1000000005588,533.5]","./assets/img/canyon/memory/24.jpg","[""ArrowDown"",""ArrowRight""]","value training","canyon","17","{""ArrowUp,ArrowLeft"":26,""ArrowUp,ArrowRight"":10,""ArrowDown,ArrowLeft"":5,""ArrowDown,ArrowRight"":17}","false","ArrowDown,ArrowRight","false","original","1","54","","",""
"html-keyboard-response","174","942207","0.0-4.0-2.0-1.27","spark_pilot_norest","8861","5","9","Female","","","","","","","null","<div style=""font-size:60px;"">+</div>","null","fixation","","","","","","","","","55","","",""
"revaluation","175","948231","0.0-4.0-2.0-0.28","spark_pilot_norest","8861","5","9","Female","","false","","","","","[664.7000000001863,1030.0999999996275]","./assets/img/canyon/memory/22.jpg","[""ArrowDown"",""ArrowRight""]","value training","canyon","17","{""ArrowUp,ArrowLeft"":26,""ArrowUp,ArrowRight"":10,""ArrowDown,ArrowLeft"":5,""ArrowDown,ArrowRight"":17}","false","ArrowDown,ArrowRight","false","original","1","56","","",""
"html-keyboard-response","176","948739","0.0-4.0-2.0-1.28","spark_pilot_norest","8861","5","9","Female","","","","","","","null","<div style=""font-size:60px;"">+</div>","null","fixation","","","","","","","","","57","","",""
"revaluation","177","954760","0.0-4.0-2.0-0.29","spark_pilot_norest","8861","5","9","Female","","false","","","","","[737.0999999996275,1066.5]","./assets/img/canyon/memory/41.jpg","[""ArrowDown"",""ArrowRight""]","value training","canyon","17","{""ArrowUp,ArrowLeft"":26,""ArrowUp,ArrowRight"":10,""ArrowDown,ArrowLeft"":5,""ArrowDown,ArrowRight"":17}","false","ArrowDown,ArrowRight","false","original","1","58","","",""
"html-keyboard-response","178","955263","0.0-4.0-2.0-1.29","spark_pilot_norest","8861","5","9","Female","","","","","","","null","<div style=""font-size:60px;"">+</div>","null","fixation","","","","","","","","","59","","",""
"revaluation","179","961279","0.0-4.0-2.0-0.30","spark_pilot_norest","8861","5","9","Female","","false","","","","","[752,514.7000000001863]","./assets/img/canyon/memory/33.jpg","[""ArrowUp"",""ArrowLeft""]","value training","canyon","26","{""ArrowUp,ArrowLeft"":26,""ArrowUp,ArrowRight"":10,""ArrowDown,ArrowLeft"":5,""ArrowDown,ArrowRight"":17}","true","ArrowUp,ArrowLeft","false","original","1","60","","",""
"html-keyboard-response","180","961785","0.0-4.0-2.0-1.30","spark_pilot_norest","8861","5","9","Female","","","","","","","null","<div style=""font-size:60px;"">+</div>","null","fixation","","","","","","","","","61","","",""
"revaluation","181","967802","0.0-4.0-2.0-0.31","spark_pilot_norest","8861","5","9","Female","","false","","","","","[757.4000000003725,942.7999999998137]","./assets/img/canyon/memory/32.jpg","[""ArrowDown"",""ArrowRight""]","value training","canyon","17","{""ArrowUp,ArrowLeft"":26,""ArrowUp,ArrowRight"":10,""ArrowDown,ArrowLeft"":5,""ArrowDown,ArrowRight"":17}","false","ArrowDown,ArrowRight","false","original","1","62","","",""
"html-keyboard-response","182","968308","0.0-4.0-2.0-1.31","spark_pilot_norest","8861","5","9","Female","","","","","","","null","<div style=""font-size:60px;"">+</div>","null","fixation","","","","","","","","","63","","",""
"revaluation","183","974330","0.0-4.0-2.0-0.32","spark_pilot_norest","8861","5","9","Female","","false","","","","","[512.3999999994412,417]","./assets/img/canyon/memory/22.jpg","[""ArrowDown"",""ArrowLeft""]","value training","canyon","5","{""ArrowUp,ArrowLeft"":26,""ArrowUp,ArrowRight"":10,""ArrowDown,ArrowLeft"":5,""ArrowDown,ArrowRight"":17}","false","ArrowDown,ArrowLeft","false","original","1","64","","",""
"html-keyboard-response","184","974835","0.0-4.0-2.0-1.32","spark_pilot_norest","8861","5","9","Female","","","","","","","null","<div style=""font-size:60px;"">+</div>","null","fixation","","","","","","","","","65","","",""
"revaluation","185","980858","0.0-4.0-2.0-0.33","spark_pilot_norest","8861","5","9","Female","","false","","","","","[868.2999999998137,943.9000000003725]","./assets/img/canyon/memory/19.jpg","[""ArrowUp"",""ArrowRight""]","value training","canyon","10","{""ArrowUp,ArrowLeft"":26,""ArrowUp,ArrowRight"":10,""ArrowDown,ArrowLeft"":5,""ArrowDown,ArrowRight"":17}","false","ArrowUp,ArrowRight","false","original","1","66","","",""
"html-keyboard-response","186","981366","0.0-4.0-2.0-1.33","spark_pilot_norest","8861","5","9","Female","","","","","","","null","<div style=""font-size:60px;"">+</div>","null","fixation","","","","","","","","","67","","",""
"revaluation","187","987395","0.0-4.0-2.0-0.34","spark_pilot_norest","8861","5","9","Female","","false","","","","","[896.5999999996275,1262.5999999996275]","./assets/img/canyon/memory/41.jpg","[""ArrowDown"",""ArrowLeft""]","value training","canyon","5","{""ArrowUp,ArrowLeft"":26,""ArrowUp,ArrowRight"":10,""ArrowDown,ArrowLeft"":5,""ArrowDown,ArrowRight"":17}","false","ArrowDown,ArrowLeft","false","original","1","68","","",""
"html-keyboard-response","188","987899","0.0-4.0-2.0-1.34","spark_pilot_norest","8861","5","9","Female","","","","","","","null","<div style=""font-size:60px;"">+</div>","null","fixation","","","","","","","","","69","","",""
"revaluation","189","991913","0.0-4.0-2.0-0.35","spark_pilot_norest","8861","5","9","Female","","false","","","","","[673.7999999998137]","./assets/img/canyon/catch/5.jpg","[""spaceBar""]","value training","canyon","0","{""ArrowUp,ArrowLeft"":26,""ArrowUp,ArrowRight"":10,""ArrowDown,ArrowLeft"":5,""ArrowDown,ArrowRight"":17}","true","spaceBar","true","original","1","70","","",""
"html-keyboard-response","190","992417","0.0-4.0-2.0-1.35","spark_pilot_norest","8861","5","9","Female","","","","","","","null","<div style=""font-size:60px;"">+</div>","null","fixation","","","","","","","","","71","","",""
"revaluation","191","998436","0.0-4.0-2.0-0.36","spark_pilot_norest","8861","5","9","Female","","false","","","","","[536.7000000001863,597.6000000005588]","./assets/img/canyon/memory/18.jpg","[""ArrowUp"",""ArrowLeft""]","value training","canyon","26","{""ArrowUp,ArrowLeft"":26,""ArrowUp,ArrowRight"":10,""ArrowDown,ArrowLeft"":5,""ArrowDown,ArrowRight"":17}","true","ArrowUp,ArrowLeft","false","original","1","72","","",""
"html-keyboard-response","192","998942","0.0-4.0-2.0-1.36","spark_pilot_norest","8861","5","9","Female","","","","","","","null","<div style=""font-size:60px;"">+</div>","null","fixation","","","","","","","","","73","","",""
"revaluation","193","1004964","0.0-4.0-2.0-0.37","spark_pilot_norest","8861","5","9","Female","","false","","","","","[619.2000000001863,532.0999999996275]","./assets/img/canyon/memory/9.jpg","[""ArrowDown"",""ArrowRight""]","value training","canyon","17","{""ArrowUp,ArrowLeft"":26,""ArrowUp,ArrowRight"":10,""ArrowDown,ArrowLeft"":5,""ArrowDown,ArrowRight"":17}","false","ArrowDown,ArrowRight","false","original","1","74","","",""
"html-keyboard-response","194","1005470","0.0-4.0-2.0-1.37","spark_pilot_norest","8861","5","9","Female","","","","","","","null","<div style=""font-size:60px;"">+</div>","null","fixation","","","","","","","","","75","","",""
"revaluation","195","1011484","0.0-4.0-2.0-0.38","spark_pilot_norest","8861","5","9","Female","","false","","","","","[612,423.20000000018626]","./assets/img/canyon/memory/32.jpg","[""ArrowDown"",""ArrowRight""]","value training","canyon","17","{""ArrowUp,ArrowLeft"":26,""ArrowUp,ArrowRight"":10,""ArrowDown,ArrowLeft"":5,""ArrowDown,ArrowRight"":17}","false","ArrowDown,ArrowRight","false","original","1","76","","",""
"html-keyboard-response","196","1011988","0.0-4.0-2.0-1.38","spark_pilot_norest","8861","5","9","Female","","","","","","","null","<div style=""font-size:60px;"">+</div>","null","fixation","","","","","","","","","77","","",""
"revaluation","197","1018011","0.0-4.0-2.0-0.39","spark_pilot_norest","8861","5","9","Female","","false","","","","","[650.5,862.2000000001863]","./assets/img/canyon/memory/4.jpg","[""ArrowUp"",""ArrowRight""]","value training","canyon","10","{""ArrowUp,ArrowLeft"":26,""ArrowUp,ArrowRight"":10,""ArrowDown,ArrowLeft"":5,""ArrowDown,ArrowRight"":17}","false","ArrowUp,ArrowRight","false","original","1","78","","",""
"html-keyboard-response","198","1018518","0.0-4.0-2.0-1.39","spark_pilot_norest","8861","5","9","Female","","","","","","","null","<div style=""font-size:60px;"">+</div>","null","fixation","","","","","","","","","79","","",""
"revaluation","199","1024547","0.0-4.0-2.0-0.40","spark_pilot_norest","8861","5","9","Female","","false","","","","","[1455.800000000745,730.2999999998137]","./assets/img/canyon/memory/9.jpg","[""ArrowDown"",""ArrowRight""]","value training","canyon","17","{""ArrowUp,ArrowLeft"":26,""ArrowUp,ArrowRight"":10,""ArrowDown,ArrowLeft"":5,""ArrowDown,ArrowRight"":17}","false","ArrowDown,ArrowRight","false","original","1","80","","",""
"html-keyboard-response","200","1025054","0.0-4.0-2.0-1.40","spark_pilot_norest","8861","5","9","Female","","","","","","","null","<div style=""font-size:60px;"">+</div>","null","fixation","","","","","","","","","81","","",""
"revaluation","201","1031072","0.0-4.0-2.0-0.41","spark_pilot_norest","8861","5","9","Female","","false","","","","","[587.4000000003725,556.5999999996275]","./assets/img/canyon/memory/26.jpg","[""ArrowDown"",""ArrowRight""]","value training","canyon","17","{""ArrowUp,ArrowLeft"":26,""ArrowUp,ArrowRight"":10,""ArrowDown,ArrowLeft"":5,""ArrowDown,ArrowRight"":17}","false","ArrowDown,ArrowRight","false","original","1","82","","",""
"html-keyboard-response","202","1031577","0.0-4.0-2.0-1.41","spark_pilot_norest","8861","5","9","Female","","","","","","","null","<div style=""font-size:60px;"">+</div>","null","fixation","","","","","","","","","83","","",""
"revaluation","203","1037597","0.0-4.0-2.0-0.42","spark_pilot_norest","8861","5","9","Female","","false","","","","","[829.7000000001863,737.6000000005588]","./assets/img/canyon/memory/23.jpg","[""ArrowUp"",""ArrowRight""]","value training","canyon","10","{""ArrowUp,ArrowLeft"":26,""ArrowUp,ArrowRight"":10,""ArrowDown,ArrowLeft"":5,""ArrowDown,ArrowRight"":17}","false","ArrowUp,ArrowRight","false","original","1","84","","",""
"html-keyboard-response","204","1038106","0.0-4.0-2.0-1.42","spark_pilot_norest","8861","5","9","Female","","","","","","","null","<div style=""font-size:60px;"">+</div>","null","fixation","","","","","","","","","85","","",""
"revaluation","205","1044129","0.0-4.0-2.0-0.43","spark_pilot_norest","8861","5","9","Female","","false","","","","","[542.5,303.5]","./assets/img/canyon/memory/14.jpg","[""ArrowUp"",""ArrowRight""]","value training","canyon","10","{""ArrowUp,ArrowLeft"":26,""ArrowUp,ArrowRight"":10,""ArrowDown,ArrowLeft"":5,""ArrowDown,ArrowRight"":17}","false","ArrowUp,ArrowRight","false","original","1","86","","",""
"html-keyboard-response","206","1044635","0.0-4.0-2.0-1.43","spark_pilot_norest","8861","5","9","Female","","","","","","","null","<div style=""font-size:60px;"">+</div>","null","fixation","","","","","","","","","87","","",""
"revaluation","207","1048656","0.0-4.0-2.0-0.44","spark_pilot_norest","8861","5","9","Female","","false","","","","","[1150]","./assets/img/canyon/catch/3.jpg","[""spaceBar""]","value training","canyon","0","{""ArrowUp,ArrowLeft"":26,""ArrowUp,ArrowRight"":10,""ArrowDown,ArrowLeft"":5,""ArrowDown,ArrowRight"":17}","true","spaceBar","true","original","1","88","","",""
"html-keyboard-response","208","1049161","0.0-4.0-2.0-1.44","spark_pilot_norest","8861","5","9","Female","","","","","","","null","<div style=""font-size:60px;"">+</div>","null","fixation","","","","","","","","","89","","",""
"revaluation","209","1055179","0.0-4.0-2.0-0.45","spark_pilot_norest","8861","5","9","Female","","false","","","","","[560.0999999996275,1093.7999999998137]","./assets/img/canyon/memory/33.jpg","[""ArrowDown"",""ArrowRight""]","value training","canyon","17","{""ArrowUp,ArrowLeft"":26,""ArrowUp,ArrowRight"":10,""ArrowDown,ArrowLeft"":5,""ArrowDown,ArrowRight"":17}","false","ArrowDown,ArrowRight","false","original","1","90","","",""
"html-keyboard-response","210","1055686","0.0-4.0-2.0-1.45","spark_pilot_norest","8861","5","9","Female","","","","","","","null","<div style=""font-size:60px;"">+</div>","null","fixation","","","","","","","","","91","","",""
"revaluation","211","1061708","0.0-4.0-2.0-0.46","spark_pilot_norest","8861","5","9","Female","","false","","","","","[548.2999999998137,1025]","./assets/img/canyon/memory/17.jpg","[""ArrowDown"",""ArrowRight""]","value training","canyon","17","{""ArrowUp,ArrowLeft"":26,""ArrowUp,ArrowRight"":10,""ArrowDown,ArrowLeft"":5,""ArrowDown,ArrowRight"":17}","false","ArrowDown,ArrowRight","false","original","1","92","","",""
"html-keyboard-response","212","1062212","0.0-4.0-2.0-1.46","spark_pilot_norest","8861","5","9","Female","","","","","","","null","<div style=""font-size:60px;"">+</div>","null","fixation","","","","","","","","","93","","",""
"revaluation","213","1066229","0.0-4.0-2.0-0.47","spark_pilot_norest","8861","5","9","Female","","false","","","","","[822.7999999998137]","./assets/img/canyon/catch/7.jpg","[""spaceBar""]","value training","canyon","0","{""ArrowUp,ArrowLeft"":26,""ArrowUp,ArrowRight"":10,""ArrowDown,ArrowLeft"":5,""ArrowDown,ArrowRight"":17}","true","spaceBar","true","original","1","94","","",""
"html-keyboard-response","214","1066735","0.0-4.0-2.0-1.47","spark_pilot_norest","8861","5","9","Female","","","","","","","null","<div style=""font-size:60px;"">+</div>","null","fixation","","","","","","","","","95","","",""
"revaluation","215","1072754","0.0-4.0-2.0-0.48","spark_pilot_norest","8861","5","9","Female","","false","","","","","[778.2000000001863,670.8999999994412]","./assets/img/canyon/memory/28.jpg","[""ArrowDown"",""ArrowRight""]","value training","canyon","17","{""ArrowUp,ArrowLeft"":26,""ArrowUp,ArrowRight"":10,""ArrowDown,ArrowLeft"":5,""ArrowDown,ArrowRight"":17}","false","ArrowDown,ArrowRight","false","original","1","96","","",""
"html-keyboard-response","216","1073261","0.0-4.0-2.0-1.48","spark_pilot_norest","8861","5","9","Female","","","","","","","null","<div style=""font-size:60px;"">+</div>","null","fixation","","","","","","","","","97","","",""
"revaluation","217","1079284","0.0-4.0-2.0-0.49","spark_pilot_norest","8861","5","9","Female","","false","","","","","[1129.2000000001863,1300.7999999998137]","./assets/img/canyon/memory/19.jpg","[""ArrowDown"",""ArrowRight""]","value training","canyon","17","{""ArrowUp,ArrowLeft"":26,""ArrowUp,ArrowRight"":10,""ArrowDown,ArrowLeft"":5,""ArrowDown,ArrowRight"":17}","false","ArrowDown,ArrowRight","false","original","1","98","","",""
"html-keyboard-response","218","1079788","0.0-4.0-2.0-1.49","spark_pilot_norest","8861","5","9","Female","","","","","","","null","<div style=""font-size:60px;"">+</div>","null","fixation","","","","","","","","","99","","",""
"learning-instructions","219","1114607","0.0-4.0-3.0-0.0","spark_pilot_norest","8861","5","9","Female","","","","","","","21817.5","<p> Now, you will travel with a friend who will choose whether you go up or down first. </p>
            <p> On these turns, you will just see the animal that they found. You will still get to choose which chest to search for treasure.</p>","","instructions","","","","","","","","","","","",""
"revaluation","220","1118623","0.0-4.0-4.0-0.0","spark_pilot_norest","8861","5","9","Female","","false","","","","","[1294.9000000003725]","./assets/img/canyon/animals/lion.jpg","[""ArrowRight""]","revaluation","canyon","17","{""ArrowUp,ArrowLeft"":26,""ArrowUp,ArrowRight"":10,""ArrowDown,ArrowLeft"":5,""ArrowDown,ArrowRight"":17}","true","ArrowDown,ArrowRight","","original","1","0","","",""
"html-keyboard-response","221","1119136","0.0-4.0-4.0-1.0","spark_pilot_norest","8861","5","9","Female","","","","","","","null","<div style=""font-size:60px;"">+</div>","null","fixation","","","","","","","","","1","","",""
"revaluation","222","1123153","0.0-4.0-4.0-0.1","spark_pilot_norest","8861","5","9","Female","","false","","","","","[421.3999999994412]","./assets/img/canyon/animals/giraffe.jpg","[""ArrowLeft""]","revaluation","canyon","26","{""ArrowUp,ArrowLeft"":26,""ArrowUp,ArrowRight"":10,""ArrowDown,ArrowLeft"":5,""ArrowDown,ArrowRight"":17}","true","ArrowUp,ArrowLeft","","original","1","2","","",""
"html-keyboard-response","223","1123658","0.0-4.0-4.0-1.1","spark_pilot_norest","8861","5","9","Female","","","","","","","null","<div style=""font-size:60px;"">+</div>","null","fixation","","","","","","","","","3","","",""
"revaluation","224","1127675","0.0-4.0-4.0-0.2","spark_pilot_norest","8861","5","9","Female","","false","","","","","[289.5]","./assets/img/canyon/animals/lion.jpg","[""ArrowRight""]","revaluation","canyon","17","{""ArrowUp,ArrowLeft"":26,""ArrowUp,ArrowRight"":10,""ArrowDown,ArrowLeft"":5,""ArrowDown,ArrowRight"":17}","true","ArrowDown,ArrowRight","","original","1","4","","",""
"html-keyboard-response","225","1128181","0.0-4.0-4.0-1.2","spark_pilot_norest","8861","5","9","Female","","","","","","","null","<div style=""font-size:60px;"">+</div>","null","fixation","","","","","","","","","5","","",""
"revaluation","226","1132204","0.0-4.0-4.0-0.3","spark_pilot_norest","8861","5","9","Female","","false","","","","","[744.2000000001863]","./assets/img/canyon/animals/giraffe.jpg","[""ArrowLeft""]","revaluation","canyon","26","{""ArrowUp,ArrowLeft"":26,""ArrowUp,ArrowRight"":10,""ArrowDown,ArrowLeft"":5,""ArrowDown,ArrowRight"":17}","true","ArrowUp,ArrowLeft","","original","1","6","","",""
"html-keyboard-response","227","1132711","0.0-4.0-4.0-1.3","spark_pilot_norest","8861","5","9","Female","","","","","","","null","<div style=""font-size:60px;"">+</div>","null","fixation","","","","","","","","","7","","",""
"revaluation","228","1136734","0.0-4.0-4.0-0.4","spark_pilot_norest","8861","5","9","Female","","false","","","","","[632.0999999996275]","./assets/img/canyon/animals/giraffe.jpg","[""ArrowRight""]","revaluation","canyon","10","{""ArrowUp,ArrowLeft"":26,""ArrowUp,ArrowRight"":10,""ArrowDown,ArrowLeft"":5,""ArrowDown,ArrowRight"":17}","false","ArrowUp,ArrowRight","","original","1","8","","",""
"html-keyboard-response","229","1137237","0.0-4.0-4.0-1.4","spark_pilot_norest","8861","5","9","Female","","","","","","","null","<div style=""font-size:60px;"">+</div>","null","fixation","","","","","","","","","9","","",""
"revaluation","230","1141258","0.0-4.0-4.0-0.5","spark_pilot_norest","8861","5","9","Female","","false","","","","","[544.5]","./assets/img/canyon/animals/giraffe.jpg","[""ArrowLeft""]","revaluation","canyon","26","{""ArrowUp,ArrowLeft"":26,""ArrowUp,ArrowRight"":10,""ArrowDown,ArrowLeft"":5,""ArrowDown,ArrowRight"":17}","true","ArrowUp,ArrowLeft","","original","1","10","","",""
"html-keyboard-response","231","1141762","0.0-4.0-4.0-1.5","spark_pilot_norest","8861","5","9","Female","","","","","","","null","<div style=""font-size:60px;"">+</div>","null","fixation","","","","","","","","","11","","",""
"revaluation","232","1145779","0.0-4.0-4.0-0.6","spark_pilot_norest","8861","5","9","Female","","false","","","","","[509.20000000018626]","./assets/img/canyon/animals/lion.jpg","[""ArrowLeft""]","revaluation","canyon","5","{""ArrowUp,ArrowLeft"":26,""ArrowUp,ArrowRight"":10,""ArrowDown,ArrowLeft"":5,""ArrowDown,ArrowRight"":17}","false","ArrowDown,ArrowLeft","","original","1","12","","",""
"html-keyboard-response","233","1146282","0.0-4.0-4.0-1.6","spark_pilot_norest","8861","5","9","Female","","","","","","","null","<div style=""font-size:60px;"">+</div>","null","fixation","","","","","","","","","13","","",""
"revaluation","234","1150302","0.0-4.0-4.0-0.7","spark_pilot_norest","8861","5","9","Female","","false","","","","","[48]","./assets/img/canyon/animals/lion.jpg","[""ArrowRight""]","revaluation","canyon","17","{""ArrowUp,ArrowLeft"":26,""ArrowUp,ArrowRight"":10,""ArrowDown,ArrowLeft"":5,""ArrowDown,ArrowRight"":17}","true","ArrowDown,ArrowRight","","original","1","14","","",""
"html-keyboard-response","235","1150809","0.0-4.0-4.0-1.7","spark_pilot_norest","8861","5","9","Female","","","","","","","null","<div style=""font-size:60px;"">+</div>","null","fixation","","","","","","","","","15","","",""
"revaluation","236","1154829","0.0-4.0-4.0-0.8","spark_pilot_norest","8861","5","9","Female","","false","","","","","[477.70000000018626]","./assets/img/canyon/animals/lion.jpg","[""ArrowRight""]","revaluation","canyon","17","{""ArrowUp,ArrowLeft"":26,""ArrowUp,ArrowRight"":10,""ArrowDown,ArrowLeft"":5,""ArrowDown,ArrowRight"":17}","true","ArrowDown,ArrowRight","","original","1","16","","",""
"html-keyboard-response","237","1155338","0.0-4.0-4.0-1.8","spark_pilot_norest","8861","5","9","Female","","","","","","","null","<div style=""font-size:60px;"">+</div>","null","fixation","","","","","","","","","17","","",""
"revaluation","238","1159357","0.0-4.0-4.0-0.9","spark_pilot_norest","8861","5","9","Female","","false","","","","","[1001.2000000001863]","./assets/img/canyon/animals/giraffe.jpg","[""ArrowRight""]","revaluation","canyon","10","{""ArrowUp,ArrowLeft"":26,""ArrowUp,ArrowRight"":10,""ArrowDown,ArrowLeft"":5,""ArrowDown,ArrowRight"":17}","false","ArrowUp,ArrowRight","","original","1","18","","",""
"html-keyboard-response","239","1159864","0.0-4.0-4.0-1.9","spark_pilot_norest","8861","5","9","Female","","","","","","","null","<div style=""font-size:60px;"">+</div>","null","fixation","","","","","","","","","19","","",""
"revaluation","240","1163890","0.0-4.0-4.0-0.10","spark_pilot_norest","8861","5","9","Female","","false","","","","","[957.6999999992549]","./assets/img/canyon/animals/lion.jpg","[""ArrowRight""]","revaluation","canyon","17","{""ArrowUp,ArrowLeft"":26,""ArrowUp,ArrowRight"":10,""ArrowDown,ArrowLeft"":5,""ArrowDown,ArrowRight"":17}","true","ArrowDown,ArrowRight","","original","1","20","","",""
"html-keyboard-response","241","1164394","0.0-4.0-4.0-1.10","spark_pilot_norest","8861","5","9","Female","","","","","","","null","<div style=""font-size:60px;"">+</div>","null","fixation","","","","","","","","","21","","",""
"revaluation","242","1168410","0.0-4.0-4.0-0.11","spark_pilot_norest","8861","5","9","Female","","false","","","","","[776]","./assets/img/canyon/animals/giraffe.jpg","[""ArrowRight""]","revaluation","canyon","10","{""ArrowUp,ArrowLeft"":26,""ArrowUp,ArrowRight"":10,""ArrowDown,ArrowLeft"":5,""ArrowDown,ArrowRight"":17}","false","ArrowUp,ArrowRight","","original","1","22","","",""
"html-keyboard-response","243","1168913","0.0-4.0-4.0-1.11","spark_pilot_norest","8861","5","9","Female","","","","","","","null","<div style=""font-size:60px;"">+</div>","null","fixation","","","","","","","","","23","","",""
"revaluation","244","1172932","0.0-4.0-4.0-0.12","spark_pilot_norest","8861","5","9","Female","","false","","","","","[1378.5]","./assets/img/canyon/animals/giraffe.jpg","[""ArrowRight""]","revaluation","canyon","10","{""ArrowUp,ArrowLeft"":26,""ArrowUp,ArrowRight"":10,""ArrowDown,ArrowLeft"":5,""ArrowDown,ArrowRight"":17}","false","ArrowUp,ArrowRight","","original","1","24","","",""
"html-keyboard-response","245","1173439","0.0-4.0-4.0-1.12","spark_pilot_norest","8861","5","9","Female","","","","","","","null","<div style=""font-size:60px;"">+</div>","null","fixation","","","","","","","","","25","","",""
"revaluation","246","1177467","0.0-4.0-4.0-0.13","spark_pilot_norest","8861","5","9","Female","","false","","","","","[1226.5]","./assets/img/canyon/animals/lion.jpg","[""ArrowRight""]","revaluation","canyon","17","{""ArrowUp,ArrowLeft"":26,""ArrowUp,ArrowRight"":10,""ArrowDown,ArrowLeft"":5,""ArrowDown,ArrowRight"":17}","true","ArrowDown,ArrowRight","","original","1","26","","",""
"html-keyboard-response","247","1177971","0.0-4.0-4.0-1.13","spark_pilot_norest","8861","5","9","Female","","","","","","","null","<div style=""font-size:60px;"">+</div>","null","fixation","","","","","","","","","27","","",""
"revaluation","248","1181991","0.0-4.0-4.0-0.14","spark_pilot_norest","8861","5","9","Female","","false","","","","","[869.2999999998137]","./assets/img/canyon/animals/lion.jpg","[""ArrowLeft""]","revaluation","canyon","5","{""ArrowUp,ArrowLeft"":26,""ArrowUp,ArrowRight"":10,""ArrowDown,ArrowLeft"":5,""ArrowDown,ArrowRight"":17}","false","ArrowDown,ArrowLeft","","original","1","28","","",""
"html-keyboard-response","249","1182499","0.0-4.0-4.0-1.14","spark_pilot_norest","8861","5","9","Female","","","","","","","null","<div style=""font-size:60px;"">+</div>","null","fixation","","","","","","","","","29","","",""
"revaluation","250","1186517","0.0-4.0-4.0-0.15","spark_pilot_norest","8861","5","9","Female","","false","","","","","[630.1000000005588]","./assets/img/canyon/animals/lion.jpg","[""ArrowRight""]","revaluation","canyon","17","{""ArrowUp,ArrowLeft"":26,""ArrowUp,ArrowRight"":10,""ArrowDown,ArrowLeft"":5,""ArrowDown,ArrowRight"":17}","true","ArrowDown,ArrowRight","","original","1","30","","",""
"html-keyboard-response","251","1187023","0.0-4.0-4.0-1.15","spark_pilot_norest","8861","5","9","Female","","","","","","","null","<div style=""font-size:60px;"">+</div>","null","fixation","","","","","","","","","31","","",""
"revaluation","252","1191041","0.0-4.0-4.0-0.16","spark_pilot_norest","8861","5","9","Female","","false","","","","","[811.5]","./assets/img/canyon/animals/giraffe.jpg","[""ArrowLeft""]","revaluation","canyon","26","{""ArrowUp,ArrowLeft"":26,""ArrowUp,ArrowRight"":10,""ArrowDown,ArrowLeft"":5,""ArrowDown,ArrowRight"":17}","true","ArrowUp,ArrowLeft","","original","1","32","","",""
"html-keyboard-response","253","1191548","0.0-4.0-4.0-1.16","spark_pilot_norest","8861","5","9","Female","","","","","","","null","<div style=""font-size:60px;"">+</div>","null","fixation","","","","","","","","","33","","",""
"revaluation","254","1195567","0.0-4.0-4.0-0.17","spark_pilot_norest","8861","5","9","Female","","false","","","","","[690.9000000003725]","./assets/img/canyon/animals/giraffe.jpg","[""ArrowLeft""]","revaluation","canyon","26","{""ArrowUp,ArrowLeft"":26,""ArrowUp,ArrowRight"":10,""ArrowDown,ArrowLeft"":5,""ArrowDown,ArrowRight"":17}","true","ArrowUp,ArrowLeft","","original","1","34","","",""
"html-keyboard-response","255","1196073","0.0-4.0-4.0-1.17","spark_pilot_norest","8861","5","9","Female","","","","","","","null","<div style=""font-size:60px;"">+</div>","null","fixation","","","","","","","","","35","","",""
"learning-instructions","256","1204290","0.0-4.0-5.0-0.0","spark_pilot_norest","8861","5","9","Female","","","","","","","null","<p> You have almost finished this part of the game! </p>
            <p> We are going to ask you to make a few more choices. </p>","","instructions","","","","","","","","","","","",""
"learning-instructions","257","1220267","0.0-4.0-5.0-0.1","spark_pilot_norest","8861","5","9","Female","","","","","","","null","<p> First, you need to decide whether to go up or down. When you see each picture, use the arrow keys to make your choice. </p>
            <p><b>You will not see which animal you found, but try to get to the one that will give you the most treasure.</b></p>","","instructions","","","","","","","","","","","",""
"html-keyboard-response","258","1221273","0.0-4.0-6.0-0.0","spark_pilot_norest","8861","5","9","Female","","","","","","","null","<div style=""font-size:100px;color:red;"">Starting in...</div>","null","","","","","","","","","","","","",""
"html-keyboard-response","259","1222279","0.0-4.0-6.0-1.0","spark_pilot_norest","8861","5","9","Female","","","","","","","null","<div style=""font-size:200px;color:red;"">3</div>","null","","","","","","","","","","","","",""
"html-keyboard-response","260","1223286","0.0-4.0-6.0-2.0","spark_pilot_norest","8861","5","9","Female","","","","","","","null","<div style=""font-size:200px;color:red;"">2</div>","null","","","","","","","","","","","","",""
"html-keyboard-response","261","1224293","0.0-4.0-6.0-3.0","spark_pilot_norest","8861","5","9","Female","","","","","","","null","<div style=""font-size:200px;color:red;"">1</div>","null","","","","","","","","","","","","",""
"revaluation","262","1224695","0.0-4.0-7.0-0.0","spark_pilot_norest","8861","5","9","Female","","false","","","","","[378.59999999962747]","./assets/img/canyon/test/0.jpg","[""ArrowUp""]","first stage test","canyon","0","{""ArrowUp,ArrowLeft"":26,""ArrowUp,ArrowRight"":10,""ArrowDown,ArrowLeft"":5,""ArrowDown,ArrowRight"":17}","true","ArrowUp","false","original","1","","","",""
"html-keyboard-response","263","1225201","0.0-4.0-7.0-1.0","spark_pilot_norest","8861","5","9","Female","","","","","","","null","<div style=""font-size:60px;"">+</div>","null","fixation","","","","","","","","","","","",""
"revaluation","264","1226006","0.0-4.0-7.0-0.1","spark_pilot_norest","8861","5","9","Female","","false","","","","","[788.4000000003725]","./assets/img/canyon/test/1.jpg","[""ArrowUp""]","first stage test","canyon","0","{""ArrowUp,ArrowLeft"":26,""ArrowUp,ArrowRight"":10,""ArrowDown,ArrowLeft"":5,""ArrowDown,ArrowRight"":17}","true","ArrowUp","false","original","1","","","",""
"html-keyboard-response","265","1226511","0.0-4.0-7.0-1.1","spark_pilot_norest","8861","5","9","Female","","","","","","","null","<div style=""font-size:60px;"">+</div>","null","fixation","","","","","","","","","","","",""
"revaluation","266","1227074","0.0-4.0-7.0-0.2","spark_pilot_norest","8861","5","9","Female","","false","","","","","[553.7999999998137]","./assets/img/canyon/test/3.jpg","[""ArrowDown""]","first stage test","canyon","0","{""ArrowUp,ArrowLeft"":26,""ArrowUp,ArrowRight"":10,""ArrowDown,ArrowLeft"":5,""ArrowDown,ArrowRight"":17}","false","ArrowDown","false","original","1","","","",""
"html-keyboard-response","267","1227579","0.0-4.0-7.0-1.2","spark_pilot_norest","8861","5","9","Female","","","","","","","null","<div style=""font-size:60px;"">+</div>","null","fixation","","","","","","","","","","","",""
"revaluation","268","1228032","0.0-4.0-7.0-0.3","spark_pilot_norest","8861","5","9","Female","","false","","","","","[432]","./assets/img/canyon/test/2.jpg","[""ArrowUp""]","first stage test","canyon","0","{""ArrowUp,ArrowLeft"":26,""ArrowUp,ArrowRight"":10,""ArrowDown,ArrowLeft"":5,""ArrowDown,ArrowRight"":17}","true","ArrowUp","false","original","1","","","",""
"html-keyboard-response","269","1228538","0.0-4.0-7.0-1.3","spark_pilot_norest","8861","5","9","Female","","","","","","","null","<div style=""font-size:60px;"">+</div>","null","fixation","","","","","","","","","","","",""
"learning-instructions","270","1241890","0.0-4.0-8.0-0.0","spark_pilot_norest","8861","5","9","Female","","","","","","","null","<p> Now you will see the animals again and can search their chests for treasure. </p>
            <p> This time, you will not see how much treasure you earned, but you will earn more bonus money for making better choices. </p>","","instructions","","","","","","","","","","","",""
"html-keyboard-response","271","1242895","0.0-4.0-9.0-0.0","spark_pilot_norest","8861","5","9","Female","","","","","","","null","<div style=""font-size:100px;color:red;"">Starting in...</div>","null","","","","","","","","","","","","",""
"html-keyboard-response","272","1243899","0.0-4.0-9.0-1.0","spark_pilot_norest","8861","5","9","Female","","","","","","","null","<div style=""font-size:200px;color:red;"">3</div>","null","","","","","","","","","","","","",""
"html-keyboard-response","273","1244905","0.0-4.0-9.0-2.0","spark_pilot_norest","8861","5","9","Female","","","","","","","null","<div style=""font-size:200px;color:red;"">2</div>","null","","","","","","","","","","","","",""
"html-keyboard-response","274","1245912","0.0-4.0-9.0-3.0","spark_pilot_norest","8861","5","9","Female","","","","","","","null","<div style=""font-size:200px;color:red;"">1</div>","null","","","","","","","","","","","","",""
"revaluation","275","1246785","0.0-4.0-10.0-0.0","spark_pilot_norest","8861","5","9","Female","","false","","","","","[852]","./assets/img/canyon/animals/giraffe.jpg","[""ArrowRight""]","second stage test","canyon","0","{""ArrowUp,ArrowLeft"":26,""ArrowUp,ArrowRight"":10,""ArrowDown,ArrowLeft"":5,""ArrowDown,ArrowRight"":17}","false","ArrowUp,ArrowRight","","original","1","","","",""
"html-keyboard-response","276","1247290","0.0-4.0-10.0-1.0","spark_pilot_norest","8861","5","9","Female","","","","","","","null","<div style=""font-size:60px;"">+</div>","null","fixation","","","","","","","","","","","",""
"revaluation","277","1248046","0.0-4.0-10.0-0.1","spark_pilot_norest","8861","5","9","Female","","false","","","","","[732.9000000003725]","./assets/img/canyon/animals/giraffe.jpg","[""ArrowRight""]","second stage test","canyon","0","{""ArrowUp,ArrowLeft"":26,""ArrowUp,ArrowRight"":10,""ArrowDown,ArrowLeft"":5,""ArrowDown,ArrowRight"":17}","false","ArrowUp,ArrowRight","","original","1","","","",""
"html-keyboard-response","278","1248549","0.0-4.0-10.0-1.1","spark_pilot_norest","8861","5","9","Female","","","","","","","null","<div style=""font-size:60px;"">+</div>","null","fixation","","","","","","","","","","","",""
"revaluation","279","1249195","0.0-4.0-10.0-0.2","spark_pilot_norest","8861","5","9","Female","","false","","","","","[630.2000000001863]","./assets/img/canyon/animals/giraffe.jpg","[""ArrowLeft""]","second stage test","canyon","0","{""ArrowUp,ArrowLeft"":26,""ArrowUp,ArrowRight"":10,""ArrowDown,ArrowLeft"":5,""ArrowDown,ArrowRight"":17}","true","ArrowUp,ArrowLeft","","original","1","","","",""
"html-keyboard-response","280","1249700","0.0-4.0-10.0-1.2","spark_pilot_norest","8861","5","9","Female","","","","","","","null","<div style=""font-size:60px;"">+</div>","null","fixation","","","","","","","","","","","",""
"revaluation","281","1250149","0.0-4.0-10.0-0.3","spark_pilot_norest","8861","5","9","Female","","false","","","","","[436.40000000037253]","./assets/img/canyon/animals/giraffe.jpg","[""ArrowLeft""]","second stage test","canyon","0","{""ArrowUp,ArrowLeft"":26,""ArrowUp,ArrowRight"":10,""ArrowDown,ArrowLeft"":5,""ArrowDown,ArrowRight"":17}","true","ArrowUp,ArrowLeft","","original","1","","","",""
"html-keyboard-response","282","1250655","0.0-4.0-10.0-1.3","spark_pilot_norest","8861","5","9","Female","","","","","","","null","<div style=""font-size:60px;"">+</div>","null","fixation","","","","","","","","","","","",""
"revaluation","283","1251957","0.0-4.0-10.0-0.4","spark_pilot_norest","8861","5","9","Female","","false","","","","","[1289]","./assets/img/canyon/animals/lion.jpg","[""ArrowRight""]","second stage test","canyon","0","{""ArrowUp,ArrowLeft"":26,""ArrowUp,ArrowRight"":10,""ArrowDown,ArrowLeft"":5,""ArrowDown,ArrowRight"":17}","true","ArrowDown,ArrowRight","","original","1","","","",""
"html-keyboard-response","284","1252466","0.0-4.0-10.0-1.4","spark_pilot_norest","8861","5","9","Female","","","","","","","null","<div style=""font-size:60px;"">+</div>","null","fixation","","","","","","","","","","","",""
"revaluation","285","1253242","0.0-4.0-10.0-0.5","spark_pilot_norest","8861","5","9","Female","","false","","","","","[759]","./assets/img/canyon/animals/lion.jpg","[""ArrowRight""]","second stage test","canyon","0","{""ArrowUp,ArrowLeft"":26,""ArrowUp,ArrowRight"":10,""ArrowDown,ArrowLeft"":5,""ArrowDown,ArrowRight"":17}","true","ArrowDown,ArrowRight","","original","1","","","",""
"html-keyboard-response","286","1253746","0.0-4.0-10.0-1.5","spark_pilot_norest","8861","5","9","Female","","","","","","","null","<div style=""font-size:60px;"">+</div>","null","fixation","","","","","","","","","","","",""
"revaluation","287","1254260","0.0-4.0-10.0-0.6","spark_pilot_norest","8861","5","9","Female","","false","","","","","[492.5]","./assets/img/canyon/animals/lion.jpg","[""ArrowRight""]","second stage test","canyon","0","{""ArrowUp,ArrowLeft"":26,""ArrowUp,ArrowRight"":10,""ArrowDown,ArrowLeft"":5,""ArrowDown,ArrowRight"":17}","true","ArrowDown,ArrowRight","","original","1","","","",""
"html-keyboard-response","288","1254766","0.0-4.0-10.0-1.6","spark_pilot_norest","8861","5","9","Female","","","","","","","null","<div style=""font-size:60px;"">+</div>","null","fixation","","","","","","","","","","","",""
"revaluation","289","1255259","0.0-4.0-10.0-0.7","spark_pilot_norest","8861","5","9","Female","","false","","","","","[478.20000000018626]","./assets/img/canyon/animals/lion.jpg","[""ArrowRight""]","second stage test","canyon","0","{""ArrowUp,ArrowLeft"":26,""ArrowUp,ArrowRight"":10,""ArrowDown,ArrowLeft"":5,""ArrowDown,ArrowRight"":17}","true","ArrowDown,ArrowRight","","original","1","","","",""
"html-keyboard-response","290","1255765","0.0-4.0-10.0-1.7","spark_pilot_norest","8861","5","9","Female","","","","","","","null","<div style=""font-size:60px;"">+</div>","null","fixation","","","","","","","","","","","",""
"learning-instructions","291","1265135","0.0-4.0-0.1-0.2","spark_pilot_norest","8861","5","9","Female","","","","","","","5498.399999999441","<p> This time you are searching for treasure in the <b>ocean</b>.</p>","","instructions","","","","","","","","","","","",""
"learning-instructions","292","1345140","0.0-4.0-0.1-0.3","spark_pilot_norest","8861","5","9","Female","","","","","","","62742.59999999963","<p><b>New</b> animals with <b>new</b> treasure chests live here. You need to explore to discover where the animal with the best treasure chest is.</p>
                    <p> Like before, once you figure out which animal has the chest with the most treasure, you should try to get to that animal and select that chest! </p>","","instructions","","","","","","","","","","","",""
"learning-instructions","293","1410301","0.0-4.0-1.1-0.1","spark_pilot_norest","8861","5","9","Female","","","","","","","50315.59999999963","<p> Remember, when you see a picture of the place, use the up and down keys to <b>find an animal</b>.</p>
            <p> When you encounter an animal, you should use the left and right keys to <b>select a treasure chest</b>.</p>
            <p> Don't forget to look out for the robber! </p>","","instructions","","","","","","","","","","","",""
"revaluation","294","1416314","0.0-4.0-2.1-0.50","spark_pilot_norest","8861","5","9","Female","","false","","","","","[813.5,965.2999999998137]","./assets/img/ocean/memory/8.jpg","[""ArrowDown"",""ArrowRight""]","value training","ocean","30","{""ArrowUp,ArrowLeft"":23,""ArrowUp,ArrowRight"":10,""ArrowDown,ArrowLeft"":8,""ArrowDown,ArrowRight"":30}","true","ArrowDown,ArrowRight","false","revaluation","2","0","","",""
"html-keyboard-response","295","1416820","0.0-4.0-2.1-1.50","spark_pilot_norest","8861","5","9","Female","","","","","","","null","<div style=""font-size:60px;"">+</div>","null","fixation","","","","","","","","","1","","",""
"revaluation","296","1422838","0.0-4.0-2.1-0.51","spark_pilot_norest","8861","5","9","Female","","false","","","","","[560.2000000001863,814.1000000005588]","./assets/img/ocean/memory/23.jpg","[""ArrowUp"",""ArrowLeft""]","value training","ocean","23","{""ArrowUp,ArrowLeft"":23,""ArrowUp,ArrowRight"":10,""ArrowDown,ArrowLeft"":8,""ArrowDown,ArrowRight"":30}","false","ArrowUp,ArrowLeft","false","revaluation","2","2","","",""
"html-keyboard-response","297","1423345","0.0-4.0-2.1-1.51","spark_pilot_norest","8861","5","9","Female","","","","","","","null","<div style=""font-size:60px;"">+</div>","null","fixation","","","","","","","","","3","","",""
"revaluation","298","1429364","0.0-4.0-2.1-0.52","spark_pilot_norest","8861","5","9","Female","","false","","","","","[1536.5999999996275,1010]","./assets/img/ocean/memory/32.jpg","[""ArrowDown"",""ArrowRight""]","value training","ocean","30","{""ArrowUp,ArrowLeft"":23,""ArrowUp,ArrowRight"":10,""ArrowDown,ArrowLeft"":8,""ArrowDown,ArrowRight"":30}","true","ArrowDown,ArrowRight","false","revaluation","2","4","","",""
"html-keyboard-response","299","1429871","0.0-4.0-2.1-1.52","spark_pilot_norest","8861","5","9","Female","","","","","","","null","<div style=""font-size:60px;"">+</div>","null","fixation","","","","","","","","","5","","",""
"revaluation","300","1435889","0.0-4.0-2.1-0.53","spark_pilot_norest","8861","5","9","Female","","false","","","","","[429.70000000018626,925.1000000005588]","./assets/img/ocean/memory/20.jpg","[""ArrowUp"",""ArrowRight""]","value training","ocean","10","{""ArrowUp,ArrowLeft"":23,""ArrowUp,ArrowRight"":10,""ArrowDown,ArrowLeft"":8,""ArrowDown,ArrowRight"":30}","false","ArrowUp,ArrowRight","false","revaluation","2","6","","",""
"html-keyboard-response","301","1436392","0.0-4.0-2.1-1.53","spark_pilot_norest","8861","5","9","Female","","","","","","","null","<div style=""font-size:60px;"">+</div>","null","fixation","","","","","","","","","7","","",""
"revaluation","302","1442412","0.0-4.0-2.1-0.54","spark_pilot_norest","8861","5","9","Female","","false","","","","","[784,444.90000000037253]","./assets/img/ocean/memory/22.jpg","[""ArrowDown"",""ArrowRight""]","value training","ocean","30","{""ArrowUp,ArrowLeft"":23,""ArrowUp,ArrowRight"":10,""ArrowDown,ArrowLeft"":8,""ArrowDown,ArrowRight"":30}","true","ArrowDown,ArrowRight","false","revaluation","2","8","","",""
"html-keyboard-response","303","1442919","0.0-4.0-2.1-1.54","spark_pilot_norest","8861","5","9","Female","","","","","","","null","<div style=""font-size:60px;"">+</div>","null","fixation","","","","","","","","","9","","",""
"revaluation","304","1448942","0.0-4.0-2.1-0.55","spark_pilot_norest","8861","5","9","Female","","false","","","","","[471.5,393.20000000018626]","./assets/img/ocean/memory/5.jpg","[""ArrowDown"",""ArrowLeft""]","value training","ocean","8","{""ArrowUp,ArrowLeft"":23,""ArrowUp,ArrowRight"":10,""ArrowDown,ArrowLeft"":8,""ArrowDown,ArrowRight"":30}","false","ArrowDown,ArrowLeft","false","revaluation","2","10","","",""
"html-keyboard-response","305","1449447","0.0-4.0-2.1-1.55","spark_pilot_norest","8861","5","9","Female","","","","","","","null","<div style=""font-size:60px;"">+</div>","null","fixation","","","","","","","","","11","","",""
"revaluation","306","1455464","0.0-4.0-2.1-0.56","spark_pilot_norest","8861","5","9","Female","","false","","","","","[490.09999999962747,810.3000000007451]","./assets/img/ocean/memory/17.jpg","[""ArrowUp"",""ArrowRight""]","value training","ocean","10","{""ArrowUp,ArrowLeft"":23,""ArrowUp,ArrowRight"":10,""ArrowDown,ArrowLeft"":8,""ArrowDown,ArrowRight"":30}","false","ArrowUp,ArrowRight","false","revaluation","2","12","","",""
"html-keyboard-response","307","1455973","0.0-4.0-2.1-1.56","spark_pilot_norest","8861","5","9","Female","","","","","","","null","<div style=""font-size:60px;"">+</div>","null","fixation","","","","","","","","","13","","",""
"revaluation","308","1461993","0.0-4.0-2.1-0.57","spark_pilot_norest","8861","5","9","Female","","false","","","","","[591.0999999996275,682]","./assets/img/ocean/memory/22.jpg","[""ArrowUp"",""ArrowRight""]","value training","ocean","10","{""ArrowUp,ArrowLeft"":23,""ArrowUp,ArrowRight"":10,""ArrowDown,ArrowLeft"":8,""ArrowDown,ArrowRight"":30}","false","ArrowUp,ArrowRight","false","revaluation","2","14","","",""
"html-keyboard-response","309","1462501","0.0-4.0-2.1-1.57","spark_pilot_norest","8861","5","9","Female","","","","","","","null","<div style=""font-size:60px;"">+</div>","null","fixation","","","","","","","","","15","","",""
"revaluation","310","1468522","0.0-4.0-2.1-0.58","spark_pilot_norest","8861","5","9","Female","","false","","","","","[374.40000000037253,1020.8000000007451]","./assets/img/ocean/memory/19.jpg","[""ArrowDown"",""ArrowLeft""]","value training","ocean","8","{""ArrowUp,ArrowLeft"":23,""ArrowUp,ArrowRight"":10,""ArrowDown,ArrowLeft"":8,""ArrowDown,ArrowRight"":30}","false","ArrowDown,ArrowLeft","false","revaluation","2","16","","",""
"html-keyboard-response","311","1469029","0.0-4.0-2.1-1.58","spark_pilot_norest","8861","5","9","Female","","","","","","","null","<div style=""font-size:60px;"">+</div>","null","fixation","","","","","","","","","17","","",""
"revaluation","312","1473044","0.0-4.0-2.1-0.59","spark_pilot_norest","8861","5","9","Female","","false","","","","","[1061.5]","./assets/img/ocean/catch/1.jpg","[""spaceBar""]","value training","ocean","0","{""ArrowUp,ArrowLeft"":23,""ArrowUp,ArrowRight"":10,""ArrowDown,ArrowLeft"":8,""ArrowDown,ArrowRight"":30}","true","spaceBar","true","revaluation","2","18","","",""
