"trial_type","trial_index","time_elapsed","internal_node_id","task_version","subject_id","assigned_condition","age","gender","success","timeout","failed_images","failed_audio","failed_video","browser_interaction","rt","stimulus","response","task_part","environment","score","rewardMap","correct","fullState","isCatch","condition","order","trial_num","key_press","ground_truth","bonus"
"pavlovia","0","950","0.0-0.0","spark_pilot_norest","8699","5","19","Female","","","","","","","","","","","","","","","","","","","","","",""
"preload","1","35935","0.0-1.0","spark_pilot_norest","8699","5","19","Female","true","false","[]","[]","[]","[{""event"":""fullscreenenter"",""trial"":2,""time"":40707}]","","","","","","","","","","","","","","","",""
"fullscreen","2","41694","0.0-2.0","spark_pilot_norest","8699","5","19","Female","true","","","","","","","","","","","","","","","","","","","","",""
"audio-button-response","3","44148","0.0-3.0-0.0-0.0","spark_pilot_norest","8699","5","19","Female","","","","","","","1888","./assets/audio/audiotest/turtle.mp3","2","audio_test","","","","","","","","","","","",""
"learning-instructions","4","53813","0.0-3.0-1.0-0.0","spark_pilot_norest","8699","5","19","Female","","","","","","","2676.2999999523163","<p> Welcome! Please remember to stay in fullscreen mode and don't click away from the experiment. </p>","","instructions","","","","","","","","","","","",""
"learning-instructions","5","63598","0.0-3.0-1.0-0.1","spark_pilot_norest","8699","5","19","Female","","","","","","","1366.5999999046326","<p> Today you will be playing a game to earn treasure. </p>
            <p> At the end of the experiment, you will earn a bonus based on how much treasure you find. </p>
            <img src='./assets/img/instructions/treasure.jpg' class='instructions-image'>","","instructions","","","","","","","","","","","",""
"learning-instructions","6","74112","0.0-3.0-1.0-0.2","spark_pilot_norest","8699","5","19","Female","","","","","","","2252.7000000476837","<p> Animals have hidden treasure in treasure chests. </p>
            <p> You need to first find an animal and then choose which of their treasure chests to search. </p>
            <img src='./assets/img/space/animals/cat.jpg' class='instructions-image'>","","instructions","","","","","","","","","","","",""
"learning-instructions","7","88080","0.0-3.0-1.0-0.3","spark_pilot_norest","8699","5","19","Female","","","","","","","818.3000001907349","<p> In each round, you will search for treasure in a different place. In the real game, there will be two rounds. </p>
            <p> You will begin with a separate, practice round where you will search for treasure in outer space. </p>
            <img src='./assets/img/space/0.jpg' class='instructions-image'>","","instructions","","","","","","","","","","","",""
"learning-instructions","8","100211","0.0-3.0-1.0-0.4","spark_pilot_norest","8699","5","19","Female","","","","","","","721.2999999523163","<p> On every turn, you will see a picture of the place that you are in, but the specific image may be different each time. </p>
            <p> For example, both of these images mean you are in outer space. </p>
            <img src='./assets/img/instructions/outerspace.jpg' class='instructions-image'>","","instructions","","","","","","","","","","","",""
"learning-instructions","9","108947","0.0-3.0-1.0-0.5","spark_pilot_norest","8699","5","19","Female","","","","","","","899.2999999523163","<p> You need to decide which direction to travel in. </p>
            <p> You can choose between going <b>up or down</b> by using the arrow keys. </p>
            <img src='./assets/img/instructions/updown.jpg' class='instructions-image'>","","instructions","","","","","","","","","","","",""
"learning-instructions","10","118720","0.0-3.0-1.0-0.6","spark_pilot_norest","8699","5","19","Female","","","","","","","963.7000000476837","<p> You will have <b>2 seconds</b> to make your choice. </p>
            <p> If you do not make a choice within 2 seconds, you will not find an animal or earn treasure. </p>
            <img src='./assets/img/instructions/2seconds.jpg' class='instructions-image'>","","instructions","","","","","","","","","","","",""
"learning-instructions","11","127028","0.0-3.0-1.0-0.7","spark_pilot_norest","8699","5","19","Female","","","","","","","1277.4000000953674","<p> Let’s try practicing that now! </p>
            <p> When you see a picture of the place you are in, press the <b>up</b> key to travel up. </p>
            <img src='./assets/img/instructions/pressUp.jpg' class='instructions-image'>","","instructions","","","","","","","","","","","",""
"revaluation","12","131055","0.0-3.0-2.0-0.0","spark_pilot_norest","8699","5","19","Female","","false","","","","","[738.1000001430511]","./assets/img/space/0.jpg","[""ArrowUp""]","first stage practice","space","0","null","null","ArrowUp","false","","","","","",""
"html-keyboard-response","13","131563","0.0-3.0-2.0-1.0","spark_pilot_norest","8699","5","19","Female","","","","","","","null","<div style=""font-size:60px;"">+</div>","null","fixation","","","","","","","","","","","",""
"revaluation","14","135587","0.0-3.0-2.0-0.1","spark_pilot_norest","8699","5","19","Female","","false","","","","","[1226.2000000476837]","./assets/img/space/1.jpg","[""ArrowUp""]","first stage practice","space","0","null","null","ArrowUp","false","","","","","",""
"html-keyboard-response","15","136099","0.0-3.0-2.0-1.1","spark_pilot_norest","8699","5","19","Female","","","","","","","null","<div style=""font-size:60px;"">+</div>","null","fixation","","","","","","","","","","","",""
"revaluation","16","140123","0.0-3.0-2.0-0.2","spark_pilot_norest","8699","5","19","Female","","false","","","","","[757.5]","./assets/img/space/2.jpg","[""ArrowUp""]","first stage practice","space","0","null","null","ArrowUp","false","","","","","",""
"html-keyboard-response","17","140635","0.0-3.0-2.0-1.2","spark_pilot_norest","8699","5","19","Female","","","","","","","null","<div style=""font-size:60px;"">+</div>","null","fixation","","","","","","","","","","","",""
"learning-instructions","18","146150","0.0-3.0-3.0-0.0","spark_pilot_norest","8699","5","19","Female","","","","","","","811.0999999046326","<p> Great job! Now try pressing the <b>down</b> key to travel down. </p>
            <img src='./assets/img/instructions/pressDown.jpg' class='instructions-image'>","","instructions","","","","","","","","","","","",""
"revaluation","19","150159","0.0-3.0-4.0-0.0","spark_pilot_norest","8699","5","19","Female","","false","","","","","[621]","./assets/img/space/3.jpg","[""ArrowDown""]","first stage practice","space","0","null","null","ArrowDown","false","","","","","",""
"html-keyboard-response","20","150666","0.0-3.0-4.0-1.0","spark_pilot_norest","8699","5","19","Female","","","","","","","null","<div style=""font-size:60px;"">+</div>","null","fixation","","","","","","","","","","","",""
"revaluation","21","154687","0.0-3.0-4.0-0.1","spark_pilot_norest","8699","5","19","Female","","false","","","","","[555.2999999523163]","./assets/img/space/4.jpg","[""ArrowDown""]","first stage practice","space","0","null","null","ArrowDown","false","","","","","",""
"html-keyboard-response","22","155194","0.0-3.0-4.0-1.1","spark_pilot_norest","8699","5","19","Female","","","","","","","null","<div style=""font-size:60px;"">+</div>","null","fixation","","","","","","","","","","","",""
"revaluation","23","159214","0.0-3.0-4.0-0.2","spark_pilot_norest","8699","5","19","Female","","false","","","","","[297.39999985694885]","./assets/img/space/5.jpg","[""ArrowDown""]","first stage practice","space","0","null","null","ArrowDown","false","","","","","",""
"html-keyboard-response","24","159720","0.0-3.0-4.0-1.2","spark_pilot_norest","8699","5","19","Female","","","","","","","null","<div style=""font-size:60px;"">+</div>","null","fixation","","","","","","","","","","","",""
"learning-instructions","25","171578","0.0-3.0-5.0-0.0","spark_pilot_norest","8699","5","19","Female","","","","","","","2008.9000000953674","<p> The animals don’t move, so the animal in the upper part of a place will stay in the upper part of a place, and the animal in the lower part of a place will stay in the lower part of a place. </p>","","instructions","","","","","","","","","","","",""
"learning-instructions","26","182128","0.0-3.0-5.0-0.1","spark_pilot_norest","8699","5","19","Female","","","","","","","1408.6999998092651","<p> Each animal has two treasure chests for you to choose from. </p>
            <p> The amount of treasure in each chest can range from <b> 0 to 40 pieces.</b></p>","","instructions","","","","","","","","","","","",""
"learning-instructions","27","194028","0.0-3.0-5.0-0.2","spark_pilot_norest","8699","5","19","Female","","","","","","","711.4000000953674","<p> You should decide which chest to search for treasure by using the <b>left</b> and <b>right</b> arrow keys. </p>
            <p><b> Pay attention to which animal is on the screen, as the animals have different treasure chests. </b></p>
            <img src='./assets/img/instructions/leftright.jpg' class='instructions-image'>","","instructions","","","","","","","","","","","",""
"learning-instructions","28","201194","0.0-3.0-5.0-0.3","spark_pilot_norest","8699","5","19","Female","","","","","","","800.7999999523163","<p> Let’s try practicing that now. </p>
            <p> When you see an animal, choose which chest to search for treasure. </p>
            <img src='./assets/img/instructions/chooseChest.jpg' class='instructions-image'>","","instructions","","","","","","","","","","","",""
"revaluation","29","205217","0.0-3.0-6.0-0.0","spark_pilot_norest","8699","5","19","Female","","false","","","","","[1100.2000000476837]","./assets/img/space/animals/rabbit.jpg","[""ArrowLeft""]","second stage practice","space","15","{""ArrowUp,ArrowLeft"":3,""ArrowUp,ArrowRight"":36,""ArrowDown,ArrowLeft"":15,""ArrowDown,ArrowRight"":23}","false","ArrowDown,ArrowLeft","","","","","","",""
"html-keyboard-response","30","205725","0.0-3.0-6.0-1.0","spark_pilot_norest","8699","5","19","Female","","","","","","","null","<div style=""font-size:60px;"">+</div>","null","fixation","","","","","","","","","","","",""
"revaluation","31","209745","0.0-3.0-6.0-0.1","spark_pilot_norest","8699","5","19","Female","","false","","","","","[358]","./assets/img/space/animals/cat.jpg","[""ArrowLeft""]","second stage practice","space","3","{""ArrowUp,ArrowLeft"":3,""ArrowUp,ArrowRight"":36,""ArrowDown,ArrowLeft"":15,""ArrowDown,ArrowRight"":23}","false","ArrowUp,ArrowLeft","","","","","","",""
"html-keyboard-response","32","210257","0.0-3.0-6.0-1.1","spark_pilot_norest","8699","5","19","Female","","","","","","","null","<div style=""font-size:60px;"">+</div>","null","fixation","","","","","","","","","","","",""
"revaluation","33","214281","0.0-3.0-6.0-0.2","spark_pilot_norest","8699","5","19","Female","","false","","","","","[421.5]","./assets/img/space/animals/cat.jpg","[""ArrowLeft""]","second stage practice","space","3","{""ArrowUp,ArrowLeft"":3,""ArrowUp,ArrowRight"":36,""ArrowDown,ArrowLeft"":15,""ArrowDown,ArrowRight"":23}","false","ArrowUp,ArrowLeft","","","","","","",""
"html-keyboard-response","34","214792","0.0-3.0-6.0-1.2","spark_pilot_norest","8699","5","19","Female","","","","","","","null","<div style=""font-size:60px;"">+</div>","null","fixation","","","","","","","","","","","",""
"revaluation","35","218817","0.0-3.0-6.0-0.3","spark_pilot_norest","8699","5","19","Female","","false","","","","","[465.5]","./assets/img/space/animals/rabbit.jpg","[""ArrowLeft""]","second stage practice","space","15","{""ArrowUp,ArrowLeft"":3,""ArrowUp,ArrowRight"":36,""ArrowDown,ArrowLeft"":15,""ArrowDown,ArrowRight"":23}","false","ArrowDown,ArrowLeft","","","","","","",""
"html-keyboard-response","36","219328","0.0-3.0-6.0-1.3","spark_pilot_norest","8699","5","19","Female","","","","","","","null","<div style=""font-size:60px;"">+</div>","null","fixation","","","","","","","","","","","",""
"learning-instructions","37","237462","0.0-3.0-7.0-0.0","spark_pilot_norest","8699","5","19","Female","","","","","","","1303.7999999523163","<p> Great job. Now let’s try putting it together. </p>
            <p> On each turn, you will first see a picture to remind you of the place you are in, and you need to choose whether to go up or down. </p>
            <p> Then you will see an animal and choose which of its chests to search for treasure. </p>","","instructions","","","","","","","","","","","",""
"learning-instructions","38","246844","0.0-3.0-7.0-0.1","spark_pilot_norest","8699","5","19","Female","","","","","","","1129.8000001907349","<p> When you choose whether to go up or down, try to go to the animal with the chest with the most treasure. </p>
            <p> Try practicing that now! </p>","","instructions","","","","","","","","","","","",""
"revaluation","39","252877","0.0-3.0-8.0-0.0","spark_pilot_norest","8699","5","19","Female","","false","","","","","[649,1125.5999999046326]","./assets/img/space/6.jpg","[""ArrowUp"",""ArrowLeft""]","full practice","space","3","{""ArrowUp,ArrowLeft"":3,""ArrowUp,ArrowRight"":36,""ArrowDown,ArrowLeft"":15,""ArrowDown,ArrowRight"":23}","false","ArrowUp,ArrowLeft","false","","","","","",""
"html-keyboard-response","40","253391","0.0-3.0-8.0-1.0","spark_pilot_norest","8699","5","19","Female","","","","","","","null","<div style=""font-size:60px;"">+</div>","null","fixation","","","","","","","","","","","",""
"revaluation","41","259419","0.0-3.0-8.0-0.1","spark_pilot_norest","8699","5","19","Female","","false","","","","","[756.5,1271.6000001430511]","./assets/img/space/7.jpg","[""ArrowUp"",""ArrowRight""]","full practice","space","36","{""ArrowUp,ArrowLeft"":3,""ArrowUp,ArrowRight"":36,""ArrowDown,ArrowLeft"":15,""ArrowDown,ArrowRight"":23}","true","ArrowUp,ArrowRight","false","","","","","",""
"html-keyboard-response","42","259923","0.0-3.0-8.0-1.1","spark_pilot_norest","8699","5","19","Female","","","","","","","null","<div style=""font-size:60px;"">+</div>","null","fixation","","","","","","","","","","","",""
"revaluation","43","265951","0.0-3.0-8.0-0.2","spark_pilot_norest","8699","5","19","Female","","false","","","","","[1007.2000000476837,1192.7999999523163]","./assets/img/space/8.jpg","[""ArrowDown"",""ArrowRight""]","full practice","space","23","{""ArrowUp,ArrowLeft"":3,""ArrowUp,ArrowRight"":36,""ArrowDown,ArrowLeft"":15,""ArrowDown,ArrowRight"":23}","false","ArrowDown,ArrowRight","false","","","","","",""
"html-keyboard-response","44","266459","0.0-3.0-8.0-1.2","spark_pilot_norest","8699","5","19","Female","","","","","","","null","<div style=""font-size:60px;"">+</div>","null","fixation","","","","","","","","","","","",""
"revaluation","45","272483","0.0-3.0-8.0-0.3","spark_pilot_norest","8699","5","19","Female","","false","","","","","[494.5,771.2000000476837]","./assets/img/space/9.jpg","[""ArrowDown"",""ArrowLeft""]","full practice","space","15","{""ArrowUp,ArrowLeft"":3,""ArrowUp,ArrowRight"":36,""ArrowDown,ArrowLeft"":15,""ArrowDown,ArrowRight"":23}","false","ArrowDown,ArrowLeft","false","","","","","",""
"html-keyboard-response","46","272991","0.0-3.0-8.0-1.3","spark_pilot_norest","8699","5","19","Female","","","","","","","null","<div style=""font-size:60px;"">+</div>","null","fixation","","","","","","","","","","","",""
"revaluation","47","279014","0.0-3.0-8.0-0.4","spark_pilot_norest","8699","5","19","Female","","false","","","","","[533.2999999523163,482.10000014305115]","./assets/img/space/10.jpg","[""ArrowUp"",""ArrowRight""]","full practice","space","36","{""ArrowUp,ArrowLeft"":3,""ArrowUp,ArrowRight"":36,""ArrowDown,ArrowLeft"":15,""ArrowDown,ArrowRight"":23}","true","ArrowUp,ArrowRight","false","","","","","",""
"html-keyboard-response","48","279521","0.0-3.0-8.0-1.4","spark_pilot_norest","8699","5","19","Female","","","","","","","null","<div style=""font-size:60px;"">+</div>","null","fixation","","","","","","","","","","","",""
"learning-instructions","49","292260","0.0-3.0-9.0-0.0","spark_pilot_norest","8699","5","19","Female","","","","","","","2020.3000001907349","<p> One last thing: sometimes, you will see a robber. The robber can be anywhere in the picture. </p>
            <p> If you do not stop them, you will lose treasure. </p>
            <img src='./assets/img/instructions/robber.jpg' class='instructions-image'>","","instructions","","","","","","","","","","","",""
"learning-instructions","50","301252","0.0-3.0-9.0-0.1","spark_pilot_norest","8699","5","19","Female","","","","","","","1731.7999999523163","<p> If you see the robber, you should <b>press the space bar</b> rather than using the arrow keys. </p>
            <p> Try practicing that now! </p>","","instructions","","","","","","","","","","","",""
"revaluation","51","305345","0.0-3.0-10.0-0.0","spark_pilot_norest","8699","5","19","Female","","false","","","","","[1335.3999998569489]","./assets/img/space/catch/0.jpg","[""spaceBar""]","catch practice","space","0","{""ArrowUp,ArrowLeft"":3,""ArrowUp,ArrowRight"":36,""ArrowDown,ArrowLeft"":15,""ArrowDown,ArrowRight"":23}","true","spaceBar","true","","","","","",""
"html-keyboard-response","52","305849","0.0-3.0-10.0-1.0","spark_pilot_norest","8699","5","19","Female","","","","","","","null","<div style=""font-size:60px;"">+</div>","null","fixation","","","","","","","","","","","",""
"revaluation","53","309894","0.0-3.0-10.0-0.1","spark_pilot_norest","8699","5","19","Female","","false","","","","","[663]","./assets/img/space/catch/1.jpg","[""spaceBar""]","catch practice","space","0","{""ArrowUp,ArrowLeft"":3,""ArrowUp,ArrowRight"":36,""ArrowDown,ArrowLeft"":15,""ArrowDown,ArrowRight"":23}","true","spaceBar","true","","","","","",""
"html-keyboard-response","54","310401","0.0-3.0-10.0-1.1","spark_pilot_norest","8699","5","19","Female","","","","","","","null","<div style=""font-size:60px;"">+</div>","null","fixation","","","","","","","","","","","",""
"revaluation","55","314422","0.0-3.0-10.0-0.2","spark_pilot_norest","8699","5","19","Female","","false","","","","","[609.5]","./assets/img/space/catch/2.jpg","[""spaceBar""]","catch practice","space","0","{""ArrowUp,ArrowLeft"":3,""ArrowUp,ArrowRight"":36,""ArrowDown,ArrowLeft"":15,""ArrowDown,ArrowRight"":23}","true","spaceBar","true","","","","","",""
"html-keyboard-response","56","314935","0.0-3.0-10.0-1.2","spark_pilot_norest","8699","5","19","Female","","","","","","","null","<div style=""font-size:60px;"">+</div>","null","fixation","","","","","","","","","","","",""
"learning-instructions","57","322461","0.0-3.0-11.0-0.0-0.0","spark_pilot_norest","8699","5","19","Female","","","","","","","2250.2999999523163","<p> Now, you will practice a shortened version of the game to get a sense of how it all fits together. </p>","","instructions","","","","","","","","","","","",""
"learning-instructions","58","326960","0.0-3.0-11.0-0.0-0.1","spark_pilot_norest","8699","5","19","Female","","","","","","","1305.0999999046326","<p>This time you are searching for treasure in outer space.</p>","","instructions","","","","","","","","","","","",""
"learning-instructions","59","342760","0.0-3.0-11.0-1.0-0.0","spark_pilot_norest","8699","5","19","Female","","","","","","","1030.2999999523163","<p> Remember, when you see a picture of the place, use the up and down keys to <b>find an animal</b>.</p>
            <p> When you encounter an animal, you should use the left and right keys to <b>select a treasure chest</b>.</p>
            <p> Don't forget to look out for the robber! </p>","","instructions","","","","","","","","","","","",""
"revaluation","60","348789","0.0-3.0-11.0-2.0-0.0","spark_pilot_norest","8699","5","19","Female","","false","","","","","[766.2999999523163,740.1000001430511]","./assets/img/space/11.jpg","[""ArrowUp"",""ArrowRight""]","practice block","space","36","{""ArrowUp,ArrowLeft"":3,""ArrowUp,ArrowRight"":36,""ArrowDown,ArrowLeft"":15,""ArrowDown,ArrowRight"":23}","true","ArrowUp,ArrowRight","false","","","","","",""
"html-keyboard-response","61","349296","0.0-3.0-11.0-2.0-1.0","spark_pilot_norest","8699","5","19","Female","","","","","","","null","<div style=""font-size:60px;"">+</div>","null","fixation","","","","","","","","","","","",""
"revaluation","62","355320","0.0-3.0-11.0-2.0-0.1","spark_pilot_norest","8699","5","19","Female","","false","","","","","[895.6999998092651,439.5]","./assets/img/space/12.jpg","[""ArrowUp"",""ArrowRight""]","practice block","space","36","{""ArrowUp,ArrowLeft"":3,""ArrowUp,ArrowRight"":36,""ArrowDown,ArrowLeft"":15,""ArrowDown,ArrowRight"":23}","true","ArrowUp,ArrowRight","false","","","","","",""
"html-keyboard-response","63","355828","0.0-3.0-11.0-2.0-1.1","spark_pilot_norest","8699","5","19","Female","","","","","","","null","<div style=""font-size:60px;"">+</div>","null","fixation","","","","","","","","","","","",""
"revaluation","64","361860","0.0-3.0-11.0-2.0-0.2","spark_pilot_norest","8699","5","19","Female","","false","","","","","[1402.7000000476837,674.5]","./assets/img/space/13.jpg","[""ArrowUp"",""ArrowRight""]","practice block","space","36","{""ArrowUp,ArrowLeft"":3,""ArrowUp,ArrowRight"":36,""ArrowDown,ArrowLeft"":15,""ArrowDown,ArrowRight"":23}","true","ArrowUp,ArrowRight","false","","","","","",""
"html-keyboard-response","65","362372","0.0-3.0-11.0-2.0-1.2","spark_pilot_norest","8699","5","19","Female","","","","","","","null","<div style=""font-size:60px;"">+</div>","null","fixation","","","","","","","","","","","",""
"revaluation","66","368395","0.0-3.0-11.0-2.0-0.3","spark_pilot_norest","8699","5","19","Female","","false","","","","","[1057.2000000476837,421.5]","./assets/img/space/14.jpg","[""ArrowUp"",""ArrowRight""]","practice block","space","36","{""ArrowUp,ArrowLeft"":3,""ArrowUp,ArrowRight"":36,""ArrowDown,ArrowLeft"":15,""ArrowDown,ArrowRight"":23}","true","ArrowUp,ArrowRight","false","","","","","",""
"html-keyboard-response","67","368908","0.0-3.0-11.0-2.0-1.3","spark_pilot_norest","8699","5","19","Female","","","","","","","null","<div style=""font-size:60px;"">+</div>","null","fixation","","","","","","","","","","","",""
"revaluation","68","374939","0.0-3.0-11.0-2.0-0.4","spark_pilot_norest","8699","5","19","Female","","false","","","","","[952.2000000476837,519.6000001430511]","./assets/img/space/11.jpg","[""ArrowUp"",""ArrowRight""]","practice block","space","36","{""ArrowUp,ArrowLeft"":3,""ArrowUp,ArrowRight"":36,""ArrowDown,ArrowLeft"":15,""ArrowDown,ArrowRight"":23}","true","ArrowUp,ArrowRight","false","","","","","",""
"html-keyboard-response","69","375450","0.0-3.0-11.0-2.0-1.4","spark_pilot_norest","8699","5","19","Female","","","","","","","null","<div style=""font-size:60px;"">+</div>","null","fixation","","","","","","","","","","","",""
"revaluation","70","381472","0.0-3.0-11.0-2.0-0.5","spark_pilot_norest","8699","5","19","Female","","false","","","","","[1280.3000001907349,452.2000000476837]","./assets/img/space/12.jpg","[""ArrowUp"",""ArrowRight""]","practice block","space","36","{""ArrowUp,ArrowLeft"":3,""ArrowUp,ArrowRight"":36,""ArrowDown,ArrowLeft"":15,""ArrowDown,ArrowRight"":23}","true","ArrowUp,ArrowRight","false","","","","","",""
"html-keyboard-response","71","381978","0.0-3.0-11.0-2.0-1.5","spark_pilot_norest","8699","5","19","Female","","","","","","","null","<div style=""font-size:60px;"">+</div>","null","fixation","","","","","","","","","","","",""
"revaluation","72","388012","0.0-3.0-11.0-2.0-0.6","spark_pilot_norest","8699","5","19","Female","","false","","","","","[1190.3999998569489,590.3999998569489]","./assets/img/space/13.jpg","[""ArrowUp"",""ArrowRight""]","practice block","space","36","{""ArrowUp,ArrowLeft"":3,""ArrowUp,ArrowRight"":36,""ArrowDown,ArrowLeft"":15,""ArrowDown,ArrowRight"":23}","true","ArrowUp,ArrowRight","false","","","","","",""
"html-keyboard-response","73","388522","0.0-3.0-11.0-2.0-1.6","spark_pilot_norest","8699","5","19","Female","","","","","","","null","<div style=""font-size:60px;"">+</div>","null","fixation","","","","","","","","","","","",""
"revaluation","74","394544","0.0-3.0-11.0-2.0-0.7","spark_pilot_norest","8699","5","19","Female","","false","","","","","[826.8000001907349,442.5]","./assets/img/space/14.jpg","[""ArrowUp"",""ArrowRight""]","practice block","space","36","{""ArrowUp,ArrowLeft"":3,""ArrowUp,ArrowRight"":36,""ArrowDown,ArrowLeft"":15,""ArrowDown,ArrowRight"":23}","true","ArrowUp,ArrowRight","false","","","","","",""
"html-keyboard-response","75","395050","0.0-3.0-11.0-2.0-1.7","spark_pilot_norest","8699","5","19","Female","","","","","","","null","<div style=""font-size:60px;"">+</div>","null","fixation","","","","","","","","","","","",""
"revaluation","76","399071","0.0-3.0-11.0-2.0-0.8","spark_pilot_norest","8699","5","19","Female","","false","","","","","[783.3000001907349]","./assets/img/space/catch/3.jpg","[""spaceBar""]","practice block","space","0","{""ArrowUp,ArrowLeft"":3,""ArrowUp,ArrowRight"":36,""ArrowDown,ArrowLeft"":15,""ArrowDown,ArrowRight"":23}","true","spaceBar","true","","","","","",""
"html-keyboard-response","77","399578","0.0-3.0-11.0-2.0-1.8","spark_pilot_norest","8699","5","19","Female","","","","","","","null","<div style=""font-size:60px;"">+</div>","null","fixation","","","","","","","","","","","",""
"learning-instructions","78","414875","0.0-3.0-11.0-3.0-0.0","spark_pilot_norest","8699","5","19","Female","","","","","","","1816","<p> Now, you will travel with a friend who will choose whether you go up or down first. </p>
            <p> On these turns, you will just see the animal that they found. You will still get to choose which chest to search for treasure.</p>","","instructions","","","","","","","","","","","",""
"revaluation","79","418898","0.0-3.0-11.0-4.0-0.0","spark_pilot_norest","8699","5","19","Female","","false","","","","","[1307.4000000953674]","./assets/img/space/animals/cat.jpg","[""ArrowRight""]","practice block","space","36","{""ArrowUp,ArrowLeft"":3,""ArrowUp,ArrowRight"":36,""ArrowDown,ArrowLeft"":15,""ArrowDown,ArrowRight"":23}","true","ArrowUp,ArrowRight","","","","","","",""
"html-keyboard-response","80","419410","0.0-3.0-11.0-4.0-1.0","spark_pilot_norest","8699","5","19","Female","","","","","","","null","<div style=""font-size:60px;"">+</div>","null","fixation","","","","","","","","","","","",""
"revaluation","81","423431","0.0-3.0-11.0-4.0-0.1","spark_pilot_norest","8699","5","19","Female","","false","","","","","[927.3999998569489]","./assets/img/space/animals/rabbit.jpg","[""ArrowLeft""]","practice block","space","15","{""ArrowUp,ArrowLeft"":3,""ArrowUp,ArrowRight"":36,""ArrowDown,ArrowLeft"":15,""ArrowDown,ArrowRight"":23}","false","ArrowDown,ArrowLeft","","","","","","",""
"html-keyboard-response","82","423938","0.0-3.0-11.0-4.0-1.1","spark_pilot_norest","8699","5","19","Female","","","","","","","null","<div style=""font-size:60px;"">+</div>","null","fixation","","","","","","","","","","","",""
"revaluation","83","427954","0.0-3.0-11.0-4.0-0.2","spark_pilot_norest","8699","5","19","Female","","false","","","","","[559.3000001907349]","./assets/img/space/animals/cat.jpg","[""ArrowRight""]","practice block","space","36","{""ArrowUp,ArrowLeft"":3,""ArrowUp,ArrowRight"":36,""ArrowDown,ArrowLeft"":15,""ArrowDown,ArrowRight"":23}","true","ArrowUp,ArrowRight","","","","","","",""
"html-keyboard-response","84","428466","0.0-3.0-11.0-4.0-1.2","spark_pilot_norest","8699","5","19","Female","","","","","","","null","<div style=""font-size:60px;"">+</div>","null","fixation","","","","","","","","","","","",""
"revaluation","85","432490","0.0-3.0-11.0-4.0-0.3","spark_pilot_norest","8699","5","19","Female","","false","","","","","[411]","./assets/img/space/animals/rabbit.jpg","[""ArrowRight""]","practice block","space","23","{""ArrowUp,ArrowLeft"":3,""ArrowUp,ArrowRight"":36,""ArrowDown,ArrowLeft"":15,""ArrowDown,ArrowRight"":23}","true","ArrowDown,ArrowRight","","","","","","",""
"html-keyboard-response","86","433000","0.0-3.0-11.0-4.0-1.3","spark_pilot_norest","8699","5","19","Female","","","","","","","null","<div style=""font-size:60px;"">+</div>","null","fixation","","","","","","","","","","","",""
"learning-instructions","87","441135","0.0-3.0-11.0-5.0-0.0","spark_pilot_norest","8699","5","19","Female","","","","","","","null","<p> You have almost finished this part of the game! </p>
            <p> We are going to ask you to make a few more choices. </p>","","instructions","","","","","","","","","","","",""
"learning-instructions","88","457160","0.0-3.0-11.0-5.0-0.1","spark_pilot_norest","8699","5","19","Female","","","","","","","null","<p> First, you need to decide whether to go up or down. When you see each picture, use the arrow keys to make your choice. </p>
            <p><b>You will not see which animal you found, but try to get to the one that will give you the most treasure.</b></p>","","instructions","","","","","","","","","","","",""
"html-keyboard-response","89","458168","0.0-3.0-11.0-6.0-0.0","spark_pilot_norest","8699","5","19","Female","","","","","","","null","<div style=""font-size:100px;color:red;"">Starting in...</div>","null","","","","","","","","","","","","",""
"html-keyboard-response","90","459176","0.0-3.0-11.0-6.0-1.0","spark_pilot_norest","8699","5","19","Female","","","","","","","null","<div style=""font-size:200px;color:red;"">3</div>","null","","","","","","","","","","","","",""
"html-keyboard-response","91","460182","0.0-3.0-11.0-6.0-2.0","spark_pilot_norest","8699","5","19","Female","","","","","","","null","<div style=""font-size:200px;color:red;"">2</div>","null","","","","","","","","","","","","",""
"html-keyboard-response","92","461189","0.0-3.0-11.0-6.0-3.0","spark_pilot_norest","8699","5","19","Female","","","","","","","null","<div style=""font-size:200px;color:red;"">1</div>","null","","","","","","","","","","","","",""
"revaluation","93","461812","0.0-3.0-11.0-7.0","spark_pilot_norest","8699","5","19","Female","","false","","","","","[616]","./assets/img/space/15.jpg","[""ArrowUp""]","practice block","space","0","{""ArrowUp,ArrowLeft"":3,""ArrowUp,ArrowRight"":36,""ArrowDown,ArrowLeft"":15,""ArrowDown,ArrowRight"":23}","true","ArrowUp","false","","","","","",""
"html-keyboard-response","94","462321","0.0-3.0-11.0-8.0","spark_pilot_norest","8699","5","19","Female","","","","","","","null","<div style=""font-size:60px;"">+</div>","null","fixation","","","","","","","","","","","",""
"learning-instructions","95","475709","0.0-3.0-11.0-9.0-0.0","spark_pilot_norest","8699","5","19","Female","","","","","","","null","<p> Now you will see the animals again and can search their chests for treasure. </p>
            <p> This time, you will not see how much treasure you earned, but you will earn more bonus money for making better choices. </p>","","instructions","","","","","","","","","","","",""
"html-keyboard-response","96","476718","0.0-3.0-11.0-10.0-0.0","spark_pilot_norest","8699","5","19","Female","","","","","","","null","<div style=""font-size:100px;color:red;"">Starting in...</div>","null","","","","","","","","","","","","",""
"html-keyboard-response","97","477728","0.0-3.0-11.0-10.0-1.0","spark_pilot_norest","8699","5","19","Female","","","","","","","null","<div style=""font-size:200px;color:red;"">3</div>","null","","","","","","","","","","","","",""
"html-keyboard-response","98","478732","0.0-3.0-11.0-10.0-2.0","spark_pilot_norest","8699","5","19","Female","","","","","","","null","<div style=""font-size:200px;color:red;"">2</div>","null","","","","","","","","","","","","",""
"html-keyboard-response","99","479744","0.0-3.0-11.0-10.0-3.0","spark_pilot_norest","8699","5","19","Female","","","","","","","null","<div style=""font-size:200px;color:red;"">1</div>","null","","","","","","","","","","","","",""
"revaluation","100","480434","0.0-3.0-11.0-11.0-0.0","spark_pilot_norest","8699","5","19","Female","","false","","","","","[685.5]","./assets/img/space/animals/cat.jpg","[""ArrowRight""]","practice block","space","0","{""ArrowUp,ArrowLeft"":3,""ArrowUp,ArrowRight"":36,""ArrowDown,ArrowLeft"":15,""ArrowDown,ArrowRight"":23}","true","ArrowUp,ArrowRight","","","","","","",""
"html-keyboard-response","101","480944","0.0-3.0-11.0-11.0-1.0","spark_pilot_norest","8699","5","19","Female","","","","","","","null","<div style=""font-size:60px;"">+</div>","null","fixation","","","","","","","","","","","",""
"revaluation","102","482238","0.0-3.0-11.0-11.0-0.1","spark_pilot_norest","8699","5","19","Female","","false","","","","","[1290.5999999046326]","./assets/img/space/animals/rabbit.jpg","[""ArrowRight""]","practice block","space","0","{""ArrowUp,ArrowLeft"":3,""ArrowUp,ArrowRight"":36,""ArrowDown,ArrowLeft"":15,""ArrowDown,ArrowRight"":23}","true","ArrowDown,ArrowRight","","","","","","",""
"html-keyboard-response","103","482744","0.0-3.0-11.0-11.0-1.1","spark_pilot_norest","8699","5","19","Female","","","","","","","null","<div style=""font-size:60px;"">+</div>","null","fixation","","","","","","","","","","","",""
"learning-instructions","104","488625","0.0-3.0-12.0-0.0","spark_pilot_norest","8699","5","19","Female","","","","","","","1301.2999999523163","<p> Before you start, we're going to ask you a few questions about how the game works. </p>","","instructions","","","","","","","","","","","",""
"comp-q","105","495760","0.0-3.0-13.0-0.0-0.0","spark_pilot_norest","8699","5","19","Female","","","","","","","1548.2999999523163","<p> <b> True or False? </b> </p>
            <p> There can be 50 pieces of treasure in a given animal's chest. </p>","0","comp_question","","","","false","","","","","","","",""
"comp-q","106","503358","0.0-3.0-13.0-0.0-1.0","spark_pilot_norest","8699","5","19","Female","","","","","","","1074.8999998569489","<p> <b>Incorrect.</b> The amount of treasure in each chest can range from 0 to 40 pieces. </p>","0","comp_answer","","","","","","","","","","","",""
"comp-q","107","509759","0.0-3.0-13.0-0.1-0.1","spark_pilot_norest","8699","5","19","Female","","","","","","","835.4000000953674","<p> <b> True or False? </b> </p>
            <p> There can be 50 pieces of treasure in a given animal's chest. </p>","1","comp_question","","","","true","","","","","","","",""
"comp-q","108","517891","0.0-3.0-13.0-0.1-1.1","spark_pilot_norest","8699","5","19","Female","","","","","","","1474.5999999046326","<p> <b> That's right! </b> The amount of treasure in each chest can range from 0 to 40 pieces. </p>","0","comp_answer","","","","","","","","","","","",""
"comp-q","109","525791","0.0-3.0-13.0-0.2-0.2","spark_pilot_norest","8699","5","19","Female","","","","","","","772.2000000476837","<p> <b> True or False? </b> </p><p> In this game, all animals have the same amount of treasure in their left and right chests. </p>","1","comp_question","","","","true","","","","","","","",""
"comp-q","110","532358","0.0-3.0-13.0-0.2-1.2","spark_pilot_norest","8699","5","19","Female","","","","","","","1328.4000000953674","<p> <b> That's right! </b> Animals have different amounts of treasure in their treasure chests. </p>","0","comp_answer","","","","","","","","","","","",""
"comp-q","111","538807","0.0-3.0-13.0-0.3-0.3","spark_pilot_norest","8699","5","19","Female","","","","","","","593.8999998569489","<p> <b> True or False? </b> </p><p> The same animal will always be there if you go up in the same place. </p>","0","comp_question","","","","true","","","","","","","",""
"comp-q","112","546558","0.0-3.0-13.0-0.3-1.3","spark_pilot_norest","8699","5","19","Female","","","","","","","1310.7000000476837","<p> <b> That's right! </b> One animal lives in the upper part and one lives in the lower part of every place. </p>","0","comp_answer","","","","","","","","","","","",""
"comp-q","113","553908","0.0-3.0-13.0-0.4-0.4","spark_pilot_norest","8699","5","19","Female","","","","","","","1834.2000000476837","<p> <b> True or False? </b> </p><p> If you see a different picture, it means you are in a new place. </p>","0","comp_question","","","","false","","","","","","","",""
"comp-q","114","565857","0.0-3.0-13.0-0.4-1.4","spark_pilot_norest","8699","5","19","Female","","","","","","","855.6000001430511","<p> <b>Incorrect.</b> Lots of different images may show the same place. For example,  you may see three different images that all remind you that you are in outer space. </p>","0","comp_answer","","","","","","","","","","","",""
"comp-q","115","572175","0.0-3.0-13.0-0.5-0.5","spark_pilot_norest","8699","5","19","Female","","","","","","","816.1000001430511","<p> <b> True or False? </b> </p><p> If you see a different picture, it means you are in a new place. </p>","1","comp_question","","","","true","","","","","","","",""
"comp-q","116","584473","0.0-3.0-13.0-0.5-1.5","spark_pilot_norest","8699","5","19","Female","","","","","","","1072.7999999523163","<p> <b> That's right! </b> Lots of different images may show the same place. For example,  you may see three different images that all remind you that you are in outer space. </p>","0","comp_answer","","","","","","","","","","","",""
"learning-instructions","117","597925","0.0-3.0-14.0-0.0","spark_pilot_norest","8699","5","19","Female","","","","","","","3601.7999999523163","<p> Good job. Remember to do your best because the amount of treasure you earn will be converted into bonus money. </p>
            <p> It’s time to start the real game! </p>","","instructions","","","","","","","","","","","",""
"learning-instructions","118","602058","0.0-4.0-0.0-0.0","spark_pilot_norest","8699","5","19","Female","","","","","","","1366.5","<p> This time you are searching for treasure in the <b>canyon</b>.</p>","","instructions","","","","","","","","","","","",""
"learning-instructions","119","620341","0.0-4.0-0.0-0.1","spark_pilot_norest","8699","5","19","Female","","","","","","","978","<p><b>New</b> animals with <b>new</b> treasure chests live here. You need to explore to discover where the animal with the best treasure chest is.</p>
                    <p> Like before, once you figure out which animal has the chest with the most treasure, you should try to get to that animal and select that chest! </p>","","instructions","","","","","","","","","","","",""
"learning-instructions","120","636191","0.0-4.0-1.0-0.0","spark_pilot_norest","8699","5","19","Female","","","","","","","1115.2999999523163","<p> Remember, when you see a picture of the place, use the up and down keys to <b>find an animal</b>.</p>
            <p> When you encounter an animal, you should use the left and right keys to <b>select a treasure chest</b>.</p>
            <p> Don't forget to look out for the robber! </p>","","instructions","","","","","","","","","","","",""
"revaluation","121","642216","0.0-4.0-2.0-0.0","spark_pilot_norest","8699","5","19","Female","","false","","","","","[991.5999999046326,626.2000000476837]","./assets/img/canyon/memory/12.jpg","[""ArrowDown"",""ArrowLeft""]","value training","canyon","5","{""ArrowUp,ArrowLeft"":26,""ArrowUp,ArrowRight"":10,""ArrowDown,ArrowLeft"":5,""ArrowDown,ArrowRight"":17}","false","ArrowDown,ArrowLeft","false","original","1","0","","",""
"html-keyboard-response","122","642727","0.0-4.0-2.0-1.0","spark_pilot_norest","8699","5","19","Female","","","","","","","null","<div style=""font-size:60px;"">+</div>","null","fixation","","","","","","","","","1","","",""
"revaluation","123","646748","0.0-4.0-2.0-0.1","spark_pilot_norest","8699","5","19","Female","","false","","","","","[510.39999985694885]","./assets/img/canyon/catch/3.jpg","[""ArrowDown""]","value training","canyon","-10","{""ArrowUp,ArrowLeft"":26,""ArrowUp,ArrowRight"":10,""ArrowDown,ArrowLeft"":5,""ArrowDown,ArrowRight"":17}","false","ArrowDown","true","original","1","2","","",""
"html-keyboard-response","124","647255","0.0-4.0-2.0-1.1","spark_pilot_norest","8699","5","19","Female","","","","","","","null","<div style=""font-size:60px;"">+</div>","null","fixation","","","","","","","","","3","","",""
"revaluation","125","653279","0.0-4.0-2.0-0.2","spark_pilot_norest","8699","5","19","Female","","false","","","","","[587.5,576.9000000953674]","./assets/img/canyon/memory/1.jpg","[""ArrowDown"",""ArrowRight""]","value training","canyon","17","{""ArrowUp,ArrowLeft"":26,""ArrowUp,ArrowRight"":10,""ArrowDown,ArrowLeft"":5,""ArrowDown,ArrowRight"":17}","false","ArrowDown,ArrowRight","false","original","1","4","","",""
"html-keyboard-response","126","653787","0.0-4.0-2.0-1.2","spark_pilot_norest","8699","5","19","Female","","","","","","","null","<div style=""font-size:60px;"">+</div>","null","fixation","","","","","","","","","5","","",""
"revaluation","127","659808","0.0-4.0-2.0-0.3","spark_pilot_norest","8699","5","19","Female","","false","","","","","[748.5,903.0999999046326]","./assets/img/canyon/memory/11.jpg","[""ArrowUp"",""ArrowLeft""]","value training","canyon","26","{""ArrowUp,ArrowLeft"":26,""ArrowUp,ArrowRight"":10,""ArrowDown,ArrowLeft"":5,""ArrowDown,ArrowRight"":17}","true","ArrowUp,ArrowLeft","false","original","1","6","","",""
"html-keyboard-response","128","660319","0.0-4.0-2.0-1.3","spark_pilot_norest","8699","5","19","Female","","","","","","","null","<div style=""font-size:60px;"">+</div>","null","fixation","","","","","","","","","7","","",""
"revaluation","129","666343","0.0-4.0-2.0-0.4","spark_pilot_norest","8699","5","19","Female","","false","","","","","[818.5,376.89999985694885]","./assets/img/canyon/memory/3.jpg","[""ArrowUp"",""ArrowRight""]","value training","canyon","10","{""ArrowUp,ArrowLeft"":26,""ArrowUp,ArrowRight"":10,""ArrowDown,ArrowLeft"":5,""ArrowDown,ArrowRight"":17}","false","ArrowUp,ArrowRight","false","original","1","8","","",""
"html-keyboard-response","130","666849","0.0-4.0-2.0-1.4","spark_pilot_norest","8699","5","19","Female","","","","","","","null","<div style=""font-size:60px;"">+</div>","null","fixation","","","","","","","","","9","","",""
"revaluation","131","672881","0.0-4.0-2.0-0.5","spark_pilot_norest","8699","5","19","Female","","false","","","","","[855.7000000476837,374.5]","./assets/img/canyon/memory/39.jpg","[""ArrowUp"",""ArrowLeft""]","value training","canyon","26","{""ArrowUp,ArrowLeft"":26,""ArrowUp,ArrowRight"":10,""ArrowDown,ArrowLeft"":5,""ArrowDown,ArrowRight"":17}","true","ArrowUp,ArrowLeft","false","original","1","10","","",""
"html-keyboard-response","132","673393","0.0-4.0-2.0-1.5","spark_pilot_norest","8699","5","19","Female","","","","","","","null","<div style=""font-size:60px;"">+</div>","null","fixation","","","","","","","","","11","","",""
"revaluation","133","679414","0.0-4.0-2.0-0.6","spark_pilot_norest","8699","5","19","Female","","false","","","","","[1020.7000000476837,478.69999980926514]","./assets/img/canyon/memory/36.jpg","[""ArrowUp"",""ArrowLeft""]","value training","canyon","26","{""ArrowUp,ArrowLeft"":26,""ArrowUp,ArrowRight"":10,""ArrowDown,ArrowLeft"":5,""ArrowDown,ArrowRight"":17}","true","ArrowUp,ArrowLeft","false","original","1","12","","",""
"html-keyboard-response","134","679921","0.0-4.0-2.0-1.6","spark_pilot_norest","8699","5","19","Female","","","","","","","null","<div style=""font-size:60px;"">+</div>","null","fixation","","","","","","","","","13","","",""
"revaluation","135","685942","0.0-4.0-2.0-0.7","spark_pilot_norest","8699","5","19","Female","","false","","","","","[685,414.2999999523163]","./assets/img/canyon/memory/5.jpg","[""ArrowUp"",""ArrowLeft""]","value training","canyon","26","{""ArrowUp,ArrowLeft"":26,""ArrowUp,ArrowRight"":10,""ArrowDown,ArrowLeft"":5,""ArrowDown,ArrowRight"":17}","true","ArrowUp,ArrowLeft","false","original","1","14","","",""
"html-keyboard-response","136","686448","0.0-4.0-2.0-1.7","spark_pilot_norest","8699","5","19","Female","","","","","","","null","<div style=""font-size:60px;"">+</div>","null","fixation","","","","","","","","","15","","",""
"revaluation","137","692481","0.0-4.0-2.0-0.8","spark_pilot_norest","8699","5","19","Female","","false","","","","","[960.7000000476837,387.09999990463257]","./assets/img/canyon/memory/19.jpg","[""ArrowUp"",""ArrowLeft""]","value training","canyon","26","{""ArrowUp,ArrowLeft"":26,""ArrowUp,ArrowRight"":10,""ArrowDown,ArrowLeft"":5,""ArrowDown,ArrowRight"":17}","true","ArrowUp,ArrowLeft","false","original","1","16","","",""
"html-keyboard-response","138","692992","0.0-4.0-2.0-1.8","spark_pilot_norest","8699","5","19","Female","","","","","","","null","<div style=""font-size:60px;"">+</div>","null","fixation","","","","","","","","","17","","",""
"revaluation","139","699014","0.0-4.0-2.0-0.9","spark_pilot_norest","8699","5","19","Female","","false","","","","","[873.4000000953674,449.10000014305115]","./assets/img/canyon/memory/12.jpg","[""ArrowUp"",""ArrowLeft""]","value training","canyon","26","{""ArrowUp,ArrowLeft"":26,""ArrowUp,ArrowRight"":10,""ArrowDown,ArrowLeft"":5,""ArrowDown,ArrowRight"":17}","true","ArrowUp,ArrowLeft","false","original","1","18","","",""
"html-keyboard-response","140","699525","0.0-4.0-2.0-1.9","spark_pilot_norest","8699","5","19","Female","","","","","","","null","<div style=""font-size:60px;"">+</div>","null","fixation","","","","","","","","","19","","",""
"revaluation","141","705552","0.0-4.0-2.0-0.10","spark_pilot_norest","8699","5","19","Female","","false","","","","","[596.7999999523163,504.5]","./assets/img/canyon/memory/9.jpg","[""ArrowUp"",""ArrowLeft""]","value training","canyon","26","{""ArrowUp,ArrowLeft"":26,""ArrowUp,ArrowRight"":10,""ArrowDown,ArrowLeft"":5,""ArrowDown,ArrowRight"":17}","true","ArrowUp,ArrowLeft","false","original","1","20","","",""
"html-keyboard-response","142","706064","0.0-4.0-2.0-1.10","spark_pilot_norest","8699","5","19","Female","","","","","","","null","<div style=""font-size:60px;"">+</div>","null","fixation","","","","","","","","","21","","",""
"revaluation","143","710085","0.0-4.0-2.0-0.11","spark_pilot_norest","8699","5","19","Female","","false","","","","","[1007.9000000953674]","./assets/img/canyon/catch/2.jpg","[""spaceBar""]","value training","canyon","0","{""ArrowUp,ArrowLeft"":26,""ArrowUp,ArrowRight"":10,""ArrowDown,ArrowLeft"":5,""ArrowDown,ArrowRight"":17}","true","spaceBar","true","original","1","22","","",""
"html-keyboard-response","144","710592","0.0-4.0-2.0-1.11","spark_pilot_norest","8699","5","19","Female","","","","","","","null","<div style=""font-size:60px;"">+</div>","null","fixation","","","","","","","","","23","","",""
"revaluation","145","716613","0.0-4.0-2.0-0.12","spark_pilot_norest","8699","5","19","Female","","false","","","","","[561.0999999046326,378]","./assets/img/canyon/memory/18.jpg","[""ArrowUp"",""ArrowLeft""]","value training","canyon","26","{""ArrowUp,ArrowLeft"":26,""ArrowUp,ArrowRight"":10,""ArrowDown,ArrowLeft"":5,""ArrowDown,ArrowRight"":17}","true","ArrowUp,ArrowLeft","false","original","1","24","","",""
"html-keyboard-response","146","717119","0.0-4.0-2.0-1.12","spark_pilot_norest","8699","5","19","Female","","","","","","","null","<div style=""font-size:60px;"">+</div>","null","fixation","","","","","","","","","25","","",""
"revaluation","147","723141","0.0-4.0-2.0-0.13","spark_pilot_norest","8699","5","19","Female","","false","","","","","[394.7000000476837,520.7000000476837]","./assets/img/canyon/memory/11.jpg","[""ArrowUp"",""ArrowLeft""]","value training","canyon","26","{""ArrowUp,ArrowLeft"":26,""ArrowUp,ArrowRight"":10,""ArrowDown,ArrowLeft"":5,""ArrowDown,ArrowRight"":17}","true","ArrowUp,ArrowLeft","false","original","1","26","","",""
"html-keyboard-response","148","723647","0.0-4.0-2.0-1.13","spark_pilot_norest","8699","5","19","Female","","","","","","","null","<div style=""font-size:60px;"">+</div>","null","fixation","","","","","","","","","27","","",""
"revaluation","149","727664","0.0-4.0-2.0-0.14","spark_pilot_norest","8699","5","19","Female","","false","","","","","[869.3999998569489]","./assets/img/canyon/catch/1.jpg","[""spaceBar""]","value training","canyon","0","{""ArrowUp,ArrowLeft"":26,""ArrowUp,ArrowRight"":10,""ArrowDown,ArrowLeft"":5,""ArrowDown,ArrowRight"":17}","true","spaceBar","true","original","1","28","","",""
"html-keyboard-response","150","728175","0.0-4.0-2.0-1.14","spark_pilot_norest","8699","5","19","Female","","","","","","","null","<div style=""font-size:60px;"">+</div>","null","fixation","","","","","","","","","29","","",""
"revaluation","151","734197","0.0-4.0-2.0-0.15","spark_pilot_norest","8699","5","19","Female","","false","","","","","[517.2000000476837,480.7000000476837]","./assets/img/canyon/memory/39.jpg","[""ArrowUp"",""ArrowLeft""]","value training","canyon","26","{""ArrowUp,ArrowLeft"":26,""ArrowUp,ArrowRight"":10,""ArrowDown,ArrowLeft"":5,""ArrowDown,ArrowRight"":17}","true","ArrowUp,ArrowLeft","false","original","1","30","","",""
"html-keyboard-response","152","734703","0.0-4.0-2.0-1.15","spark_pilot_norest","8699","5","19","Female","","","","","","","null","<div style=""font-size:60px;"">+</div>","null","fixation","","","","","","","","","31","","",""
"revaluation","153","740725","0.0-4.0-2.0-0.16","spark_pilot_norest","8699","5","19","Female","","false","","","","","[883.7999999523163,586.2999999523163]","./assets/img/canyon/memory/37.jpg","[""ArrowUp"",""ArrowLeft""]","value training","canyon","26","{""ArrowUp,ArrowLeft"":26,""ArrowUp,ArrowRight"":10,""ArrowDown,ArrowLeft"":5,""ArrowDown,ArrowRight"":17}","true","ArrowUp,ArrowLeft","false","original","1","32","","",""
"html-keyboard-response","154","741231","0.0-4.0-2.0-1.16","spark_pilot_norest","8699","5","19","Female","","","","","","","null","<div style=""font-size:60px;"">+</div>","null","fixation","","","","","","","","","33","","",""
"revaluation","155","747252","0.0-4.0-2.0-0.17","spark_pilot_norest","8699","5","19","Female","","false","","","","","[801.3999998569489,468.2000000476837]","./assets/img/canyon/memory/16.jpg","[""ArrowUp"",""ArrowLeft""]","value training","canyon","26","{""ArrowUp,ArrowLeft"":26,""ArrowUp,ArrowRight"":10,""ArrowDown,ArrowLeft"":5,""ArrowDown,ArrowRight"":17}","true","ArrowUp,ArrowLeft","false","original","1","34","","",""
"html-keyboard-response","156","747764","0.0-4.0-2.0-1.17","spark_pilot_norest","8699","5","19","Female","","","","","","","null","<div style=""font-size:60px;"">+</div>","null","fixation","","","","","","","","","35","","",""
"revaluation","157","753791","0.0-4.0-2.0-0.18","spark_pilot_norest","8699","5","19","Female","","false","","","","","[848,512.2999999523163]","./assets/img/canyon/memory/40.jpg","[""ArrowUp"",""ArrowLeft""]","value training","canyon","26","{""ArrowUp,ArrowLeft"":26,""ArrowUp,ArrowRight"":10,""ArrowDown,ArrowLeft"":5,""ArrowDown,ArrowRight"":17}","true","ArrowUp,ArrowLeft","false","original","1","36","","",""
"html-keyboard-response","158","754302","0.0-4.0-2.0-1.18","spark_pilot_norest","8699","5","19","Female","","","","","","","null","<div style=""font-size:60px;"">+</div>","null","fixation","","","","","","","","","37","","",""
"revaluation","159","760324","0.0-4.0-2.0-0.19","spark_pilot_norest","8699","5","19","Female","","false","","","","","[983,461.2000000476837]","./assets/img/canyon/memory/0.jpg","[""ArrowUp"",""ArrowLeft""]","value training","canyon","26","{""ArrowUp,ArrowLeft"":26,""ArrowUp,ArrowRight"":10,""ArrowDown,ArrowLeft"":5,""ArrowDown,ArrowRight"":17}","true","ArrowUp,ArrowLeft","false","original","1","38","","",""
"html-keyboard-response","160","760830","0.0-4.0-2.0-1.19","spark_pilot_norest","8699","5","19","Female","","","","","","","null","<div style=""font-size:60px;"">+</div>","null","fixation","","","","","","","","","39","","",""
"revaluation","161","766852","0.0-4.0-2.0-0.20","spark_pilot_norest","8699","5","19","Female","","false","","","","","[496.7000000476837,464.59999990463257]","./assets/img/canyon/memory/29.jpg","[""ArrowUp"",""ArrowLeft""]","value training","canyon","26","{""ArrowUp,ArrowLeft"":26,""ArrowUp,ArrowRight"":10,""ArrowDown,ArrowLeft"":5,""ArrowDown,ArrowRight"":17}","true","ArrowUp,ArrowLeft","false","original","1","40","","",""
"html-keyboard-response","162","767358","0.0-4.0-2.0-1.20","spark_pilot_norest","8699","5","19","Female","","","","","","","null","<div style=""font-size:60px;"">+</div>","null","fixation","","","","","","","","","41","","",""
"revaluation","163","773380","0.0-4.0-2.0-0.21","spark_pilot_norest","8699","5","19","Female","","false","","","","","[669.0999999046326,597.9000000953674]","./assets/img/canyon/memory/9.jpg","[""ArrowUp"",""ArrowLeft""]","value training","canyon","26","{""ArrowUp,ArrowLeft"":26,""ArrowUp,ArrowRight"":10,""ArrowDown,ArrowLeft"":5,""ArrowDown,ArrowRight"":17}","true","ArrowUp,ArrowLeft","false","original","1","42","","",""
"html-keyboard-response","164","773886","0.0-4.0-2.0-1.21","spark_pilot_norest","8699","5","19","Female","","","","","","","null","<div style=""font-size:60px;"">+</div>","null","fixation","","","","","","","","","43","","",""
"revaluation","165","779907","0.0-4.0-2.0-0.22","spark_pilot_norest","8699","5","19","Female","","false","","","","","[687.6000001430511,354.2000000476837]","./assets/img/canyon/memory/29.jpg","[""ArrowUp"",""ArrowLeft""]","value training","canyon","26","{""ArrowUp,ArrowLeft"":26,""ArrowUp,ArrowRight"":10,""ArrowDown,ArrowLeft"":5,""ArrowDown,ArrowRight"":17}","true","ArrowUp,ArrowLeft","false","original","1","44","","",""
"html-keyboard-response","166","780414","0.0-4.0-2.0-1.22","spark_pilot_norest","8699","5","19","Female","","","","","","","null","<div style=""font-size:60px;"">+</div>","null","fixation","","","","","","","","","45","","",""
"revaluation","167","786435","0.0-4.0-2.0-0.23","spark_pilot_norest","8699","5","19","Female","","false","","","","","[792.5999999046326,455.80000019073486]","./assets/img/canyon/memory/25.jpg","[""ArrowUp"",""ArrowLeft""]","value training","canyon","26","{""ArrowUp,ArrowLeft"":26,""ArrowUp,ArrowRight"":10,""ArrowDown,ArrowLeft"":5,""ArrowDown,ArrowRight"":17}","true","ArrowUp,ArrowLeft","false","original","1","46","","",""
"html-keyboard-response","168","786941","0.0-4.0-2.0-1.23","spark_pilot_norest","8699","5","19","Female","","","","","","","null","<div style=""font-size:60px;"">+</div>","null","fixation","","","","","","","","","47","","",""
"revaluation","169","792963","0.0-4.0-2.0-0.24","spark_pilot_norest","8699","5","19","Female","","false","","","","","[652.4000000953674,393.30000019073486]","./assets/img/canyon/memory/40.jpg","[""ArrowUp"",""ArrowLeft""]","value training","canyon","26","{""ArrowUp,ArrowLeft"":26,""ArrowUp,ArrowRight"":10,""ArrowDown,ArrowLeft"":5,""ArrowDown,ArrowRight"":17}","true","ArrowUp,ArrowLeft","false","original","1","48","","",""
"html-keyboard-response","170","793469","0.0-4.0-2.0-1.24","spark_pilot_norest","8699","5","19","Female","","","","","","","null","<div style=""font-size:60px;"">+</div>","null","fixation","","","","","","","","","49","","",""
"revaluation","171","799491","0.0-4.0-2.0-0.25","spark_pilot_norest","8699","5","19","Female","","false","","","","","[618.7999999523163,574.9000000953674]","./assets/img/canyon/memory/41.jpg","[""ArrowUp"",""ArrowLeft""]","value training","canyon","26","{""ArrowUp,ArrowLeft"":26,""ArrowUp,ArrowRight"":10,""ArrowDown,ArrowLeft"":5,""ArrowDown,ArrowRight"":17}","true","ArrowUp,ArrowLeft","false","original","1","50","","",""
"html-keyboard-response","172","799997","0.0-4.0-2.0-1.25","spark_pilot_norest","8699","5","19","Female","","","","","","","null","<div style=""font-size:60px;"">+</div>","null","fixation","","","","","","","","","51","","",""
"revaluation","173","804019","0.0-4.0-2.0-0.26","spark_pilot_norest","8699","5","19","Female","","false","","","","","[760.7000000476837]","./assets/img/canyon/catch/4.jpg","[""spaceBar""]","value training","canyon","0","{""ArrowUp,ArrowLeft"":26,""ArrowUp,ArrowRight"":10,""ArrowDown,ArrowLeft"":5,""ArrowDown,ArrowRight"":17}","true","spaceBar","true","original","1","52","","",""
"html-keyboard-response","174","804530","0.0-4.0-2.0-1.26","spark_pilot_norest","8699","5","19","Female","","","","","","","null","<div style=""font-size:60px;"">+</div>","null","fixation","","","","","","","","","53","","",""
"revaluation","175","810559","0.0-4.0-2.0-0.27","spark_pilot_norest","8699","5","19","Female","","false","","","","","[473.90000009536743,380.09999990463257]","./assets/img/canyon/memory/37.jpg","[""ArrowUp"",""ArrowLeft""]","value training","canyon","26","{""ArrowUp,ArrowLeft"":26,""ArrowUp,ArrowRight"":10,""ArrowDown,ArrowLeft"":5,""ArrowDown,ArrowRight"":17}","true","ArrowUp,ArrowLeft","false","original","1","54","","",""
"html-keyboard-response","176","811069","0.0-4.0-2.0-1.27","spark_pilot_norest","8699","5","19","Female","","","","","","","null","<div style=""font-size:60px;"">+</div>","null","fixation","","","","","","","","","55","","",""
"revaluation","177","817090","0.0-4.0-2.0-0.28","spark_pilot_norest","8699","5","19","Female","","false","","","","","[621.4000000953674,570.9000000953674]","./assets/img/canyon/memory/5.jpg","[""ArrowUp"",""ArrowLeft""]","value training","canyon","26","{""ArrowUp,ArrowLeft"":26,""ArrowUp,ArrowRight"":10,""ArrowDown,ArrowLeft"":5,""ArrowDown,ArrowRight"":17}","true","ArrowUp,ArrowLeft","false","original","1","56","","",""
"html-keyboard-response","178","817596","0.0-4.0-2.0-1.28","spark_pilot_norest","8699","5","19","Female","","","","","","","null","<div style=""font-size:60px;"">+</div>","null","fixation","","","","","","","","","57","","",""
"revaluation","179","821613","0.0-4.0-2.0-0.29","spark_pilot_norest","8699","5","19","Female","","false","","","","","[767.9000000953674]","./assets/img/canyon/catch/0.jpg","[""spaceBar""]","value training","canyon","0","{""ArrowUp,ArrowLeft"":26,""ArrowUp,ArrowRight"":10,""ArrowDown,ArrowLeft"":5,""ArrowDown,ArrowRight"":17}","true","spaceBar","true","original","1","58","","",""
"html-keyboard-response","180","822124","0.0-4.0-2.0-1.29","spark_pilot_norest","8699","5","19","Female","","","","","","","null","<div style=""font-size:60px;"">+</div>","null","fixation","","","","","","","","","59","","",""
"revaluation","181","828157","0.0-4.0-2.0-0.30","spark_pilot_norest","8699","5","19","Female","","false","","","","","[561.5999999046326,468]","./assets/img/canyon/memory/25.jpg","[""ArrowUp"",""ArrowLeft""]","value training","canyon","26","{""ArrowUp,ArrowLeft"":26,""ArrowUp,ArrowRight"":10,""ArrowDown,ArrowLeft"":5,""ArrowDown,ArrowRight"":17}","true","ArrowUp,ArrowLeft","false","original","1","60","","",""
"html-keyboard-response","182","828668","0.0-4.0-2.0-1.30","spark_pilot_norest","8699","5","19","Female","","","","","","","null","<div style=""font-size:60px;"">+</div>","null","fixation","","","","","","","","","61","","",""
"revaluation","183","834689","0.0-4.0-2.0-0.31","spark_pilot_norest","8699","5","19","Female","","false","","","","","[466.89999985694885,552.6000001430511]","./assets/img/canyon/memory/28.jpg","[""ArrowUp"",""ArrowLeft""]","value training","canyon","26","{""ArrowUp,ArrowLeft"":26,""ArrowUp,ArrowRight"":10,""ArrowDown,ArrowLeft"":5,""ArrowDown,ArrowRight"":17}","true","ArrowUp,ArrowLeft","false","original","1","62","","",""
"html-keyboard-response","184","835196","0.0-4.0-2.0-1.31","spark_pilot_norest","8699","5","19","Female","","","","","","","null","<div style=""font-size:60px;"">+</div>","null","fixation","","","","","","","","","63","","",""
"revaluation","185","841217","0.0-4.0-2.0-0.32","spark_pilot_norest","8699","5","19","Female","","false","","","","","[735.0999999046326,440.7999999523163]","./assets/img/canyon/memory/18.jpg","[""ArrowUp"",""ArrowLeft""]","value training","canyon","26","{""ArrowUp,ArrowLeft"":26,""ArrowUp,ArrowRight"":10,""ArrowDown,ArrowLeft"":5,""ArrowDown,ArrowRight"":17}","true","ArrowUp,ArrowLeft","false","original","1","64","","",""
"html-keyboard-response","186","841724","0.0-4.0-2.0-1.32","spark_pilot_norest","8699","5","19","Female","","","","","","","null","<div style=""font-size:60px;"">+</div>","null","fixation","","","","","","","","","65","","",""
"revaluation","187","847747","0.0-4.0-2.0-0.33","spark_pilot_norest","8699","5","19","Female","","false","","","","","[528.1999998092651,706]","./assets/img/canyon/memory/16.jpg","[""ArrowUp"",""ArrowLeft""]","value training","canyon","26","{""ArrowUp,ArrowLeft"":26,""ArrowUp,ArrowRight"":10,""ArrowDown,ArrowLeft"":5,""ArrowDown,ArrowRight"":17}","true","ArrowUp,ArrowLeft","false","original","1","66","","",""
"html-keyboard-response","188","848257","0.0-4.0-2.0-1.33","spark_pilot_norest","8699","5","19","Female","","","","","","","null","<div style=""font-size:60px;"">+</div>","null","fixation","","","","","","","","","67","","",""
"revaluation","189","854284","0.0-4.0-2.0-0.34","spark_pilot_norest","8699","5","19","Female","","false","","","","","[434,441.2999999523163]","./assets/img/canyon/memory/32.jpg","[""ArrowUp"",""ArrowLeft""]","value training","canyon","26","{""ArrowUp,ArrowLeft"":26,""ArrowUp,ArrowRight"":10,""ArrowDown,ArrowLeft"":5,""ArrowDown,ArrowRight"":17}","true","ArrowUp,ArrowLeft","false","original","1","68","","",""
"html-keyboard-response","190","854795","0.0-4.0-2.0-1.34","spark_pilot_norest","8699","5","19","Female","","","","","","","null","<div style=""font-size:60px;"">+</div>","null","fixation","","","","","","","","","69","","",""
"revaluation","191","858812","0.0-4.0-2.0-0.35","spark_pilot_norest","8699","5","19","Female","","false","","","","","[954.9000000953674]","./assets/img/canyon/catch/6.jpg","[""spaceBar""]","value training","canyon","0","{""ArrowUp,ArrowLeft"":26,""ArrowUp,ArrowRight"":10,""ArrowDown,ArrowLeft"":5,""ArrowDown,ArrowRight"":17}","true","spaceBar","true","original","1","70","","",""
"html-keyboard-response","192","859323","0.0-4.0-2.0-1.35","spark_pilot_norest","8699","5","19","Female","","","","","","","null","<div style=""font-size:60px;"">+</div>","null","fixation","","","","","","","","","71","","",""
"revaluation","193","865345","0.0-4.0-2.0-0.36","spark_pilot_norest","8699","5","19","Female","","false","","","","","[673.3000001907349,503.7999999523163]","./assets/img/canyon/memory/3.jpg","[""ArrowUp"",""ArrowLeft""]","value training","canyon","26","{""ArrowUp,ArrowLeft"":26,""ArrowUp,ArrowRight"":10,""ArrowDown,ArrowLeft"":5,""ArrowDown,ArrowRight"":17}","true","ArrowUp,ArrowLeft","false","original","1","72","","",""
"html-keyboard-response","194","865851","0.0-4.0-2.0-1.36","spark_pilot_norest","8699","5","19","Female","","","","","","","null","<div style=""font-size:60px;"">+</div>","null","fixation","","","","","","","","","73","","",""
"revaluation","195","871873","0.0-4.0-2.0-0.37","spark_pilot_norest","8699","5","19","Female","","false","","","","","[67.29999995231628,643.5999999046326]","./assets/img/canyon/memory/19.jpg","[""ArrowUp"",""ArrowLeft""]","value training","canyon","26","{""ArrowUp,ArrowLeft"":26,""ArrowUp,ArrowRight"":10,""ArrowDown,ArrowLeft"":5,""ArrowDown,ArrowRight"":17}","true","ArrowUp,ArrowLeft","false","original","1","74","","",""
"html-keyboard-response","196","872379","0.0-4.0-2.0-1.37","spark_pilot_norest","8699","5","19","Female","","","","","","","null","<div style=""font-size:60px;"">+</div>","null","fixation","","","","","","","","","75","","",""
"revaluation","197","878411","0.0-4.0-2.0-0.38","spark_pilot_norest","8699","5","19","Female","","false","","","","","[844.7000000476837,578.5]","./assets/img/canyon/memory/38.jpg","[""ArrowUp"",""ArrowLeft""]","value training","canyon","26","{""ArrowUp,ArrowLeft"":26,""ArrowUp,ArrowRight"":10,""ArrowDown,ArrowLeft"":5,""ArrowDown,ArrowRight"":17}","true","ArrowUp,ArrowLeft","false","original","1","76","","",""
"html-keyboard-response","198","878923","0.0-4.0-2.0-1.38","spark_pilot_norest","8699","5","19","Female","","","","","","","null","<div style=""font-size:60px;"">+</div>","null","fixation","","","","","","","","","77","","",""
"revaluation","199","882939","0.0-4.0-2.0-0.39","spark_pilot_norest","8699","5","19","Female","","false","","","","","[689]","./assets/img/canyon/catch/5.jpg","[""spaceBar""]","value training","canyon","0","{""ArrowUp,ArrowLeft"":26,""ArrowUp,ArrowRight"":10,""ArrowDown,ArrowLeft"":5,""ArrowDown,ArrowRight"":17}","true","spaceBar","true","original","1","78","","",""
"html-keyboard-response","200","883450","0.0-4.0-2.0-1.39","spark_pilot_norest","8699","5","19","Female","","","","","","","null","<div style=""font-size:60px;"">+</div>","null","fixation","","","","","","","","","79","","",""
"revaluation","201","889472","0.0-4.0-2.0-0.40","spark_pilot_norest","8699","5","19","Female","","false","","","","","[752.5999999046326,631.5999999046326]","./assets/img/canyon/memory/1.jpg","[""ArrowUp"",""ArrowLeft""]","value training","canyon","26","{""ArrowUp,ArrowLeft"":26,""ArrowUp,ArrowRight"":10,""ArrowDown,ArrowLeft"":5,""ArrowDown,ArrowRight"":17}","true","ArrowUp,ArrowLeft","false","original","1","80","","",""
"html-keyboard-response","202","889984","0.0-4.0-2.0-1.40","spark_pilot_norest","8699","5","19","Female","","","","","","","null","<div style=""font-size:60px;"">+</div>","null","fixation","","","","","","","","","81","","",""
"revaluation","203","896011","0.0-4.0-2.0-0.41","spark_pilot_norest","8699","5","19","Female","","false","","","","","[498.90000009536743,449.7999999523163]","./assets/img/canyon/memory/32.jpg","[""ArrowUp"",""ArrowLeft""]","value training","canyon","26","{""ArrowUp,ArrowLeft"":26,""ArrowUp,ArrowRight"":10,""ArrowDown,ArrowLeft"":5,""ArrowDown,ArrowRight"":17}","true","ArrowUp,ArrowLeft","false","original","1","82","","",""
"html-keyboard-response","204","896522","0.0-4.0-2.0-1.41","spark_pilot_norest","8699","5","19","Female","","","","","","","null","<div style=""font-size:60px;"">+</div>","null","fixation","","","","","","","","","83","","",""
"revaluation","205","902544","0.0-4.0-2.0-0.42","spark_pilot_norest","8699","5","19","Female","","false","","","","","[499,400.09999990463257]","./assets/img/canyon/memory/0.jpg","[""ArrowUp"",""ArrowLeft""]","value training","canyon","26","{""ArrowUp,ArrowLeft"":26,""ArrowUp,ArrowRight"":10,""ArrowDown,ArrowLeft"":5,""ArrowDown,ArrowRight"":17}","true","ArrowUp,ArrowLeft","false","original","1","84","","",""
"html-keyboard-response","206","903050","0.0-4.0-2.0-1.42","spark_pilot_norest","8699","5","19","Female","","","","","","","null","<div style=""font-size:60px;"">+</div>","null","fixation","","","","","","","","","85","","",""
"revaluation","207","909082","0.0-4.0-2.0-0.43","spark_pilot_norest","8699","5","19","Female","","false","","","","","[579.3999998569489,593.5]","./assets/img/canyon/memory/28.jpg","[""ArrowUp"",""ArrowLeft""]","value training","canyon","26","{""ArrowUp,ArrowLeft"":26,""ArrowUp,ArrowRight"":10,""ArrowDown,ArrowLeft"":5,""ArrowDown,ArrowRight"":17}","true","ArrowUp,ArrowLeft","false","original","1","86","","",""
"html-keyboard-response","208","909594","0.0-4.0-2.0-1.43","spark_pilot_norest","8699","5","19","Female","","","","","","","null","<div style=""font-size:60px;"">+</div>","null","fixation","","","","","","","","","87","","",""
"revaluation","209","915616","0.0-4.0-2.0-0.44","spark_pilot_norest","8699","5","19","Female","","false","","","","","[497.2000000476837,384.59999990463257]","./assets/img/canyon/memory/36.jpg","[""ArrowUp"",""ArrowLeft""]","value training","canyon","26","{""ArrowUp,ArrowLeft"":26,""ArrowUp,ArrowRight"":10,""ArrowDown,ArrowLeft"":5,""ArrowDown,ArrowRight"":17}","true","ArrowUp,ArrowLeft","false","original","1","88","","",""
"html-keyboard-response","210","916121","0.0-4.0-2.0-1.44","spark_pilot_norest","8699","5","19","Female","","","","","","","null","<div style=""font-size:60px;"">+</div>","null","fixation","","","","","","","","","89","","",""
"revaluation","211","922154","0.0-4.0-2.0-0.45","spark_pilot_norest","8699","5","19","Female","","false","","","","","[558.7000000476837,452]","./assets/img/canyon/memory/38.jpg","[""ArrowUp"",""ArrowLeft""]","value training","canyon","26","{""ArrowUp,ArrowLeft"":26,""ArrowUp,ArrowRight"":10,""ArrowDown,ArrowLeft"":5,""ArrowDown,ArrowRight"":17}","true","ArrowUp,ArrowLeft","false","original","1","90","","",""
"html-keyboard-response","212","922665","0.0-4.0-2.0-1.45","spark_pilot_norest","8699","5","19","Female","","","","","","","null","<div style=""font-size:60px;"">+</div>","null","fixation","","","","","","","","","91","","",""
"revaluation","213","928698","0.0-4.0-2.0-0.46","spark_pilot_norest","8699","5","19","Female","","false","","","","","[646.7000000476837,432.59999990463257]","./assets/img/canyon/memory/41.jpg","[""ArrowUp"",""ArrowLeft""]","value training","canyon","26","{""ArrowUp,ArrowLeft"":26,""ArrowUp,ArrowRight"":10,""ArrowDown,ArrowLeft"":5,""ArrowDown,ArrowRight"":17}","true","ArrowUp,ArrowLeft","false","original","1","92","","",""
"html-keyboard-response","214","929209","0.0-4.0-2.0-1.46","spark_pilot_norest","8699","5","19","Female","","","","","","","null","<div style=""font-size:60px;"">+</div>","null","fixation","","","","","","","","","93","","",""
"revaluation","215","935231","0.0-4.0-2.0-0.47","spark_pilot_norest","8699","5","19","Female","","false","","","","","[778.6000001430511,339.2000000476837]","./assets/img/canyon/memory/26.jpg","[""ArrowUp"",""ArrowRight""]","value training","canyon","10","{""ArrowUp,ArrowLeft"":26,""ArrowUp,ArrowRight"":10,""ArrowDown,ArrowLeft"":5,""ArrowDown,ArrowRight"":17}","false","ArrowUp,ArrowRight","false","original","1","94","","",""
"html-keyboard-response","216","935737","0.0-4.0-2.0-1.47","spark_pilot_norest","8699","5","19","Female","","","","","","","null","<div style=""font-size:60px;"">+</div>","null","fixation","","","","","","","","","95","","",""
"revaluation","217","941758","0.0-4.0-2.0-0.48","spark_pilot_norest","8699","5","19","Female","","false","","","","","[441.10000014305115,557.2999999523163]","./assets/img/canyon/memory/26.jpg","[""ArrowUp"",""ArrowLeft""]","value training","canyon","26","{""ArrowUp,ArrowLeft"":26,""ArrowUp,ArrowRight"":10,""ArrowDown,ArrowLeft"":5,""ArrowDown,ArrowRight"":17}","true","ArrowUp,ArrowLeft","false","original","1","96","","",""
"html-keyboard-response","218","942265","0.0-4.0-2.0-1.48","spark_pilot_norest","8699","5","19","Female","","","","","","","null","<div style=""font-size:60px;"">+</div>","null","fixation","","","","","","","","","97","","",""
"revaluation","219","946281","0.0-4.0-2.0-0.49","spark_pilot_norest","8699","5","19","Female","","false","","","","","[1232.6000001430511]","./assets/img/canyon/catch/7.jpg","[""spaceBar""]","value training","canyon","0","{""ArrowUp,ArrowLeft"":26,""ArrowUp,ArrowRight"":10,""ArrowDown,ArrowLeft"":5,""ArrowDown,ArrowRight"":17}","true","spaceBar","true","original","1","98","","",""
"html-keyboard-response","220","946793","0.0-4.0-2.0-1.49","spark_pilot_norest","8699","5","19","Female","","","","","","","null","<div style=""font-size:60px;"">+</div>","null","fixation","","","","","","","","","99","","",""
"learning-instructions","221","962803","0.0-4.0-3.0-0.0","spark_pilot_norest","8699","5","19","Female","","","","","","","2626","<p> Now, you will travel with a friend who will choose whether you go up or down first. </p>
            <p> On these turns, you will just see the animal that they found. You will still get to choose which chest to search for treasure.</p>","","instructions","","","","","","","","","","","",""
"revaluation","222","966822","0.0-4.0-4.0-0.0","spark_pilot_norest","8699","5","19","Female","","false","","","","","[1121]","./assets/img/canyon/animals/giraffe.jpg","[""ArrowRight""]","revaluation","canyon","17","{""ArrowUp,ArrowLeft"":26,""ArrowUp,ArrowRight"":10,""ArrowDown,ArrowLeft"":5,""ArrowDown,ArrowRight"":17}","true","ArrowDown,ArrowRight","","original","1","0","","",""
"html-keyboard-response","223","967333","0.0-4.0-4.0-1.0","spark_pilot_norest","8699","5","19","Female","","","","","","","null","<div style=""font-size:60px;"">+</div>","null","fixation","","","","","","","","","1","","",""
"revaluation","224","971349","0.0-4.0-4.0-0.1","spark_pilot_norest","8699","5","19","Female","","false","","","","","[547.8000001907349]","./assets/img/canyon/animals/giraffe.jpg","[""ArrowRight""]","revaluation","canyon","17","{""ArrowUp,ArrowLeft"":26,""ArrowUp,ArrowRight"":10,""ArrowDown,ArrowLeft"":5,""ArrowDown,ArrowRight"":17}","true","ArrowDown,ArrowRight","","original","1","2","","",""
"html-keyboard-response","225","971855","0.0-4.0-4.0-1.1","spark_pilot_norest","8699","5","19","Female","","","","","","","null","<div style=""font-size:60px;"">+</div>","null","fixation","","","","","","","","","3","","",""
"revaluation","226","975869","0.0-4.0-4.0-0.2","spark_pilot_norest","8699","5","19","Female","","false","","","","","[710.7999999523163]","./assets/img/canyon/animals/giraffe.jpg","[""ArrowLeft""]","revaluation","canyon","5","{""ArrowUp,ArrowLeft"":26,""ArrowUp,ArrowRight"":10,""ArrowDown,ArrowLeft"":5,""ArrowDown,ArrowRight"":17}","false","ArrowDown,ArrowLeft","","original","1","4","","",""
"html-keyboard-response","227","976377","0.0-4.0-4.0-1.2","spark_pilot_norest","8699","5","19","Female","","","","","","","null","<div style=""font-size:60px;"">+</div>","null","fixation","","","","","","","","","5","","",""
"revaluation","228","980398","0.0-4.0-4.0-0.3","spark_pilot_norest","8699","5","19","Female","","false","","","","","[860.5999999046326]","./assets/img/canyon/animals/lion.jpg","[""ArrowLeft""]","revaluation","canyon","26","{""ArrowUp,ArrowLeft"":26,""ArrowUp,ArrowRight"":10,""ArrowDown,ArrowLeft"":5,""ArrowDown,ArrowRight"":17}","true","ArrowUp,ArrowLeft","","original","1","6","","",""
"html-keyboard-response","229","980903","0.0-4.0-4.0-1.3","spark_pilot_norest","8699","5","19","Female","","","","","","","null","<div style=""font-size:60px;"">+</div>","null","fixation","","","","","","","","","7","","",""
"revaluation","230","984929","0.0-4.0-4.0-0.4","spark_pilot_norest","8699","5","19","Female","","false","","","","","[536.2999999523163]","./assets/img/canyon/animals/giraffe.jpg","[""ArrowRight""]","revaluation","canyon","17","{""ArrowUp,ArrowLeft"":26,""ArrowUp,ArrowRight"":10,""ArrowDown,ArrowLeft"":5,""ArrowDown,ArrowRight"":17}","true","ArrowDown,ArrowRight","","original","1","8","","",""
"html-keyboard-response","231","985441","0.0-4.0-4.0-1.4","spark_pilot_norest","8699","5","19","Female","","","","","","","null","<div style=""font-size:60px;"">+</div>","null","fixation","","","","","","","","","9","","",""
"revaluation","232","989465","0.0-4.0-4.0-0.5","spark_pilot_norest","8699","5","19","Female","","false","","","","","[859.5999999046326]","./assets/img/canyon/animals/giraffe.jpg","[""ArrowRight""]","revaluation","canyon","17","{""ArrowUp,ArrowLeft"":26,""ArrowUp,ArrowRight"":10,""ArrowDown,ArrowLeft"":5,""ArrowDown,ArrowRight"":17}","true","ArrowDown,ArrowRight","","original","1","10","","",""
"html-keyboard-response","233","989976","0.0-4.0-4.0-1.5","spark_pilot_norest","8699","5","19","Female","","","","","","","null","<div style=""font-size:60px;"">+</div>","null","fixation","","","","","","","","","11","","",""
"revaluation","234","993990","0.0-4.0-4.0-0.6","spark_pilot_norest","8699","5","19","Female","","false","","","","","[554]","./assets/img/canyon/animals/giraffe.jpg","[""ArrowRight""]","revaluation","canyon","17","{""ArrowUp,ArrowLeft"":26,""ArrowUp,ArrowRight"":10,""ArrowDown,ArrowLeft"":5,""ArrowDown,ArrowRight"":17}","true","ArrowDown,ArrowRight","","original","1","12","","",""
"html-keyboard-response","235","994496","0.0-4.0-4.0-1.6","spark_pilot_norest","8699","5","19","Female","","","","","","","null","<div style=""font-size:60px;"">+</div>","null","fixation","","","","","","","","","13","","",""
"revaluation","236","998512","0.0-4.0-4.0-0.7","spark_pilot_norest","8699","5","19","Female","","false","","","","","[596.7999999523163]","./assets/img/canyon/animals/lion.jpg","[""ArrowLeft""]","revaluation","canyon","26","{""ArrowUp,ArrowLeft"":26,""ArrowUp,ArrowRight"":10,""ArrowDown,ArrowLeft"":5,""ArrowDown,ArrowRight"":17}","true","ArrowUp,ArrowLeft","","original","1","14","","",""
"html-keyboard-response","237","999024","0.0-4.0-4.0-1.7","spark_pilot_norest","8699","5","19","Female","","","","","","","null","<div style=""font-size:60px;"">+</div>","null","fixation","","","","","","","","","15","","",""
"revaluation","238","1003045","0.0-4.0-4.0-0.8","spark_pilot_norest","8699","5","19","Female","","false","","","","","[647.5]","./assets/img/canyon/animals/lion.jpg","[""ArrowLeft""]","revaluation","canyon","26","{""ArrowUp,ArrowLeft"":26,""ArrowUp,ArrowRight"":10,""ArrowDown,ArrowLeft"":5,""ArrowDown,ArrowRight"":17}","true","ArrowUp,ArrowLeft","","original","1","16","","",""
"html-keyboard-response","239","1003552","0.0-4.0-4.0-1.8","spark_pilot_norest","8699","5","19","Female","","","","","","","null","<div style=""font-size:60px;"">+</div>","null","fixation","","","","","","","","","17","","",""
"revaluation","240","1007568","0.0-4.0-4.0-0.9","spark_pilot_norest","8699","5","19","Female","","false","","","","","[614.3999998569489]","./assets/img/canyon/animals/giraffe.jpg","[""ArrowRight""]","revaluation","canyon","17","{""ArrowUp,ArrowLeft"":26,""ArrowUp,ArrowRight"":10,""ArrowDown,ArrowLeft"":5,""ArrowDown,ArrowRight"":17}","true","ArrowDown,ArrowRight","","original","1","18","","",""
"html-keyboard-response","241","1008079","0.0-4.0-4.0-1.9","spark_pilot_norest","8699","5","19","Female","","","","","","","null","<div style=""font-size:60px;"">+</div>","null","fixation","","","","","","","","","19","","",""
"revaluation","242","1012103","0.0-4.0-4.0-0.10","spark_pilot_norest","8699","5","19","Female","","false","","","","","[883.4000000953674]","./assets/img/canyon/animals/lion.jpg","[""ArrowLeft""]","revaluation","canyon","26","{""ArrowUp,ArrowLeft"":26,""ArrowUp,ArrowRight"":10,""ArrowDown,ArrowLeft"":5,""ArrowDown,ArrowRight"":17}","true","ArrowUp,ArrowLeft","","original","1","20","","",""
"html-keyboard-response","243","1012613","0.0-4.0-4.0-1.10","spark_pilot_norest","8699","5","19","Female","","","","","","","null","<div style=""font-size:60px;"">+</div>","null","fixation","","","","","","","","","21","","",""
"revaluation","244","1016629","0.0-4.0-4.0-0.11","spark_pilot_norest","8699","5","19","Female","","false","","","","","[592.0999999046326]","./assets/img/canyon/animals/lion.jpg","[""ArrowLeft""]","revaluation","canyon","26","{""ArrowUp,ArrowLeft"":26,""ArrowUp,ArrowRight"":10,""ArrowDown,ArrowLeft"":5,""ArrowDown,ArrowRight"":17}","true","ArrowUp,ArrowLeft","","original","1","22","","",""
"html-keyboard-response","245","1017135","0.0-4.0-4.0-1.11","spark_pilot_norest","8699","5","19","Female","","","","","","","null","<div style=""font-size:60px;"">+</div>","null","fixation","","","","","","","","","23","","",""
"revaluation","246","1021157","0.0-4.0-4.0-0.12","spark_pilot_norest","8699","5","19","Female","","false","","","","","[516]","./assets/img/canyon/animals/lion.jpg","[""ArrowLeft""]","revaluation","canyon","26","{""ArrowUp,ArrowLeft"":26,""ArrowUp,ArrowRight"":10,""ArrowDown,ArrowLeft"":5,""ArrowDown,ArrowRight"":17}","true","ArrowUp,ArrowLeft","","original","1","24","","",""
"html-keyboard-response","247","1021663","0.0-4.0-4.0-1.12","spark_pilot_norest","8699","5","19","Female","","","","","","","null","<div style=""font-size:60px;"">+</div>","null","fixation","","","","","","","","","25","","",""
"revaluation","248","1025685","0.0-4.0-4.0-0.13","spark_pilot_norest","8699","5","19","Female","","false","","","","","[680.5]","./assets/img/canyon/animals/lion.jpg","[""ArrowLeft""]","revaluation","canyon","26","{""ArrowUp,ArrowLeft"":26,""ArrowUp,ArrowRight"":10,""ArrowDown,ArrowLeft"":5,""ArrowDown,ArrowRight"":17}","true","ArrowUp,ArrowLeft","","original","1","26","","",""
"html-keyboard-response","249","1026191","0.0-4.0-4.0-1.13","spark_pilot_norest","8699","5","19","Female","","","","","","","null","<div style=""font-size:60px;"">+</div>","null","fixation","","","","","","","","","27","","",""
"revaluation","250","1030207","0.0-4.0-4.0-0.14","spark_pilot_norest","8699","5","19","Female","","false","","","","","[606.5999999046326]","./assets/img/canyon/animals/giraffe.jpg","[""ArrowRight""]","revaluation","canyon","17","{""ArrowUp,ArrowLeft"":26,""ArrowUp,ArrowRight"":10,""ArrowDown,ArrowLeft"":5,""ArrowDown,ArrowRight"":17}","true","ArrowDown,ArrowRight","","original","1","28","","",""
"html-keyboard-response","251","1030719","0.0-4.0-4.0-1.14","spark_pilot_norest","8699","5","19","Female","","","","","","","null","<div style=""font-size:60px;"">+</div>","null","fixation","","","","","","","","","29","","",""
"revaluation","252","1034735","0.0-4.0-4.0-0.15","spark_pilot_norest","8699","5","19","Female","","false","","","","","[647.1000001430511]","./assets/img/canyon/animals/lion.jpg","[""ArrowLeft""]","revaluation","canyon","26","{""ArrowUp,ArrowLeft"":26,""ArrowUp,ArrowRight"":10,""ArrowDown,ArrowLeft"":5,""ArrowDown,ArrowRight"":17}","true","ArrowUp,ArrowLeft","","original","1","30","","",""
"html-keyboard-response","253","1035247","0.0-4.0-4.0-1.15","spark_pilot_norest","8699","5","19","Female","","","","","","","null","<div style=""font-size:60px;"">+</div>","null","fixation","","","","","","","","","31","","",""
"revaluation","254","1039268","0.0-4.0-4.0-0.16","spark_pilot_norest","8699","5","19","Female","","false","","","","","[630.9000000953674]","./assets/img/canyon/animals/giraffe.jpg","[""ArrowRight""]","revaluation","canyon","17","{""ArrowUp,ArrowLeft"":26,""ArrowUp,ArrowRight"":10,""ArrowDown,ArrowLeft"":5,""ArrowDown,ArrowRight"":17}","true","ArrowDown,ArrowRight","","original","1","32","","",""
"html-keyboard-response","255","1039780","0.0-4.0-4.0-1.16","spark_pilot_norest","8699","5","19","Female","","","","","","","null","<div style=""font-size:60px;"">+</div>","null","fixation","","","","","","","","","33","","",""
"revaluation","256","1043796","0.0-4.0-4.0-0.17","spark_pilot_norest","8699","5","19","Female","","false","","","","","[525.7999999523163]","./assets/img/canyon/animals/lion.jpg","[""ArrowLeft""]","revaluation","canyon","26","{""ArrowUp,ArrowLeft"":26,""ArrowUp,ArrowRight"":10,""ArrowDown,ArrowLeft"":5,""ArrowDown,ArrowRight"":17}","true","ArrowUp,ArrowLeft","","original","1","34","","",""
"html-keyboard-response","257","1044302","0.0-4.0-4.0-1.17","spark_pilot_norest","8699","5","19","Female","","","","","","","null","<div style=""font-size:60px;"">+</div>","null","fixation","","","","","","","","","35","","",""
"learning-instructions","258","1052839","0.0-4.0-5.0-0.0","spark_pilot_norest","8699","5","19","Female","","","","","","","null","<p> You have almost finished this part of the game! </p>
            <p> We are going to ask you to make a few more choices. </p>","","instructions","","","","","","","","","","","",""
"learning-instructions","259","1068821","0.0-4.0-5.0-0.1","spark_pilot_norest","8699","5","19","Female","","","","","","","null","<p> First, you need to decide whether to go up or down. When you see each picture, use the arrow keys to make your choice. </p>
            <p><b>You will not see which animal you found, but try to get to the one that will give you the most treasure.</b></p>","","instructions","","","","","","","","","","","",""
"html-keyboard-response","260","1069830","0.0-4.0-6.0-0.0","spark_pilot_norest","8699","5","19","Female","","","","","","","null","<div style=""font-size:100px;color:red;"">Starting in...</div>","null","","","","","","","","","","","","",""
"html-keyboard-response","261","1070838","0.0-4.0-6.0-1.0","spark_pilot_norest","8699","5","19","Female","","","","","","","null","<div style=""font-size:200px;color:red;"">3</div>","null","","","","","","","","","","","","",""
"html-keyboard-response","262","1071846","0.0-4.0-6.0-2.0","spark_pilot_norest","8699","5","19","Female","","","","","","","null","<div style=""font-size:200px;color:red;"">2</div>","null","","","","","","","","","","","","",""
"html-keyboard-response","263","1072854","0.0-4.0-6.0-3.0","spark_pilot_norest","8699","5","19","Female","","","","","","","null","<div style=""font-size:200px;color:red;"">1</div>","null","","","","","","","","","","","","",""
"revaluation","264","1073288","0.0-4.0-7.0-0.0","spark_pilot_norest","8699","5","19","Female","","false","","","","","[426.39999985694885]","./assets/img/canyon/test/3.jpg","[""ArrowUp""]","first stage test","canyon","0","{""ArrowUp,ArrowLeft"":26,""ArrowUp,ArrowRight"":10,""ArrowDown,ArrowLeft"":5,""ArrowDown,ArrowRight"":17}","true","ArrowUp","false","original","1","","","",""
"html-keyboard-response","265","1073798","0.0-4.0-7.0-1.0","spark_pilot_norest","8699","5","19","Female","","","","","","","null","<div style=""font-size:60px;"">+</div>","null","fixation","","","","","","","","","","","",""
"revaluation","266","1074694","0.0-4.0-7.0-0.1","spark_pilot_norest","8699","5","19","Female","","false","","","","","[891.5]","./assets/img/canyon/test/2.jpg","[""ArrowUp""]","first stage test","canyon","0","{""ArrowUp,ArrowLeft"":26,""ArrowUp,ArrowRight"":10,""ArrowDown,ArrowLeft"":5,""ArrowDown,ArrowRight"":17}","true","ArrowUp","false","original","1","","","",""
"html-keyboard-response","267","1075202","0.0-4.0-7.0-1.1","spark_pilot_norest","8699","5","19","Female","","","","","","","null","<div style=""font-size:60px;"">+</div>","null","fixation","","","","","","","","","","","",""
"revaluation","268","1075950","0.0-4.0-7.0-0.2","spark_pilot_norest","8699","5","19","Female","","false","","","","","[742.3999998569489]","./assets/img/canyon/test/1.jpg","[""ArrowUp""]","first stage test","canyon","0","{""ArrowUp,ArrowLeft"":26,""ArrowUp,ArrowRight"":10,""ArrowDown,ArrowLeft"":5,""ArrowDown,ArrowRight"":17}","true","ArrowUp","false","original","1","","","",""
"html-keyboard-response","269","1076457","0.0-4.0-7.0-1.2","spark_pilot_norest","8699","5","19","Female","","","","","","","null","<div style=""font-size:60px;"">+</div>","null","fixation","","","","","","","","","","","",""
"revaluation","270","1076923","0.0-4.0-7.0-0.3","spark_pilot_norest","8699","5","19","Female","","false","","","","","[461.7000000476837]","./assets/img/canyon/test/0.jpg","[""ArrowUp""]","first stage test","canyon","0","{""ArrowUp,ArrowLeft"":26,""ArrowUp,ArrowRight"":10,""ArrowDown,ArrowLeft"":5,""ArrowDown,ArrowRight"":17}","true","ArrowUp","false","original","1","","","",""
"html-keyboard-response","271","1077430","0.0-4.0-7.0-1.3","spark_pilot_norest","8699","5","19","Female","","","","","","","null","<div style=""font-size:60px;"">+</div>","null","fixation","","","","","","","","","","","",""
"learning-instructions","272","1090782","0.0-4.0-8.0-0.0","spark_pilot_norest","8699","5","19","Female","","","","","","","null","<p> Now you will see the animals again and can search their chests for treasure. </p>
            <p> This time, you will not see how much treasure you earned, but you will earn more bonus money for making better choices. </p>","","instructions","","","","","","","","","","","",""
"html-keyboard-response","273","1091785","0.0-4.0-9.0-0.0","spark_pilot_norest","8699","5","19","Female","","","","","","","null","<div style=""font-size:100px;color:red;"">Starting in...</div>","null","","","","","","","","","","","","",""
"html-keyboard-response","274","1092795","0.0-4.0-9.0-1.0","spark_pilot_norest","8699","5","19","Female","","","","","","","null","<div style=""font-size:200px;color:red;"">3</div>","null","","","","","","","","","","","","",""
"html-keyboard-response","275","1093805","0.0-4.0-9.0-2.0","spark_pilot_norest","8699","5","19","Female","","","","","","","null","<div style=""font-size:200px;color:red;"">2</div>","null","","","","","","","","","","","","",""
"html-keyboard-response","276","1094813","0.0-4.0-9.0-3.0","spark_pilot_norest","8699","5","19","Female","","","","","","","null","<div style=""font-size:200px;color:red;"">1</div>","null","","","","","","","","","","","","",""
"revaluation","277","1095395","0.0-4.0-10.0-0.0","spark_pilot_norest","8699","5","19","Female","","false","","","","","[576.2000000476837]","./assets/img/canyon/animals/lion.jpg","[""ArrowLeft""]","second stage test","canyon","0","{""ArrowUp,ArrowLeft"":26,""ArrowUp,ArrowRight"":10,""ArrowDown,ArrowLeft"":5,""ArrowDown,ArrowRight"":17}","true","ArrowUp,ArrowLeft","","original","1","","","",""
"html-keyboard-response","278","1095898","0.0-4.0-10.0-1.0","spark_pilot_norest","8699","5","19","Female","","","","","","","null","<div style=""font-size:60px;"">+</div>","null","fixation","","","","","","","","","","","",""
"revaluation","279","1096463","0.0-4.0-10.0-0.1","spark_pilot_norest","8699","5","19","Female","","false","","","","","[561.7999999523163]","./assets/img/canyon/animals/lion.jpg","[""ArrowLeft""]","second stage test","canyon","0","{""ArrowUp,ArrowLeft"":26,""ArrowUp,ArrowRight"":10,""ArrowDown,ArrowLeft"":5,""ArrowDown,ArrowRight"":17}","true","ArrowUp,ArrowLeft","","original","1","","","",""
"html-keyboard-response","280","1096973","0.0-4.0-10.0-1.1","spark_pilot_norest","8699","5","19","Female","","","","","","","null","<div style=""font-size:60px;"">+</div>","null","fixation","","","","","","","","","","","",""
"revaluation","281","1097423","0.0-4.0-10.0-0.2","spark_pilot_norest","8699","5","19","Female","","false","","","","","[445.59999990463257]","./assets/img/canyon/animals/lion.jpg","[""ArrowLeft""]","second stage test","canyon","0","{""ArrowUp,ArrowLeft"":26,""ArrowUp,ArrowRight"":10,""ArrowDown,ArrowLeft"":5,""ArrowDown,ArrowRight"":17}","true","ArrowUp,ArrowLeft","","original","1","","","",""
"html-keyboard-response","282","1097931","0.0-4.0-10.0-1.2","spark_pilot_norest","8699","5","19","Female","","","","","","","null","<div style=""font-size:60px;"">+</div>","null","fixation","","","","","","","","","","","",""
"revaluation","283","1098336","0.0-4.0-10.0-0.3","spark_pilot_norest","8699","5","19","Female","","false","","","","","[402.7000000476837]","./assets/img/canyon/animals/lion.jpg","[""ArrowLeft""]","second stage test","canyon","0","{""ArrowUp,ArrowLeft"":26,""ArrowUp,ArrowRight"":10,""ArrowDown,ArrowLeft"":5,""ArrowDown,ArrowRight"":17}","true","ArrowUp,ArrowLeft","","original","1","","","",""
"html-keyboard-response","284","1098845","0.0-4.0-10.0-1.3","spark_pilot_norest","8699","5","19","Female","","","","","","","null","<div style=""font-size:60px;"">+</div>","null","fixation","","","","","","","","","","","",""
"revaluation","285","1099304","0.0-4.0-10.0-0.4","spark_pilot_norest","8699","5","19","Female","","false","","","","","[454.59999990463257]","./assets/img/canyon/animals/giraffe.jpg","[""ArrowRight""]","second stage test","canyon","0","{""ArrowUp,ArrowLeft"":26,""ArrowUp,ArrowRight"":10,""ArrowDown,ArrowLeft"":5,""ArrowDown,ArrowRight"":17}","true","ArrowDown,ArrowRight","","original","1","","","",""
"html-keyboard-response","286","1099809","0.0-4.0-10.0-1.4","spark_pilot_norest","8699","5","19","Female","","","","","","","null","<div style=""font-size:60px;"">+</div>","null","fixation","","","","","","","","","","","",""
"revaluation","287","1100229","0.0-4.0-10.0-0.5","spark_pilot_norest","8699","5","19","Female","","false","","","","","[415.5]","./assets/img/canyon/animals/giraffe.jpg","[""ArrowRight""]","second stage test","canyon","0","{""ArrowUp,ArrowLeft"":26,""ArrowUp,ArrowRight"":10,""ArrowDown,ArrowLeft"":5,""ArrowDown,ArrowRight"":17}","true","ArrowDown,ArrowRight","","original","1","","","",""
"html-keyboard-response","288","1100741","0.0-4.0-10.0-1.5","spark_pilot_norest","8699","5","19","Female","","","","","","","null","<div style=""font-size:60px;"">+</div>","null","fixation","","","","","","","","","","","",""
"revaluation","289","1101145","0.0-4.0-10.0-0.6","spark_pilot_norest","8699","5","19","Female","","false","","","","","[399.5]","./assets/img/canyon/animals/giraffe.jpg","[""ArrowRight""]","second stage test","canyon","0","{""ArrowUp,ArrowLeft"":26,""ArrowUp,ArrowRight"":10,""ArrowDown,ArrowLeft"":5,""ArrowDown,ArrowRight"":17}","true","ArrowDown,ArrowRight","","original","1","","","",""
"html-keyboard-response","290","1101649","0.0-4.0-10.0-1.6","spark_pilot_norest","8699","5","19","Female","","","","","","","null","<div style=""font-size:60px;"">+</div>","null","fixation","","","","","","","","","","","",""
"revaluation","291","1102075","0.0-4.0-10.0-0.7","spark_pilot_norest","8699","5","19","Female","","false","","","","","[421.90000009536743]","./assets/img/canyon/animals/giraffe.jpg","[""ArrowRight""]","second stage test","canyon","0","{""ArrowUp,ArrowLeft"":26,""ArrowUp,ArrowRight"":10,""ArrowDown,ArrowLeft"":5,""ArrowDown,ArrowRight"":17}","true","ArrowDown,ArrowRight","","original","1","","","",""
"html-keyboard-response","292","1102577","0.0-4.0-10.0-1.7","spark_pilot_norest","8699","5","19","Female","","","","","","","null","<div style=""font-size:60px;"">+</div>","null","fixation","","","","","","","","","","","",""
"learning-instructions","293","1106768","0.0-4.0-0.1-0.2","spark_pilot_norest","8699","5","19","Female","","","","","","","1482.8999998569489","<p> This time you are searching for treasure in the <b>ocean</b>.</p>","","instructions","","","","","","","","","","","",""
"learning-instructions","294","1124988","0.0-4.0-0.1-0.3","spark_pilot_norest","8699","5","19","Female","","","","","","","963.7000000476837","<p><b>New</b> animals with <b>new</b> treasure chests live here. You need to explore to discover where the animal with the best treasure chest is.</p>
                    <p> Like before, once you figure out which animal has the chest with the most treasure, you should try to get to that animal and select that chest! </p>","","instructions","","","","","","","","","","","",""
"learning-instructions","295","1140819","0.0-4.0-1.1-0.1","spark_pilot_norest","8699","5","19","Female","","","","","","","1102.5","<p> Remember, when you see a picture of the place, use the up and down keys to <b>find an animal</b>.</p>
            <p> When you encounter an animal, you should use the left and right keys to <b>select a treasure chest</b>.</p>
            <p> Don't forget to look out for the robber! </p>","","instructions","","","","","","","","","","","",""
"revaluation","296","1146852","0.0-4.0-2.1-0.50","spark_pilot_norest","8699","5","19","Female","","false","","","","","[1233.7999999523163,652.3999998569489]","./assets/img/ocean/memory/29.jpg","[""ArrowUp"",""ArrowLeft""]","value training","ocean","23","{""ArrowUp,ArrowLeft"":23,""ArrowUp,ArrowRight"":10,""ArrowDown,ArrowLeft"":8,""ArrowDown,ArrowRight"":30}","false","ArrowUp,ArrowLeft","false","revaluation","2","0","","",""
"html-keyboard-response","297","1147364","0.0-4.0-2.1-1.50","spark_pilot_norest","8699","5","19","Female","","","","","","","null","<div style=""font-size:60px;"">+</div>","null","fixation","","","","","","","","","1","","",""
"revaluation","298","1153396","0.0-4.0-2.1-0.51","spark_pilot_norest","8699","5","19","Female","","false","","","","","[655.6999998092651,403.89999985694885]","./assets/img/ocean/memory/39.jpg","[""ArrowUp"",""ArrowRight""]","value training","ocean","10","{""ArrowUp,ArrowLeft"":23,""ArrowUp,ArrowRight"":10,""ArrowDown,ArrowLeft"":8,""ArrowDown,ArrowRight"":30}","false","ArrowUp,ArrowRight","false","revaluation","2","2","","",""
"html-keyboard-response","299","1153908","0.0-4.0-2.1-1.51","spark_pilot_norest","8699","5","19","Female","","","","","","","null","<div style=""font-size:60px;"">+</div>","null","fixation","","","","","","","","","3","","",""
"revaluation","300","1159940","0.0-4.0-2.1-0.52","spark_pilot_norest","8699","5","19","Female","","false","","","","","[563.5,389.39999985694885]","./assets/img/ocean/memory/12.jpg","[""ArrowDown"",""ArrowRight""]","value training","ocean","30","{""ArrowUp,ArrowLeft"":23,""ArrowUp,ArrowRight"":10,""ArrowDown,ArrowLeft"":8,""ArrowDown,ArrowRight"":30}","true","ArrowDown,ArrowRight","false","revaluation","2","4","","",""
"html-keyboard-response","301","1160451","0.0-4.0-2.1-1.52","spark_pilot_norest","8699","5","19","Female","","","","","","","null","<div style=""font-size:60px;"">+</div>","null","fixation","","","","","","","","","5","","",""
"revaluation","302","1164472","0.0-4.0-2.1-0.53","spark_pilot_norest","8699","5","19","Female","","false","","","","","[1635.0999999046326]","./assets/img/ocean/catch/1.jpg","[""spaceBar""]","value training","ocean","0","{""ArrowUp,ArrowLeft"":23,""ArrowUp,ArrowRight"":10,""ArrowDown,ArrowLeft"":8,""ArrowDown,ArrowRight"":30}","true","spaceBar","true","revaluation","2","6","","",""
"html-keyboard-response","303","1164979","0.0-4.0-2.1-1.53","spark_pilot_norest","8699","5","19","Female","","","","","","","null","<div style=""font-size:60px;"">+</div>","null","fixation","","","","","","","","","7","","",""
"revaluation","304","1171012","0.0-4.0-2.1-0.54","spark_pilot_norest","8699","5","19","Female","","false","","","","","[919.4000000953674,424.89999985694885]","./assets/img/ocean/memory/1.jpg","[""ArrowDown"",""ArrowLeft""]","value training","ocean","8","{""ArrowUp,ArrowLeft"":23,""ArrowUp,ArrowRight"":10,""ArrowDown,ArrowLeft"":8,""ArrowDown,ArrowRight"":30}","false","ArrowDown,ArrowLeft","false","revaluation","2","8","","",""
"html-keyboard-response","305","1171519","0.0-4.0-2.1-1.54","spark_pilot_norest","8699","5","19","Female","","","","","","","null","<div style=""font-size:60px;"">+</div>","null","fixation","","","","","","","","","9","","",""
"revaluation","306","1177545","0.0-4.0-2.1-0.55","spark_pilot_norest","8699","5","19","Female","","false","","","","","[451.2000000476837,456.59999990463257]","./assets/img/ocean/memory/19.jpg","[""ArrowDown"",""ArrowRight""]","value training","ocean","30","{""ArrowUp,ArrowLeft"":23,""ArrowUp,ArrowRight"":10,""ArrowDown,ArrowLeft"":8,""ArrowDown,ArrowRight"":30}","true","ArrowDown,ArrowRight","false","revaluation","2","10","","",""
"html-keyboard-response","307","1178057","0.0-4.0-2.1-1.55","spark_pilot_norest","8699","5","19","Female","","","","","","","null","<div style=""font-size:60px;"">+</div>","null","fixation","","","","","","","","","11","","",""
"revaluation","308","1184083","0.0-4.0-2.1-0.56","spark_pilot_norest","8699","5","19","Female","","false","","","","","[451.09999990463257,366.19999980926514]","./assets/img/ocean/memory/40.jpg","[""ArrowDown"",""ArrowRight""]","value training","ocean","30","{""ArrowUp,ArrowLeft"":23,""ArrowUp,ArrowRight"":10,""ArrowDown,ArrowLeft"":8,""ArrowDown,ArrowRight"":30}","true","ArrowDown,ArrowRight","false","revaluation","2","12","","",""
"html-keyboard-response","309","1184594","0.0-4.0-2.1-1.56","spark_pilot_norest","8699","5","19","Female","","","","","","","null","<div style=""font-size:60px;"">+</div>","null","fixation","","","","","","","","","13","","",""
"revaluation","310","1190617","0.0-4.0-2.1-0.57","spark_pilot_norest","8699","5","19","Female","","false","","","","","[392.2000000476837,353.69999980926514]","./assets/img/ocean/memory/38.jpg","[""ArrowDown"",""ArrowRight""]","value training","ocean","30","{""ArrowUp,ArrowLeft"":23,""ArrowUp,ArrowRight"":10,""ArrowDown,ArrowLeft"":8,""ArrowDown,ArrowRight"":30}","true","ArrowDown,ArrowRight","false","revaluation","2","14","","",""
"html-keyboard-response","311","1191128","0.0-4.0-2.1-1.57","spark_pilot_norest","8699","5","19","Female","","","","","","","null","<div style=""font-size:60px;"">+</div>","null","fixation","","","","","","","","","15","","",""
