"trial_type","trial_index","time_elapsed","internal_node_id","task_version","subject_id","assigned_condition","age","gender","success","timeout","failed_images","failed_audio","failed_video","browser_interaction","rt","stimulus","response","task_part","environment","score","rewardMap","correct","fullState","isCatch","condition","order","trial_num","key_press","ground_truth","bonus"
"pavlovia","0","1077","0.0-0.0","spark_pilot_norest","8597","7","12","Male","","","","","","","","","","","","","","","","","","","","","",""
"preload","1","27622","0.0-1.0","spark_pilot_norest","8597","7","12","Male","true","false","[]","[]","[]","[{""event"":""blur"",""trial"":2,""time"":36815},{""event"":""focus"",""trial"":2,""time"":45673},{""event"":""fullscreenenter"",""trial"":2,""time"":45904},{""event"":""blur"",""trial"":11,""time"":136469},{""event"":""focus"",""trial"":11,""time"":139336},{""event"":""blur"",""trial"":13,""time"":162483},{""event"":""focus"",""trial"":13,""time"":164510},{""event"":""blur"",""trial"":61,""time"":373310},{""event"":""focus"",""trial"":61,""time"":377214},{""event"":""blur"",""trial"":115,""time"":617304},{""event"":""focus"",""trial"":115,""time"":620846},{""event"":""blur"",""trial"":115,""time"":621135},{""event"":""focus"",""trial"":115,""time"":642395},{""event"":""blur"",""trial"":217,""time"":985943},{""event"":""focus"",""trial"":219,""time"":992280},{""event"":""blur"",""trial"":270,""time"":1171230},{""event"":""focus"",""trial"":291,""time"":1265447},{""event"":""blur"",""trial"":292,""time"":1466806},{""event"":""focus"",""trial"":292,""time"":16363039},{""event"":""blur"",""trial"":336,""time"":16516501},{""event"":""focus"",""trial"":337,""time"":16519453},{""event"":""blur"",""trial"":468,""time"":16861943},{""event"":""focus"",""trial"":468,""time"":16862174}]","","","","","","","","","","","","","","","",""
"fullscreen","2","46899","0.0-2.0","spark_pilot_norest","8597","7","12","Male","true","","","","","","","","","","","","","","","","","","","","",""
"audio-button-response","3","51643","0.0-3.0-0.0-0.0","spark_pilot_norest","8597","7","12","Male","","","","","","","4661","./assets/audio/audiotest/turtle.mp3","4","audio_test","","","","","","","","","","","",""
"audio-button-response","4","61705","0.0-3.0-0.1-0.1","spark_pilot_norest","8597","7","12","Male","","","","","","","9051","./assets/audio/audiotest/turtle.mp3","4","audio_test","","","","","","","","","","","",""
"audio-button-response","5","65330","0.0-3.0-0.2-0.2","spark_pilot_norest","8597","7","12","Male","","","","","","","2608","./assets/audio/audiotest/turtle.mp3","2","audio_test","","","","","","","","","","","",""
"learning-instructions","6","75928","0.0-3.0-1.0-0.0","spark_pilot_norest","8597","7","12","Male","","","","","","","3607.199999809265","<p> Welcome! Please remember to stay in fullscreen mode and don't click away from the experiment. </p>","","instructions","","","","","","","","","","","",""
"learning-instructions","7","88495","0.0-3.0-1.0-0.1","spark_pilot_norest","8597","7","12","Male","","","","","","","4148","<p> Today you will be playing a game to earn treasure. </p>
            <p> At the end of the experiment, you will earn a bonus based on how much treasure you find. </p>
            <img src='./assets/img/instructions/treasure.jpg' class='instructions-image'>","","instructions","","","","","","","","","","","",""
"learning-instructions","8","99652","0.0-3.0-1.0-0.2","spark_pilot_norest","8597","7","12","Male","","","","","","","2895.5","<p> Animals have hidden treasure in treasure chests. </p>
            <p> You need to first find an animal and then choose which of their treasure chests to search. </p>
            <img src='./assets/img/space/animals/cat.jpg' class='instructions-image'>","","instructions","","","","","","","","","","","",""
"learning-instructions","9","115049","0.0-3.0-1.0-0.3","spark_pilot_norest","8597","7","12","Male","","","","","","","2253.2999999523163","<p> In each round, you will search for treasure in a different place. In the real game, there will be two rounds. </p>
            <p> You will begin with a separate, practice round where you will search for treasure in outer space. </p>
            <img src='./assets/img/space/0.jpg' class='instructions-image'>","","instructions","","","","","","","","","","","",""
"learning-instructions","10","127980","0.0-3.0-1.0-0.4","spark_pilot_norest","8597","7","12","Male","","","","","","[{""event"":""blur"",""trial"":2,""time"":36815},{""event"":""focus"",""trial"":2,""time"":45673},{""event"":""fullscreenenter"",""trial"":2,""time"":45904},{""event"":""blur"",""trial"":11,""time"":136469},{""event"":""focus"",""trial"":11,""time"":139336},{""event"":""blur"",""trial"":13,""time"":162483},{""event"":""focus"",""trial"":13,""time"":164510},{""event"":""blur"",""trial"":61,""time"":373310},{""event"":""focus"",""trial"":61,""time"":377214},{""event"":""blur"",""trial"":115,""time"":617304},{""event"":""focus"",""trial"":115,""time"":620846},{""event"":""blur"",""trial"":115,""time"":621135},{""event"":""focus"",""trial"":115,""time"":642395},{""event"":""blur"",""trial"":217,""time"":985943},{""event"":""focus"",""trial"":219,""time"":992280},{""event"":""blur"",""trial"":270,""time"":1171230},{""event"":""focus"",""trial"":291,""time"":1265447},{""event"":""blur"",""trial"":292,""time"":1466806},{""event"":""focus"",""trial"":292,""time"":16363039},{""event"":""blur"",""trial"":336,""time"":16516501},{""event"":""focus"",""trial"":337,""time"":16519453},{""event"":""blur"",""trial"":468,""time"":16861943},{""event"":""focus"",""trial"":468,""time"":16862174}]","1514.1999998092651","<p> On every turn, you will see a picture of the place that you are in, but the specific image may be different each time. </p>
            <p> For example, both of these images mean you are in outer space. </p>
            <img src='./assets/img/instructions/outerspace.jpg' class='instructions-image'>","","instructions","","","","","","","","","","","",""
"learning-instructions","11","140180","0.0-3.0-1.0-0.5","spark_pilot_norest","8597","7","12","Male","","","","","","","4374.5","<p> You need to decide which direction to travel in. </p>
            <p> You can choose between going <b>up or down</b> by using the arrow keys. </p>
            <img src='./assets/img/instructions/updown.jpg' class='instructions-image'>","","instructions","","","","","","","","","","","",""
"learning-instructions","12","152928","0.0-3.0-1.0-0.6","spark_pilot_norest","8597","7","12","Male","","","","","","[{""event"":""blur"",""trial"":2,""time"":36815},{""event"":""focus"",""trial"":2,""time"":45673},{""event"":""fullscreenenter"",""trial"":2,""time"":45904},{""event"":""blur"",""trial"":11,""time"":136469},{""event"":""focus"",""trial"":11,""time"":139336},{""event"":""blur"",""trial"":13,""time"":162483},{""event"":""focus"",""trial"":13,""time"":164510},{""event"":""blur"",""trial"":61,""time"":373310},{""event"":""focus"",""trial"":61,""time"":377214},{""event"":""blur"",""trial"":115,""time"":617304},{""event"":""focus"",""trial"":115,""time"":620846},{""event"":""blur"",""trial"":115,""time"":621135},{""event"":""focus"",""trial"":115,""time"":642395},{""event"":""blur"",""trial"":217,""time"":985943},{""event"":""focus"",""trial"":219,""time"":992280},{""event"":""blur"",""trial"":270,""time"":1171230},{""event"":""focus"",""trial"":291,""time"":1265447},{""event"":""blur"",""trial"":292,""time"":1466806},{""event"":""focus"",""trial"":292,""time"":16363039},{""event"":""blur"",""trial"":336,""time"":16516501},{""event"":""focus"",""trial"":337,""time"":16519453},{""event"":""blur"",""trial"":468,""time"":16861943},{""event"":""focus"",""trial"":468,""time"":16862174}]","3942.600000143051","<p> You will have <b>2 seconds</b> to make your choice. </p>
            <p> If you do not make a choice within 2 seconds, you will not find an animal or earn treasure. </p>
            <img src='./assets/img/instructions/2seconds.jpg' class='instructions-image'>","","instructions","","","","","","","","","","","",""
"learning-instructions","13","166837","0.0-3.0-1.0-0.7","spark_pilot_norest","8597","7","12","Male","","","","","","","6881.299999952316","<p> Let’s try practicing that now! </p>
            <p> When you see a picture of the place you are in, press the <b>up</b> key to travel up. </p>
            <img src='./assets/img/instructions/pressUp.jpg' class='instructions-image'>","","instructions","","","","","","","","","","","",""
"revaluation","14","170861","0.0-3.0-2.0-0.0","spark_pilot_norest","8597","7","12","Male","","false","","","","","[1371.7000000476837]","./assets/img/space/0.jpg","[""ArrowUp""]","first stage practice","space","0","null","null","ArrowUp","false","","","","","",""
"html-keyboard-response","15","171374","0.0-3.0-2.0-1.0","spark_pilot_norest","8597","7","12","Male","","","","","","","null","<div style=""font-size:60px;"">+</div>","null","fixation","","","","","","","","","","","",""
"revaluation","16","175393","0.0-3.0-2.0-0.1","spark_pilot_norest","8597","7","12","Male","","true","","","","","[]","./assets/img/space/1.jpg","[]","first stage practice","space","-5","null","null","","false","","","","","",""
"html-keyboard-response","17","175894","0.0-3.0-2.0-1.1","spark_pilot_norest","8597","7","12","Male","","","","","","","null","<div style=""font-size:60px;"">+</div>","null","fixation","","","","","","","","","","","",""
"revaluation","18","179928","0.0-3.0-2.0-0.2","spark_pilot_norest","8597","7","12","Male","","false","","","","","[23.59999990463257]","./assets/img/space/2.jpg","[""ArrowUp""]","first stage practice","space","0","null","null","ArrowUp","false","","","","","",""
"html-keyboard-response","19","180442","0.0-3.0-2.0-1.2","spark_pilot_norest","8597","7","12","Male","","","","","","","null","<div style=""font-size:60px;"">+</div>","null","fixation","","","","","","","","","","","",""
"learning-instructions","20","187542","0.0-3.0-3.0-0.0","spark_pilot_norest","8597","7","12","Male","","","","","","","2404.5999999046326","<p> Great job! Now try pressing the <b>down</b> key to travel down. </p>
            <img src='./assets/img/instructions/pressDown.jpg' class='instructions-image'>","","instructions","","","","","","","","","","","",""
"revaluation","21","191557","0.0-3.0-4.0-0.0","spark_pilot_norest","8597","7","12","Male","","false","","","","","[441]","./assets/img/space/3.jpg","[""ArrowDown""]","first stage practice","space","0","null","null","ArrowDown","false","","","","","",""
"html-keyboard-response","22","192058","0.0-3.0-4.0-1.0","spark_pilot_norest","8597","7","12","Male","","","","","","","null","<div style=""font-size:60px;"">+</div>","null","fixation","","","","","","","","","","","",""
"revaluation","23","196082","0.0-3.0-4.0-0.1","spark_pilot_norest","8597","7","12","Male","","false","","","","","[24.700000047683716]","./assets/img/space/4.jpg","[""ArrowDown""]","first stage practice","space","0","null","null","ArrowDown","false","","","","","",""
"html-keyboard-response","24","196598","0.0-3.0-4.0-1.1","spark_pilot_norest","8597","7","12","Male","","","","","","","null","<div style=""font-size:60px;"">+</div>","null","fixation","","","","","","","","","","","",""
"revaluation","25","200614","0.0-3.0-4.0-0.2","spark_pilot_norest","8597","7","12","Male","","false","","","","","[1.6000001430511475]","./assets/img/space/5.jpg","[""ArrowDown""]","first stage practice","space","0","null","null","ArrowDown","false","","","","","",""
"html-keyboard-response","26","201119","0.0-3.0-4.0-1.2","spark_pilot_norest","8597","7","12","Male","","","","","","","null","<div style=""font-size:60px;"">+</div>","null","fixation","","","","","","","","","","","",""
"learning-instructions","27","214237","0.0-3.0-5.0-0.0","spark_pilot_norest","8597","7","12","Male","","","","","","","3260.7000000476837","<p> The animals don’t move, so the animal in the upper part of a place will stay in the upper part of a place, and the animal in the lower part of a place will stay in the lower part of a place. </p>","","instructions","","","","","","","","","","","",""
"learning-instructions","28","224727","0.0-3.0-5.0-0.1","spark_pilot_norest","8597","7","12","Male","","","","","","","1370.5999999046326","<p> Each animal has two treasure chests for you to choose from. </p>
            <p> The amount of treasure in each chest can range from <b> 0 to 40 pieces.</b></p>","","instructions","","","","","","","","","","","",""
"learning-instructions","29","237144","0.0-3.0-5.0-0.2","spark_pilot_norest","8597","7","12","Male","","","","","","","1227.6999998092651","<p> You should decide which chest to search for treasure by using the <b>left</b> and <b>right</b> arrow keys. </p>
            <p><b> Pay attention to which animal is on the screen, as the animals have different treasure chests. </b></p>
            <img src='./assets/img/instructions/leftright.jpg' class='instructions-image'>","","instructions","","","","","","","","","","","",""
"learning-instructions","30","244464","0.0-3.0-5.0-0.3","spark_pilot_norest","8597","7","12","Male","","","","","","","957.4000000953674","<p> Let’s try practicing that now. </p>
            <p> When you see an animal, choose which chest to search for treasure. </p>
            <img src='./assets/img/instructions/chooseChest.jpg' class='instructions-image'>","","instructions","","","","","","","","","","","",""
"revaluation","31","248496","0.0-3.0-6.0-0.0","spark_pilot_norest","8597","7","12","Male","","false","","","","","[661.8999998569489]","./assets/img/space/animals/cat.jpg","[""ArrowLeft""]","second stage practice","space","3","{""ArrowUp,ArrowLeft"":3,""ArrowUp,ArrowRight"":36,""ArrowDown,ArrowLeft"":15,""ArrowDown,ArrowRight"":23}","false","ArrowUp,ArrowLeft","","","","","","",""
"html-keyboard-response","32","248997","0.0-3.0-6.0-1.0","spark_pilot_norest","8597","7","12","Male","","","","","","","null","<div style=""font-size:60px;"">+</div>","null","fixation","","","","","","","","","","","",""
"revaluation","33","253012","0.0-3.0-6.0-0.1","spark_pilot_norest","8597","7","12","Male","","false","","","","","[327.7000000476837]","./assets/img/space/animals/rabbit.jpg","[""ArrowRight""]","second stage practice","space","23","{""ArrowUp,ArrowLeft"":3,""ArrowUp,ArrowRight"":36,""ArrowDown,ArrowLeft"":15,""ArrowDown,ArrowRight"":23}","true","ArrowDown,ArrowRight","","","","","","",""
"html-keyboard-response","34","253525","0.0-3.0-6.0-1.1","spark_pilot_norest","8597","7","12","Male","","","","","","","null","<div style=""font-size:60px;"">+</div>","null","fixation","","","","","","","","","","","",""
"revaluation","35","257549","0.0-3.0-6.0-0.2","spark_pilot_norest","8597","7","12","Male","","false","","","","","[467.10000014305115]","./assets/img/space/animals/cat.jpg","[""ArrowLeft""]","second stage practice","space","3","{""ArrowUp,ArrowLeft"":3,""ArrowUp,ArrowRight"":36,""ArrowDown,ArrowLeft"":15,""ArrowDown,ArrowRight"":23}","false","ArrowUp,ArrowLeft","","","","","","",""
"html-keyboard-response","36","258065","0.0-3.0-6.0-1.2","spark_pilot_norest","8597","7","12","Male","","","","","","","null","<div style=""font-size:60px;"">+</div>","null","fixation","","","","","","","","","","","",""
"revaluation","37","262083","0.0-3.0-6.0-0.3","spark_pilot_norest","8597","7","12","Male","","false","","","","","[380.2000000476837]","./assets/img/space/animals/rabbit.jpg","[""ArrowRight""]","second stage practice","space","23","{""ArrowUp,ArrowLeft"":3,""ArrowUp,ArrowRight"":36,""ArrowDown,ArrowLeft"":15,""ArrowDown,ArrowRight"":23}","true","ArrowDown,ArrowRight","","","","","","",""
"html-keyboard-response","38","262585","0.0-3.0-6.0-1.3","spark_pilot_norest","8597","7","12","Male","","","","","","","null","<div style=""font-size:60px;"">+</div>","null","fixation","","","","","","","","","","","",""
"learning-instructions","39","280641","0.0-3.0-7.0-0.0","spark_pilot_norest","8597","7","12","Male","","","","","","","1255.1000001430511","<p> Great job. Now let’s try putting it together. </p>
            <p> On each turn, you will first see a picture to remind you of the place you are in, and you need to choose whether to go up or down. </p>
            <p> Then you will see an animal and choose which of its chests to search for treasure. </p>","","instructions","","","","","","","","","","","",""
"learning-instructions","40","290159","0.0-3.0-7.0-0.1","spark_pilot_norest","8597","7","12","Male","","","","","","","1253","<p> When you choose whether to go up or down, try to go to the animal with the chest with the most treasure. </p>
            <p> Try practicing that now! </p>","","instructions","","","","","","","","","","","",""
"revaluation","41","296191","0.0-3.0-8.0-0.0","spark_pilot_norest","8597","7","12","Male","","false","","","","","[914.2000000476837,365.7999999523163]","./assets/img/space/6.jpg","[""ArrowUp"",""ArrowRight""]","full practice","space","36","{""ArrowUp,ArrowLeft"":3,""ArrowUp,ArrowRight"":36,""ArrowDown,ArrowLeft"":15,""ArrowDown,ArrowRight"":23}","true","ArrowUp,ArrowRight","false","","","","","",""
"html-keyboard-response","42","296706","0.0-3.0-8.0-1.0","spark_pilot_norest","8597","7","12","Male","","","","","","","null","<div style=""font-size:60px;"">+</div>","null","fixation","","","","","","","","","","","",""
"revaluation","43","302729","0.0-3.0-8.0-0.1","spark_pilot_norest","8597","7","12","Male","","false","","","","","[506.10000014305115,421.89999985694885]","./assets/img/space/7.jpg","[""ArrowUp"",""ArrowRight""]","full practice","space","36","{""ArrowUp,ArrowLeft"":3,""ArrowUp,ArrowRight"":36,""ArrowDown,ArrowLeft"":15,""ArrowDown,ArrowRight"":23}","true","ArrowUp,ArrowRight","false","","","","","",""
"html-keyboard-response","44","303244","0.0-3.0-8.0-1.1","spark_pilot_norest","8597","7","12","Male","","","","","","","null","<div style=""font-size:60px;"">+</div>","null","fixation","","","","","","","","","","","",""
"revaluation","45","309275","0.0-3.0-8.0-0.2","spark_pilot_norest","8597","7","12","Male","","false","","","","","[309.2000000476837,17.799999952316284]","./assets/img/space/8.jpg","[""ArrowUp"",""ArrowRight""]","full practice","space","36","{""ArrowUp,ArrowLeft"":3,""ArrowUp,ArrowRight"":36,""ArrowDown,ArrowLeft"":15,""ArrowDown,ArrowRight"":23}","true","ArrowUp,ArrowRight","false","","","","","",""
"html-keyboard-response","46","309779","0.0-3.0-8.0-1.2","spark_pilot_norest","8597","7","12","Male","","","","","","","null","<div style=""font-size:60px;"">+</div>","null","fixation","","","","","","","","","","","",""
"revaluation","47","315817","0.0-3.0-8.0-0.3","spark_pilot_norest","8597","7","12","Male","","false","","","","","[770.7000000476837,138.29999995231628]","./assets/img/space/9.jpg","[""ArrowUp"",""ArrowRight""]","full practice","space","36","{""ArrowUp,ArrowLeft"":3,""ArrowUp,ArrowRight"":36,""ArrowDown,ArrowLeft"":15,""ArrowDown,ArrowRight"":23}","true","ArrowUp,ArrowRight","false","","","","","",""
"html-keyboard-response","48","316318","0.0-3.0-8.0-1.3","spark_pilot_norest","8597","7","12","Male","","","","","","","null","<div style=""font-size:60px;"">+</div>","null","fixation","","","","","","","","","","","",""
"revaluation","49","322338","0.0-3.0-8.0-0.4","spark_pilot_norest","8597","7","12","Male","","false","","","","","[347.39999985694885,554]","./assets/img/space/10.jpg","[""ArrowUp"",""ArrowRight""]","full practice","space","36","{""ArrowUp,ArrowLeft"":3,""ArrowUp,ArrowRight"":36,""ArrowDown,ArrowLeft"":15,""ArrowDown,ArrowRight"":23}","true","ArrowUp,ArrowRight","false","","","","","",""
"html-keyboard-response","50","322840","0.0-3.0-8.0-1.4","spark_pilot_norest","8597","7","12","Male","","","","","","","null","<div style=""font-size:60px;"">+</div>","null","fixation","","","","","","","","","","","",""
"learning-instructions","51","334676","0.0-3.0-9.0-0.0","spark_pilot_norest","8597","7","12","Male","","","","","","","1529.2999999523163","<p> One last thing: sometimes, you will see a robber. The robber can be anywhere in the picture. </p>
            <p> If you do not stop them, you will lose treasure. </p>
            <img src='./assets/img/instructions/robber.jpg' class='instructions-image'>","","instructions","","","","","","","","","","","",""
"learning-instructions","52","343149","0.0-3.0-9.0-0.1","spark_pilot_norest","8597","7","12","Male","","","","","","","1302.5","<p> If you see the robber, you should <b>press the space bar</b> rather than using the arrow keys. </p>
            <p> Try practicing that now! </p>","","instructions","","","","","","","","","","","",""
"revaluation","53","347171","0.0-3.0-10.0-0.0","spark_pilot_norest","8597","7","12","Male","","false","","","","","[826.7000000476837]","./assets/img/space/catch/0.jpg","[""spaceBar""]","catch practice","space","0","{""ArrowUp,ArrowLeft"":3,""ArrowUp,ArrowRight"":36,""ArrowDown,ArrowLeft"":15,""ArrowDown,ArrowRight"":23}","true","spaceBar","true","","","","","",""
"html-keyboard-response","54","347681","0.0-3.0-10.0-1.0","spark_pilot_norest","8597","7","12","Male","","","","","","","null","<div style=""font-size:60px;"">+</div>","null","fixation","","","","","","","","","","","",""
"revaluation","55","351694","0.0-3.0-10.0-0.1","spark_pilot_norest","8597","7","12","Male","","false","","","","","[450.2000000476837]","./assets/img/space/catch/1.jpg","[""spaceBar""]","catch practice","space","0","{""ArrowUp,ArrowLeft"":3,""ArrowUp,ArrowRight"":36,""ArrowDown,ArrowLeft"":15,""ArrowDown,ArrowRight"":23}","true","spaceBar","true","","","","","",""
"html-keyboard-response","56","352209","0.0-3.0-10.0-1.1","spark_pilot_norest","8597","7","12","Male","","","","","","","null","<div style=""font-size:60px;"">+</div>","null","fixation","","","","","","","","","","","",""
"revaluation","57","356234","0.0-3.0-10.0-0.2","spark_pilot_norest","8597","7","12","Male","","false","","","","","[138]","./assets/img/space/catch/2.jpg","[""spaceBar""]","catch practice","space","0","{""ArrowUp,ArrowLeft"":3,""ArrowUp,ArrowRight"":36,""ArrowDown,ArrowLeft"":15,""ArrowDown,ArrowRight"":23}","true","spaceBar","true","","","","","",""
"html-keyboard-response","58","356749","0.0-3.0-10.0-1.2","spark_pilot_norest","8597","7","12","Male","","","","","","","null","<div style=""font-size:60px;"">+</div>","null","fixation","","","","","","","","","","","",""
"learning-instructions","59","363271","0.0-3.0-11.0-0.0-0.0","spark_pilot_norest","8597","7","12","Male","","","","","","","1264.7000000476837","<p> Now, you will practice a shortened version of the game to get a sense of how it all fits together. </p>","","instructions","","","","","","","","","","","",""
"learning-instructions","60","369154","0.0-3.0-11.0-0.0-0.1","spark_pilot_norest","8597","7","12","Male","","","","","","[{""event"":""blur"",""trial"":2,""time"":36815},{""event"":""focus"",""trial"":2,""time"":45673},{""event"":""fullscreenenter"",""trial"":2,""time"":45904},{""event"":""blur"",""trial"":11,""time"":136469},{""event"":""focus"",""trial"":11,""time"":139336},{""event"":""blur"",""trial"":13,""time"":162483},{""event"":""focus"",""trial"":13,""time"":164510},{""event"":""blur"",""trial"":61,""time"":373310},{""event"":""focus"",""trial"":61,""time"":377214},{""event"":""blur"",""trial"":115,""time"":617304},{""event"":""focus"",""trial"":115,""time"":620846},{""event"":""blur"",""trial"":115,""time"":621135},{""event"":""focus"",""trial"":115,""time"":642395},{""event"":""blur"",""trial"":217,""time"":985943},{""event"":""focus"",""trial"":219,""time"":992280},{""event"":""blur"",""trial"":270,""time"":1171230},{""event"":""focus"",""trial"":291,""time"":1265447},{""event"":""blur"",""trial"":292,""time"":1466806},{""event"":""focus"",""trial"":292,""time"":16363039},{""event"":""blur"",""trial"":336,""time"":16516501},{""event"":""focus"",""trial"":337,""time"":16519453},{""event"":""blur"",""trial"":468,""time"":16861943},{""event"":""focus"",""trial"":468,""time"":16862174}]","2708.5","<p>This time you are searching for treasure in outer space.</p>","","instructions","","","","","","","","","","","",""
"learning-instructions","61","390220","0.0-3.0-11.0-1.0-0.0","spark_pilot_norest","8597","7","12","Male","","","","","","","6294.200000047684","<p> Remember, when you see a picture of the place, use the up and down keys to <b>find an animal</b>.</p>
            <p> When you encounter an animal, you should use the left and right keys to <b>select a treasure chest</b>.</p>
            <p> Don't forget to look out for the robber! </p>","","instructions","","","","","","","","","","","",""
"revaluation","62","394243","0.0-3.0-11.0-2.0-0.0","spark_pilot_norest","8597","7","12","Male","","true","","","","","[]","./assets/img/space/11.jpg","[]","practice block","space","-5","{""ArrowUp,ArrowLeft"":3,""ArrowUp,ArrowRight"":36,""ArrowDown,ArrowLeft"":15,""ArrowDown,ArrowRight"":23}","false","","false","","","","","",""
"html-keyboard-response","63","394758","0.0-3.0-11.0-2.0-1.0","spark_pilot_norest","8597","7","12","Male","","","","","","","null","<div style=""font-size:60px;"">+</div>","null","fixation","","","","","","","","","","","",""
"revaluation","64","398769","0.0-3.0-11.0-2.0-0.1","spark_pilot_norest","8597","7","12","Male","","true","","","","","[]","./assets/img/space/12.jpg","[]","practice block","space","-5","{""ArrowUp,ArrowLeft"":3,""ArrowUp,ArrowRight"":36,""ArrowDown,ArrowLeft"":15,""ArrowDown,ArrowRight"":23}","false","","false","","","","","",""
"html-keyboard-response","65","399286","0.0-3.0-11.0-2.0-1.1","spark_pilot_norest","8597","7","12","Male","","","","","","","null","<div style=""font-size:60px;"">+</div>","null","fixation","","","","","","","","","","","",""
"revaluation","66","405315","0.0-3.0-11.0-2.0-0.2","spark_pilot_norest","8597","7","12","Male","","false","","","","","[996,507.2000000476837]","./assets/img/space/13.jpg","[""ArrowUp"",""ArrowRight""]","practice block","space","36","{""ArrowUp,ArrowLeft"":3,""ArrowUp,ArrowRight"":36,""ArrowDown,ArrowLeft"":15,""ArrowDown,ArrowRight"":23}","true","ArrowUp,ArrowRight","false","","","","","",""
"html-keyboard-response","67","405827","0.0-3.0-11.0-2.0-1.2","spark_pilot_norest","8597","7","12","Male","","","","","","","null","<div style=""font-size:60px;"">+</div>","null","fixation","","","","","","","","","","","",""
"revaluation","68","411851","0.0-3.0-11.0-2.0-0.3","spark_pilot_norest","8597","7","12","Male","","false","","","","","[147.5,89.5]","./assets/img/space/14.jpg","[""ArrowUp"",""ArrowRight""]","practice block","space","36","{""ArrowUp,ArrowLeft"":3,""ArrowUp,ArrowRight"":36,""ArrowDown,ArrowLeft"":15,""ArrowDown,ArrowRight"":23}","true","ArrowUp,ArrowRight","false","","","","","",""
"html-keyboard-response","69","412363","0.0-3.0-11.0-2.0-1.3","spark_pilot_norest","8597","7","12","Male","","","","","","","null","<div style=""font-size:60px;"">+</div>","null","fixation","","","","","","","","","","","",""
"revaluation","70","418370","0.0-3.0-11.0-2.0-0.4","spark_pilot_norest","8597","7","12","Male","","false","","","","","[367.59999990463257,314.7000000476837]","./assets/img/space/11.jpg","[""ArrowUp"",""ArrowRight""]","practice block","space","36","{""ArrowUp,ArrowLeft"":3,""ArrowUp,ArrowRight"":36,""ArrowDown,ArrowLeft"":15,""ArrowDown,ArrowRight"":23}","true","ArrowUp,ArrowRight","false","","","","","",""
"html-keyboard-response","71","418871","0.0-3.0-11.0-2.0-1.4","spark_pilot_norest","8597","7","12","Male","","","","","","","null","<div style=""font-size:60px;"">+</div>","null","fixation","","","","","","","","","","","",""
"revaluation","72","424876","0.0-3.0-11.0-2.0-0.5","spark_pilot_norest","8597","7","12","Male","","false","","","","","[476.40000009536743,567.5]","./assets/img/space/12.jpg","[""ArrowUp"",""ArrowRight""]","practice block","space","36","{""ArrowUp,ArrowLeft"":3,""ArrowUp,ArrowRight"":36,""ArrowDown,ArrowLeft"":15,""ArrowDown,ArrowRight"":23}","true","ArrowUp,ArrowRight","false","","","","","",""
"html-keyboard-response","73","425378","0.0-3.0-11.0-2.0-1.5","spark_pilot_norest","8597","7","12","Male","","","","","","","null","<div style=""font-size:60px;"">+</div>","null","fixation","","","","","","","","","","","",""
"revaluation","74","431383","0.0-3.0-11.0-2.0-0.6","spark_pilot_norest","8597","7","12","Male","","false","","","","","[339.2999999523163,462.40000009536743]","./assets/img/space/13.jpg","[""ArrowUp"",""ArrowRight""]","practice block","space","36","{""ArrowUp,ArrowLeft"":3,""ArrowUp,ArrowRight"":36,""ArrowDown,ArrowLeft"":15,""ArrowDown,ArrowRight"":23}","true","ArrowUp,ArrowRight","false","","","","","",""
"html-keyboard-response","75","431885","0.0-3.0-11.0-2.0-1.6","spark_pilot_norest","8597","7","12","Male","","","","","","","null","<div style=""font-size:60px;"">+</div>","null","fixation","","","","","","","","","","","",""
"revaluation","76","437891","0.0-3.0-11.0-2.0-0.7","spark_pilot_norest","8597","7","12","Male","","false","","","","","[18.40000009536743,627.4000000953674]","./assets/img/space/14.jpg","[""ArrowUp"",""ArrowRight""]","practice block","space","36","{""ArrowUp,ArrowLeft"":3,""ArrowUp,ArrowRight"":36,""ArrowDown,ArrowLeft"":15,""ArrowDown,ArrowRight"":23}","true","ArrowUp,ArrowRight","false","","","","","",""
"html-keyboard-response","77","438393","0.0-3.0-11.0-2.0-1.7","spark_pilot_norest","8597","7","12","Male","","","","","","","null","<div style=""font-size:60px;"">+</div>","null","fixation","","","","","","","","","","","",""
"revaluation","78","442397","0.0-3.0-11.0-2.0-0.8","spark_pilot_norest","8597","7","12","Male","","false","","","","","[15.899999856948853]","./assets/img/space/catch/3.jpg","[""ArrowUp""]","practice block","space","-10","{""ArrowUp,ArrowLeft"":3,""ArrowUp,ArrowRight"":36,""ArrowDown,ArrowLeft"":15,""ArrowDown,ArrowRight"":23}","false","ArrowUp","true","","","","","",""
"html-keyboard-response","79","442899","0.0-3.0-11.0-2.0-1.8","spark_pilot_norest","8597","7","12","Male","","","","","","","null","<div style=""font-size:60px;"">+</div>","null","fixation","","","","","","","","","","","",""
"learning-instructions","80","458018","0.0-3.0-11.0-3.0-0.0","spark_pilot_norest","8597","7","12","Male","","","","","","","2191.2999999523163","<p> Now, you will travel with a friend who will choose whether you go up or down first. </p>
            <p> On these turns, you will just see the animal that they found. You will still get to choose which chest to search for treasure.</p>","","instructions","","","","","","","","","","","",""
"revaluation","81","462028","0.0-3.0-11.0-4.0-0.0","spark_pilot_norest","8597","7","12","Male","","false","","","","","[1048.1999998092651]","./assets/img/space/animals/cat.jpg","[""ArrowRight""]","practice block","space","36","{""ArrowUp,ArrowLeft"":3,""ArrowUp,ArrowRight"":36,""ArrowDown,ArrowLeft"":15,""ArrowDown,ArrowRight"":23}","true","ArrowUp,ArrowRight","","","","","","",""
"html-keyboard-response","82","462542","0.0-3.0-11.0-4.0-1.0","spark_pilot_norest","8597","7","12","Male","","","","","","","null","<div style=""font-size:60px;"">+</div>","null","fixation","","","","","","","","","","","",""
"revaluation","83","466555","0.0-3.0-11.0-4.0-0.1","spark_pilot_norest","8597","7","12","Male","","false","","","","","[217.20000004768372]","./assets/img/space/animals/rabbit.jpg","[""ArrowRight""]","practice block","space","23","{""ArrowUp,ArrowLeft"":3,""ArrowUp,ArrowRight"":36,""ArrowDown,ArrowLeft"":15,""ArrowDown,ArrowRight"":23}","true","ArrowDown,ArrowRight","","","","","","",""
"html-keyboard-response","84","467057","0.0-3.0-11.0-4.0-1.1","spark_pilot_norest","8597","7","12","Male","","","","","","","null","<div style=""font-size:60px;"">+</div>","null","fixation","","","","","","","","","","","",""
"revaluation","85","471070","0.0-3.0-11.0-4.0-0.2","spark_pilot_norest","8597","7","12","Male","","false","","","","","[19.799999952316284]","./assets/img/space/animals/cat.jpg","[""ArrowLeft""]","practice block","space","3","{""ArrowUp,ArrowLeft"":3,""ArrowUp,ArrowRight"":36,""ArrowDown,ArrowLeft"":15,""ArrowDown,ArrowRight"":23}","false","ArrowUp,ArrowLeft","","","","","","",""
"html-keyboard-response","86","471572","0.0-3.0-11.0-4.0-1.2","spark_pilot_norest","8597","7","12","Male","","","","","","","null","<div style=""font-size:60px;"">+</div>","null","fixation","","","","","","","","","","","",""
"revaluation","87","475597","0.0-3.0-11.0-4.0-0.3","spark_pilot_norest","8597","7","12","Male","","false","","","","","[555.9000000953674]","./assets/img/space/animals/rabbit.jpg","[""ArrowLeft""]","practice block","space","15","{""ArrowUp,ArrowLeft"":3,""ArrowUp,ArrowRight"":36,""ArrowDown,ArrowLeft"":15,""ArrowDown,ArrowRight"":23}","false","ArrowDown,ArrowLeft","","","","","","",""
"html-keyboard-response","88","476112","0.0-3.0-11.0-4.0-1.3","spark_pilot_norest","8597","7","12","Male","","","","","","","null","<div style=""font-size:60px;"">+</div>","null","fixation","","","","","","","","","","","",""
"learning-instructions","89","484242","0.0-3.0-11.0-5.0-0.0","spark_pilot_norest","8597","7","12","Male","","","","","","","null","<p> You have almost finished this part of the game! </p>
            <p> We are going to ask you to make a few more choices. </p>","","instructions","","","","","","","","","","","",""
"learning-instructions","90","500259","0.0-3.0-11.0-5.0-0.1","spark_pilot_norest","8597","7","12","Male","","","","","","","null","<p> First, you need to decide whether to go up or down. When you see each picture, use the arrow keys to make your choice. </p>
            <p><b>You will not see which animal you found, but try to get to the one that will give you the most treasure.</b></p>","","instructions","","","","","","","","","","","",""
"html-keyboard-response","91","501273","0.0-3.0-11.0-6.0-0.0","spark_pilot_norest","8597","7","12","Male","","","","","","","null","<div style=""font-size:100px;color:red;"">Starting in...</div>","null","","","","","","","","","","","","",""
"html-keyboard-response","92","502286","0.0-3.0-11.0-6.0-1.0","spark_pilot_norest","8597","7","12","Male","","","","","","","null","<div style=""font-size:200px;color:red;"">3</div>","null","","","","","","","","","","","","",""
"html-keyboard-response","93","503301","0.0-3.0-11.0-6.0-2.0","spark_pilot_norest","8597","7","12","Male","","","","","","","null","<div style=""font-size:200px;color:red;"">2</div>","null","","","","","","","","","","","","",""
"html-keyboard-response","94","504313","0.0-3.0-11.0-6.0-3.0","spark_pilot_norest","8597","7","12","Male","","","","","","","null","<div style=""font-size:200px;color:red;"">1</div>","null","","","","","","","","","","","","",""
"revaluation","95","505055","0.0-3.0-11.0-7.0","spark_pilot_norest","8597","7","12","Male","","false","","","","","[739.5]","./assets/img/space/15.jpg","[""ArrowUp""]","practice block","space","0","{""ArrowUp,ArrowLeft"":3,""ArrowUp,ArrowRight"":36,""ArrowDown,ArrowLeft"":15,""ArrowDown,ArrowRight"":23}","true","ArrowUp","false","","","","","",""
"html-keyboard-response","96","505555","0.0-3.0-11.0-8.0","spark_pilot_norest","8597","7","12","Male","","","","","","","null","<div style=""font-size:60px;"">+</div>","null","fixation","","","","","","","","","","","",""
"learning-instructions","97","518938","0.0-3.0-11.0-9.0-0.0","spark_pilot_norest","8597","7","12","Male","","","","","","","null","<p> Now you will see the animals again and can search their chests for treasure. </p>
            <p> This time, you will not see how much treasure you earned, but you will earn more bonus money for making better choices. </p>","","instructions","","","","","","","","","","","",""
"html-keyboard-response","98","519954","0.0-3.0-11.0-10.0-0.0","spark_pilot_norest","8597","7","12","Male","","","","","","","null","<div style=""font-size:100px;color:red;"">Starting in...</div>","null","","","","","","","","","","","","",""
"html-keyboard-response","99","520969","0.0-3.0-11.0-10.0-1.0","spark_pilot_norest","8597","7","12","Male","","","","","","","null","<div style=""font-size:200px;color:red;"">3</div>","null","","","","","","","","","","","","",""
"html-keyboard-response","100","521983","0.0-3.0-11.0-10.0-2.0","spark_pilot_norest","8597","7","12","Male","","","","","","","null","<div style=""font-size:200px;color:red;"">2</div>","null","","","","","","","","","","","","",""
"html-keyboard-response","101","522996","0.0-3.0-11.0-10.0-3.0","spark_pilot_norest","8597","7","12","Male","","","","","","","null","<div style=""font-size:200px;color:red;"">1</div>","null","","","","","","","","","","","","",""
"revaluation","102","523726","0.0-3.0-11.0-11.0-0.0","spark_pilot_norest","8597","7","12","Male","","false","","","","","[728.3999998569489]","./assets/img/space/animals/cat.jpg","[""ArrowRight""]","practice block","space","0","{""ArrowUp,ArrowLeft"":3,""ArrowUp,ArrowRight"":36,""ArrowDown,ArrowLeft"":15,""ArrowDown,ArrowRight"":23}","true","ArrowUp,ArrowRight","","","","","","",""
"html-keyboard-response","103","524242","0.0-3.0-11.0-11.0-1.0","spark_pilot_norest","8597","7","12","Male","","","","","","","null","<div style=""font-size:60px;"">+</div>","null","fixation","","","","","","","","","","","",""
"revaluation","104","524753","0.0-3.0-11.0-11.0-0.1","spark_pilot_norest","8597","7","12","Male","","false","","","","","[508.89999985694885]","./assets/img/space/animals/rabbit.jpg","[""ArrowRight""]","practice block","space","0","{""ArrowUp,ArrowLeft"":3,""ArrowUp,ArrowRight"":36,""ArrowDown,ArrowLeft"":15,""ArrowDown,ArrowRight"":23}","true","ArrowDown,ArrowRight","","","","","","",""
"html-keyboard-response","105","525254","0.0-3.0-11.0-11.0-1.1","spark_pilot_norest","8597","7","12","Male","","","","","","","null","<div style=""font-size:60px;"">+</div>","null","fixation","","","","","","","","","","","",""
"learning-instructions","106","532314","0.0-3.0-12.0-0.0","spark_pilot_norest","8597","7","12","Male","","","","","","","2488.2000000476837","<p> Before you start, we're going to ask you a few questions about how the game works. </p>","","instructions","","","","","","","","","","","",""
"comp-q","107","540159","0.0-3.0-13.0-0.0-0.0","spark_pilot_norest","8597","7","12","Male","","","","","","","2260.7999999523163","<p> <b> True or False? </b> </p>
            <p> There can be 50 pieces of treasure in a given animal's chest. </p>","1","comp_question","","","","true","","","","","","","",""
"comp-q","108","548907","0.0-3.0-13.0-0.0-1.0","spark_pilot_norest","8597","7","12","Male","","","","","","","2091.300000190735","<p> <b> That's right! </b> The amount of treasure in each chest can range from 0 to 40 pieces. </p>","0","comp_answer","","","","","","","","","","","",""
"comp-q","109","556585","0.0-3.0-13.0-0.1-0.1","spark_pilot_norest","8597","7","12","Male","","","","","","","569.2000000476837","<p> <b> True or False? </b> </p><p> In this game, all animals have the same amount of treasure in their left and right chests. </p>","1","comp_question","","","","true","","","","","","","",""
"comp-q","110","563849","0.0-3.0-13.0-0.1-1.1","spark_pilot_norest","8597","7","12","Male","","","","","","","2033.5","<p> <b> That's right! </b> Animals have different amounts of treasure in their treasure chests. </p>","0","comp_answer","","","","","","","","","","","",""
"comp-q","111","570602","0.0-3.0-13.0-0.2-0.2","spark_pilot_norest","8597","7","12","Male","","","","","","","906.2999999523163","<p> <b> True or False? </b> </p><p> The same animal will always be there if you go up in the same place. </p>","0","comp_question","","","","true","","","","","","","",""
"comp-q","112","580187","0.0-3.0-13.0-0.2-1.2","spark_pilot_norest","8597","7","12","Male","","","","","","","3131.5","<p> <b> That's right! </b> One animal lives in the upper part and one lives in the lower part of every place. </p>","0","comp_answer","","","","","","","","","","","",""
"comp-q","113","597409","0.0-3.0-13.0-0.3-0.3","spark_pilot_norest","8597","7","12","Male","","","","","","","11702.899999856949","<p> <b> True or False? </b> </p><p> If you see a different picture, it means you are in a new place. </p>","1","comp_question","","","","true","","","","","","","",""
"comp-q","114","610466","0.0-3.0-13.0-0.3-1.3","spark_pilot_norest","8597","7","12","Male","","","","","","[{""event"":""blur"",""trial"":2,""time"":36815},{""event"":""focus"",""trial"":2,""time"":45673},{""event"":""fullscreenenter"",""trial"":2,""time"":45904},{""event"":""blur"",""trial"":11,""time"":136469},{""event"":""focus"",""trial"":11,""time"":139336},{""event"":""blur"",""trial"":13,""time"":162483},{""event"":""focus"",""trial"":13,""time"":164510},{""event"":""blur"",""trial"":61,""time"":373310},{""event"":""focus"",""trial"":61,""time"":377214},{""event"":""blur"",""trial"":115,""time"":617304},{""event"":""focus"",""trial"":115,""time"":620846},{""event"":""blur"",""trial"":115,""time"":621135},{""event"":""focus"",""trial"":115,""time"":642395},{""event"":""blur"",""trial"":217,""time"":985943},{""event"":""focus"",""trial"":219,""time"":992280},{""event"":""blur"",""trial"":270,""time"":1171230},{""event"":""focus"",""trial"":291,""time"":1265447},{""event"":""blur"",""trial"":292,""time"":1466806},{""event"":""focus"",""trial"":292,""time"":16363039},{""event"":""blur"",""trial"":336,""time"":16516501},{""event"":""focus"",""trial"":337,""time"":16519453},{""event"":""blur"",""trial"":468,""time"":16861943},{""event"":""focus"",""trial"":468,""time"":16862174}]","1830.2999999523163","<p> <b> That's right! </b> Lots of different images may show the same place. For example,  you may see three different images that all remind you that you are in outer space. </p>","0","comp_answer","","","","","","","","","","","",""
"learning-instructions","115","642599","0.0-3.0-14.0-0.0","spark_pilot_norest","8597","7","12","Male","","","","","","","22283.5","<p> Good job. Remember to do your best because the amount of treasure you earn will be converted into bonus money. </p>
            <p> It’s time to start the real game! </p>","","instructions","","","","","","","","","","","",""
"learning-instructions","116","646963","0.0-4.0-0.0-0.0","spark_pilot_norest","8597","7","12","Male","","","","","","","1587.5999999046326","<p> This time you are searching for treasure in the <b>canyon</b>.</p>","","instructions","","","","","","","","","","","",""
"learning-instructions","117","668279","0.0-4.0-0.0-0.1","spark_pilot_norest","8597","7","12","Male","","","","","","","4022.5999999046326","<p><b>New</b> animals with <b>new</b> treasure chests live here. You need to explore to discover where the animal with the best treasure chest is.</p>
                    <p> Like before, once you figure out which animal has the chest with the most treasure, you should try to get to that animal and select that chest! </p>","","instructions","","","","","","","","","","","",""
"learning-instructions","118","684857","0.0-4.0-1.0-0.0","spark_pilot_norest","8597","7","12","Male","","","","","","","1850.5999999046326","<p> Remember, when you see a picture of the place, use the up and down keys to <b>find an animal</b>.</p>
            <p> When you encounter an animal, you should use the left and right keys to <b>select a treasure chest</b>.</p>
            <p> Don't forget to look out for the robber! </p>","","instructions","","","","","","","","","","","",""
"revaluation","119","690895","0.0-4.0-2.0-0.0","spark_pilot_norest","8597","7","12","Male","","false","","","","","[1927.4000000953674,723.1000001430511]","./assets/img/canyon/memory/15.jpg","[""ArrowUp"",""ArrowRight""]","value training","canyon","10","{""ArrowUp,ArrowLeft"":23,""ArrowUp,ArrowRight"":10,""ArrowDown,ArrowLeft"":8,""ArrowDown,ArrowRight"":30}","false","ArrowUp,ArrowRight","false","original","1","0","","",""
"html-keyboard-response","120","691407","0.0-4.0-2.0-1.0","spark_pilot_norest","8597","7","12","Male","","","","","","","null","<div style=""font-size:60px;"">+</div>","null","fixation","","","","","","","","","1","","",""
"revaluation","121","697436","0.0-4.0-2.0-0.1","spark_pilot_norest","8597","7","12","Male","","false","","","","","[387.5,417.80000019073486]","./assets/img/canyon/memory/15.jpg","[""ArrowUp"",""ArrowLeft""]","value training","canyon","23","{""ArrowUp,ArrowLeft"":23,""ArrowUp,ArrowRight"":10,""ArrowDown,ArrowLeft"":8,""ArrowDown,ArrowRight"":30}","false","ArrowUp,ArrowLeft","false","original","1","2","","",""
"html-keyboard-response","122","697950","0.0-4.0-2.0-1.1","spark_pilot_norest","8597","7","12","Male","","","","","","","null","<div style=""font-size:60px;"">+</div>","null","fixation","","","","","","","","","3","","",""
"revaluation","123","703968","0.0-4.0-2.0-0.2","spark_pilot_norest","8597","7","12","Male","","false","","","","","[547.0999999046326,835.8000001907349]","./assets/img/canyon/memory/33.jpg","[""ArrowDown"",""ArrowLeft""]","value training","canyon","8","{""ArrowUp,ArrowLeft"":23,""ArrowUp,ArrowRight"":10,""ArrowDown,ArrowLeft"":8,""ArrowDown,ArrowRight"":30}","false","ArrowDown,ArrowLeft","false","original","1","4","","",""
"html-keyboard-response","124","704484","0.0-4.0-2.0-1.2","spark_pilot_norest","8597","7","12","Male","","","","","","","null","<div style=""font-size:60px;"">+</div>","null","fixation","","","","","","","","","5","","",""
"revaluation","125","708508","0.0-4.0-2.0-0.3","spark_pilot_norest","8597","7","12","Male","","false","","","","","[361.2999999523163]","./assets/img/canyon/catch/3.jpg","[""ArrowDown""]","value training","canyon","-10","{""ArrowUp,ArrowLeft"":23,""ArrowUp,ArrowRight"":10,""ArrowDown,ArrowLeft"":8,""ArrowDown,ArrowRight"":30}","false","ArrowDown","true","original","1","6","","",""
"html-keyboard-response","126","709012","0.0-4.0-2.0-1.3","spark_pilot_norest","8597","7","12","Male","","","","","","","null","<div style=""font-size:60px;"">+</div>","null","fixation","","","","","","","","","7","","",""
"revaluation","127","715030","0.0-4.0-2.0-0.4","spark_pilot_norest","8597","7","12","Male","","false","","","","","[543.7999999523163,436]","./assets/img/canyon/memory/29.jpg","[""ArrowDown"",""ArrowRight""]","value training","canyon","30","{""ArrowUp,ArrowLeft"":23,""ArrowUp,ArrowRight"":10,""ArrowDown,ArrowLeft"":8,""ArrowDown,ArrowRight"":30}","true","ArrowDown,ArrowRight","false","original","1","8","","",""
"html-keyboard-response","128","715532","0.0-4.0-2.0-1.4","spark_pilot_norest","8597","7","12","Male","","","","","","","null","<div style=""font-size:60px;"">+</div>","null","fixation","","","","","","","","","9","","",""
"revaluation","129","721541","0.0-4.0-2.0-0.5","spark_pilot_norest","8597","7","12","Male","","false","","","","","[600.2999999523163,83.40000009536743]","./assets/img/canyon/memory/6.jpg","[""ArrowDown"",""ArrowRight""]","value training","canyon","30","{""ArrowUp,ArrowLeft"":23,""ArrowUp,ArrowRight"":10,""ArrowDown,ArrowLeft"":8,""ArrowDown,ArrowRight"":30}","true","ArrowDown,ArrowRight","false","original","1","10","","",""
"html-keyboard-response","130","722043","0.0-4.0-2.0-1.5","spark_pilot_norest","8597","7","12","Male","","","","","","","null","<div style=""font-size:60px;"">+</div>","null","fixation","","","","","","","","","11","","",""
"revaluation","131","728061","0.0-4.0-2.0-0.6","spark_pilot_norest","8597","7","12","Male","","false","","","","","[1459.1000001430511,469.5]","./assets/img/canyon/memory/33.jpg","[""ArrowDown"",""ArrowRight""]","value training","canyon","30","{""ArrowUp,ArrowLeft"":23,""ArrowUp,ArrowRight"":10,""ArrowDown,ArrowLeft"":8,""ArrowDown,ArrowRight"":30}","true","ArrowDown,ArrowRight","false","original","1","12","","",""
"html-keyboard-response","132","728563","0.0-4.0-2.0-1.6","spark_pilot_norest","8597","7","12","Male","","","","","","","null","<div style=""font-size:60px;"">+</div>","null","fixation","","","","","","","","","13","","",""
"revaluation","133","734569","0.0-4.0-2.0-0.7","spark_pilot_norest","8597","7","12","Male","","false","","","","","[313.09999990463257,583.7999999523163]","./assets/img/canyon/memory/30.jpg","[""ArrowDown"",""ArrowRight""]","value training","canyon","30","{""ArrowUp,ArrowLeft"":23,""ArrowUp,ArrowRight"":10,""ArrowDown,ArrowLeft"":8,""ArrowDown,ArrowRight"":30}","true","ArrowDown,ArrowRight","false","original","1","14","","",""
"html-keyboard-response","134","735070","0.0-4.0-2.0-1.7","spark_pilot_norest","8597","7","12","Male","","","","","","","null","<div style=""font-size:60px;"">+</div>","null","fixation","","","","","","","","","15","","",""
"revaluation","135","741075","0.0-4.0-2.0-0.8","spark_pilot_norest","8597","7","12","Male","","false","","","","","[958.7999999523163,653.2000000476837]","./assets/img/canyon/memory/7.jpg","[""ArrowDown"",""ArrowRight""]","value training","canyon","30","{""ArrowUp,ArrowLeft"":23,""ArrowUp,ArrowRight"":10,""ArrowDown,ArrowLeft"":8,""ArrowDown,ArrowRight"":30}","true","ArrowDown,ArrowRight","false","original","1","16","","",""
"html-keyboard-response","136","741576","0.0-4.0-2.0-1.8","spark_pilot_norest","8597","7","12","Male","","","","","","","null","<div style=""font-size:60px;"">+</div>","null","fixation","","","","","","","","","17","","",""
"revaluation","137","745580","0.0-4.0-2.0-0.9","spark_pilot_norest","8597","7","12","Male","","false","","","","","[658.7999999523163]","./assets/img/canyon/catch/0.jpg","[""spaceBar""]","value training","canyon","0","{""ArrowUp,ArrowLeft"":23,""ArrowUp,ArrowRight"":10,""ArrowDown,ArrowLeft"":8,""ArrowDown,ArrowRight"":30}","true","spaceBar","true","original","1","18","","",""
"html-keyboard-response","138","746082","0.0-4.0-2.0-1.9","spark_pilot_norest","8597","7","12","Male","","","","","","","null","<div style=""font-size:60px;"">+</div>","null","fixation","","","","","","","","","19","","",""
"revaluation","139","752087","0.0-4.0-2.0-0.10","spark_pilot_norest","8597","7","12","Male","","false","","","","","[386.39999985694885,901.6999998092651]","./assets/img/canyon/memory/8.jpg","[""ArrowUp"",""ArrowRight""]","value training","canyon","10","{""ArrowUp,ArrowLeft"":23,""ArrowUp,ArrowRight"":10,""ArrowDown,ArrowLeft"":8,""ArrowDown,ArrowRight"":30}","false","ArrowUp,ArrowRight","false","original","1","20","","",""
"html-keyboard-response","140","752588","0.0-4.0-2.0-1.10","spark_pilot_norest","8597","7","12","Male","","","","","","","null","<div style=""font-size:60px;"">+</div>","null","fixation","","","","","","","","","21","","",""
"revaluation","141","758593","0.0-4.0-2.0-0.11","spark_pilot_norest","8597","7","12","Male","","false","","","","","[552.2999999523163,927.2999999523163]","./assets/img/canyon/memory/2.jpg","[""ArrowDown"",""ArrowRight""]","value training","canyon","30","{""ArrowUp,ArrowLeft"":23,""ArrowUp,ArrowRight"":10,""ArrowDown,ArrowLeft"":8,""ArrowDown,ArrowRight"":30}","true","ArrowDown,ArrowRight","false","original","1","22","","",""
"html-keyboard-response","142","759094","0.0-4.0-2.0-1.11","spark_pilot_norest","8597","7","12","Male","","","","","","","null","<div style=""font-size:60px;"">+</div>","null","fixation","","","","","","","","","23","","",""
"revaluation","143","763097","0.0-4.0-2.0-0.12","spark_pilot_norest","8597","7","12","Male","","false","","","","","[819.8000001907349]","./assets/img/canyon/catch/4.jpg","[""spaceBar""]","value training","canyon","0","{""ArrowUp,ArrowLeft"":23,""ArrowUp,ArrowRight"":10,""ArrowDown,ArrowLeft"":8,""ArrowDown,ArrowRight"":30}","true","spaceBar","true","original","1","24","","",""
"html-keyboard-response","144","763599","0.0-4.0-2.0-1.12","spark_pilot_norest","8597","7","12","Male","","","","","","","null","<div style=""font-size:60px;"">+</div>","null","fixation","","","","","","","","","25","","",""
"revaluation","145","769602","0.0-4.0-2.0-0.13","spark_pilot_norest","8597","7","12","Male","","false","","","","","[358.2000000476837,503.5]","./assets/img/canyon/memory/41.jpg","[""ArrowDown"",""ArrowRight""]","value training","canyon","30","{""ArrowUp,ArrowLeft"":23,""ArrowUp,ArrowRight"":10,""ArrowDown,ArrowLeft"":8,""ArrowDown,ArrowRight"":30}","true","ArrowDown,ArrowRight","false","original","1","26","","",""
"html-keyboard-response","146","770117","0.0-4.0-2.0-1.13","spark_pilot_norest","8597","7","12","Male","","","","","","","null","<div style=""font-size:60px;"">+</div>","null","fixation","","","","","","","","","27","","",""
"revaluation","147","774121","0.0-4.0-2.0-0.14","spark_pilot_norest","8597","7","12","Male","","false","","","","","[1271.4000000953674]","./assets/img/canyon/catch/7.jpg","[""spaceBar""]","value training","canyon","0","{""ArrowUp,ArrowLeft"":23,""ArrowUp,ArrowRight"":10,""ArrowDown,ArrowLeft"":8,""ArrowDown,ArrowRight"":30}","true","spaceBar","true","original","1","28","","",""
"html-keyboard-response","148","774623","0.0-4.0-2.0-1.14","spark_pilot_norest","8597","7","12","Male","","","","","","","null","<div style=""font-size:60px;"">+</div>","null","fixation","","","","","","","","","29","","",""
"revaluation","149","780627","0.0-4.0-2.0-0.15","spark_pilot_norest","8597","7","12","Male","","false","","","","","[564.7999999523163,603.2000000476837]","./assets/img/canyon/memory/0.jpg","[""ArrowDown"",""ArrowRight""]","value training","canyon","30","{""ArrowUp,ArrowLeft"":23,""ArrowUp,ArrowRight"":10,""ArrowDown,ArrowLeft"":8,""ArrowDown,ArrowRight"":30}","true","ArrowDown,ArrowRight","false","original","1","30","","",""
"html-keyboard-response","150","781129","0.0-4.0-2.0-1.15","spark_pilot_norest","8597","7","12","Male","","","","","","","null","<div style=""font-size:60px;"">+</div>","null","fixation","","","","","","","","","31","","",""
"revaluation","151","787133","0.0-4.0-2.0-0.16","spark_pilot_norest","8597","7","12","Male","","false","","","","","[1303.2999999523163,620.4000000953674]","./assets/img/canyon/memory/24.jpg","[""ArrowDown"",""ArrowRight""]","value training","canyon","30","{""ArrowUp,ArrowLeft"":23,""ArrowUp,ArrowRight"":10,""ArrowDown,ArrowLeft"":8,""ArrowDown,ArrowRight"":30}","true","ArrowDown,ArrowRight","false","original","1","32","","",""
"html-keyboard-response","152","787634","0.0-4.0-2.0-1.16","spark_pilot_norest","8597","7","12","Male","","","","","","","null","<div style=""font-size:60px;"">+</div>","null","fixation","","","","","","","","","33","","",""
"revaluation","153","791639","0.0-4.0-2.0-0.17","spark_pilot_norest","8597","7","12","Male","","false","","","","","[675.5999999046326]","./assets/img/canyon/catch/5.jpg","[""spaceBar""]","value training","canyon","0","{""ArrowUp,ArrowLeft"":23,""ArrowUp,ArrowRight"":10,""ArrowDown,ArrowLeft"":8,""ArrowDown,ArrowRight"":30}","true","spaceBar","true","original","1","34","","",""
"html-keyboard-response","154","792140","0.0-4.0-2.0-1.17","spark_pilot_norest","8597","7","12","Male","","","","","","","null","<div style=""font-size:60px;"">+</div>","null","fixation","","","","","","","","","35","","",""
"revaluation","155","796144","0.0-4.0-2.0-0.18","spark_pilot_norest","8597","7","12","Male","","false","","","","","[1000.0999999046326]","./assets/img/canyon/catch/6.jpg","[""spaceBar""]","value training","canyon","0","{""ArrowUp,ArrowLeft"":23,""ArrowUp,ArrowRight"":10,""ArrowDown,ArrowLeft"":8,""ArrowDown,ArrowRight"":30}","true","spaceBar","true","original","1","36","","",""
"html-keyboard-response","156","796644","0.0-4.0-2.0-1.18","spark_pilot_norest","8597","7","12","Male","","","","","","","null","<div style=""font-size:60px;"">+</div>","null","fixation","","","","","","","","","37","","",""
"revaluation","157","802649","0.0-4.0-2.0-0.19","spark_pilot_norest","8597","7","12","Male","","false","","","","","[941,461.59999990463257]","./assets/img/canyon/memory/2.jpg","[""ArrowDown"",""ArrowRight""]","value training","canyon","30","{""ArrowUp,ArrowLeft"":23,""ArrowUp,ArrowRight"":10,""ArrowDown,ArrowLeft"":8,""ArrowDown,ArrowRight"":30}","true","ArrowDown,ArrowRight","false","original","1","38","","",""
"html-keyboard-response","158","803151","0.0-4.0-2.0-1.19","spark_pilot_norest","8597","7","12","Male","","","","","","","null","<div style=""font-size:60px;"">+</div>","null","fixation","","","","","","","","","39","","",""
"revaluation","159","809155","0.0-4.0-2.0-0.20","spark_pilot_norest","8597","7","12","Male","","false","","","","","[698.7000000476837,121.70000004768372]","./assets/img/canyon/memory/23.jpg","[""ArrowDown"",""ArrowRight""]","value training","canyon","30","{""ArrowUp,ArrowLeft"":23,""ArrowUp,ArrowRight"":10,""ArrowDown,ArrowLeft"":8,""ArrowDown,ArrowRight"":30}","true","ArrowDown,ArrowRight","false","original","1","40","","",""
"html-keyboard-response","160","809657","0.0-4.0-2.0-1.20","spark_pilot_norest","8597","7","12","Male","","","","","","","null","<div style=""font-size:60px;"">+</div>","null","fixation","","","","","","","","","41","","",""
"revaluation","161","815662","0.0-4.0-2.0-0.21","spark_pilot_norest","8597","7","12","Male","","false","","","","","[626.7999999523163,236.70000004768372]","./assets/img/canyon/memory/37.jpg","[""ArrowDown"",""ArrowRight""]","value training","canyon","30","{""ArrowUp,ArrowLeft"":23,""ArrowUp,ArrowRight"":10,""ArrowDown,ArrowLeft"":8,""ArrowDown,ArrowRight"":30}","true","ArrowDown,ArrowRight","false","original","1","42","","",""
"html-keyboard-response","162","816164","0.0-4.0-2.0-1.21","spark_pilot_norest","8597","7","12","Male","","","","","","","null","<div style=""font-size:60px;"">+</div>","null","fixation","","","","","","","","","43","","",""
"revaluation","163","822168","0.0-4.0-2.0-0.22","spark_pilot_norest","8597","7","12","Male","","false","","","","","[1194.7999999523163,1279.5]","./assets/img/canyon/memory/0.jpg","[""ArrowDown"",""ArrowRight""]","value training","canyon","30","{""ArrowUp,ArrowLeft"":23,""ArrowUp,ArrowRight"":10,""ArrowDown,ArrowLeft"":8,""ArrowDown,ArrowRight"":30}","true","ArrowDown,ArrowRight","false","original","1","44","","",""
"html-keyboard-response","164","822670","0.0-4.0-2.0-1.22","spark_pilot_norest","8597","7","12","Male","","","","","","","null","<div style=""font-size:60px;"">+</div>","null","fixation","","","","","","","","","45","","",""
"revaluation","165","828675","0.0-4.0-2.0-0.23","spark_pilot_norest","8597","7","12","Male","","false","","","","","[1155.1000001430511,455.5]","./assets/img/canyon/memory/13.jpg","[""ArrowUp"",""ArrowLeft""]","value training","canyon","23","{""ArrowUp,ArrowLeft"":23,""ArrowUp,ArrowRight"":10,""ArrowDown,ArrowLeft"":8,""ArrowDown,ArrowRight"":30}","false","ArrowUp,ArrowLeft","false","original","1","46","","",""
"html-keyboard-response","166","829177","0.0-4.0-2.0-1.23","spark_pilot_norest","8597","7","12","Male","","","","","","","null","<div style=""font-size:60px;"">+</div>","null","fixation","","","","","","","","","47","","",""
"revaluation","167","835183","0.0-4.0-2.0-0.24","spark_pilot_norest","8597","7","12","Male","","false","","","","","[399.39999985694885,220.20000004768372]","./assets/img/canyon/memory/31.jpg","[""ArrowDown"",""ArrowRight""]","value training","canyon","30","{""ArrowUp,ArrowLeft"":23,""ArrowUp,ArrowRight"":10,""ArrowDown,ArrowLeft"":8,""ArrowDown,ArrowRight"":30}","true","ArrowDown,ArrowRight","false","original","1","48","","",""
"html-keyboard-response","168","835685","0.0-4.0-2.0-1.24","spark_pilot_norest","8597","7","12","Male","","","","","","","null","<div style=""font-size:60px;"">+</div>","null","fixation","","","","","","","","","49","","",""
"revaluation","169","839689","0.0-4.0-2.0-0.25","spark_pilot_norest","8597","7","12","Male","","false","","","","","[51.90000009536743]","./assets/img/canyon/catch/2.jpg","[""ArrowDown""]","value training","canyon","-10","{""ArrowUp,ArrowLeft"":23,""ArrowUp,ArrowRight"":10,""ArrowDown,ArrowLeft"":8,""ArrowDown,ArrowRight"":30}","false","ArrowDown","true","original","1","50","","",""
"html-keyboard-response","170","840190","0.0-4.0-2.0-1.25","spark_pilot_norest","8597","7","12","Male","","","","","","","null","<div style=""font-size:60px;"">+</div>","null","fixation","","","","","","","","","51","","",""
"revaluation","171","846196","0.0-4.0-2.0-0.26","spark_pilot_norest","8597","7","12","Male","","false","","","","","[1039.7999999523163,803.0999999046326]","./assets/img/canyon/memory/14.jpg","[""ArrowDown"",""ArrowRight""]","value training","canyon","30","{""ArrowUp,ArrowLeft"":23,""ArrowUp,ArrowRight"":10,""ArrowDown,ArrowLeft"":8,""ArrowDown,ArrowRight"":30}","true","ArrowDown,ArrowRight","false","original","1","52","","",""
"html-keyboard-response","172","846698","0.0-4.0-2.0-1.26","spark_pilot_norest","8597","7","12","Male","","","","","","","null","<div style=""font-size:60px;"">+</div>","null","fixation","","","","","","","","","53","","",""
"revaluation","173","852703","0.0-4.0-2.0-0.27","spark_pilot_norest","8597","7","12","Male","","false","","","","","[926.5999999046326,540.3999998569489]","./assets/img/canyon/memory/23.jpg","[""ArrowDown"",""ArrowRight""]","value training","canyon","30","{""ArrowUp,ArrowLeft"":23,""ArrowUp,ArrowRight"":10,""ArrowDown,ArrowLeft"":8,""ArrowDown,ArrowRight"":30}","true","ArrowDown,ArrowRight","false","original","1","54","","",""
"html-keyboard-response","174","853205","0.0-4.0-2.0-1.27","spark_pilot_norest","8597","7","12","Male","","","","","","","null","<div style=""font-size:60px;"">+</div>","null","fixation","","","","","","","","","55","","",""
"revaluation","175","859208","0.0-4.0-2.0-0.28","spark_pilot_norest","8597","7","12","Male","","false","","","","","[1150,305.7000000476837]","./assets/img/canyon/memory/14.jpg","[""ArrowDown"",""ArrowRight""]","value training","canyon","30","{""ArrowUp,ArrowLeft"":23,""ArrowUp,ArrowRight"":10,""ArrowDown,ArrowLeft"":8,""ArrowDown,ArrowRight"":30}","true","ArrowDown,ArrowRight","false","original","1","56","","",""
"html-keyboard-response","176","859710","0.0-4.0-2.0-1.28","spark_pilot_norest","8597","7","12","Male","","","","","","","null","<div style=""font-size:60px;"">+</div>","null","fixation","","","","","","","","","57","","",""
"revaluation","177","865716","0.0-4.0-2.0-0.29","spark_pilot_norest","8597","7","12","Male","","false","","","","","[1295.1999998092651,481.2999999523163]","./assets/img/canyon/memory/7.jpg","[""ArrowDown"",""ArrowRight""]","value training","canyon","30","{""ArrowUp,ArrowLeft"":23,""ArrowUp,ArrowRight"":10,""ArrowDown,ArrowLeft"":8,""ArrowDown,ArrowRight"":30}","true","ArrowDown,ArrowRight","false","original","1","58","","",""
"html-keyboard-response","178","866218","0.0-4.0-2.0-1.29","spark_pilot_norest","8597","7","12","Male","","","","","","","null","<div style=""font-size:60px;"">+</div>","null","fixation","","","","","","","","","59","","",""
"revaluation","179","872223","0.0-4.0-2.0-0.30","spark_pilot_norest","8597","7","12","Male","","false","","","","","[702.8999998569489,136.09999990463257]","./assets/img/canyon/memory/31.jpg","[""ArrowDown"",""ArrowRight""]","value training","canyon","30","{""ArrowUp,ArrowLeft"":23,""ArrowUp,ArrowRight"":10,""ArrowDown,ArrowLeft"":8,""ArrowDown,ArrowRight"":30}","true","ArrowDown,ArrowRight","false","original","1","60","","",""
"html-keyboard-response","180","872724","0.0-4.0-2.0-1.30","spark_pilot_norest","8597","7","12","Male","","","","","","","null","<div style=""font-size:60px;"">+</div>","null","fixation","","","","","","","","","61","","",""
"revaluation","181","878729","0.0-4.0-2.0-0.31","spark_pilot_norest","8597","7","12","Male","","false","","","","","[58.59999990463257,220.89999985694885]","./assets/img/canyon/memory/36.jpg","[""ArrowDown"",""ArrowRight""]","value training","canyon","30","{""ArrowUp,ArrowLeft"":23,""ArrowUp,ArrowRight"":10,""ArrowDown,ArrowLeft"":8,""ArrowDown,ArrowRight"":30}","true","ArrowDown,ArrowRight","false","original","1","62","","",""
"html-keyboard-response","182","879231","0.0-4.0-2.0-1.31","spark_pilot_norest","8597","7","12","Male","","","","","","","null","<div style=""font-size:60px;"">+</div>","null","fixation","","","","","","","","","63","","",""
"revaluation","183","885244","0.0-4.0-2.0-0.32","spark_pilot_norest","8597","7","12","Male","","false","","","","","[870.4000000953674,211.20000004768372]","./assets/img/canyon/memory/25.jpg","[""ArrowDown"",""ArrowRight""]","value training","canyon","30","{""ArrowUp,ArrowLeft"":23,""ArrowUp,ArrowRight"":10,""ArrowDown,ArrowLeft"":8,""ArrowDown,ArrowRight"":30}","true","ArrowDown,ArrowRight","false","original","1","64","","",""
"html-keyboard-response","184","885746","0.0-4.0-2.0-1.32","spark_pilot_norest","8597","7","12","Male","","","","","","","null","<div style=""font-size:60px;"">+</div>","null","fixation","","","","","","","","","65","","",""
"revaluation","185","891752","0.0-4.0-2.0-0.33","spark_pilot_norest","8597","7","12","Male","","false","","","","","[757.6999998092651,1991.8999998569489]","./assets/img/canyon/memory/6.jpg","[""ArrowDown"",""ArrowRight""]","value training","canyon","30","{""ArrowUp,ArrowLeft"":23,""ArrowUp,ArrowRight"":10,""ArrowDown,ArrowLeft"":8,""ArrowDown,ArrowRight"":30}","true","ArrowDown,ArrowRight","false","original","1","66","","",""
"html-keyboard-response","186","892253","0.0-4.0-2.0-1.33","spark_pilot_norest","8597","7","12","Male","","","","","","","null","<div style=""font-size:60px;"">+</div>","null","fixation","","","","","","","","","67","","",""
"revaluation","187","898256","0.0-4.0-2.0-0.34","spark_pilot_norest","8597","7","12","Male","","false","","","","","[1505.7000000476837,741.8000001907349]","./assets/img/canyon/memory/17.jpg","[""ArrowDown"",""ArrowRight""]","value training","canyon","30","{""ArrowUp,ArrowLeft"":23,""ArrowUp,ArrowRight"":10,""ArrowDown,ArrowLeft"":8,""ArrowDown,ArrowRight"":30}","true","ArrowDown,ArrowRight","false","original","1","68","","",""
"html-keyboard-response","188","898757","0.0-4.0-2.0-1.34","spark_pilot_norest","8597","7","12","Male","","","","","","","null","<div style=""font-size:60px;"">+</div>","null","fixation","","","","","","","","","69","","",""
"revaluation","189","904763","0.0-4.0-2.0-0.35","spark_pilot_norest","8597","7","12","Male","","false","","","","","[1173.0999999046326,649.8999998569489]","./assets/img/canyon/memory/30.jpg","[""ArrowDown"",""ArrowRight""]","value training","canyon","30","{""ArrowUp,ArrowLeft"":23,""ArrowUp,ArrowRight"":10,""ArrowDown,ArrowLeft"":8,""ArrowDown,ArrowRight"":30}","true","ArrowDown,ArrowRight","false","original","1","70","","",""
"html-keyboard-response","190","905275","0.0-4.0-2.0-1.35","spark_pilot_norest","8597","7","12","Male","","","","","","","null","<div style=""font-size:60px;"">+</div>","null","fixation","","","","","","","","","71","","",""
"revaluation","191","911294","0.0-4.0-2.0-0.36","spark_pilot_norest","8597","7","12","Male","","false","","","","","[556,721.3999998569489]","./assets/img/canyon/memory/8.jpg","[""ArrowDown"",""ArrowRight""]","value training","canyon","30","{""ArrowUp,ArrowLeft"":23,""ArrowUp,ArrowRight"":10,""ArrowDown,ArrowLeft"":8,""ArrowDown,ArrowRight"":30}","true","ArrowDown,ArrowRight","false","original","1","72","","",""
"html-keyboard-response","192","911795","0.0-4.0-2.0-1.36","spark_pilot_norest","8597","7","12","Male","","","","","","","null","<div style=""font-size:60px;"">+</div>","null","fixation","","","","","","","","","73","","",""
"revaluation","193","917801","0.0-4.0-2.0-0.37","spark_pilot_norest","8597","7","12","Male","","true","","","","","[1031.5999999046326]","./assets/img/canyon/memory/17.jpg","[""ArrowDown""]","value training","canyon","-5","{""ArrowUp,ArrowLeft"":23,""ArrowUp,ArrowRight"":10,""ArrowDown,ArrowLeft"":8,""ArrowDown,ArrowRight"":30}","false","ArrowDown","false","original","1","74","","",""
"html-keyboard-response","194","918302","0.0-4.0-2.0-1.37","spark_pilot_norest","8597","7","12","Male","","","","","","","null","<div style=""font-size:60px;"">+</div>","null","fixation","","","","","","","","","75","","",""
"revaluation","195","924306","0.0-4.0-2.0-0.38","spark_pilot_norest","8597","7","12","Male","","false","","","","","[694.5999999046326,1127.7000000476837]","./assets/img/canyon/memory/41.jpg","[""ArrowDown"",""ArrowRight""]","value training","canyon","30","{""ArrowUp,ArrowLeft"":23,""ArrowUp,ArrowRight"":10,""ArrowDown,ArrowLeft"":8,""ArrowDown,ArrowRight"":30}","true","ArrowDown,ArrowRight","false","original","1","76","","",""
"html-keyboard-response","196","924807","0.0-4.0-2.0-1.38","spark_pilot_norest","8597","7","12","Male","","","","","","","null","<div style=""font-size:60px;"">+</div>","null","fixation","","","","","","","","","77","","",""
"revaluation","197","930813","0.0-4.0-2.0-0.39","spark_pilot_norest","8597","7","12","Male","","false","","","","","[746.3000001907349,258.2000000476837]","./assets/img/canyon/memory/13.jpg","[""ArrowDown"",""ArrowRight""]","value training","canyon","30","{""ArrowUp,ArrowLeft"":23,""ArrowUp,ArrowRight"":10,""ArrowDown,ArrowLeft"":8,""ArrowDown,ArrowRight"":30}","true","ArrowDown,ArrowRight","false","original","1","78","","",""
"html-keyboard-response","198","931322","0.0-4.0-2.0-1.39","spark_pilot_norest","8597","7","12","Male","","","","","","","null","<div style=""font-size:60px;"">+</div>","null","fixation","","","","","","","","","79","","",""
"revaluation","199","937327","0.0-4.0-2.0-0.40","spark_pilot_norest","8597","7","12","Male","","false","","","","","[678.2999999523163,524.7000000476837]","./assets/img/canyon/memory/29.jpg","[""ArrowDown"",""ArrowRight""]","value training","canyon","30","{""ArrowUp,ArrowLeft"":23,""ArrowUp,ArrowRight"":10,""ArrowDown,ArrowLeft"":8,""ArrowDown,ArrowRight"":30}","true","ArrowDown,ArrowRight","false","original","1","80","","",""
"html-keyboard-response","200","937829","0.0-4.0-2.0-1.40","spark_pilot_norest","8597","7","12","Male","","","","","","","null","<div style=""font-size:60px;"">+</div>","null","fixation","","","","","","","","","81","","",""
"revaluation","201","941833","0.0-4.0-2.0-0.41","spark_pilot_norest","8597","7","12","Male","","false","","","","","[795]","./assets/img/canyon/catch/1.jpg","[""spaceBar""]","value training","canyon","0","{""ArrowUp,ArrowLeft"":23,""ArrowUp,ArrowRight"":10,""ArrowDown,ArrowLeft"":8,""ArrowDown,ArrowRight"":30}","true","spaceBar","true","original","1","82","","",""
"html-keyboard-response","202","942336","0.0-4.0-2.0-1.41","spark_pilot_norest","8597","7","12","Male","","","","","","","null","<div style=""font-size:60px;"">+</div>","null","fixation","","","","","","","","","83","","",""
"revaluation","203","948343","0.0-4.0-2.0-0.42","spark_pilot_norest","8597","7","12","Male","","false","","","","","[1815,569.3999998569489]","./assets/img/canyon/memory/25.jpg","[""ArrowDown"",""ArrowRight""]","value training","canyon","30","{""ArrowUp,ArrowLeft"":23,""ArrowUp,ArrowRight"":10,""ArrowDown,ArrowLeft"":8,""ArrowDown,ArrowRight"":30}","true","ArrowDown,ArrowRight","false","original","1","84","","",""
"html-keyboard-response","204","948844","0.0-4.0-2.0-1.42","spark_pilot_norest","8597","7","12","Male","","","","","","","null","<div style=""font-size:60px;"">+</div>","null","fixation","","","","","","","","","85","","",""
"revaluation","205","954849","0.0-4.0-2.0-0.43","spark_pilot_norest","8597","7","12","Male","","false","","","","","[450.5,852.5999999046326]","./assets/img/canyon/memory/26.jpg","[""ArrowDown"",""ArrowRight""]","value training","canyon","30","{""ArrowUp,ArrowLeft"":23,""ArrowUp,ArrowRight"":10,""ArrowDown,ArrowLeft"":8,""ArrowDown,ArrowRight"":30}","true","ArrowDown,ArrowRight","false","original","1","86","","",""
"html-keyboard-response","206","955351","0.0-4.0-2.0-1.43","spark_pilot_norest","8597","7","12","Male","","","","","","","null","<div style=""font-size:60px;"">+</div>","null","fixation","","","","","","","","","87","","",""
"revaluation","207","961355","0.0-4.0-2.0-0.44","spark_pilot_norest","8597","7","12","Male","","false","","","","","[649.5999999046326,582.6000001430511]","./assets/img/canyon/memory/27.jpg","[""ArrowDown"",""ArrowRight""]","value training","canyon","30","{""ArrowUp,ArrowLeft"":23,""ArrowUp,ArrowRight"":10,""ArrowDown,ArrowLeft"":8,""ArrowDown,ArrowRight"":30}","true","ArrowDown,ArrowRight","false","original","1","88","","",""
"html-keyboard-response","208","961857","0.0-4.0-2.0-1.44","spark_pilot_norest","8597","7","12","Male","","","","","","","null","<div style=""font-size:60px;"">+</div>","null","fixation","","","","","","","","","89","","",""
"revaluation","209","967862","0.0-4.0-2.0-0.45","spark_pilot_norest","8597","7","12","Male","","false","","","","","[552.9000000953674,1190.8999998569489]","./assets/img/canyon/memory/26.jpg","[""ArrowDown"",""ArrowRight""]","value training","canyon","30","{""ArrowUp,ArrowLeft"":23,""ArrowUp,ArrowRight"":10,""ArrowDown,ArrowLeft"":8,""ArrowDown,ArrowRight"":30}","true","ArrowDown,ArrowRight","false","original","1","90","","",""
"html-keyboard-response","210","968364","0.0-4.0-2.0-1.45","spark_pilot_norest","8597","7","12","Male","","","","","","","null","<div style=""font-size:60px;"">+</div>","null","fixation","","","","","","","","","91","","",""
"revaluation","211","974371","0.0-4.0-2.0-0.46","spark_pilot_norest","8597","7","12","Male","","false","","","","","[460.60000014305115,288.2000000476837]","./assets/img/canyon/memory/36.jpg","[""ArrowDown"",""ArrowRight""]","value training","canyon","30","{""ArrowUp,ArrowLeft"":23,""ArrowUp,ArrowRight"":10,""ArrowDown,ArrowLeft"":8,""ArrowDown,ArrowRight"":30}","true","ArrowDown,ArrowRight","false","original","1","92","","",""
"html-keyboard-response","212","974873","0.0-4.0-2.0-1.46","spark_pilot_norest","8597","7","12","Male","","","","","","","null","<div style=""font-size:60px;"">+</div>","null","fixation","","","","","","","","","93","","",""
"revaluation","213","980878","0.0-4.0-2.0-0.47","spark_pilot_norest","8597","7","12","Male","","false","","","","","[343.39999985694885,1693.1000001430511]","./assets/img/canyon/memory/27.jpg","[""ArrowDown"",""ArrowRight""]","value training","canyon","30","{""ArrowUp,ArrowLeft"":23,""ArrowUp,ArrowRight"":10,""ArrowDown,ArrowLeft"":8,""ArrowDown,ArrowRight"":30}","true","ArrowDown,ArrowRight","false","original","1","94","","",""
"html-keyboard-response","214","981380","0.0-4.0-2.0-1.47","spark_pilot_norest","8597","7","12","Male","","","","","","","null","<div style=""font-size:60px;"">+</div>","null","fixation","","","","","","","","","95","","",""
"revaluation","215","985385","0.0-4.0-2.0-0.48","spark_pilot_norest","8597","7","12","Male","","true","","","","","[]","./assets/img/canyon/memory/37.jpg","[]","value training","canyon","-5","{""ArrowUp,ArrowLeft"":23,""ArrowUp,ArrowRight"":10,""ArrowDown,ArrowLeft"":8,""ArrowDown,ArrowRight"":30}","false","","false","original","1","96","","",""
"html-keyboard-response","216","985886","0.0-4.0-2.0-1.48","spark_pilot_norest","8597","7","12","Male","","","","","","[{""event"":""blur"",""trial"":2,""time"":36815},{""event"":""focus"",""trial"":2,""time"":45673},{""event"":""fullscreenenter"",""trial"":2,""time"":45904},{""event"":""blur"",""trial"":11,""time"":136469},{""event"":""focus"",""trial"":11,""time"":139336},{""event"":""blur"",""trial"":13,""time"":162483},{""event"":""focus"",""trial"":13,""time"":164510},{""event"":""blur"",""trial"":61,""time"":373310},{""event"":""focus"",""trial"":61,""time"":377214},{""event"":""blur"",""trial"":115,""time"":617304},{""event"":""focus"",""trial"":115,""time"":620846},{""event"":""blur"",""trial"":115,""time"":621135},{""event"":""focus"",""trial"":115,""time"":642395},{""event"":""blur"",""trial"":217,""time"":985943},{""event"":""focus"",""trial"":219,""time"":992280},{""event"":""blur"",""trial"":270,""time"":1171230},{""event"":""focus"",""trial"":291,""time"":1265447},{""event"":""blur"",""trial"":292,""time"":1466806},{""event"":""focus"",""trial"":292,""time"":16363039},{""event"":""blur"",""trial"":336,""time"":16516501},{""event"":""focus"",""trial"":337,""time"":16519453},{""event"":""blur"",""trial"":468,""time"":16861943},{""event"":""focus"",""trial"":468,""time"":16862174}]","null","<div style=""font-size:60px;"">+</div>","null","fixation","","","","","","","","","97","","",""
"revaluation","217","989891","0.0-4.0-2.0-0.49","spark_pilot_norest","8597","7","12","Male","","true","","","","","[]","./assets/img/canyon/memory/24.jpg","[]","value training","canyon","-5","{""ArrowUp,ArrowLeft"":23,""ArrowUp,ArrowRight"":10,""ArrowDown,ArrowLeft"":8,""ArrowDown,ArrowRight"":30}","false","","false","original","1","98","","",""
"html-keyboard-response","218","990394","0.0-4.0-2.0-1.49","spark_pilot_norest","8597","7","12","Male","","","","","","[{""event"":""blur"",""trial"":2,""time"":36815},{""event"":""focus"",""trial"":2,""time"":45673},{""event"":""fullscreenenter"",""trial"":2,""time"":45904},{""event"":""blur"",""trial"":11,""time"":136469},{""event"":""focus"",""trial"":11,""time"":139336},{""event"":""blur"",""trial"":13,""time"":162483},{""event"":""focus"",""trial"":13,""time"":164510},{""event"":""blur"",""trial"":61,""time"":373310},{""event"":""focus"",""trial"":61,""time"":377214},{""event"":""blur"",""trial"":115,""time"":617304},{""event"":""focus"",""trial"":115,""time"":620846},{""event"":""blur"",""trial"":115,""time"":621135},{""event"":""focus"",""trial"":115,""time"":642395},{""event"":""blur"",""trial"":217,""time"":985943},{""event"":""focus"",""trial"":219,""time"":992280},{""event"":""blur"",""trial"":270,""time"":1171230},{""event"":""focus"",""trial"":291,""time"":1265447},{""event"":""blur"",""trial"":292,""time"":1466806},{""event"":""focus"",""trial"":292,""time"":16363039},{""event"":""blur"",""trial"":336,""time"":16516501},{""event"":""focus"",""trial"":337,""time"":16519453},{""event"":""blur"",""trial"":468,""time"":16861943},{""event"":""focus"",""trial"":468,""time"":16862174}]","null","<div style=""font-size:60px;"">+</div>","null","fixation","","","","","","","","","99","","",""
"learning-instructions","219","1006722","0.0-4.0-3.0-0.0","spark_pilot_norest","8597","7","12","Male","","","","","","","3396.100000143051","<p> Now, you will travel with a friend who will choose whether you go up or down first. </p>
            <p> On these turns, you will just see the animal that they found. You will still get to choose which chest to search for treasure.</p>","","instructions","","","","","","","","","","","",""
"revaluation","220","1010728","0.0-4.0-4.0-0.0","spark_pilot_norest","8597","7","12","Male","","false","","","","","[1535.0999999046326]","./assets/img/canyon/animals/giraffe.jpg","[""ArrowRight""]","revaluation","canyon","30","{""ArrowUp,ArrowLeft"":23,""ArrowUp,ArrowRight"":10,""ArrowDown,ArrowLeft"":8,""ArrowDown,ArrowRight"":30}","true","ArrowDown,ArrowRight","","original","1","0","","",""
"html-keyboard-response","221","1011242","0.0-4.0-4.0-1.0","spark_pilot_norest","8597","7","12","Male","","","","","","","null","<div style=""font-size:60px;"">+</div>","null","fixation","","","","","","","","","1","","",""
"revaluation","222","1015272","0.0-4.0-4.0-0.1","spark_pilot_norest","8597","7","12","Male","","false","","","","","[477.09999990463257]","./assets/img/canyon/animals/giraffe.jpg","[""ArrowRight""]","revaluation","canyon","30","{""ArrowUp,ArrowLeft"":23,""ArrowUp,ArrowRight"":10,""ArrowDown,ArrowLeft"":8,""ArrowDown,ArrowRight"":30}","true","ArrowDown,ArrowRight","","original","1","2","","",""
"html-keyboard-response","223","1015787","0.0-4.0-4.0-1.1","spark_pilot_norest","8597","7","12","Male","","","","","","","null","<div style=""font-size:60px;"">+</div>","null","fixation","","","","","","","","","3","","",""
"revaluation","224","1019807","0.0-4.0-4.0-0.2","spark_pilot_norest","8597","7","12","Male","","false","","","","","[168.5]","./assets/img/canyon/animals/giraffe.jpg","[""ArrowRight""]","revaluation","canyon","30","{""ArrowUp,ArrowLeft"":23,""ArrowUp,ArrowRight"":10,""ArrowDown,ArrowLeft"":8,""ArrowDown,ArrowRight"":30}","true","ArrowDown,ArrowRight","","original","1","4","","",""
"html-keyboard-response","225","1020311","0.0-4.0-4.0-1.2","spark_pilot_norest","8597","7","12","Male","","","","","","","null","<div style=""font-size:60px;"">+</div>","null","fixation","","","","","","","","","5","","",""
"revaluation","226","1024322","0.0-4.0-4.0-0.3","spark_pilot_norest","8597","7","12","Male","","false","","","","","[139.29999995231628]","./assets/img/canyon/animals/lion.jpg","[""ArrowRight""]","revaluation","canyon","10","{""ArrowUp,ArrowLeft"":23,""ArrowUp,ArrowRight"":10,""ArrowDown,ArrowLeft"":8,""ArrowDown,ArrowRight"":30}","false","ArrowUp,ArrowRight","","original","1","6","","",""
"html-keyboard-response","227","1024837","0.0-4.0-4.0-1.3","spark_pilot_norest","8597","7","12","Male","","","","","","","null","<div style=""font-size:60px;"">+</div>","null","fixation","","","","","","","","","7","","",""
"revaluation","228","1028842","0.0-4.0-4.0-0.4","spark_pilot_norest","8597","7","12","Male","","false","","","","","[157.29999995231628]","./assets/img/canyon/animals/giraffe.jpg","[""ArrowRight""]","revaluation","canyon","30","{""ArrowUp,ArrowLeft"":23,""ArrowUp,ArrowRight"":10,""ArrowDown,ArrowLeft"":8,""ArrowDown,ArrowRight"":30}","true","ArrowDown,ArrowRight","","original","1","8","","",""
"html-keyboard-response","229","1029357","0.0-4.0-4.0-1.4","spark_pilot_norest","8597","7","12","Male","","","","","","","null","<div style=""font-size:60px;"">+</div>","null","fixation","","","","","","","","","9","","",""
"revaluation","230","1033373","0.0-4.0-4.0-0.5","spark_pilot_norest","8597","7","12","Male","","false","","","","","[24.200000047683716]","./assets/img/canyon/animals/lion.jpg","[""ArrowLeft""]","revaluation","canyon","23","{""ArrowUp,ArrowLeft"":23,""ArrowUp,ArrowRight"":10,""ArrowDown,ArrowLeft"":8,""ArrowDown,ArrowRight"":30}","true","ArrowUp,ArrowLeft","","original","1","10","","",""
"html-keyboard-response","231","1033874","0.0-4.0-4.0-1.5","spark_pilot_norest","8597","7","12","Male","","","","","","","null","<div style=""font-size:60px;"">+</div>","null","fixation","","","","","","","","","11","","",""
"revaluation","232","1037879","0.0-4.0-4.0-0.6","spark_pilot_norest","8597","7","12","Male","","false","","","","","[219.59999990463257]","./assets/img/canyon/animals/giraffe.jpg","[""ArrowRight""]","revaluation","canyon","30","{""ArrowUp,ArrowLeft"":23,""ArrowUp,ArrowRight"":10,""ArrowDown,ArrowLeft"":8,""ArrowDown,ArrowRight"":30}","true","ArrowDown,ArrowRight","","original","1","12","","",""
"html-keyboard-response","233","1038380","0.0-4.0-4.0-1.6","spark_pilot_norest","8597","7","12","Male","","","","","","","null","<div style=""font-size:60px;"">+</div>","null","fixation","","","","","","","","","13","","",""
"revaluation","234","1042385","0.0-4.0-4.0-0.7","spark_pilot_norest","8597","7","12","Male","","false","","","","","[1577.6999998092651]","./assets/img/canyon/animals/lion.jpg","[""ArrowLeft""]","revaluation","canyon","23","{""ArrowUp,ArrowLeft"":23,""ArrowUp,ArrowRight"":10,""ArrowDown,ArrowLeft"":8,""ArrowDown,ArrowRight"":30}","true","ArrowUp,ArrowLeft","","original","1","14","","",""
"html-keyboard-response","235","1042887","0.0-4.0-4.0-1.7","spark_pilot_norest","8597","7","12","Male","","","","","","","null","<div style=""font-size:60px;"">+</div>","null","fixation","","","","","","","","","15","","",""
"revaluation","236","1046892","0.0-4.0-4.0-0.8","spark_pilot_norest","8597","7","12","Male","","false","","","","","[917.5999999046326]","./assets/img/canyon/animals/lion.jpg","[""ArrowRight""]","revaluation","canyon","10","{""ArrowUp,ArrowLeft"":23,""ArrowUp,ArrowRight"":10,""ArrowDown,ArrowLeft"":8,""ArrowDown,ArrowRight"":30}","false","ArrowUp,ArrowRight","","original","1","16","","",""
"html-keyboard-response","237","1047394","0.0-4.0-4.0-1.8","spark_pilot_norest","8597","7","12","Male","","","","","","","null","<div style=""font-size:60px;"">+</div>","null","fixation","","","","","","","","","17","","",""
"revaluation","238","1051400","0.0-4.0-4.0-0.9","spark_pilot_norest","8597","7","12","Male","","false","","","","","[846.4000000953674]","./assets/img/canyon/animals/lion.jpg","[""ArrowLeft""]","revaluation","canyon","23","{""ArrowUp,ArrowLeft"":23,""ArrowUp,ArrowRight"":10,""ArrowDown,ArrowLeft"":8,""ArrowDown,ArrowRight"":30}","true","ArrowUp,ArrowLeft","","original","1","18","","",""
"html-keyboard-response","239","1051901","0.0-4.0-4.0-1.9","spark_pilot_norest","8597","7","12","Male","","","","","","","null","<div style=""font-size:60px;"">+</div>","null","fixation","","","","","","","","","19","","",""
"revaluation","240","1055906","0.0-4.0-4.0-0.10","spark_pilot_norest","8597","7","12","Male","","false","","","","","[817]","./assets/img/canyon/animals/lion.jpg","[""ArrowLeft""]","revaluation","canyon","23","{""ArrowUp,ArrowLeft"":23,""ArrowUp,ArrowRight"":10,""ArrowDown,ArrowLeft"":8,""ArrowDown,ArrowRight"":30}","true","ArrowUp,ArrowLeft","","original","1","20","","",""
"html-keyboard-response","241","1056408","0.0-4.0-4.0-1.10","spark_pilot_norest","8597","7","12","Male","","","","","","","null","<div style=""font-size:60px;"">+</div>","null","fixation","","","","","","","","","21","","",""
"revaluation","242","1060411","0.0-4.0-4.0-0.11","spark_pilot_norest","8597","7","12","Male","","false","","","","","[1468.5999999046326]","./assets/img/canyon/animals/giraffe.jpg","[""ArrowLeft""]","revaluation","canyon","8","{""ArrowUp,ArrowLeft"":23,""ArrowUp,ArrowRight"":10,""ArrowDown,ArrowLeft"":8,""ArrowDown,ArrowRight"":30}","false","ArrowDown,ArrowLeft","","original","1","22","","",""
"html-keyboard-response","243","1060913","0.0-4.0-4.0-1.11","spark_pilot_norest","8597","7","12","Male","","","","","","","null","<div style=""font-size:60px;"">+</div>","null","fixation","","","","","","","","","23","","",""
"revaluation","244","1064918","0.0-4.0-4.0-0.12","spark_pilot_norest","8597","7","12","Male","","false","","","","","[87.29999995231628]","./assets/img/canyon/animals/giraffe.jpg","[""ArrowLeft""]","revaluation","canyon","8","{""ArrowUp,ArrowLeft"":23,""ArrowUp,ArrowRight"":10,""ArrowDown,ArrowLeft"":8,""ArrowDown,ArrowRight"":30}","false","ArrowDown,ArrowLeft","","original","1","24","","",""
"html-keyboard-response","245","1065420","0.0-4.0-4.0-1.12","spark_pilot_norest","8597","7","12","Male","","","","","","","null","<div style=""font-size:60px;"">+</div>","null","fixation","","","","","","","","","25","","",""
"revaluation","246","1069438","0.0-4.0-4.0-0.13","spark_pilot_norest","8597","7","12","Male","","false","","","","","[42.39999985694885]","./assets/img/canyon/animals/giraffe.jpg","[""ArrowRight""]","revaluation","canyon","30","{""ArrowUp,ArrowLeft"":23,""ArrowUp,ArrowRight"":10,""ArrowDown,ArrowLeft"":8,""ArrowDown,ArrowRight"":30}","true","ArrowDown,ArrowRight","","original","1","26","","",""
"html-keyboard-response","247","1069940","0.0-4.0-4.0-1.13","spark_pilot_norest","8597","7","12","Male","","","","","","","null","<div style=""font-size:60px;"">+</div>","null","fixation","","","","","","","","","27","","",""
"revaluation","248","1073945","0.0-4.0-4.0-0.14","spark_pilot_norest","8597","7","12","Male","","false","","","","","[19.600000143051147]","./assets/img/canyon/animals/lion.jpg","[""ArrowRight""]","revaluation","canyon","10","{""ArrowUp,ArrowLeft"":23,""ArrowUp,ArrowRight"":10,""ArrowDown,ArrowLeft"":8,""ArrowDown,ArrowRight"":30}","false","ArrowUp,ArrowRight","","original","1","28","","",""
"html-keyboard-response","249","1074446","0.0-4.0-4.0-1.14","spark_pilot_norest","8597","7","12","Male","","","","","","","null","<div style=""font-size:60px;"">+</div>","null","fixation","","","","","","","","","29","","",""
"revaluation","250","1078450","0.0-4.0-4.0-0.15","spark_pilot_norest","8597","7","12","Male","","false","","","","","[190.39999985694885]","./assets/img/canyon/animals/lion.jpg","[""ArrowRight""]","revaluation","canyon","10","{""ArrowUp,ArrowLeft"":23,""ArrowUp,ArrowRight"":10,""ArrowDown,ArrowLeft"":8,""ArrowDown,ArrowRight"":30}","false","ArrowUp,ArrowRight","","original","1","30","","",""
"html-keyboard-response","251","1078952","0.0-4.0-4.0-1.15","spark_pilot_norest","8597","7","12","Male","","","","","","","null","<div style=""font-size:60px;"">+</div>","null","fixation","","","","","","","","","31","","",""
"revaluation","252","1082956","0.0-4.0-4.0-0.16","spark_pilot_norest","8597","7","12","Male","","false","","","","","[571.9000000953674]","./assets/img/canyon/animals/lion.jpg","[""ArrowRight""]","revaluation","canyon","10","{""ArrowUp,ArrowLeft"":23,""ArrowUp,ArrowRight"":10,""ArrowDown,ArrowLeft"":8,""ArrowDown,ArrowRight"":30}","false","ArrowUp,ArrowRight","","original","1","32","","",""
"html-keyboard-response","253","1083459","0.0-4.0-4.0-1.16","spark_pilot_norest","8597","7","12","Male","","","","","","","null","<div style=""font-size:60px;"">+</div>","null","fixation","","","","","","","","","33","","",""
"revaluation","254","1087463","0.0-4.0-4.0-0.17","spark_pilot_norest","8597","7","12","Male","","false","","","","","[57]","./assets/img/canyon/animals/giraffe.jpg","[""ArrowRight""]","revaluation","canyon","30","{""ArrowUp,ArrowLeft"":23,""ArrowUp,ArrowRight"":10,""ArrowDown,ArrowLeft"":8,""ArrowDown,ArrowRight"":30}","true","ArrowDown,ArrowRight","","original","1","34","","",""
"html-keyboard-response","255","1087964","0.0-4.0-4.0-1.17","spark_pilot_norest","8597","7","12","Male","","","","","","","null","<div style=""font-size:60px;"">+</div>","null","fixation","","","","","","","","","35","","",""
"learning-instructions","256","1096108","0.0-4.0-5.0-0.0","spark_pilot_norest","8597","7","12","Male","","","","","","","null","<p> You have almost finished this part of the game! </p>
            <p> We are going to ask you to make a few more choices. </p>","","instructions","","","","","","","","","","","",""
"learning-instructions","257","1112078","0.0-4.0-5.0-0.1","spark_pilot_norest","8597","7","12","Male","","","","","","","null","<p> First, you need to decide whether to go up or down. When you see each picture, use the arrow keys to make your choice. </p>
            <p><b>You will not see which animal you found, but try to get to the one that will give you the most treasure.</b></p>","","instructions","","","","","","","","","","","",""
"html-keyboard-response","258","1113091","0.0-4.0-6.0-0.0","spark_pilot_norest","8597","7","12","Male","","","","","","","null","<div style=""font-size:100px;color:red;"">Starting in...</div>","null","","","","","","","","","","","","",""
"html-keyboard-response","259","1114103","0.0-4.0-6.0-1.0","spark_pilot_norest","8597","7","12","Male","","","","","","","null","<div style=""font-size:200px;color:red;"">3</div>","null","","","","","","","","","","","","",""
"html-keyboard-response","260","1115106","0.0-4.0-6.0-2.0","spark_pilot_norest","8597","7","12","Male","","","","","","","null","<div style=""font-size:200px;color:red;"">2</div>","null","","","","","","","","","","","","",""
"html-keyboard-response","261","1116121","0.0-4.0-6.0-3.0","spark_pilot_norest","8597","7","12","Male","","","","","","","null","<div style=""font-size:200px;color:red;"">1</div>","null","","","","","","","","","","","","",""
"revaluation","262","1126132","0.0-4.0-7.0-0.0","spark_pilot_norest","8597","7","12","Male","","false","","","","","[]","./assets/img/canyon/test/3.jpg","[]","first stage test","canyon","0","{""ArrowUp,ArrowLeft"":23,""ArrowUp,ArrowRight"":10,""ArrowDown,ArrowLeft"":8,""ArrowDown,ArrowRight"":30}","false","","false","original","1","","","",""
"html-keyboard-response","263","1126648","0.0-4.0-7.0-1.0","spark_pilot_norest","8597","7","12","Male","","","","","","","null","<div style=""font-size:60px;"">+</div>","null","fixation","","","","","","","","","","","",""
"revaluation","264","1136662","0.0-4.0-7.0-0.1","spark_pilot_norest","8597","7","12","Male","","false","","","","","[]","./assets/img/canyon/test/0.jpg","[]","first stage test","canyon","0","{""ArrowUp,ArrowLeft"":23,""ArrowUp,ArrowRight"":10,""ArrowDown,ArrowLeft"":8,""ArrowDown,ArrowRight"":30}","false","","false","original","1","","","",""
"html-keyboard-response","265","1137178","0.0-4.0-7.0-1.1","spark_pilot_norest","8597","7","12","Male","","","","","","","null","<div style=""font-size:60px;"">+</div>","null","fixation","","","","","","","","","","","",""
"revaluation","266","1147181","0.0-4.0-7.0-0.2","spark_pilot_norest","8597","7","12","Male","","false","","","","","[]","./assets/img/canyon/test/1.jpg","[]","first stage test","canyon","0","{""ArrowUp,ArrowLeft"":23,""ArrowUp,ArrowRight"":10,""ArrowDown,ArrowLeft"":8,""ArrowDown,ArrowRight"":30}","false","","false","original","1","","","",""
"html-keyboard-response","267","1147682","0.0-4.0-7.0-1.2","spark_pilot_norest","8597","7","12","Male","","","","","","","null","<div style=""font-size:60px;"">+</div>","null","fixation","","","","","","","","","","","",""
"revaluation","268","1157685","0.0-4.0-7.0-0.3","spark_pilot_norest","8597","7","12","Male","","false","","","","","[]","./assets/img/canyon/test/2.jpg","[]","first stage test","canyon","0","{""ArrowUp,ArrowLeft"":23,""ArrowUp,ArrowRight"":10,""ArrowDown,ArrowLeft"":8,""ArrowDown,ArrowRight"":30}","false","","false","original","1","","","",""
"html-keyboard-response","269","1158187","0.0-4.0-7.0-1.3","spark_pilot_norest","8597","7","12","Male","","","","","","[{""event"":""blur"",""trial"":2,""time"":36815},{""event"":""focus"",""trial"":2,""time"":45673},{""event"":""fullscreenenter"",""trial"":2,""time"":45904},{""event"":""blur"",""trial"":11,""time"":136469},{""event"":""focus"",""trial"":11,""time"":139336},{""event"":""blur"",""trial"":13,""time"":162483},{""event"":""focus"",""trial"":13,""time"":164510},{""event"":""blur"",""trial"":61,""time"":373310},{""event"":""focus"",""trial"":61,""time"":377214},{""event"":""blur"",""trial"":115,""time"":617304},{""event"":""focus"",""trial"":115,""time"":620846},{""event"":""blur"",""trial"":115,""time"":621135},{""event"":""focus"",""trial"":115,""time"":642395},{""event"":""blur"",""trial"":217,""time"":985943},{""event"":""focus"",""trial"":219,""time"":992280},{""event"":""blur"",""trial"":270,""time"":1171230},{""event"":""focus"",""trial"":291,""time"":1265447},{""event"":""blur"",""trial"":292,""time"":1466806},{""event"":""focus"",""trial"":292,""time"":16363039},{""event"":""blur"",""trial"":336,""time"":16516501},{""event"":""focus"",""trial"":337,""time"":16519453},{""event"":""blur"",""trial"":468,""time"":16861943},{""event"":""focus"",""trial"":468,""time"":16862174}]","null","<div style=""font-size:60px;"">+</div>","null","fixation","","","","","","","","","","","",""
"learning-instructions","270","1171568","0.0-4.0-8.0-0.0","spark_pilot_norest","8597","7","12","Male","","","","","","","null","<p> Now you will see the animals again and can search their chests for treasure. </p>
            <p> This time, you will not see how much treasure you earned, but you will earn more bonus money for making better choices. </p>","","instructions","","","","","","","","","","","",""
"html-keyboard-response","271","1172579","0.0-4.0-9.0-0.0","spark_pilot_norest","8597","7","12","Male","","","","","","","null","<div style=""font-size:100px;color:red;"">Starting in...</div>","null","","","","","","","","","","","","",""
"html-keyboard-response","272","1173595","0.0-4.0-9.0-1.0","spark_pilot_norest","8597","7","12","Male","","","","","","","null","<div style=""font-size:200px;color:red;"">3</div>","null","","","","","","","","","","","","",""
"html-keyboard-response","273","1174611","0.0-4.0-9.0-2.0","spark_pilot_norest","8597","7","12","Male","","","","","","","null","<div style=""font-size:200px;color:red;"">2</div>","null","","","","","","","","","","","","",""
"html-keyboard-response","274","1175616","0.0-4.0-9.0-3.0","spark_pilot_norest","8597","7","12","Male","","","","","","","null","<div style=""font-size:200px;color:red;"">1</div>","null","","","","","","","","","","","","",""
"revaluation","275","1185625","0.0-4.0-10.0-0.0","spark_pilot_norest","8597","7","12","Male","","false","","","","","[]","./assets/img/canyon/animals/lion.jpg","[]","second stage test","canyon","0","{""ArrowUp,ArrowLeft"":23,""ArrowUp,ArrowRight"":10,""ArrowDown,ArrowLeft"":8,""ArrowDown,ArrowRight"":30}","false","ArrowUp","","original","1","","","",""
"html-keyboard-response","276","1186137","0.0-4.0-10.0-1.0","spark_pilot_norest","8597","7","12","Male","","","","","","","null","<div style=""font-size:60px;"">+</div>","null","fixation","","","","","","","","","","","",""
"revaluation","277","1196147","0.0-4.0-10.0-0.1","spark_pilot_norest","8597","7","12","Male","","false","","","","","[]","./assets/img/canyon/animals/lion.jpg","[]","second stage test","canyon","0","{""ArrowUp,ArrowLeft"":23,""ArrowUp,ArrowRight"":10,""ArrowDown,ArrowLeft"":8,""ArrowDown,ArrowRight"":30}","false","ArrowUp","","original","1","","","",""
"html-keyboard-response","278","1196661","0.0-4.0-10.0-1.1","spark_pilot_norest","8597","7","12","Male","","","","","","","null","<div style=""font-size:60px;"">+</div>","null","fixation","","","","","","","","","","","",""
"revaluation","279","1206666","0.0-4.0-10.0-0.2","spark_pilot_norest","8597","7","12","Male","","false","","","","","[]","./assets/img/canyon/animals/lion.jpg","[]","second stage test","canyon","0","{""ArrowUp,ArrowLeft"":23,""ArrowUp,ArrowRight"":10,""ArrowDown,ArrowLeft"":8,""ArrowDown,ArrowRight"":30}","false","ArrowUp","","original","1","","","",""
"html-keyboard-response","280","1207169","0.0-4.0-10.0-1.2","spark_pilot_norest","8597","7","12","Male","","","","","","","null","<div style=""font-size:60px;"">+</div>","null","fixation","","","","","","","","","","","",""
"revaluation","281","1217174","0.0-4.0-10.0-0.3","spark_pilot_norest","8597","7","12","Male","","false","","","","","[]","./assets/img/canyon/animals/lion.jpg","[]","second stage test","canyon","0","{""ArrowUp,ArrowLeft"":23,""ArrowUp,ArrowRight"":10,""ArrowDown,ArrowLeft"":8,""ArrowDown,ArrowRight"":30}","false","ArrowUp","","original","1","","","",""
"html-keyboard-response","282","1217676","0.0-4.0-10.0-1.3","spark_pilot_norest","8597","7","12","Male","","","","","","","null","<div style=""font-size:60px;"">+</div>","null","fixation","","","","","","","","","","","",""
"revaluation","283","1227681","0.0-4.0-10.0-0.4","spark_pilot_norest","8597","7","12","Male","","false","","","","","[]","./assets/img/canyon/animals/giraffe.jpg","[]","second stage test","canyon","0","{""ArrowUp,ArrowLeft"":23,""ArrowUp,ArrowRight"":10,""ArrowDown,ArrowLeft"":8,""ArrowDown,ArrowRight"":30}","false","ArrowDown","","original","1","","","",""
"html-keyboard-response","284","1228183","0.0-4.0-10.0-1.4","spark_pilot_norest","8597","7","12","Male","","","","","","","null","<div style=""font-size:60px;"">+</div>","null","fixation","","","","","","","","","","","",""
"revaluation","285","1238188","0.0-4.0-10.0-0.5","spark_pilot_norest","8597","7","12","Male","","false","","","","","[]","./assets/img/canyon/animals/giraffe.jpg","[]","second stage test","canyon","0","{""ArrowUp,ArrowLeft"":23,""ArrowUp,ArrowRight"":10,""ArrowDown,ArrowLeft"":8,""ArrowDown,ArrowRight"":30}","false","ArrowDown","","original","1","","","",""
"html-keyboard-response","286","1238691","0.0-4.0-10.0-1.5","spark_pilot_norest","8597","7","12","Male","","","","","","","null","<div style=""font-size:60px;"">+</div>","null","fixation","","","","","","","","","","","",""
