"trial_type","trial_index","time_elapsed","internal_node_id","task_version","subject_id","assigned_condition","age","gender","success","timeout","failed_images","failed_audio","failed_video","browser_interaction","rt","stimulus","response","task_part","environment","score","rewardMap","correct","fullState","isCatch","condition","order","trial_num","key_press","ground_truth","bonus"
"pavlovia","0","917","0.0-0.0","spark_pilot_norest","9992","5","7","Male","","","","","","","","","","","","","","","","","","","","","",""
"preload","1","33350","0.0-1.0","spark_pilot_norest","9992","5","7","Male","true","false","[]","[]","[]","[{""event"":""fullscreenenter"",""trial"":2,""time"":36416}]","","","","","","","","","","","","","","","",""
"fullscreen","2","37404","0.0-2.0","spark_pilot_norest","9992","5","7","Male","true","","","","","","","","","","","","","","","","","","","","",""
"audio-button-response","3","44872","0.0-3.0-0.0-0.0","spark_pilot_norest","9992","5","7","Male","","","","","","","7440","./assets/audio/audiotest/turtle.mp3","2","audio_test","","","","","","","","","","","",""
"learning-instructions","4","58367","0.0-3.0-1.0-0.0","spark_pilot_norest","9992","5","7","Male","","","","","","","6514.800000190735","<p> Welcome! Please remember to stay in fullscreen mode and don't click away from the experiment. </p>","","instructions","","","","","","","","","","","",""
"learning-instructions","5","71309","0.0-3.0-1.0-0.1","spark_pilot_norest","9992","5","7","Male","","","","","","","4536.699999809265","<p> Today you will be playing a game to earn treasure. </p>
            <p> At the end of the experiment, you will earn a bonus based on how much treasure you find. </p>
            <img src='./assets/img/instructions/treasure.jpg' class='instructions-image'>","","instructions","","","","","","","","","","","",""
"learning-instructions","6","85020","0.0-3.0-1.0-0.2","spark_pilot_norest","9992","5","7","Male","","","","","","","5447.399999856949","<p> Animals have hidden treasure in treasure chests. </p>
            <p> You need to first find an animal and then choose which of their treasure chests to search. </p>
            <img src='./assets/img/space/animals/cat.jpg' class='instructions-image'>","","instructions","","","","","","","","","","","",""
"learning-instructions","7","102343","0.0-3.0-1.0-0.3","spark_pilot_norest","9992","5","7","Male","","","","","","","4170.299999952316","<p> In each round, you will search for treasure in a different place. In the real game, there will be two rounds. </p>
            <p> You will begin with a separate, practice round where you will search for treasure in outer space. </p>
            <img src='./assets/img/space/0.jpg' class='instructions-image'>","","instructions","","","","","","","","","","","",""
"learning-instructions","8","119040","0.0-3.0-1.0-0.4","spark_pilot_norest","9992","5","7","Male","","","","","","","5277","<p> On every turn, you will see a picture of the place that you are in, but the specific image may be different each time. </p>
            <p> For example, both of these images mean you are in outer space. </p>
            <img src='./assets/img/instructions/outerspace.jpg' class='instructions-image'>","","instructions","","","","","","","","","","","",""
"learning-instructions","9","129992","0.0-3.0-1.0-0.5","spark_pilot_norest","9992","5","7","Male","","","","","","","3129.600000143051","<p> You need to decide which direction to travel in. </p>
            <p> You can choose between going <b>up or down</b> by using the arrow keys. </p>
            <img src='./assets/img/instructions/updown.jpg' class='instructions-image'>","","instructions","","","","","","","","","","","",""
"learning-instructions","10","142688","0.0-3.0-1.0-0.6","spark_pilot_norest","9992","5","7","Male","","","","","","","3885.899999856949","<p> You will have <b>2 seconds</b> to make your choice. </p>
            <p> If you do not make a choice within 2 seconds, you will not find an animal or earn treasure. </p>
            <img src='./assets/img/instructions/2seconds.jpg' class='instructions-image'>","","instructions","","","","","","","","","","","",""
"learning-instructions","11","160822","0.0-3.0-1.0-0.7","spark_pilot_norest","9992","5","7","Male","","","","","","","11110.099999904633","<p> Let’s try practicing that now! </p>
            <p> When you see a picture of the place you are in, press the <b>up</b> key to travel up. </p>
            <img src='./assets/img/instructions/pressUp.jpg' class='instructions-image'>","","instructions","","","","","","","","","","","",""
"revaluation","12","164839","0.0-3.0-2.0-0.0","spark_pilot_norest","9992","5","7","Male","","true","","","","","[]","./assets/img/space/0.jpg","[]","first stage practice","space","-5","null","null","","false","","","","","",""
"html-keyboard-response","13","165344","0.0-3.0-2.0-1.0","spark_pilot_norest","9992","5","7","Male","","","","","","","null","<div style=""font-size:60px;"">+</div>","null","fixation","","","","","","","","","","","",""
"revaluation","14","169358","0.0-3.0-2.0-0.1","spark_pilot_norest","9992","5","7","Male","","true","","","","","[]","./assets/img/space/1.jpg","[]","first stage practice","space","-5","null","null","","false","","","","","",""
"html-keyboard-response","15","169862","0.0-3.0-2.0-1.1","spark_pilot_norest","9992","5","7","Male","","","","","","","null","<div style=""font-size:60px;"">+</div>","null","fixation","","","","","","","","","","","",""
"revaluation","16","173887","0.0-3.0-2.0-0.2","spark_pilot_norest","9992","5","7","Male","","true","","","","","[]","./assets/img/space/2.jpg","[]","first stage practice","space","-5","null","null","","false","","","","","",""
"html-keyboard-response","17","174390","0.0-3.0-2.0-1.2","spark_pilot_norest","9992","5","7","Male","","","","","","","null","<div style=""font-size:60px;"">+</div>","null","fixation","","","","","","","","","","","",""
"learning-instructions","18","182410","0.0-3.0-3.0-0.0","spark_pilot_norest","9992","5","7","Male","","","","","","","3328.7999999523163","<p> Great job! Now try pressing the <b>down</b> key to travel down. </p>
            <img src='./assets/img/instructions/pressDown.jpg' class='instructions-image'>","","instructions","","","","","","","","","","","",""
"revaluation","19","186417","0.0-3.0-4.0-0.0","spark_pilot_norest","9992","5","7","Male","","true","","","","","[]","./assets/img/space/3.jpg","[]","first stage practice","space","-5","null","null","","false","","","","","",""
"html-keyboard-response","20","186929","0.0-3.0-4.0-1.0","spark_pilot_norest","9992","5","7","Male","","","","","","","null","<div style=""font-size:60px;"">+</div>","null","fixation","","","","","","","","","","","",""
"revaluation","21","190942","0.0-3.0-4.0-0.1","spark_pilot_norest","9992","5","7","Male","","true","","","","","[]","./assets/img/space/4.jpg","[]","first stage practice","space","-5","null","null","","false","","","","","",""
"html-keyboard-response","22","191446","0.0-3.0-4.0-1.1","spark_pilot_norest","9992","5","7","Male","","","","","","","null","<div style=""font-size:60px;"">+</div>","null","fixation","","","","","","","","","","","",""
"revaluation","23","195452","0.0-3.0-4.0-0.2","spark_pilot_norest","9992","5","7","Male","","true","","","","","[]","./assets/img/space/5.jpg","[]","first stage practice","space","-5","null","null","","false","","","","","",""
"html-keyboard-response","24","195958","0.0-3.0-4.0-1.2","spark_pilot_norest","9992","5","7","Male","","","","","","","null","<div style=""font-size:60px;"">+</div>","null","fixation","","","","","","","","","","","",""
"learning-instructions","25","210222","0.0-3.0-5.0-0.0","spark_pilot_norest","9992","5","7","Male","","","","","","","4420.600000143051","<p> The animals don’t move, so the animal in the upper part of a place will stay in the upper part of a place, and the animal in the lower part of a place will stay in the lower part of a place. </p>","","instructions","","","","","","","","","","","",""
"learning-instructions","26","225907","0.0-3.0-5.0-0.1","spark_pilot_norest","9992","5","7","Male","","","","","","","6555.5","<p> Each animal has two treasure chests for you to choose from. </p>
            <p> The amount of treasure in each chest can range from <b> 0 to 40 pieces.</b></p>","","instructions","","","","","","","","","","","",""
"learning-instructions","27","248246","0.0-3.0-5.0-0.2","spark_pilot_norest","9992","5","7","Male","","","","","","","11153.400000095367","<p> You should decide which chest to search for treasure by using the <b>left</b> and <b>right</b> arrow keys. </p>
            <p><b> Pay attention to which animal is on the screen, as the animals have different treasure chests. </b></p>
            <img src='./assets/img/instructions/leftright.jpg' class='instructions-image'>","","instructions","","","","","","","","","","","",""
"learning-instructions","28","267648","0.0-3.0-5.0-0.3","spark_pilot_norest","9992","5","7","Male","","","","","","","13045.5","<p> Let’s try practicing that now. </p>
            <p> When you see an animal, choose which chest to search for treasure. </p>
            <img src='./assets/img/instructions/chooseChest.jpg' class='instructions-image'>","","instructions","","","","","","","","","","","",""
"revaluation","29","271654","0.0-3.0-6.0-0.0","spark_pilot_norest","9992","5","7","Male","","true","","","","","[]","./assets/img/space/animals/cat.jpg","[]","second stage practice","space","-5","{""ArrowUp,ArrowLeft"":3,""ArrowUp,ArrowRight"":36,""ArrowDown,ArrowLeft"":15,""ArrowDown,ArrowRight"":23}","false","ArrowUp","","","","","","",""
"html-keyboard-response","30","272162","0.0-3.0-6.0-1.0","spark_pilot_norest","9992","5","7","Male","","","","","","","null","<div style=""font-size:60px;"">+</div>","null","fixation","","","","","","","","","","","",""
"revaluation","31","276168","0.0-3.0-6.0-0.1","spark_pilot_norest","9992","5","7","Male","","true","","","","","[]","./assets/img/space/animals/cat.jpg","[]","second stage practice","space","-5","{""ArrowUp,ArrowLeft"":3,""ArrowUp,ArrowRight"":36,""ArrowDown,ArrowLeft"":15,""ArrowDown,ArrowRight"":23}","false","ArrowUp","","","","","","",""
"html-keyboard-response","32","276675","0.0-3.0-6.0-1.1","spark_pilot_norest","9992","5","7","Male","","","","","","","null","<div style=""font-size:60px;"">+</div>","null","fixation","","","","","","","","","","","",""
"revaluation","33","280691","0.0-3.0-6.0-0.2","spark_pilot_norest","9992","5","7","Male","","true","","","","","[]","./assets/img/space/animals/rabbit.jpg","[]","second stage practice","space","-5","{""ArrowUp,ArrowLeft"":3,""ArrowUp,ArrowRight"":36,""ArrowDown,ArrowLeft"":15,""ArrowDown,ArrowRight"":23}","false","ArrowDown","","","","","","",""
"html-keyboard-response","34","281195","0.0-3.0-6.0-1.2","spark_pilot_norest","9992","5","7","Male","","","","","","","null","<div style=""font-size:60px;"">+</div>","null","fixation","","","","","","","","","","","",""
"revaluation","35","285198","0.0-3.0-6.0-0.3","spark_pilot_norest","9992","5","7","Male","","true","","","","","[]","./assets/img/space/animals/rabbit.jpg","[]","second stage practice","space","-5","{""ArrowUp,ArrowLeft"":3,""ArrowUp,ArrowRight"":36,""ArrowDown,ArrowLeft"":15,""ArrowDown,ArrowRight"":23}","false","ArrowDown","","","","","","",""
"html-keyboard-response","36","285700","0.0-3.0-6.0-1.3","spark_pilot_norest","9992","5","7","Male","","","","","","","null","<div style=""font-size:60px;"">+</div>","null","fixation","","","","","","","","","","","",""
"learning-instructions","37","306965","0.0-3.0-7.0-0.0","spark_pilot_norest","9992","5","7","Male","","","","","","","4463.699999809265","<p> Great job. Now let’s try putting it together. </p>
            <p> On each turn, you will first see a picture to remind you of the place you are in, and you need to choose whether to go up or down. </p>
            <p> Then you will see an animal and choose which of its chests to search for treasure. </p>","","instructions","","","","","","","","","","","",""
"learning-instructions","38","318387","0.0-3.0-7.0-0.1","spark_pilot_norest","9992","5","7","Male","","","","","","","3164.7999999523163","<p> When you choose whether to go up or down, try to go to the animal with the chest with the most treasure. </p>
            <p> Try practicing that now! </p>","","instructions","","","","","","","","","","","",""
"revaluation","39","322389","0.0-3.0-8.0-0.0","spark_pilot_norest","9992","5","7","Male","","true","","","","","[]","./assets/img/space/6.jpg","[]","full practice","space","-5","{""ArrowUp,ArrowLeft"":3,""ArrowUp,ArrowRight"":36,""ArrowDown,ArrowLeft"":15,""ArrowDown,ArrowRight"":23}","false","","false","","","","","",""
"html-keyboard-response","40","322891","0.0-3.0-8.0-1.0","spark_pilot_norest","9992","5","7","Male","","","","","","","null","<div style=""font-size:60px;"">+</div>","null","fixation","","","","","","","","","","","",""
"revaluation","41","326902","0.0-3.0-8.0-0.1","spark_pilot_norest","9992","5","7","Male","","true","","","","","[]","./assets/img/space/7.jpg","[]","full practice","space","-5","{""ArrowUp,ArrowLeft"":3,""ArrowUp,ArrowRight"":36,""ArrowDown,ArrowLeft"":15,""ArrowDown,ArrowRight"":23}","false","","false","","","","","",""
"html-keyboard-response","42","327403","0.0-3.0-8.0-1.1","spark_pilot_norest","9992","5","7","Male","","","","","","","null","<div style=""font-size:60px;"">+</div>","null","fixation","","","","","","","","","","","",""
"revaluation","43","331431","0.0-3.0-8.0-0.2","spark_pilot_norest","9992","5","7","Male","","true","","","","","[]","./assets/img/space/8.jpg","[]","full practice","space","-5","{""ArrowUp,ArrowLeft"":3,""ArrowUp,ArrowRight"":36,""ArrowDown,ArrowLeft"":15,""ArrowDown,ArrowRight"":23}","false","","false","","","","","",""
"html-keyboard-response","44","331937","0.0-3.0-8.0-1.2","spark_pilot_norest","9992","5","7","Male","","","","","","","null","<div style=""font-size:60px;"">+</div>","null","fixation","","","","","","","","","","","",""
"revaluation","45","335955","0.0-3.0-8.0-0.3","spark_pilot_norest","9992","5","7","Male","","true","","","","","[]","./assets/img/space/9.jpg","[]","full practice","space","-5","{""ArrowUp,ArrowLeft"":3,""ArrowUp,ArrowRight"":36,""ArrowDown,ArrowLeft"":15,""ArrowDown,ArrowRight"":23}","false","","false","","","","","",""
"html-keyboard-response","46","336458","0.0-3.0-8.0-1.3","spark_pilot_norest","9992","5","7","Male","","","","","","","null","<div style=""font-size:60px;"">+</div>","null","fixation","","","","","","","","","","","",""
"revaluation","47","340462","0.0-3.0-8.0-0.4","spark_pilot_norest","9992","5","7","Male","","true","","","","","[]","./assets/img/space/10.jpg","[]","full practice","space","-5","{""ArrowUp,ArrowLeft"":3,""ArrowUp,ArrowRight"":36,""ArrowDown,ArrowLeft"":15,""ArrowDown,ArrowRight"":23}","false","","false","","","","","",""
"html-keyboard-response","48","340970","0.0-3.0-8.0-1.4","spark_pilot_norest","9992","5","7","Male","","","","","","","null","<div style=""font-size:60px;"">+</div>","null","fixation","","","","","","","","","","","",""
"learning-instructions","49","360824","0.0-3.0-9.0-0.0","spark_pilot_norest","9992","5","7","Male","","","","","","","9552.5","<p> One last thing: sometimes, you will see a robber. The robber can be anywhere in the picture. </p>
            <p> If you do not stop them, you will lose treasure. </p>
            <img src='./assets/img/instructions/robber.jpg' class='instructions-image'>","","instructions","","","","","","","","","","","",""
"learning-instructions","50","369668","0.0-3.0-9.0-0.1","spark_pilot_norest","9992","5","7","Male","","","","","","","1675.9000000953674","<p> If you see the robber, you should <b>press the space bar</b> rather than using the arrow keys. </p>
            <p> Try practicing that now! </p>","","instructions","","","","","","","","","","","",""
"revaluation","51","373684","0.0-3.0-10.0-0.0","spark_pilot_norest","9992","5","7","Male","","true","","","","","[]","./assets/img/space/catch/0.jpg","[]","catch practice","space","-5","{""ArrowUp,ArrowLeft"":3,""ArrowUp,ArrowRight"":36,""ArrowDown,ArrowLeft"":15,""ArrowDown,ArrowRight"":23}","false","","true","","","","","",""
"html-keyboard-response","52","374185","0.0-3.0-10.0-1.0","spark_pilot_norest","9992","5","7","Male","","","","","","","null","<div style=""font-size:60px;"">+</div>","null","fixation","","","","","","","","","","","",""
"revaluation","53","378200","0.0-3.0-10.0-0.1","spark_pilot_norest","9992","5","7","Male","","true","","","","","[]","./assets/img/space/catch/1.jpg","[]","catch practice","space","-5","{""ArrowUp,ArrowLeft"":3,""ArrowUp,ArrowRight"":36,""ArrowDown,ArrowLeft"":15,""ArrowDown,ArrowRight"":23}","false","","true","","","","","",""
"html-keyboard-response","54","378704","0.0-3.0-10.0-1.1","spark_pilot_norest","9992","5","7","Male","","","","","","","null","<div style=""font-size:60px;"">+</div>","null","fixation","","","","","","","","","","","",""
"revaluation","55","382721","0.0-3.0-10.0-0.2","spark_pilot_norest","9992","5","7","Male","","true","","","","","[]","./assets/img/space/catch/2.jpg","[]","catch practice","space","-5","{""ArrowUp,ArrowLeft"":3,""ArrowUp,ArrowRight"":36,""ArrowDown,ArrowLeft"":15,""ArrowDown,ArrowRight"":23}","false","","true","","","","","",""
"html-keyboard-response","56","383223","0.0-3.0-10.0-1.2","spark_pilot_norest","9992","5","7","Male","","","","","","","null","<div style=""font-size:60px;"">+</div>","null","fixation","","","","","","","","","","","",""
"learning-instructions","57","392613","0.0-3.0-11.0-0.0-0.0","spark_pilot_norest","9992","5","7","Male","","","","","","","4140.799999952316","<p> Now, you will practice a shortened version of the game to get a sense of how it all fits together. </p>","","instructions","","","","","","","","","","","",""
"learning-instructions","58","405866","0.0-3.0-11.0-0.0-0.1","spark_pilot_norest","9992","5","7","Male","","","","","","","10073.5","<p>This time you are searching for treasure in outer space.</p>","","instructions","","","","","","","","","","","",""
"learning-instructions","59","443093","0.0-3.0-11.0-1.0-0.0","spark_pilot_norest","9992","5","7","Male","","","","","","","22460.700000047684","<p> Remember, when you see a picture of the place, use the up and down keys to <b>find an animal</b>.</p>
            <p> When you encounter an animal, you should use the left and right keys to <b>select a treasure chest</b>.</p>
            <p> Don't forget to look out for the robber! </p>","","instructions","","","","","","","","","","","",""
"revaluation","60","447097","0.0-3.0-11.0-2.0-0.0","spark_pilot_norest","9992","5","7","Male","","true","","","","","[]","./assets/img/space/11.jpg","[]","practice block","space","-5","{""ArrowUp,ArrowLeft"":3,""ArrowUp,ArrowRight"":36,""ArrowDown,ArrowLeft"":15,""ArrowDown,ArrowRight"":23}","false","","false","","","","","",""
"html-keyboard-response","61","447598","0.0-3.0-11.0-2.0-1.0","spark_pilot_norest","9992","5","7","Male","","","","","","","null","<div style=""font-size:60px;"">+</div>","null","fixation","","","","","","","","","","","",""
"revaluation","62","451608","0.0-3.0-11.0-2.0-0.1","spark_pilot_norest","9992","5","7","Male","","true","","","","","[]","./assets/img/space/12.jpg","[]","practice block","space","-5","{""ArrowUp,ArrowLeft"":3,""ArrowUp,ArrowRight"":36,""ArrowDown,ArrowLeft"":15,""ArrowDown,ArrowRight"":23}","false","","false","","","","","",""
"html-keyboard-response","63","452110","0.0-3.0-11.0-2.0-1.1","spark_pilot_norest","9992","5","7","Male","","","","","","","null","<div style=""font-size:60px;"">+</div>","null","fixation","","","","","","","","","","","",""
"revaluation","64","458114","0.0-3.0-11.0-2.0-0.2","spark_pilot_norest","9992","5","7","Male","","true","","","","","[972.7999999523163]","./assets/img/space/13.jpg","[""ArrowUp""]","practice block","space","-5","{""ArrowUp,ArrowLeft"":3,""ArrowUp,ArrowRight"":36,""ArrowDown,ArrowLeft"":15,""ArrowDown,ArrowRight"":23}","false","ArrowUp","false","","","","","",""
"html-keyboard-response","65","458615","0.0-3.0-11.0-2.0-1.2","spark_pilot_norest","9992","5","7","Male","","","","","","","null","<div style=""font-size:60px;"">+</div>","null","fixation","","","","","","","","","","","",""
"revaluation","66","464620","0.0-3.0-11.0-2.0-0.3","spark_pilot_norest","9992","5","7","Male","","false","","","","","[1807.2000000476837,1646.7999999523163]","./assets/img/space/14.jpg","[""ArrowDown"",""ArrowRight""]","practice block","space","23","{""ArrowUp,ArrowLeft"":3,""ArrowUp,ArrowRight"":36,""ArrowDown,ArrowLeft"":15,""ArrowDown,ArrowRight"":23}","false","ArrowDown,ArrowRight","false","","","","","",""
"html-keyboard-response","67","465122","0.0-3.0-11.0-2.0-1.3","spark_pilot_norest","9992","5","7","Male","","","","","","","null","<div style=""font-size:60px;"">+</div>","null","fixation","","","","","","","","","","","",""
"revaluation","68","469126","0.0-3.0-11.0-2.0-0.4","spark_pilot_norest","9992","5","7","Male","","true","","","","","[]","./assets/img/space/11.jpg","[]","practice block","space","-5","{""ArrowUp,ArrowLeft"":3,""ArrowUp,ArrowRight"":36,""ArrowDown,ArrowLeft"":15,""ArrowDown,ArrowRight"":23}","false","","false","","","","","",""
"html-keyboard-response","69","469627","0.0-3.0-11.0-2.0-1.4","spark_pilot_norest","9992","5","7","Male","","","","","","","null","<div style=""font-size:60px;"">+</div>","null","fixation","","","","","","","","","","","",""
"revaluation","70","475634","0.0-3.0-11.0-2.0-0.5","spark_pilot_norest","9992","5","7","Male","","false","","","","","[825.2000000476837,897.2000000476837]","./assets/img/space/12.jpg","[""ArrowUp"",""ArrowRight""]","practice block","space","36","{""ArrowUp,ArrowLeft"":3,""ArrowUp,ArrowRight"":36,""ArrowDown,ArrowLeft"":15,""ArrowDown,ArrowRight"":23}","true","ArrowUp,ArrowRight","false","","","","","",""
"html-keyboard-response","71","476135","0.0-3.0-11.0-2.0-1.5","spark_pilot_norest","9992","5","7","Male","","","","","","","null","<div style=""font-size:60px;"">+</div>","null","fixation","","","","","","","","","","","",""
"revaluation","72","480139","0.0-3.0-11.0-2.0-0.6","spark_pilot_norest","9992","5","7","Male","","true","","","","","[]","./assets/img/space/13.jpg","[]","practice block","space","-5","{""ArrowUp,ArrowLeft"":3,""ArrowUp,ArrowRight"":36,""ArrowDown,ArrowLeft"":15,""ArrowDown,ArrowRight"":23}","false","","false","","","","","",""
"html-keyboard-response","73","480640","0.0-3.0-11.0-2.0-1.6","spark_pilot_norest","9992","5","7","Male","","","","","","","null","<div style=""font-size:60px;"">+</div>","null","fixation","","","","","","","","","","","",""
"revaluation","74","484645","0.0-3.0-11.0-2.0-0.7","spark_pilot_norest","9992","5","7","Male","","true","","","","","[]","./assets/img/space/14.jpg","[]","practice block","space","-5","{""ArrowUp,ArrowLeft"":3,""ArrowUp,ArrowRight"":36,""ArrowDown,ArrowLeft"":15,""ArrowDown,ArrowRight"":23}","false","","false","","","","","",""
"html-keyboard-response","75","485146","0.0-3.0-11.0-2.0-1.7","spark_pilot_norest","9992","5","7","Male","","","","","","","null","<div style=""font-size:60px;"">+</div>","null","fixation","","","","","","","","","","","",""
"revaluation","76","489149","0.0-3.0-11.0-2.0-0.8","spark_pilot_norest","9992","5","7","Male","","false","","","","","[1204.2000000476837]","./assets/img/space/catch/3.jpg","[""spaceBar""]","practice block","space","0","{""ArrowUp,ArrowLeft"":3,""ArrowUp,ArrowRight"":36,""ArrowDown,ArrowLeft"":15,""ArrowDown,ArrowRight"":23}","true","spaceBar","true","","","","","",""
"html-keyboard-response","77","489651","0.0-3.0-11.0-2.0-1.8","spark_pilot_norest","9992","5","7","Male","","","","","","","null","<div style=""font-size:60px;"">+</div>","null","fixation","","","","","","","","","","","",""
"learning-instructions","78","506771","0.0-3.0-11.0-3.0-0.0","spark_pilot_norest","9992","5","7","Male","","","","","","","4198.5","<p> Now, you will travel with a friend who will choose whether you go up or down first. </p>
            <p> On these turns, you will just see the animal that they found. You will still get to choose which chest to search for treasure.</p>","","instructions","","","","","","","","","","","",""
"revaluation","79","510793","0.0-3.0-11.0-4.0-0.0","spark_pilot_norest","9992","5","7","Male","","true","","","","","[]","./assets/img/space/animals/rabbit.jpg","[]","practice block","space","-5","{""ArrowUp,ArrowLeft"":3,""ArrowUp,ArrowRight"":36,""ArrowDown,ArrowLeft"":15,""ArrowDown,ArrowRight"":23}","false","ArrowDown","","","","","","",""
"html-keyboard-response","80","511298","0.0-3.0-11.0-4.0-1.0","spark_pilot_norest","9992","5","7","Male","","","","","","","null","<div style=""font-size:60px;"">+</div>","null","fixation","","","","","","","","","","","",""
"revaluation","81","515321","0.0-3.0-11.0-4.0-0.1","spark_pilot_norest","9992","5","7","Male","","false","","","","","[1054.5999999046326]","./assets/img/space/animals/cat.jpg","[""ArrowRight""]","practice block","space","36","{""ArrowUp,ArrowLeft"":3,""ArrowUp,ArrowRight"":36,""ArrowDown,ArrowLeft"":15,""ArrowDown,ArrowRight"":23}","true","ArrowUp,ArrowRight","","","","","","",""
"html-keyboard-response","82","515827","0.0-3.0-11.0-4.0-1.1","spark_pilot_norest","9992","5","7","Male","","","","","","","null","<div style=""font-size:60px;"">+</div>","null","fixation","","","","","","","","","","","",""
"revaluation","83","519841","0.0-3.0-11.0-4.0-0.2","spark_pilot_norest","9992","5","7","Male","","false","","","","","[688.7000000476837]","./assets/img/space/animals/rabbit.jpg","[""ArrowLeft""]","practice block","space","15","{""ArrowUp,ArrowLeft"":3,""ArrowUp,ArrowRight"":36,""ArrowDown,ArrowLeft"":15,""ArrowDown,ArrowRight"":23}","false","ArrowDown,ArrowLeft","","","","","","",""
"html-keyboard-response","84","520345","0.0-3.0-11.0-4.0-1.2","spark_pilot_norest","9992","5","7","Male","","","","","","","null","<div style=""font-size:60px;"">+</div>","null","fixation","","","","","","","","","","","",""
"revaluation","85","524362","0.0-3.0-11.0-4.0-0.3","spark_pilot_norest","9992","5","7","Male","","false","","","","","[683.8999998569489]","./assets/img/space/animals/cat.jpg","[""ArrowRight""]","practice block","space","36","{""ArrowUp,ArrowLeft"":3,""ArrowUp,ArrowRight"":36,""ArrowDown,ArrowLeft"":15,""ArrowDown,ArrowRight"":23}","true","ArrowUp,ArrowRight","","","","","","",""
"html-keyboard-response","86","524872","0.0-3.0-11.0-4.0-1.3","spark_pilot_norest","9992","5","7","Male","","","","","","","null","<div style=""font-size:60px;"">+</div>","null","fixation","","","","","","","","","","","",""
"learning-instructions","87","533006","0.0-3.0-11.0-5.0-0.0","spark_pilot_norest","9992","5","7","Male","","","","","","","null","<p> You have almost finished this part of the game! </p>
            <p> We are going to ask you to make a few more choices. </p>","","instructions","","","","","","","","","","","",""
"learning-instructions","88","549006","0.0-3.0-11.0-5.0-0.1","spark_pilot_norest","9992","5","7","Male","","","","","","","null","<p> First, you need to decide whether to go up or down. When you see each picture, use the arrow keys to make your choice. </p>
            <p><b>You will not see which animal you found, but try to get to the one that will give you the most treasure.</b></p>","","instructions","","","","","","","","","","","",""
"html-keyboard-response","89","550012","0.0-3.0-11.0-6.0-0.0","spark_pilot_norest","9992","5","7","Male","","","","","","","null","<div style=""font-size:100px;color:red;"">Starting in...</div>","null","","","","","","","","","","","","",""
"html-keyboard-response","90","551018","0.0-3.0-11.0-6.0-1.0","spark_pilot_norest","9992","5","7","Male","","","","","","","null","<div style=""font-size:200px;color:red;"">3</div>","null","","","","","","","","","","","","",""
"html-keyboard-response","91","552019","0.0-3.0-11.0-6.0-2.0","spark_pilot_norest","9992","5","7","Male","","","","","","","null","<div style=""font-size:200px;color:red;"">2</div>","null","","","","","","","","","","","","",""
"html-keyboard-response","92","553025","0.0-3.0-11.0-6.0-3.0","spark_pilot_norest","9992","5","7","Male","","","","","","","null","<div style=""font-size:200px;color:red;"">1</div>","null","","","","","","","","","","","","",""
"revaluation","93","553917","0.0-3.0-11.0-7.0","spark_pilot_norest","9992","5","7","Male","","false","","","","","[890.3000001907349]","./assets/img/space/15.jpg","[""ArrowUp""]","practice block","space","0","{""ArrowUp,ArrowLeft"":3,""ArrowUp,ArrowRight"":36,""ArrowDown,ArrowLeft"":15,""ArrowDown,ArrowRight"":23}","true","ArrowUp","false","","","","","",""
"html-keyboard-response","94","554419","0.0-3.0-11.0-8.0","spark_pilot_norest","9992","5","7","Male","","","","","","","null","<div style=""font-size:60px;"">+</div>","null","fixation","","","","","","","","","","","",""
"learning-instructions","95","567803","0.0-3.0-11.0-9.0-0.0","spark_pilot_norest","9992","5","7","Male","","","","","","","null","<p> Now you will see the animals again and can search their chests for treasure. </p>
            <p> This time, you will not see how much treasure you earned, but you will earn more bonus money for making better choices. </p>","","instructions","","","","","","","","","","","",""
"html-keyboard-response","96","568811","0.0-3.0-11.0-10.0-0.0","spark_pilot_norest","9992","5","7","Male","","","","","","","null","<div style=""font-size:100px;color:red;"">Starting in...</div>","null","","","","","","","","","","","","",""
"html-keyboard-response","97","569816","0.0-3.0-11.0-10.0-1.0","spark_pilot_norest","9992","5","7","Male","","","","","","","null","<div style=""font-size:200px;color:red;"">3</div>","null","","","","","","","","","","","","",""
"html-keyboard-response","98","570826","0.0-3.0-11.0-10.0-2.0","spark_pilot_norest","9992","5","7","Male","","","","","","","null","<div style=""font-size:200px;color:red;"">2</div>","null","","","","","","","","","","","","",""
"html-keyboard-response","99","571827","0.0-3.0-11.0-10.0-3.0","spark_pilot_norest","9992","5","7","Male","","","","","","","null","<div style=""font-size:200px;color:red;"">1</div>","null","","","","","","","","","","","","",""
"revaluation","100","572291","0.0-3.0-11.0-11.0-0.0","spark_pilot_norest","9992","5","7","Male","","false","","","","","[461.5]","./assets/img/space/animals/cat.jpg","[""ArrowRight""]","practice block","space","0","{""ArrowUp,ArrowLeft"":3,""ArrowUp,ArrowRight"":36,""ArrowDown,ArrowLeft"":15,""ArrowDown,ArrowRight"":23}","true","ArrowUp,ArrowRight","","","","","","",""
"html-keyboard-response","101","572800","0.0-3.0-11.0-11.0-1.0","spark_pilot_norest","9992","5","7","Male","","","","","","","null","<div style=""font-size:60px;"">+</div>","null","fixation","","","","","","","","","","","",""
"revaluation","102","573576","0.0-3.0-11.0-11.0-0.1","spark_pilot_norest","9992","5","7","Male","","false","","","","","[773.0999999046326]","./assets/img/space/animals/rabbit.jpg","[""ArrowRight""]","practice block","space","0","{""ArrowUp,ArrowLeft"":3,""ArrowUp,ArrowRight"":36,""ArrowDown,ArrowLeft"":15,""ArrowDown,ArrowRight"":23}","true","ArrowDown,ArrowRight","","","","","","",""
"html-keyboard-response","103","574087","0.0-3.0-11.0-11.0-1.1","spark_pilot_norest","9992","5","7","Male","","","","","","","null","<div style=""font-size:60px;"">+</div>","null","fixation","","","","","","","","","","","",""
"learning-instructions","104","580403","0.0-3.0-12.0-0.0","spark_pilot_norest","9992","5","7","Male","","","","","","","1740.7000000476837","<p> Before you start, we're going to ask you a few questions about how the game works. </p>","","instructions","","","","","","","","","","","",""
"comp-q","105","589035","0.0-3.0-13.0-0.0-0.0","spark_pilot_norest","9992","5","7","Male","","","","","","","3050.4000000953674","<p> <b> True or False? </b> </p>
            <p> There can be 50 pieces of treasure in a given animal's chest. </p>","1","comp_question","","","","true","","","","","","","",""
"comp-q","106","598606","0.0-3.0-13.0-0.0-1.0","spark_pilot_norest","9992","5","7","Male","","","","","","","2913.899999856949","<p> <b> That's right! </b> The amount of treasure in each chest can range from 0 to 40 pieces. </p>","0","comp_answer","","","","","","","","","","","",""
"comp-q","107","608922","0.0-3.0-13.0-0.1-0.1","spark_pilot_norest","9992","5","7","Male","","","","","","","3209.0999999046326","<p> <b> True or False? </b> </p><p> In this game, all animals have the same amount of treasure in their left and right chests. </p>","0","comp_question","","","","false","","","","","","","",""
"comp-q","108","615807","0.0-3.0-13.0-0.1-1.1","spark_pilot_norest","9992","5","7","Male","","","","","","","1796.1000001430511","<p> <b>Incorrect.</b> Animals have different amounts of treasure in their treasure chests. </p>","0","comp_answer","","","","","","","","","","","",""
"comp-q","109","624996","0.0-3.0-13.0-0.2-0.2","spark_pilot_norest","9992","5","7","Male","","","","","","","2104.4000000953674","<p> <b> True or False? </b> </p><p> In this game, all animals have the same amount of treasure in their left and right chests. </p>","1","comp_question","","","","true","","","","","","","",""
"comp-q","110","632708","0.0-3.0-13.0-0.2-1.2","spark_pilot_norest","9992","5","7","Male","","","","","","","2476.399999856949","<p> <b> That's right! </b> Animals have different amounts of treasure in their treasure chests. </p>","0","comp_answer","","","","","","","","","","","",""
"comp-q","111","643438","0.0-3.0-13.0-0.3-0.3","spark_pilot_norest","9992","5","7","Male","","","","","","","4886","<p> <b> True or False? </b> </p><p> The same animal will always be there if you go up in the same place. </p>","1","comp_question","","","","false","","","","","","","",""
"comp-q","112","652178","0.0-3.0-13.0-0.3-1.3","spark_pilot_norest","9992","5","7","Male","","","","","","","2446.2999999523163","<p> <b>Incorrect.</b> One animal lives in the upper part and one lives in the lower part of every place. </p>","0","comp_answer","","","","","","","","","","","",""
"comp-q","113","661834","0.0-3.0-13.0-0.4-0.4","spark_pilot_norest","9992","5","7","Male","","","","","","","3832.5999999046326","<p> <b> True or False? </b> </p><p> The same animal will always be there if you go up in the same place. </p>","0","comp_question","","","","true","","","","","","","",""
"comp-q","114","672221","0.0-3.0-13.0-0.4-1.4","spark_pilot_norest","9992","5","7","Male","","","","","","","3939.7999999523163","<p> <b> That's right! </b> One animal lives in the upper part and one lives in the lower part of every place. </p>","0","comp_answer","","","","","","","","","","","",""
"comp-q","115","682079","0.0-3.0-13.0-0.5-0.5","spark_pilot_norest","9992","5","7","Male","","","","","","","4346.5","<p> <b> True or False? </b> </p><p> If you see a different picture, it means you are in a new place. </p>","1","comp_question","","","","true","","","","","","","",""
"comp-q","116","696235","0.0-3.0-13.0-0.5-1.5","spark_pilot_norest","9992","5","7","Male","","","","","","","2942.5","<p> <b> That's right! </b> Lots of different images may show the same place. For example,  you may see three different images that all remind you that you are in outer space. </p>","0","comp_answer","","","","","","","","","","","",""
"learning-instructions","117","712419","0.0-3.0-14.0-0.0","spark_pilot_norest","9992","5","7","Male","","","","","","","6336.200000047684","<p> Good job. Remember to do your best because the amount of treasure you earn will be converted into bonus money. </p>
            <p> It’s time to start the real game! </p>","","instructions","","","","","","","","","","","",""
"learning-instructions","118","716607","0.0-4.0-0.0-0.0","spark_pilot_norest","9992","5","7","Male","","","","","","","1415","<p> This time you are searching for treasure in the <b>canyon</b>.</p>","","instructions","","","","","","","","","","","",""
"learning-instructions","119","736521","0.0-4.0-0.0-0.1","spark_pilot_norest","9992","5","7","Male","","","","","","","2628.5999999046326","<p><b>New</b> animals with <b>new</b> treasure chests live here. You need to explore to discover where the animal with the best treasure chest is.</p>
                    <p> Like before, once you figure out which animal has the chest with the most treasure, you should try to get to that animal and select that chest! </p>","","instructions","","","","","","","","","","","",""
"learning-instructions","120","753859","0.0-4.0-1.0-0.0","spark_pilot_norest","9992","5","7","Male","","","","","","","2606.5","<p> Remember, when you see a picture of the place, use the up and down keys to <b>find an animal</b>.</p>
            <p> When you encounter an animal, you should use the left and right keys to <b>select a treasure chest</b>.</p>
            <p> Don't forget to look out for the robber! </p>","","instructions","","","","","","","","","","","",""
"revaluation","121","757873","0.0-4.0-2.0-0.0","spark_pilot_norest","9992","5","7","Male","","true","","","","","[]","./assets/img/canyon/memory/13.jpg","[]","value training","canyon","-5","{""ArrowUp,ArrowLeft"":26,""ArrowUp,ArrowRight"":10,""ArrowDown,ArrowLeft"":5,""ArrowDown,ArrowRight"":17}","false","","false","original","1","0","","",""
"html-keyboard-response","122","758380","0.0-4.0-2.0-1.0","spark_pilot_norest","9992","5","7","Male","","","","","","","null","<div style=""font-size:60px;"">+</div>","null","fixation","","","","","","","","","1","","",""
"revaluation","123","764399","0.0-4.0-2.0-0.1","spark_pilot_norest","9992","5","7","Male","","true","","","","","[1379.6999998092651]","./assets/img/canyon/memory/24.jpg","[""ArrowUp""]","value training","canyon","-5","{""ArrowUp,ArrowLeft"":26,""ArrowUp,ArrowRight"":10,""ArrowDown,ArrowLeft"":5,""ArrowDown,ArrowRight"":17}","false","ArrowUp","false","original","1","2","","",""
"html-keyboard-response","124","764916","0.0-4.0-2.0-1.1","spark_pilot_norest","9992","5","7","Male","","","","","","","null","<div style=""font-size:60px;"">+</div>","null","fixation","","","","","","","","","3","","",""
"revaluation","125","768940","0.0-4.0-2.0-0.2","spark_pilot_norest","9992","5","7","Male","","true","","","","","[]","./assets/img/canyon/memory/39.jpg","[]","value training","canyon","-5","{""ArrowUp,ArrowLeft"":26,""ArrowUp,ArrowRight"":10,""ArrowDown,ArrowLeft"":5,""ArrowDown,ArrowRight"":17}","false","","false","original","1","4","","",""
"html-keyboard-response","126","769444","0.0-4.0-2.0-1.2","spark_pilot_norest","9992","5","7","Male","","","","","","","null","<div style=""font-size:60px;"">+</div>","null","fixation","","","","","","","","","5","","",""
"revaluation","127","775473","0.0-4.0-2.0-0.3","spark_pilot_norest","9992","5","7","Male","","false","","","","","[1038.6000001430511,628.5]","./assets/img/canyon/memory/29.jpg","[""ArrowUp"",""ArrowRight""]","value training","canyon","10","{""ArrowUp,ArrowLeft"":26,""ArrowUp,ArrowRight"":10,""ArrowDown,ArrowLeft"":5,""ArrowDown,ArrowRight"":17}","false","ArrowUp,ArrowRight","false","original","1","6","","",""
"html-keyboard-response","128","775990","0.0-4.0-2.0-1.3","spark_pilot_norest","9992","5","7","Male","","","","","","","null","<div style=""font-size:60px;"">+</div>","null","fixation","","","","","","","","","7","","",""
"revaluation","129","780004","0.0-4.0-2.0-0.4","spark_pilot_norest","9992","5","7","Male","","false","","","","","[1339.7000000476837]","./assets/img/canyon/catch/2.jpg","[""ArrowUp""]","value training","canyon","-10","{""ArrowUp,ArrowLeft"":26,""ArrowUp,ArrowRight"":10,""ArrowDown,ArrowLeft"":5,""ArrowDown,ArrowRight"":17}","false","ArrowUp","true","original","1","8","","",""
"html-keyboard-response","130","780509","0.0-4.0-2.0-1.4","spark_pilot_norest","9992","5","7","Male","","","","","","","null","<div style=""font-size:60px;"">+</div>","null","fixation","","","","","","","","","9","","",""
"revaluation","131","784513","0.0-4.0-2.0-0.5","spark_pilot_norest","9992","5","7","Male","","true","","","","","[]","./assets/img/canyon/memory/28.jpg","[]","value training","canyon","-5","{""ArrowUp,ArrowLeft"":26,""ArrowUp,ArrowRight"":10,""ArrowDown,ArrowLeft"":5,""ArrowDown,ArrowRight"":17}","false","","false","original","1","10","","",""
"html-keyboard-response","132","785015","0.0-4.0-2.0-1.5","spark_pilot_norest","9992","5","7","Male","","","","","","","null","<div style=""font-size:60px;"">+</div>","null","fixation","","","","","","","","","11","","",""
"revaluation","133","791019","0.0-4.0-2.0-0.6","spark_pilot_norest","9992","5","7","Male","","false","","","","","[1152.5,1285.6999998092651]","./assets/img/canyon/memory/32.jpg","[""ArrowUp"",""ArrowRight""]","value training","canyon","10","{""ArrowUp,ArrowLeft"":26,""ArrowUp,ArrowRight"":10,""ArrowDown,ArrowLeft"":5,""ArrowDown,ArrowRight"":17}","false","ArrowUp,ArrowRight","false","original","1","12","","",""
"html-keyboard-response","134","791521","0.0-4.0-2.0-1.6","spark_pilot_norest","9992","5","7","Male","","","","","","","null","<div style=""font-size:60px;"">+</div>","null","fixation","","","","","","","","","13","","",""
"revaluation","135","795525","0.0-4.0-2.0-0.7","spark_pilot_norest","9992","5","7","Male","","true","","","","","[]","./assets/img/canyon/memory/0.jpg","[]","value training","canyon","-5","{""ArrowUp,ArrowLeft"":26,""ArrowUp,ArrowRight"":10,""ArrowDown,ArrowLeft"":5,""ArrowDown,ArrowRight"":17}","false","","false","original","1","14","","",""
"html-keyboard-response","136","796027","0.0-4.0-2.0-1.7","spark_pilot_norest","9992","5","7","Male","","","","","","","null","<div style=""font-size:60px;"">+</div>","null","fixation","","","","","","","","","15","","",""
"revaluation","137","800030","0.0-4.0-2.0-0.8","spark_pilot_norest","9992","5","7","Male","","true","","","","","[]","./assets/img/canyon/memory/24.jpg","[]","value training","canyon","-5","{""ArrowUp,ArrowLeft"":26,""ArrowUp,ArrowRight"":10,""ArrowDown,ArrowLeft"":5,""ArrowDown,ArrowRight"":17}","false","","false","original","1","16","","",""
"html-keyboard-response","138","800531","0.0-4.0-2.0-1.8","spark_pilot_norest","9992","5","7","Male","","","","","","","null","<div style=""font-size:60px;"">+</div>","null","fixation","","","","","","","","","17","","",""
"revaluation","139","804535","0.0-4.0-2.0-0.9","spark_pilot_norest","9992","5","7","Male","","true","","","","","[]","./assets/img/canyon/catch/0.jpg","[]","value training","canyon","-5","{""ArrowUp,ArrowLeft"":26,""ArrowUp,ArrowRight"":10,""ArrowDown,ArrowLeft"":5,""ArrowDown,ArrowRight"":17}","false","","true","original","1","18","","",""
"html-keyboard-response","140","805038","0.0-4.0-2.0-1.9","spark_pilot_norest","9992","5","7","Male","","","","","","","null","<div style=""font-size:60px;"">+</div>","null","fixation","","","","","","","","","19","","",""
"revaluation","141","809040","0.0-4.0-2.0-0.10","spark_pilot_norest","9992","5","7","Male","","true","","","","","[]","./assets/img/canyon/memory/18.jpg","[]","value training","canyon","-5","{""ArrowUp,ArrowLeft"":26,""ArrowUp,ArrowRight"":10,""ArrowDown,ArrowLeft"":5,""ArrowDown,ArrowRight"":17}","false","","false","original","1","20","","",""
"html-keyboard-response","142","809541","0.0-4.0-2.0-1.10","spark_pilot_norest","9992","5","7","Male","","","","","","","null","<div style=""font-size:60px;"">+</div>","null","fixation","","","","","","","","","21","","",""
"revaluation","143","815545","0.0-4.0-2.0-0.11","spark_pilot_norest","9992","5","7","Male","","true","","","","","[617.3999998569489]","./assets/img/canyon/memory/14.jpg","[""ArrowUp""]","value training","canyon","-5","{""ArrowUp,ArrowLeft"":26,""ArrowUp,ArrowRight"":10,""ArrowDown,ArrowLeft"":5,""ArrowDown,ArrowRight"":17}","false","ArrowUp","false","original","1","22","","",""
"html-keyboard-response","144","816046","0.0-4.0-2.0-1.11","spark_pilot_norest","9992","5","7","Male","","","","","","","null","<div style=""font-size:60px;"">+</div>","null","fixation","","","","","","","","","23","","",""
"revaluation","145","820049","0.0-4.0-2.0-0.12","spark_pilot_norest","9992","5","7","Male","","true","","","","","[]","./assets/img/canyon/memory/38.jpg","[]","value training","canyon","-5","{""ArrowUp,ArrowLeft"":26,""ArrowUp,ArrowRight"":10,""ArrowDown,ArrowLeft"":5,""ArrowDown,ArrowRight"":17}","false","","false","original","1","24","","",""
"html-keyboard-response","146","820551","0.0-4.0-2.0-1.12","spark_pilot_norest","9992","5","7","Male","","","","","","","null","<div style=""font-size:60px;"">+</div>","null","fixation","","","","","","","","","25","","",""
"revaluation","147","824555","0.0-4.0-2.0-0.13","spark_pilot_norest","9992","5","7","Male","","false","","","","","[1480.1000001430511]","./assets/img/canyon/catch/3.jpg","[""spaceBar""]","value training","canyon","0","{""ArrowUp,ArrowLeft"":26,""ArrowUp,ArrowRight"":10,""ArrowDown,ArrowLeft"":5,""ArrowDown,ArrowRight"":17}","true","spaceBar","true","original","1","26","","",""
"html-keyboard-response","148","825056","0.0-4.0-2.0-1.13","spark_pilot_norest","9992","5","7","Male","","","","","","","null","<div style=""font-size:60px;"">+</div>","null","fixation","","","","","","","","","27","","",""
"revaluation","149","829061","0.0-4.0-2.0-0.14","spark_pilot_norest","9992","5","7","Male","","true","","","","","[]","./assets/img/canyon/memory/1.jpg","[]","value training","canyon","-5","{""ArrowUp,ArrowLeft"":26,""ArrowUp,ArrowRight"":10,""ArrowDown,ArrowLeft"":5,""ArrowDown,ArrowRight"":17}","false","","false","original","1","28","","",""
"html-keyboard-response","150","829563","0.0-4.0-2.0-1.14","spark_pilot_norest","9992","5","7","Male","","","","","","","null","<div style=""font-size:60px;"">+</div>","null","fixation","","","","","","","","","29","","",""
"revaluation","151","835567","0.0-4.0-2.0-0.15","spark_pilot_norest","9992","5","7","Male","","false","","","","","[946.6000001430511,1398.2000000476837]","./assets/img/canyon/memory/25.jpg","[""ArrowUp"",""ArrowRight""]","value training","canyon","10","{""ArrowUp,ArrowLeft"":26,""ArrowUp,ArrowRight"":10,""ArrowDown,ArrowLeft"":5,""ArrowDown,ArrowRight"":17}","false","ArrowUp,ArrowRight","false","original","1","30","","",""
"html-keyboard-response","152","836068","0.0-4.0-2.0-1.15","spark_pilot_norest","9992","5","7","Male","","","","","","","null","<div style=""font-size:60px;"">+</div>","null","fixation","","","","","","","","","31","","",""
"revaluation","153","842074","0.0-4.0-2.0-0.16","spark_pilot_norest","9992","5","7","Male","","false","","","","","[1772.0999999046326,1766.9000000953674]","./assets/img/canyon/memory/10.jpg","[""ArrowUp"",""ArrowRight""]","value training","canyon","10","{""ArrowUp,ArrowLeft"":26,""ArrowUp,ArrowRight"":10,""ArrowDown,ArrowLeft"":5,""ArrowDown,ArrowRight"":17}","false","ArrowUp,ArrowRight","false","original","1","32","","",""
"html-keyboard-response","154","842575","0.0-4.0-2.0-1.16","spark_pilot_norest","9992","5","7","Male","","","","","","","null","<div style=""font-size:60px;"">+</div>","null","fixation","","","","","","","","","33","","",""
"revaluation","155","848579","0.0-4.0-2.0-0.17","spark_pilot_norest","9992","5","7","Male","","false","","","","","[722.6999998092651,1891.2000000476837]","./assets/img/canyon/memory/13.jpg","[""ArrowUp"",""ArrowLeft""]","value training","canyon","26","{""ArrowUp,ArrowLeft"":26,""ArrowUp,ArrowRight"":10,""ArrowDown,ArrowLeft"":5,""ArrowDown,ArrowRight"":17}","true","ArrowUp,ArrowLeft","false","original","1","34","","",""
"html-keyboard-response","156","849081","0.0-4.0-2.0-1.17","spark_pilot_norest","9992","5","7","Male","","","","","","","null","<div style=""font-size:60px;"">+</div>","null","fixation","","","","","","","","","35","","",""
"revaluation","157","853090","0.0-4.0-2.0-0.18","spark_pilot_norest","9992","5","7","Male","","true","","","","","[]","./assets/img/canyon/memory/5.jpg","[]","value training","canyon","-5","{""ArrowUp,ArrowLeft"":26,""ArrowUp,ArrowRight"":10,""ArrowDown,ArrowLeft"":5,""ArrowDown,ArrowRight"":17}","false","","false","original","1","36","","",""
"html-keyboard-response","158","853592","0.0-4.0-2.0-1.18","spark_pilot_norest","9992","5","7","Male","","","","","","","null","<div style=""font-size:60px;"">+</div>","null","fixation","","","","","","","","","37","","",""
"revaluation","159","859597","0.0-4.0-2.0-0.19","spark_pilot_norest","9992","5","7","Male","","false","","","","","[676.6999998092651,661.2000000476837]","./assets/img/canyon/memory/9.jpg","[""ArrowUp"",""ArrowLeft""]","value training","canyon","26","{""ArrowUp,ArrowLeft"":26,""ArrowUp,ArrowRight"":10,""ArrowDown,ArrowLeft"":5,""ArrowDown,ArrowRight"":17}","true","ArrowUp,ArrowLeft","false","original","1","38","","",""
"html-keyboard-response","160","860098","0.0-4.0-2.0-1.19","spark_pilot_norest","9992","5","7","Male","","","","","","","null","<div style=""font-size:60px;"">+</div>","null","fixation","","","","","","","","","39","","",""
"revaluation","161","866102","0.0-4.0-2.0-0.20","spark_pilot_norest","9992","5","7","Male","","false","","","","","[966.1000001430511,576.0999999046326]","./assets/img/canyon/memory/10.jpg","[""ArrowUp"",""ArrowLeft""]","value training","canyon","26","{""ArrowUp,ArrowLeft"":26,""ArrowUp,ArrowRight"":10,""ArrowDown,ArrowLeft"":5,""ArrowDown,ArrowRight"":17}","true","ArrowUp,ArrowLeft","false","original","1","40","","",""
"html-keyboard-response","162","866604","0.0-4.0-2.0-1.20","spark_pilot_norest","9992","5","7","Male","","","","","","","null","<div style=""font-size:60px;"">+</div>","null","fixation","","","","","","","","","41","","",""
"revaluation","163","870607","0.0-4.0-2.0-0.21","spark_pilot_norest","9992","5","7","Male","","true","","","","","[]","./assets/img/canyon/memory/38.jpg","[]","value training","canyon","-5","{""ArrowUp,ArrowLeft"":26,""ArrowUp,ArrowRight"":10,""ArrowDown,ArrowLeft"":5,""ArrowDown,ArrowRight"":17}","false","","false","original","1","42","","",""
"html-keyboard-response","164","871108","0.0-4.0-2.0-1.21","spark_pilot_norest","9992","5","7","Male","","","","","","","null","<div style=""font-size:60px;"">+</div>","null","fixation","","","","","","","","","43","","",""
"revaluation","165","875121","0.0-4.0-2.0-0.22","spark_pilot_norest","9992","5","7","Male","","true","","","","","[]","./assets/img/canyon/memory/26.jpg","[]","value training","canyon","-5","{""ArrowUp,ArrowLeft"":26,""ArrowUp,ArrowRight"":10,""ArrowDown,ArrowLeft"":5,""ArrowDown,ArrowRight"":17}","false","","false","original","1","44","","",""
"html-keyboard-response","166","875623","0.0-4.0-2.0-1.22","spark_pilot_norest","9992","5","7","Male","","","","","","","null","<div style=""font-size:60px;"">+</div>","null","fixation","","","","","","","","","45","","",""
"revaluation","167","881628","0.0-4.0-2.0-0.23","spark_pilot_norest","9992","5","7","Male","","false","","","","","[664,1432.5]","./assets/img/canyon/memory/31.jpg","[""ArrowUp"",""ArrowLeft""]","value training","canyon","26","{""ArrowUp,ArrowLeft"":26,""ArrowUp,ArrowRight"":10,""ArrowDown,ArrowLeft"":5,""ArrowDown,ArrowRight"":17}","true","ArrowUp,ArrowLeft","false","original","1","46","","",""
"html-keyboard-response","168","882129","0.0-4.0-2.0-1.23","spark_pilot_norest","9992","5","7","Male","","","","","","","null","<div style=""font-size:60px;"">+</div>","null","fixation","","","","","","","","","47","","",""
"revaluation","169","888133","0.0-4.0-2.0-0.24","spark_pilot_norest","9992","5","7","Male","","false","","","","","[752.2999999523163,496.89999985694885]","./assets/img/canyon/memory/18.jpg","[""ArrowUp"",""ArrowLeft""]","value training","canyon","26","{""ArrowUp,ArrowLeft"":26,""ArrowUp,ArrowRight"":10,""ArrowDown,ArrowLeft"":5,""ArrowDown,ArrowRight"":17}","true","ArrowUp,ArrowLeft","false","original","1","48","","",""
"html-keyboard-response","170","888635","0.0-4.0-2.0-1.24","spark_pilot_norest","9992","5","7","Male","","","","","","","null","<div style=""font-size:60px;"">+</div>","null","fixation","","","","","","","","","49","","",""
"revaluation","171","894640","0.0-4.0-2.0-0.25","spark_pilot_norest","9992","5","7","Male","","true","","","","","[791.7000000476837]","./assets/img/canyon/memory/26.jpg","[""ArrowUp""]","value training","canyon","-5","{""ArrowUp,ArrowLeft"":26,""ArrowUp,ArrowRight"":10,""ArrowDown,ArrowLeft"":5,""ArrowDown,ArrowRight"":17}","false","ArrowUp","false","original","1","50","","",""
"html-keyboard-response","172","895141","0.0-4.0-2.0-1.25","spark_pilot_norest","9992","5","7","Male","","","","","","","null","<div style=""font-size:60px;"">+</div>","null","fixation","","","","","","","","","51","","",""
"revaluation","173","899145","0.0-4.0-2.0-0.26","spark_pilot_norest","9992","5","7","Male","","true","","","","","[]","./assets/img/canyon/memory/1.jpg","[]","value training","canyon","-5","{""ArrowUp,ArrowLeft"":26,""ArrowUp,ArrowRight"":10,""ArrowDown,ArrowLeft"":5,""ArrowDown,ArrowRight"":17}","false","","false","original","1","52","","",""
"html-keyboard-response","174","899647","0.0-4.0-2.0-1.26","spark_pilot_norest","9992","5","7","Male","","","","","","","null","<div style=""font-size:60px;"">+</div>","null","fixation","","","","","","","","","53","","",""
"revaluation","175","905651","0.0-4.0-2.0-0.27","spark_pilot_norest","9992","5","7","Male","","false","","","","","[664.3000001907349,608.2000000476837]","./assets/img/canyon/memory/36.jpg","[""ArrowUp"",""ArrowLeft""]","value training","canyon","26","{""ArrowUp,ArrowLeft"":26,""ArrowUp,ArrowRight"":10,""ArrowDown,ArrowLeft"":5,""ArrowDown,ArrowRight"":17}","true","ArrowUp,ArrowLeft","false","original","1","54","","",""
"html-keyboard-response","176","906152","0.0-4.0-2.0-1.27","spark_pilot_norest","9992","5","7","Male","","","","","","","null","<div style=""font-size:60px;"">+</div>","null","fixation","","","","","","","","","55","","",""
"revaluation","177","910155","0.0-4.0-2.0-0.28","spark_pilot_norest","9992","5","7","Male","","false","","","","","[657]","./assets/img/canyon/catch/7.jpg","[""ArrowUp""]","value training","canyon","-10","{""ArrowUp,ArrowLeft"":26,""ArrowUp,ArrowRight"":10,""ArrowDown,ArrowLeft"":5,""ArrowDown,ArrowRight"":17}","false","ArrowUp","true","original","1","56","","",""
"html-keyboard-response","178","910657","0.0-4.0-2.0-1.28","spark_pilot_norest","9992","5","7","Male","","","","","","","null","<div style=""font-size:60px;"">+</div>","null","fixation","","","","","","","","","57","","",""
"revaluation","179","914662","0.0-4.0-2.0-0.29","spark_pilot_norest","9992","5","7","Male","","true","","","","","[]","./assets/img/canyon/memory/31.jpg","[]","value training","canyon","-5","{""ArrowUp,ArrowLeft"":26,""ArrowUp,ArrowRight"":10,""ArrowDown,ArrowLeft"":5,""ArrowDown,ArrowRight"":17}","false","","false","original","1","58","","",""
"html-keyboard-response","180","915164","0.0-4.0-2.0-1.29","spark_pilot_norest","9992","5","7","Male","","","","","","","null","<div style=""font-size:60px;"">+</div>","null","fixation","","","","","","","","","59","","",""
"revaluation","181","921168","0.0-4.0-2.0-0.30","spark_pilot_norest","9992","5","7","Male","","true","","","","","[983.5]","./assets/img/canyon/memory/28.jpg","[""ArrowUp""]","value training","canyon","-5","{""ArrowUp,ArrowLeft"":26,""ArrowUp,ArrowRight"":10,""ArrowDown,ArrowLeft"":5,""ArrowDown,ArrowRight"":17}","false","ArrowUp","false","original","1","60","","",""
"html-keyboard-response","182","921669","0.0-4.0-2.0-1.30","spark_pilot_norest","9992","5","7","Male","","","","","","","null","<div style=""font-size:60px;"">+</div>","null","fixation","","","","","","","","","61","","",""
"revaluation","183","927674","0.0-4.0-2.0-0.31","spark_pilot_norest","9992","5","7","Male","","false","","","","","[614.9000000953674,288.7000000476837]","./assets/img/canyon/memory/5.jpg","[""ArrowUp"",""ArrowLeft""]","value training","canyon","26","{""ArrowUp,ArrowLeft"":26,""ArrowUp,ArrowRight"":10,""ArrowDown,ArrowLeft"":5,""ArrowDown,ArrowRight"":17}","true","ArrowUp,ArrowLeft","false","original","1","62","","",""
"html-keyboard-response","184","928176","0.0-4.0-2.0-1.31","spark_pilot_norest","9992","5","7","Male","","","","","","","null","<div style=""font-size:60px;"">+</div>","null","fixation","","","","","","","","","63","","",""
"revaluation","185","932179","0.0-4.0-2.0-0.32","spark_pilot_norest","9992","5","7","Male","","false","","","","","[1232.5]","./assets/img/canyon/catch/5.jpg","[""spaceBar""]","value training","canyon","0","{""ArrowUp,ArrowLeft"":26,""ArrowUp,ArrowRight"":10,""ArrowDown,ArrowLeft"":5,""ArrowDown,ArrowRight"":17}","true","spaceBar","true","original","1","64","","",""
"html-keyboard-response","186","932680","0.0-4.0-2.0-1.32","spark_pilot_norest","9992","5","7","Male","","","","","","","null","<div style=""font-size:60px;"">+</div>","null","fixation","","","","","","","","","65","","",""
"revaluation","187","936684","0.0-4.0-2.0-0.33","spark_pilot_norest","9992","5","7","Male","","true","","","","","[]","./assets/img/canyon/memory/32.jpg","[]","value training","canyon","-5","{""ArrowUp,ArrowLeft"":26,""ArrowUp,ArrowRight"":10,""ArrowDown,ArrowLeft"":5,""ArrowDown,ArrowRight"":17}","false","","false","original","1","66","","",""
"html-keyboard-response","188","937186","0.0-4.0-2.0-1.33","spark_pilot_norest","9992","5","7","Male","","","","","","","null","<div style=""font-size:60px;"">+</div>","null","fixation","","","","","","","","","67","","",""
"revaluation","189","941190","0.0-4.0-2.0-0.34","spark_pilot_norest","9992","5","7","Male","","true","","","","","[]","./assets/img/canyon/memory/29.jpg","[]","value training","canyon","-5","{""ArrowUp,ArrowLeft"":26,""ArrowUp,ArrowRight"":10,""ArrowDown,ArrowLeft"":5,""ArrowDown,ArrowRight"":17}","false","","false","original","1","68","","",""
"html-keyboard-response","190","941691","0.0-4.0-2.0-1.34","spark_pilot_norest","9992","5","7","Male","","","","","","","null","<div style=""font-size:60px;"">+</div>","null","fixation","","","","","","","","","69","","",""
"revaluation","191","945695","0.0-4.0-2.0-0.35","spark_pilot_norest","9992","5","7","Male","","true","","","","","[]","./assets/img/canyon/memory/33.jpg","[]","value training","canyon","-5","{""ArrowUp,ArrowLeft"":26,""ArrowUp,ArrowRight"":10,""ArrowDown,ArrowLeft"":5,""ArrowDown,ArrowRight"":17}","false","","false","original","1","70","","",""
"html-keyboard-response","192","946196","0.0-4.0-2.0-1.35","spark_pilot_norest","9992","5","7","Male","","","","","","","null","<div style=""font-size:60px;"">+</div>","null","fixation","","","","","","","","","71","","",""
"revaluation","193","950199","0.0-4.0-2.0-0.36","spark_pilot_norest","9992","5","7","Male","","false","","","","","[710.3000001907349]","./assets/img/canyon/catch/4.jpg","[""ArrowUp""]","value training","canyon","-10","{""ArrowUp,ArrowLeft"":26,""ArrowUp,ArrowRight"":10,""ArrowDown,ArrowLeft"":5,""ArrowDown,ArrowRight"":17}","false","ArrowUp","true","original","1","72","","",""
"html-keyboard-response","194","950701","0.0-4.0-2.0-1.36","spark_pilot_norest","9992","5","7","Male","","","","","","","null","<div style=""font-size:60px;"">+</div>","null","fixation","","","","","","","","","73","","",""
"revaluation","195","954705","0.0-4.0-2.0-0.37","spark_pilot_norest","9992","5","7","Male","","true","","","","","[]","./assets/img/canyon/catch/6.jpg","[]","value training","canyon","-5","{""ArrowUp,ArrowLeft"":26,""ArrowUp,ArrowRight"":10,""ArrowDown,ArrowLeft"":5,""ArrowDown,ArrowRight"":17}","false","","true","original","1","74","","",""
"html-keyboard-response","196","955206","0.0-4.0-2.0-1.37","spark_pilot_norest","9992","5","7","Male","","","","","","","null","<div style=""font-size:60px;"">+</div>","null","fixation","","","","","","","","","75","","",""
"revaluation","197","959209","0.0-4.0-2.0-0.38","spark_pilot_norest","9992","5","7","Male","","true","","","","","[]","./assets/img/canyon/memory/35.jpg","[]","value training","canyon","-5","{""ArrowUp,ArrowLeft"":26,""ArrowUp,ArrowRight"":10,""ArrowDown,ArrowLeft"":5,""ArrowDown,ArrowRight"":17}","false","","false","original","1","76","","",""
"html-keyboard-response","198","959710","0.0-4.0-2.0-1.38","spark_pilot_norest","9992","5","7","Male","","","","","","","null","<div style=""font-size:60px;"">+</div>","null","fixation","","","","","","","","","77","","",""
"revaluation","199","963714","0.0-4.0-2.0-0.39","spark_pilot_norest","9992","5","7","Male","","true","","","","","[]","./assets/img/canyon/memory/16.jpg","[]","value training","canyon","-5","{""ArrowUp,ArrowLeft"":26,""ArrowUp,ArrowRight"":10,""ArrowDown,ArrowLeft"":5,""ArrowDown,ArrowRight"":17}","false","","false","original","1","78","","",""
"html-keyboard-response","200","964216","0.0-4.0-2.0-1.39","spark_pilot_norest","9992","5","7","Male","","","","","","","null","<div style=""font-size:60px;"">+</div>","null","fixation","","","","","","","","","79","","",""
"revaluation","201","970220","0.0-4.0-2.0-0.40","spark_pilot_norest","9992","5","7","Male","","false","","","","","[817.3999998569489,1176.5]","./assets/img/canyon/memory/33.jpg","[""ArrowUp"",""ArrowLeft""]","value training","canyon","26","{""ArrowUp,ArrowLeft"":26,""ArrowUp,ArrowRight"":10,""ArrowDown,ArrowLeft"":5,""ArrowDown,ArrowRight"":17}","true","ArrowUp,ArrowLeft","false","original","1","80","","",""
"html-keyboard-response","202","970722","0.0-4.0-2.0-1.40","spark_pilot_norest","9992","5","7","Male","","","","","","","null","<div style=""font-size:60px;"">+</div>","null","fixation","","","","","","","","","81","","",""
"revaluation","203","976727","0.0-4.0-2.0-0.41","spark_pilot_norest","9992","5","7","Male","","true","","","","","[813.2000000476837]","./assets/img/canyon/memory/0.jpg","[""ArrowUp""]","value training","canyon","-5","{""ArrowUp,ArrowLeft"":26,""ArrowUp,ArrowRight"":10,""ArrowDown,ArrowLeft"":5,""ArrowDown,ArrowRight"":17}","false","ArrowUp","false","original","1","82","","",""
"html-keyboard-response","204","977229","0.0-4.0-2.0-1.41","spark_pilot_norest","9992","5","7","Male","","","","","","","null","<div style=""font-size:60px;"">+</div>","null","fixation","","","","","","","","","83","","",""
"revaluation","205","981234","0.0-4.0-2.0-0.42","spark_pilot_norest","9992","5","7","Male","","false","","","","","[1149]","./assets/img/canyon/catch/1.jpg","[""ArrowUp""]","value training","canyon","-10","{""ArrowUp,ArrowLeft"":26,""ArrowUp,ArrowRight"":10,""ArrowDown,ArrowLeft"":5,""ArrowDown,ArrowRight"":17}","false","ArrowUp","true","original","1","84","","",""
"html-keyboard-response","206","981735","0.0-4.0-2.0-1.42","spark_pilot_norest","9992","5","7","Male","","","","","","","null","<div style=""font-size:60px;"">+</div>","null","fixation","","","","","","","","","85","","",""
"revaluation","207","987739","0.0-4.0-2.0-0.43","spark_pilot_norest","9992","5","7","Male","","false","","","","","[1021.4000000953674,1528.4000000953674]","./assets/img/canyon/memory/16.jpg","[""ArrowUp"",""ArrowLeft""]","value training","canyon","26","{""ArrowUp,ArrowLeft"":26,""ArrowUp,ArrowRight"":10,""ArrowDown,ArrowLeft"":5,""ArrowDown,ArrowRight"":17}","true","ArrowUp,ArrowLeft","false","original","1","86","","",""
"html-keyboard-response","208","988240","0.0-4.0-2.0-1.43","spark_pilot_norest","9992","5","7","Male","","","","","","","null","<div style=""font-size:60px;"">+</div>","null","fixation","","","","","","","","","87","","",""
"revaluation","209","994245","0.0-4.0-2.0-0.44","spark_pilot_norest","9992","5","7","Male","","false","","","","","[1171,1149.5999999046326]","./assets/img/canyon/memory/39.jpg","[""ArrowUp"",""ArrowLeft""]","value training","canyon","26","{""ArrowUp,ArrowLeft"":26,""ArrowUp,ArrowRight"":10,""ArrowDown,ArrowLeft"":5,""ArrowDown,ArrowRight"":17}","true","ArrowUp,ArrowLeft","false","original","1","88","","",""
"html-keyboard-response","210","994746","0.0-4.0-2.0-1.44","spark_pilot_norest","9992","5","7","Male","","","","","","","null","<div style=""font-size:60px;"">+</div>","null","fixation","","","","","","","","","89","","",""
"revaluation","211","1000751","0.0-4.0-2.0-0.45","spark_pilot_norest","9992","5","7","Male","","false","","","","","[1295.1000001430511,1008.9000000953674]","./assets/img/canyon/memory/25.jpg","[""ArrowUp"",""ArrowLeft""]","value training","canyon","26","{""ArrowUp,ArrowLeft"":26,""ArrowUp,ArrowRight"":10,""ArrowDown,ArrowLeft"":5,""ArrowDown,ArrowRight"":17}","true","ArrowUp,ArrowLeft","false","original","1","90","","",""
"html-keyboard-response","212","1001253","0.0-4.0-2.0-1.45","spark_pilot_norest","9992","5","7","Male","","","","","","","null","<div style=""font-size:60px;"">+</div>","null","fixation","","","","","","","","","91","","",""
"revaluation","213","1007271","0.0-4.0-2.0-0.46","spark_pilot_norest","9992","5","7","Male","","false","","","","","[1703.9000000953674,899.1000001430511]","./assets/img/canyon/memory/36.jpg","[""ArrowUp"",""ArrowLeft""]","value training","canyon","26","{""ArrowUp,ArrowLeft"":26,""ArrowUp,ArrowRight"":10,""ArrowDown,ArrowLeft"":5,""ArrowDown,ArrowRight"":17}","true","ArrowUp,ArrowLeft","false","original","1","92","","",""
"html-keyboard-response","214","1007772","0.0-4.0-2.0-1.46","spark_pilot_norest","9992","5","7","Male","","","","","","","null","<div style=""font-size:60px;"">+</div>","null","fixation","","","","","","","","","93","","",""
"revaluation","215","1013778","0.0-4.0-2.0-0.47","spark_pilot_norest","9992","5","7","Male","","false","","","","","[1596.9000000953674,876.9000000953674]","./assets/img/canyon/memory/35.jpg","[""ArrowUp"",""ArrowLeft""]","value training","canyon","26","{""ArrowUp,ArrowLeft"":26,""ArrowUp,ArrowRight"":10,""ArrowDown,ArrowLeft"":5,""ArrowDown,ArrowRight"":17}","true","ArrowUp,ArrowLeft","false","original","1","94","","",""
"html-keyboard-response","216","1014279","0.0-4.0-2.0-1.47","spark_pilot_norest","9992","5","7","Male","","","","","","","null","<div style=""font-size:60px;"">+</div>","null","fixation","","","","","","","","","95","","",""
"revaluation","217","1020284","0.0-4.0-2.0-0.48","spark_pilot_norest","9992","5","7","Male","","false","","","","","[1178.1000001430511,1056.3000001907349]","./assets/img/canyon/memory/14.jpg","[""ArrowUp"",""ArrowLeft""]","value training","canyon","26","{""ArrowUp,ArrowLeft"":26,""ArrowUp,ArrowRight"":10,""ArrowDown,ArrowLeft"":5,""ArrowDown,ArrowRight"":17}","true","ArrowUp,ArrowLeft","false","original","1","96","","",""
"html-keyboard-response","218","1020786","0.0-4.0-2.0-1.48","spark_pilot_norest","9992","5","7","Male","","","","","","","null","<div style=""font-size:60px;"">+</div>","null","fixation","","","","","","","","","97","","",""
"revaluation","219","1026791","0.0-4.0-2.0-0.49","spark_pilot_norest","9992","5","7","Male","","true","","","","","[1291.6999998092651]","./assets/img/canyon/memory/9.jpg","[""ArrowUp""]","value training","canyon","-5","{""ArrowUp,ArrowLeft"":26,""ArrowUp,ArrowRight"":10,""ArrowDown,ArrowLeft"":5,""ArrowDown,ArrowRight"":17}","false","ArrowUp","false","original","1","98","","",""
"html-keyboard-response","220","1027292","0.0-4.0-2.0-1.49","spark_pilot_norest","9992","5","7","Male","","","","","","","null","<div style=""font-size:60px;"">+</div>","null","fixation","","","","","","","","","99","","",""
"learning-instructions","221","1045737","0.0-4.0-3.0-0.0","spark_pilot_norest","9992","5","7","Male","","","","","","","5544.899999856949","<p> Now, you will travel with a friend who will choose whether you go up or down first. </p>
            <p> On these turns, you will just see the animal that they found. You will still get to choose which chest to search for treasure.</p>","","instructions","","","","","","","","","","","",""
"revaluation","222","1049749","0.0-4.0-4.0-0.0","spark_pilot_norest","9992","5","7","Male","","true","","","","","[]","./assets/img/canyon/animals/giraffe.jpg","[]","revaluation","canyon","-5","{""ArrowUp,ArrowLeft"":26,""ArrowUp,ArrowRight"":10,""ArrowDown,ArrowLeft"":5,""ArrowDown,ArrowRight"":17}","false","ArrowUp","","original","1","0","","",""
"html-keyboard-response","223","1050266","0.0-4.0-4.0-1.0","spark_pilot_norest","9992","5","7","Male","","","","","","","null","<div style=""font-size:60px;"">+</div>","null","fixation","","","","","","","","","1","","",""
"revaluation","224","1054284","0.0-4.0-4.0-0.1","spark_pilot_norest","9992","5","7","Male","","false","","","","","[542.5]","./assets/img/canyon/animals/giraffe.jpg","[""ArrowLeft""]","revaluation","canyon","26","{""ArrowUp,ArrowLeft"":26,""ArrowUp,ArrowRight"":10,""ArrowDown,ArrowLeft"":5,""ArrowDown,ArrowRight"":17}","true","ArrowUp,ArrowLeft","","original","1","2","","",""
"html-keyboard-response","225","1054788","0.0-4.0-4.0-1.1","spark_pilot_norest","9992","5","7","Male","","","","","","","null","<div style=""font-size:60px;"">+</div>","null","fixation","","","","","","","","","3","","",""
"revaluation","226","1058812","0.0-4.0-4.0-0.2","spark_pilot_norest","9992","5","7","Male","","false","","","","","[736.8000001907349]","./assets/img/canyon/animals/giraffe.jpg","[""ArrowLeft""]","revaluation","canyon","26","{""ArrowUp,ArrowLeft"":26,""ArrowUp,ArrowRight"":10,""ArrowDown,ArrowLeft"":5,""ArrowDown,ArrowRight"":17}","true","ArrowUp,ArrowLeft","","original","1","4","","",""
"html-keyboard-response","227","1059327","0.0-4.0-4.0-1.2","spark_pilot_norest","9992","5","7","Male","","","","","","","null","<div style=""font-size:60px;"">+</div>","null","fixation","","","","","","","","","5","","",""
"revaluation","228","1063356","0.0-4.0-4.0-0.3","spark_pilot_norest","9992","5","7","Male","","false","","","","","[1077.3999998569489]","./assets/img/canyon/animals/lion.jpg","[""ArrowLeft""]","revaluation","canyon","5","{""ArrowUp,ArrowLeft"":26,""ArrowUp,ArrowRight"":10,""ArrowDown,ArrowLeft"":5,""ArrowDown,ArrowRight"":17}","false","ArrowDown,ArrowLeft","","original","1","6","","",""
"html-keyboard-response","229","1063861","0.0-4.0-4.0-1.3","spark_pilot_norest","9992","5","7","Male","","","","","","","null","<div style=""font-size:60px;"">+</div>","null","fixation","","","","","","","","","7","","",""
"revaluation","230","1067879","0.0-4.0-4.0-0.4","spark_pilot_norest","9992","5","7","Male","","false","","","","","[681.4000000953674]","./assets/img/canyon/animals/giraffe.jpg","[""ArrowRight""]","revaluation","canyon","10","{""ArrowUp,ArrowLeft"":26,""ArrowUp,ArrowRight"":10,""ArrowDown,ArrowLeft"":5,""ArrowDown,ArrowRight"":17}","false","ArrowUp,ArrowRight","","original","1","8","","",""
"html-keyboard-response","231","1068387","0.0-4.0-4.0-1.4","spark_pilot_norest","9992","5","7","Male","","","","","","","null","<div style=""font-size:60px;"">+</div>","null","fixation","","","","","","","","","9","","",""
"revaluation","232","1072390","0.0-4.0-4.0-0.5","spark_pilot_norest","9992","5","7","Male","","false","","","","","[1021.7999999523163]","./assets/img/canyon/animals/giraffe.jpg","[""ArrowLeft""]","revaluation","canyon","26","{""ArrowUp,ArrowLeft"":26,""ArrowUp,ArrowRight"":10,""ArrowDown,ArrowLeft"":5,""ArrowDown,ArrowRight"":17}","true","ArrowUp,ArrowLeft","","original","1","10","","",""
"html-keyboard-response","233","1072891","0.0-4.0-4.0-1.5","spark_pilot_norest","9992","5","7","Male","","","","","","","null","<div style=""font-size:60px;"">+</div>","null","fixation","","","","","","","","","11","","",""
"revaluation","234","1076895","0.0-4.0-4.0-0.6","spark_pilot_norest","9992","5","7","Male","","false","","","","","[1339.8000001907349]","./assets/img/canyon/animals/lion.jpg","[""ArrowRight""]","revaluation","canyon","17","{""ArrowUp,ArrowLeft"":26,""ArrowUp,ArrowRight"":10,""ArrowDown,ArrowLeft"":5,""ArrowDown,ArrowRight"":17}","true","ArrowDown,ArrowRight","","original","1","12","","",""
"html-keyboard-response","235","1077396","0.0-4.0-4.0-1.6","spark_pilot_norest","9992","5","7","Male","","","","","","","null","<div style=""font-size:60px;"">+</div>","null","fixation","","","","","","","","","13","","",""
"revaluation","236","1081400","0.0-4.0-4.0-0.7","spark_pilot_norest","9992","5","7","Male","","false","","","","","[1790.5]","./assets/img/canyon/animals/giraffe.jpg","[""ArrowLeft""]","revaluation","canyon","26","{""ArrowUp,ArrowLeft"":26,""ArrowUp,ArrowRight"":10,""ArrowDown,ArrowLeft"":5,""ArrowDown,ArrowRight"":17}","true","ArrowUp,ArrowLeft","","original","1","14","","",""
"html-keyboard-response","237","1081902","0.0-4.0-4.0-1.7","spark_pilot_norest","9992","5","7","Male","","","","","","","null","<div style=""font-size:60px;"">+</div>","null","fixation","","","","","","","","","15","","",""
"revaluation","238","1085906","0.0-4.0-4.0-0.8","spark_pilot_norest","9992","5","7","Male","","true","","","","","[]","./assets/img/canyon/animals/giraffe.jpg","[]","revaluation","canyon","-5","{""ArrowUp,ArrowLeft"":26,""ArrowUp,ArrowRight"":10,""ArrowDown,ArrowLeft"":5,""ArrowDown,ArrowRight"":17}","false","ArrowUp","","original","1","16","","",""
"html-keyboard-response","239","1086407","0.0-4.0-4.0-1.8","spark_pilot_norest","9992","5","7","Male","","","","","","","null","<div style=""font-size:60px;"">+</div>","null","fixation","","","","","","","","","17","","",""
"revaluation","240","1090411","0.0-4.0-4.0-0.9","spark_pilot_norest","9992","5","7","Male","","false","","","","","[1557.7000000476837]","./assets/img/canyon/animals/lion.jpg","[""ArrowRight""]","revaluation","canyon","17","{""ArrowUp,ArrowLeft"":26,""ArrowUp,ArrowRight"":10,""ArrowDown,ArrowLeft"":5,""ArrowDown,ArrowRight"":17}","true","ArrowDown,ArrowRight","","original","1","18","","",""
"html-keyboard-response","241","1090913","0.0-4.0-4.0-1.9","spark_pilot_norest","9992","5","7","Male","","","","","","","null","<div style=""font-size:60px;"">+</div>","null","fixation","","","","","","","","","19","","",""
"revaluation","242","1094917","0.0-4.0-4.0-0.10","spark_pilot_norest","9992","5","7","Male","","false","","","","","[612]","./assets/img/canyon/animals/giraffe.jpg","[""ArrowLeft""]","revaluation","canyon","26","{""ArrowUp,ArrowLeft"":26,""ArrowUp,ArrowRight"":10,""ArrowDown,ArrowLeft"":5,""ArrowDown,ArrowRight"":17}","true","ArrowUp,ArrowLeft","","original","1","20","","",""
"html-keyboard-response","243","1095418","0.0-4.0-4.0-1.10","spark_pilot_norest","9992","5","7","Male","","","","","","","null","<div style=""font-size:60px;"">+</div>","null","fixation","","","","","","","","","21","","",""
"revaluation","244","1099421","0.0-4.0-4.0-0.11","spark_pilot_norest","9992","5","7","Male","","false","","","","","[1292.2999999523163]","./assets/img/canyon/animals/lion.jpg","[""ArrowRight""]","revaluation","canyon","17","{""ArrowUp,ArrowLeft"":26,""ArrowUp,ArrowRight"":10,""ArrowDown,ArrowLeft"":5,""ArrowDown,ArrowRight"":17}","true","ArrowDown,ArrowRight","","original","1","22","","",""
"html-keyboard-response","245","1099923","0.0-4.0-4.0-1.11","spark_pilot_norest","9992","5","7","Male","","","","","","","null","<div style=""font-size:60px;"">+</div>","null","fixation","","","","","","","","","23","","",""
"revaluation","246","1103925","0.0-4.0-4.0-0.12","spark_pilot_norest","9992","5","7","Male","","false","","","","","[1439.6000001430511]","./assets/img/canyon/animals/lion.jpg","[""ArrowRight""]","revaluation","canyon","17","{""ArrowUp,ArrowLeft"":26,""ArrowUp,ArrowRight"":10,""ArrowDown,ArrowLeft"":5,""ArrowDown,ArrowRight"":17}","true","ArrowDown,ArrowRight","","original","1","24","","",""
"html-keyboard-response","247","1104427","0.0-4.0-4.0-1.12","spark_pilot_norest","9992","5","7","Male","","","","","","","null","<div style=""font-size:60px;"">+</div>","null","fixation","","","","","","","","","25","","",""
"revaluation","248","1108432","0.0-4.0-4.0-0.13","spark_pilot_norest","9992","5","7","Male","","false","","","","","[1039.2000000476837]","./assets/img/canyon/animals/giraffe.jpg","[""ArrowLeft""]","revaluation","canyon","26","{""ArrowUp,ArrowLeft"":26,""ArrowUp,ArrowRight"":10,""ArrowDown,ArrowLeft"":5,""ArrowDown,ArrowRight"":17}","true","ArrowUp,ArrowLeft","","original","1","26","","",""
"html-keyboard-response","249","1108944","0.0-4.0-4.0-1.13","spark_pilot_norest","9992","5","7","Male","","","","","","","null","<div style=""font-size:60px;"">+</div>","null","fixation","","","","","","","","","27","","",""
"revaluation","250","1112947","0.0-4.0-4.0-0.14","spark_pilot_norest","9992","5","7","Male","","false","","","","","[839.9000000953674]","./assets/img/canyon/animals/lion.jpg","[""ArrowRight""]","revaluation","canyon","17","{""ArrowUp,ArrowLeft"":26,""ArrowUp,ArrowRight"":10,""ArrowDown,ArrowLeft"":5,""ArrowDown,ArrowRight"":17}","true","ArrowDown,ArrowRight","","original","1","28","","",""
"html-keyboard-response","251","1113448","0.0-4.0-4.0-1.14","spark_pilot_norest","9992","5","7","Male","","","","","","","null","<div style=""font-size:60px;"">+</div>","null","fixation","","","","","","","","","29","","",""
"revaluation","252","1117453","0.0-4.0-4.0-0.15","spark_pilot_norest","9992","5","7","Male","","false","","","","","[1310]","./assets/img/canyon/animals/lion.jpg","[""ArrowRight""]","revaluation","canyon","17","{""ArrowUp,ArrowLeft"":26,""ArrowUp,ArrowRight"":10,""ArrowDown,ArrowLeft"":5,""ArrowDown,ArrowRight"":17}","true","ArrowDown,ArrowRight","","original","1","30","","",""
"html-keyboard-response","253","1117955","0.0-4.0-4.0-1.15","spark_pilot_norest","9992","5","7","Male","","","","","","","null","<div style=""font-size:60px;"">+</div>","null","fixation","","","","","","","","","31","","",""
"revaluation","254","1121958","0.0-4.0-4.0-0.16","spark_pilot_norest","9992","5","7","Male","","false","","","","","[1442.0999999046326]","./assets/img/canyon/animals/lion.jpg","[""ArrowRight""]","revaluation","canyon","17","{""ArrowUp,ArrowLeft"":26,""ArrowUp,ArrowRight"":10,""ArrowDown,ArrowLeft"":5,""ArrowDown,ArrowRight"":17}","true","ArrowDown,ArrowRight","","original","1","32","","",""
"html-keyboard-response","255","1122460","0.0-4.0-4.0-1.16","spark_pilot_norest","9992","5","7","Male","","","","","","","null","<div style=""font-size:60px;"">+</div>","null","fixation","","","","","","","","","33","","",""
"revaluation","256","1126464","0.0-4.0-4.0-0.17","spark_pilot_norest","9992","5","7","Male","","false","","","","","[1431.0999999046326]","./assets/img/canyon/animals/lion.jpg","[""ArrowRight""]","revaluation","canyon","17","{""ArrowUp,ArrowLeft"":26,""ArrowUp,ArrowRight"":10,""ArrowDown,ArrowLeft"":5,""ArrowDown,ArrowRight"":17}","true","ArrowDown,ArrowRight","","original","1","34","","",""
"html-keyboard-response","257","1126964","0.0-4.0-4.0-1.17","spark_pilot_norest","9992","5","7","Male","","","","","","","null","<div style=""font-size:60px;"">+</div>","null","fixation","","","","","","","","","35","","",""
"learning-instructions","258","1135097","0.0-4.0-5.0-0.0","spark_pilot_norest","9992","5","7","Male","","","","","","","null","<p> You have almost finished this part of the game! </p>
            <p> We are going to ask you to make a few more choices. </p>","","instructions","","","","","","","","","","","",""
"learning-instructions","259","1151074","0.0-4.0-5.0-0.1","spark_pilot_norest","9992","5","7","Male","","","","","","","null","<p> First, you need to decide whether to go up or down. When you see each picture, use the arrow keys to make your choice. </p>
            <p><b>You will not see which animal you found, but try to get to the one that will give you the most treasure.</b></p>","","instructions","","","","","","","","","","","",""
"html-keyboard-response","260","1152081","0.0-4.0-6.0-0.0","spark_pilot_norest","9992","5","7","Male","","","","","","","null","<div style=""font-size:100px;color:red;"">Starting in...</div>","null","","","","","","","","","","","","",""
"html-keyboard-response","261","1153085","0.0-4.0-6.0-1.0","spark_pilot_norest","9992","5","7","Male","","","","","","","null","<div style=""font-size:200px;color:red;"">3</div>","null","","","","","","","","","","","","",""
"html-keyboard-response","262","1154086","0.0-4.0-6.0-2.0","spark_pilot_norest","9992","5","7","Male","","","","","","","null","<div style=""font-size:200px;color:red;"">2</div>","null","","","","","","","","","","","","",""
"html-keyboard-response","263","1155088","0.0-4.0-6.0-3.0","spark_pilot_norest","9992","5","7","Male","","","","","","","null","<div style=""font-size:200px;color:red;"">1</div>","null","","","","","","","","","","","","",""
"revaluation","264","1155689","0.0-4.0-7.0-0.0","spark_pilot_norest","9992","5","7","Male","","false","","","","","[599.2000000476837]","./assets/img/canyon/test/2.jpg","[""ArrowDown""]","first stage test","canyon","0","{""ArrowUp,ArrowLeft"":26,""ArrowUp,ArrowRight"":10,""ArrowDown,ArrowLeft"":5,""ArrowDown,ArrowRight"":17}","false","ArrowDown","false","original","1","","","",""
"html-keyboard-response","265","1156196","0.0-4.0-7.0-1.0","spark_pilot_norest","9992","5","7","Male","","","","","","","null","<div style=""font-size:60px;"">+</div>","null","fixation","","","","","","","","","","","",""
"revaluation","266","1157042","0.0-4.0-7.0-0.1","spark_pilot_norest","9992","5","7","Male","","false","","","","","[843.5999999046326]","./assets/img/canyon/test/1.jpg","[""ArrowDown""]","first stage test","canyon","0","{""ArrowUp,ArrowLeft"":26,""ArrowUp,ArrowRight"":10,""ArrowDown,ArrowLeft"":5,""ArrowDown,ArrowRight"":17}","false","ArrowDown","false","original","1","","","",""
"html-keyboard-response","267","1157552","0.0-4.0-7.0-1.1","spark_pilot_norest","9992","5","7","Male","","","","","","","null","<div style=""font-size:60px;"">+</div>","null","fixation","","","","","","","","","","","",""
"revaluation","268","1158134","0.0-4.0-7.0-0.2","spark_pilot_norest","9992","5","7","Male","","false","","","","","[580.5999999046326]","./assets/img/canyon/test/3.jpg","[""ArrowDown""]","first stage test","canyon","0","{""ArrowUp,ArrowLeft"":26,""ArrowUp,ArrowRight"":10,""ArrowDown,ArrowLeft"":5,""ArrowDown,ArrowRight"":17}","false","ArrowDown","false","original","1","","","",""
"html-keyboard-response","269","1158636","0.0-4.0-7.0-1.2","spark_pilot_norest","9992","5","7","Male","","","","","","","null","<div style=""font-size:60px;"">+</div>","null","fixation","","","","","","","","","","","",""
"revaluation","270","1159092","0.0-4.0-7.0-0.3","spark_pilot_norest","9992","5","7","Male","","false","","","","","[454.40000009536743]","./assets/img/canyon/test/0.jpg","[""ArrowDown""]","first stage test","canyon","0","{""ArrowUp,ArrowLeft"":26,""ArrowUp,ArrowRight"":10,""ArrowDown,ArrowLeft"":5,""ArrowDown,ArrowRight"":17}","false","ArrowDown","false","original","1","","","",""
"html-keyboard-response","271","1159593","0.0-4.0-7.0-1.3","spark_pilot_norest","9992","5","7","Male","","","","","","","null","<div style=""font-size:60px;"">+</div>","null","fixation","","","","","","","","","","","",""
"learning-instructions","272","1172953","0.0-4.0-8.0-0.0","spark_pilot_norest","9992","5","7","Male","","","","","","","null","<p> Now you will see the animals again and can search their chests for treasure. </p>
            <p> This time, you will not see how much treasure you earned, but you will earn more bonus money for making better choices. </p>","","instructions","","","","","","","","","","","",""
"html-keyboard-response","273","1173954","0.0-4.0-9.0-0.0","spark_pilot_norest","9992","5","7","Male","","","","","","","null","<div style=""font-size:100px;color:red;"">Starting in...</div>","null","","","","","","","","","","","","",""
"html-keyboard-response","274","1174960","0.0-4.0-9.0-1.0","spark_pilot_norest","9992","5","7","Male","","","","","","","null","<div style=""font-size:200px;color:red;"">3</div>","null","","","","","","","","","","","","",""
"html-keyboard-response","275","1175961","0.0-4.0-9.0-2.0","spark_pilot_norest","9992","5","7","Male","","","","","","","null","<div style=""font-size:200px;color:red;"">2</div>","null","","","","","","","","","","","","",""
"html-keyboard-response","276","1176962","0.0-4.0-9.0-3.0","spark_pilot_norest","9992","5","7","Male","","","","","","","null","<div style=""font-size:200px;color:red;"">1</div>","null","","","","","","","","","","","","",""
"revaluation","277","1178845","0.0-4.0-10.0-0.0","spark_pilot_norest","9992","5","7","Male","","false","","","","","[1880.3000001907349]","./assets/img/canyon/animals/giraffe.jpg","[""ArrowLeft""]","second stage test","canyon","0","{""ArrowUp,ArrowLeft"":26,""ArrowUp,ArrowRight"":10,""ArrowDown,ArrowLeft"":5,""ArrowDown,ArrowRight"":17}","true","ArrowUp,ArrowLeft","","original","1","","","",""
"html-keyboard-response","278","1179355","0.0-4.0-10.0-1.0","spark_pilot_norest","9992","5","7","Male","","","","","","","null","<div style=""font-size:60px;"">+</div>","null","fixation","","","","","","","","","","","",""
"revaluation","279","1180096","0.0-4.0-10.0-0.1","spark_pilot_norest","9992","5","7","Male","","false","","","","","[739.2999999523163]","./assets/img/canyon/animals/giraffe.jpg","[""ArrowLeft""]","second stage test","canyon","0","{""ArrowUp,ArrowLeft"":26,""ArrowUp,ArrowRight"":10,""ArrowDown,ArrowLeft"":5,""ArrowDown,ArrowRight"":17}","true","ArrowUp,ArrowLeft","","original","1","","","",""
"html-keyboard-response","280","1180608","0.0-4.0-10.0-1.1","spark_pilot_norest","9992","5","7","Male","","","","","","","null","<div style=""font-size:60px;"">+</div>","null","fixation","","","","","","","","","","","",""
"revaluation","281","1181168","0.0-4.0-10.0-0.2","spark_pilot_norest","9992","5","7","Male","","false","","","","","[558.2999999523163]","./assets/img/canyon/animals/giraffe.jpg","[""ArrowLeft""]","second stage test","canyon","0","{""ArrowUp,ArrowLeft"":26,""ArrowUp,ArrowRight"":10,""ArrowDown,ArrowLeft"":5,""ArrowDown,ArrowRight"":17}","true","ArrowUp,ArrowLeft","","original","1","","","",""
"html-keyboard-response","282","1181681","0.0-4.0-10.0-1.2","spark_pilot_norest","9992","5","7","Male","","","","","","","null","<div style=""font-size:60px;"">+</div>","null","fixation","","","","","","","","","","","",""
"revaluation","283","1182151","0.0-4.0-10.0-0.3","spark_pilot_norest","9992","5","7","Male","","false","","","","","[468.30000019073486]","./assets/img/canyon/animals/giraffe.jpg","[""ArrowLeft""]","second stage test","canyon","0","{""ArrowUp,ArrowLeft"":26,""ArrowUp,ArrowRight"":10,""ArrowDown,ArrowLeft"":5,""ArrowDown,ArrowRight"":17}","true","ArrowUp,ArrowLeft","","original","1","","","",""
"html-keyboard-response","284","1182665","0.0-4.0-10.0-1.3","spark_pilot_norest","9992","5","7","Male","","","","","","","null","<div style=""font-size:60px;"">+</div>","null","fixation","","","","","","","","","","","",""
"revaluation","285","1183118","0.0-4.0-10.0-0.4","spark_pilot_norest","9992","5","7","Male","","false","","","","","[450.89999985694885]","./assets/img/canyon/animals/lion.jpg","[""ArrowLeft""]","second stage test","canyon","0","{""ArrowUp,ArrowLeft"":26,""ArrowUp,ArrowRight"":10,""ArrowDown,ArrowLeft"":5,""ArrowDown,ArrowRight"":17}","false","ArrowDown,ArrowLeft","","original","1","","","",""
"html-keyboard-response","286","1183624","0.0-4.0-10.0-1.4","spark_pilot_norest","9992","5","7","Male","","","","","","","null","<div style=""font-size:60px;"">+</div>","null","fixation","","","","","","","","","","","",""
"revaluation","287","1184071","0.0-4.0-10.0-0.5","spark_pilot_norest","9992","5","7","Male","","false","","","","","[444.5]","./assets/img/canyon/animals/lion.jpg","[""ArrowLeft""]","second stage test","canyon","0","{""ArrowUp,ArrowLeft"":26,""ArrowUp,ArrowRight"":10,""ArrowDown,ArrowLeft"":5,""ArrowDown,ArrowRight"":17}","false","ArrowDown,ArrowLeft","","original","1","","","",""
"html-keyboard-response","288","1184571","0.0-4.0-10.0-1.5","spark_pilot_norest","9992","5","7","Male","","","","","","","null","<div style=""font-size:60px;"">+</div>","null","fixation","","","","","","","","","","","",""
"revaluation","289","1185276","0.0-4.0-10.0-0.6","spark_pilot_norest","9992","5","7","Male","","false","","","","","[702.7999999523163]","./assets/img/canyon/animals/lion.jpg","[""ArrowRight""]","second stage test","canyon","0","{""ArrowUp,ArrowLeft"":26,""ArrowUp,ArrowRight"":10,""ArrowDown,ArrowLeft"":5,""ArrowDown,ArrowRight"":17}","true","ArrowDown,ArrowRight","","original","1","","","",""
"html-keyboard-response","290","1185791","0.0-4.0-10.0-1.6","spark_pilot_norest","9992","5","7","Male","","","","","","","null","<div style=""font-size:60px;"">+</div>","null","fixation","","","","","","","","","","","",""
"revaluation","291","1186278","0.0-4.0-10.0-0.7","spark_pilot_norest","9992","5","7","Male","","false","","","","","[485.2999999523163]","./assets/img/canyon/animals/lion.jpg","[""ArrowRight""]","second stage test","canyon","0","{""ArrowUp,ArrowLeft"":26,""ArrowUp,ArrowRight"":10,""ArrowDown,ArrowLeft"":5,""ArrowDown,ArrowRight"":17}","true","ArrowDown,ArrowRight","","original","1","","","",""
"html-keyboard-response","292","1186783","0.0-4.0-10.0-1.7","spark_pilot_norest","9992","5","7","Male","","","","","","","null","<div style=""font-size:60px;"">+</div>","null","fixation","","","","","","","","","","","",""
"learning-instructions","293","1198825","0.0-4.0-0.1-0.2","spark_pilot_norest","9992","5","7","Male","","","","","","","9331.899999856949","<p> This time you are searching for treasure in the <b>ocean</b>.</p>","","instructions","","","","","","","","","","","",""
"learning-instructions","294","1218823","0.0-4.0-0.1-0.3","spark_pilot_norest","9992","5","7","Male","","","","","","","2750.5","<p><b>New</b> animals with <b>new</b> treasure chests live here. You need to explore to discover where the animal with the best treasure chest is.</p>
                    <p> Like before, once you figure out which animal has the chest with the most treasure, you should try to get to that animal and select that chest! </p>","","instructions","","","","","","","","","","","",""
"learning-instructions","295","1236885","0.0-4.0-1.1-0.1","spark_pilot_norest","9992","5","7","Male","","","","","","","3332.300000190735","<p> Remember, when you see a picture of the place, use the up and down keys to <b>find an animal</b>.</p>
            <p> When you encounter an animal, you should use the left and right keys to <b>select a treasure chest</b>.</p>
            <p> Don't forget to look out for the robber! </p>","","instructions","","","","","","","","","","","",""
"revaluation","296","1240901","0.0-4.0-2.1-0.50","spark_pilot_norest","9992","5","7","Male","","true","","","","","[]","./assets/img/ocean/memory/1.jpg","[]","value training","ocean","-5","{""ArrowUp,ArrowLeft"":23,""ArrowUp,ArrowRight"":10,""ArrowDown,ArrowLeft"":8,""ArrowDown,ArrowRight"":30}","false","","false","revaluation","2","0","","",""
"html-keyboard-response","297","1241403","0.0-4.0-2.1-1.50","spark_pilot_norest","9992","5","7","Male","","","","","","","null","<div style=""font-size:60px;"">+</div>","null","fixation","","","","","","","","","1","","",""
"revaluation","298","1247431","0.0-4.0-2.1-0.51","spark_pilot_norest","9992","5","7","Male","","false","","","","","[773.6000001430511,1629.9000000953674]","./assets/img/ocean/memory/5.jpg","[""ArrowUp"",""ArrowLeft""]","value training","ocean","23","{""ArrowUp,ArrowLeft"":23,""ArrowUp,ArrowRight"":10,""ArrowDown,ArrowLeft"":8,""ArrowDown,ArrowRight"":30}","false","ArrowUp,ArrowLeft","false","revaluation","2","2","","",""
"html-keyboard-response","299","1247937","0.0-4.0-2.1-1.51","spark_pilot_norest","9992","5","7","Male","","","","","","","null","<div style=""font-size:60px;"">+</div>","null","fixation","","","","","","","","","3","","",""
"revaluation","300","1253950","0.0-4.0-2.1-0.52","spark_pilot_norest","9992","5","7","Male","","false","","","","","[856.2999999523163,1077.5]","./assets/img/ocean/memory/35.jpg","[""ArrowUp"",""ArrowRight""]","value training","ocean","10","{""ArrowUp,ArrowLeft"":23,""ArrowUp,ArrowRight"":10,""ArrowDown,ArrowLeft"":8,""ArrowDown,ArrowRight"":30}","false","ArrowUp,ArrowRight","false","revaluation","2","4","","",""
"html-keyboard-response","301","1254455","0.0-4.0-2.1-1.52","spark_pilot_norest","9992","5","7","Male","","","","","","","null","<div style=""font-size:60px;"">+</div>","null","fixation","","","","","","","","","5","","",""
"revaluation","302","1260491","0.0-4.0-2.1-0.53","spark_pilot_norest","9992","5","7","Male","","false","","","","","[848.3999998569489,1851.7000000476837]","./assets/img/ocean/memory/9.jpg","[""ArrowUp"",""ArrowLeft""]","value training","ocean","23","{""ArrowUp,ArrowLeft"":23,""ArrowUp,ArrowRight"":10,""ArrowDown,ArrowLeft"":8,""ArrowDown,ArrowRight"":30}","false","ArrowUp,ArrowLeft","false","revaluation","2","6","","",""
"html-keyboard-response","303","1260993","0.0-4.0-2.1-1.53","spark_pilot_norest","9992","5","7","Male","","","","","","","null","<div style=""font-size:60px;"">+</div>","null","fixation","","","","","","","","","7","","",""
"revaluation","304","1267010","0.0-4.0-2.1-0.54","spark_pilot_norest","9992","5","7","Male","","false","","","","","[1482.0999999046326,1250.0999999046326]","./assets/img/ocean/memory/14.jpg","[""ArrowUp"",""ArrowRight""]","value training","ocean","10","{""ArrowUp,ArrowLeft"":23,""ArrowUp,ArrowRight"":10,""ArrowDown,ArrowLeft"":8,""ArrowDown,ArrowRight"":30}","false","ArrowUp,ArrowRight","false","revaluation","2","8","","",""
"html-keyboard-response","305","1267511","0.0-4.0-2.1-1.54","spark_pilot_norest","9992","5","7","Male","","","","","","","null","<div style=""font-size:60px;"">+</div>","null","fixation","","","","","","","","","9","","",""
"revaluation","306","1273521","0.0-4.0-2.1-0.55","spark_pilot_norest","9992","5","7","Male","","false","","","","","[855.7000000476837,1063.9000000953674]","./assets/img/ocean/memory/29.jpg","[""ArrowUp"",""ArrowLeft""]","value training","ocean","23","{""ArrowUp,ArrowLeft"":23,""ArrowUp,ArrowRight"":10,""ArrowDown,ArrowLeft"":8,""ArrowDown,ArrowRight"":30}","false","ArrowUp,ArrowLeft","false","revaluation","2","10","","",""
"html-keyboard-response","307","1274029","0.0-4.0-2.1-1.55","spark_pilot_norest","9992","5","7","Male","","","","","","","null","<div style=""font-size:60px;"">+</div>","null","fixation","","","","","","","","","11","","",""
"revaluation","308","1280034","0.0-4.0-2.1-0.56","spark_pilot_norest","9992","5","7","Male","","false","","","","","[774,1143]","./assets/img/ocean/memory/24.jpg","[""ArrowUp"",""ArrowLeft""]","value training","ocean","23","{""ArrowUp,ArrowLeft"":23,""ArrowUp,ArrowRight"":10,""ArrowDown,ArrowLeft"":8,""ArrowDown,ArrowRight"":30}","false","ArrowUp,ArrowLeft","false","revaluation","2","12","","",""
"html-keyboard-response","309","1280535","0.0-4.0-2.1-1.56","spark_pilot_norest","9992","5","7","Male","","","","","","","null","<div style=""font-size:60px;"">+</div>","null","fixation","","","","","","","","","13","","",""
"revaluation","310","1284539","0.0-4.0-2.1-0.57","spark_pilot_norest","9992","5","7","Male","","false","","","","","[1700.5]","./assets/img/ocean/catch/7.jpg","[""spaceBar""]","value training","ocean","0","{""ArrowUp,ArrowLeft"":23,""ArrowUp,ArrowRight"":10,""ArrowDown,ArrowLeft"":8,""ArrowDown,ArrowRight"":30}","true","spaceBar","true","revaluation","2","14","","",""
"html-keyboard-response","311","1285040","0.0-4.0-2.1-1.57","spark_pilot_norest","9992","5","7","Male","","","","","","","null","<div style=""font-size:60px;"">+</div>","null","fixation","","","","","","","","","15","","",""
"revaluation","312","1289044","0.0-4.0-2.1-0.58","spark_pilot_norest","9992","5","7","Male","","true","","","","","[]","./assets/img/ocean/memory/36.jpg","[]","value training","ocean","-5","{""ArrowUp,ArrowLeft"":23,""ArrowUp,ArrowRight"":10,""ArrowDown,ArrowLeft"":8,""ArrowDown,ArrowRight"":30}","false","","false","revaluation","2","16","","",""
"html-keyboard-response","313","1289545","0.0-4.0-2.1-1.58","spark_pilot_norest","9992","5","7","Male","","","","","","","null","<div style=""font-size:60px;"">+</div>","null","fixation","","","","","","","","","17","","",""
"revaluation","314","1295550","0.0-4.0-2.1-0.59","spark_pilot_norest","9992","5","7","Male","","false","","","","","[728.5999999046326,659.9000000953674]","./assets/img/ocean/memory/28.jpg","[""ArrowUp"",""ArrowRight""]","value training","ocean","10","{""ArrowUp,ArrowLeft"":23,""ArrowUp,ArrowRight"":10,""ArrowDown,ArrowLeft"":8,""ArrowDown,ArrowRight"":30}","false","ArrowUp,ArrowRight","false","revaluation","2","18","","",""
"html-keyboard-response","315","1296052","0.0-4.0-2.1-1.59","spark_pilot_norest","9992","5","7","Male","","","","","","","null","<div style=""font-size:60px;"">+</div>","null","fixation","","","","","","","","","19","","",""
"revaluation","316","1302058","0.0-4.0-2.1-0.60","spark_pilot_norest","9992","5","7","Male","","true","","","","","[714.0999999046326]","./assets/img/ocean/memory/33.jpg","[""ArrowUp""]","value training","ocean","-5","{""ArrowUp,ArrowLeft"":23,""ArrowUp,ArrowRight"":10,""ArrowDown,ArrowLeft"":8,""ArrowDown,ArrowRight"":30}","false","ArrowUp","false","revaluation","2","20","","",""
"html-keyboard-response","317","1302560","0.0-4.0-2.1-1.60","spark_pilot_norest","9992","5","7","Male","","","","","","","null","<div style=""font-size:60px;"">+</div>","null","fixation","","","","","","","","","21","","",""
"revaluation","318","1308564","0.0-4.0-2.1-0.61","spark_pilot_norest","9992","5","7","Male","","false","","","","","[618.5999999046326,1734.4000000953674]","./assets/img/ocean/memory/26.jpg","[""ArrowUp"",""ArrowLeft""]","value training","ocean","23","{""ArrowUp,ArrowLeft"":23,""ArrowUp,ArrowRight"":10,""ArrowDown,ArrowLeft"":8,""ArrowDown,ArrowRight"":30}","false","ArrowUp,ArrowLeft","false","revaluation","2","22","","",""
"html-keyboard-response","319","1309065","0.0-4.0-2.1-1.61","spark_pilot_norest","9992","5","7","Male","","","","","","","null","<div style=""font-size:60px;"">+</div>","null","fixation","","","","","","","","","23","","",""
"revaluation","320","1315070","0.0-4.0-2.1-0.62","spark_pilot_norest","9992","5","7","Male","","false","","","","","[1826.6999998092651,1431.8000001907349]","./assets/img/ocean/memory/38.jpg","[""ArrowUp"",""ArrowLeft""]","value training","ocean","23","{""ArrowUp,ArrowLeft"":23,""ArrowUp,ArrowRight"":10,""ArrowDown,ArrowLeft"":8,""ArrowDown,ArrowRight"":30}","false","ArrowUp,ArrowLeft","false","revaluation","2","24","","",""
"html-keyboard-response","321","1315572","0.0-4.0-2.1-1.62","spark_pilot_norest","9992","5","7","Male","","","","","","","null","<div style=""font-size:60px;"">+</div>","null","fixation","","","","","","","","","25","","",""
"revaluation","322","1321576","0.0-4.0-2.1-0.63","spark_pilot_norest","9992","5","7","Male","","false","","","","","[726,1605.5999999046326]","./assets/img/ocean/memory/1.jpg","[""ArrowUp"",""ArrowLeft""]","value training","ocean","23","{""ArrowUp,ArrowLeft"":23,""ArrowUp,ArrowRight"":10,""ArrowDown,ArrowLeft"":8,""ArrowDown,ArrowRight"":30}","false","ArrowUp,ArrowLeft","false","revaluation","2","26","","",""
"html-keyboard-response","323","1322078","0.0-4.0-2.1-1.63","spark_pilot_norest","9992","5","7","Male","","","","","","","null","<div style=""font-size:60px;"">+</div>","null","fixation","","","","","","","","","27","","",""
"revaluation","324","1326082","0.0-4.0-2.1-0.64","spark_pilot_norest","9992","5","7","Male","","false","","","","","[1589.4000000953674]","./assets/img/ocean/catch/0.jpg","[""spaceBar""]","value training","ocean","0","{""ArrowUp,ArrowLeft"":23,""ArrowUp,ArrowRight"":10,""ArrowDown,ArrowLeft"":8,""ArrowDown,ArrowRight"":30}","true","spaceBar","true","revaluation","2","28","","",""
