"trial_type","trial_index","time_elapsed","internal_node_id","task_version","subject_id","assigned_condition","age","gender","success","timeout","failed_images","failed_audio","failed_video","browser_interaction","rt","stimulus","response","task_part","environment","score","rewardMap","correct","fullState","isCatch","condition","order","trial_num","key_press","ground_truth","bonus"
"pavlovia","0","1446","0.0-0.0","spark_pilot_norest","14427","5","22","Male","","","","","","","","","","","","","","","","","","","","","",""
"preload","1","19114","0.0-1.0","spark_pilot_norest","14427","5","22","Male","true","false","[]","[]","[]","[{""event"":""fullscreenenter"",""trial"":2,""time"":27727},{""event"":""blur"",""trial"":340,""time"":1264103},{""event"":""focus"",""trial"":340,""time"":1266085}]","","","","","","","","","","","","","","","",""
"fullscreen","2","28699","0.0-2.0","spark_pilot_norest","14427","5","22","Male","true","","","","","","","","","","","","","","","","","","","","",""
"audio-button-response","3","30429","0.0-3.0-0.0-0.0","spark_pilot_norest","14427","5","22","Male","","","","","","","1691","./assets/audio/audiotest/turtle.mp3","2","audio_test","","","","","","","","","","","",""
"learning-instructions","4","41169","0.0-3.0-1.0-0.0","spark_pilot_norest","14427","5","22","Male","","","","","","","3769.2999999970198","<p> Welcome! Please remember to stay in fullscreen mode and don't click away from the experiment. </p>","","instructions","","","","","","","","","","","",""
"learning-instructions","5","54662","0.0-3.0-1.0-0.1","spark_pilot_norest","14427","5","22","Male","","","","","","","5085.099999997765","<p> Today you will be playing a game to earn treasure. </p>
            <p> At the end of the experiment, you will earn a bonus based on how much treasure you find. </p>
            <img src='./assets/img/instructions/treasure.jpg' class='instructions-image'>","","instructions","","","","","","","","","","","",""
"learning-instructions","6","68934","0.0-3.0-1.0-0.2","spark_pilot_norest","14427","5","22","Male","","","","","","","6014","<p> Animals have hidden treasure in treasure chests. </p>
            <p> You need to first find an animal and then choose which of their treasure chests to search. </p>
            <img src='./assets/img/space/animals/cat.jpg' class='instructions-image'>","","instructions","","","","","","","","","","","",""
"learning-instructions","7","86739","0.0-3.0-1.0-0.3","spark_pilot_norest","14427","5","22","Male","","","","","","","4655.10000000149","<p> In each round, you will search for treasure in a different place. In the real game, there will be two rounds. </p>
            <p> You will begin with a separate, practice round where you will search for treasure in outer space. </p>
            <img src='./assets/img/space/0.jpg' class='instructions-image'>","","instructions","","","","","","","","","","","",""
"learning-instructions","8","101321","0.0-3.0-1.0-0.4","spark_pilot_norest","14427","5","22","Male","","","","","","","3172.699999999255","<p> On every turn, you will see a picture of the place that you are in, but the specific image may be different each time. </p>
            <p> For example, both of these images mean you are in outer space. </p>
            <img src='./assets/img/instructions/outerspace.jpg' class='instructions-image'>","","instructions","","","","","","","","","","","",""
"learning-instructions","9","114829","0.0-3.0-1.0-0.5","spark_pilot_norest","14427","5","22","Male","","","","","","","5682.89999999851","<p> You need to decide which direction to travel in. </p>
            <p> You can choose between going <b>up or down</b> by using the arrow keys. </p>
            <img src='./assets/img/instructions/updown.jpg' class='instructions-image'>","","instructions","","","","","","","","","","","",""
"learning-instructions","10","126064","0.0-3.0-1.0-0.6","spark_pilot_norest","14427","5","22","Male","","","","","","","2422.39999999851","<p> You will have <b>2 seconds</b> to make your choice. </p>
            <p> If you do not make a choice within 2 seconds, you will not find an animal or earn treasure. </p>
            <img src='./assets/img/instructions/2seconds.jpg' class='instructions-image'>","","instructions","","","","","","","","","","","",""
"learning-instructions","11","133924","0.0-3.0-1.0-0.7","spark_pilot_norest","14427","5","22","Male","","","","","","","826.6999999992549","<p> Let’s try practicing that now! </p>
            <p> When you see a picture of the place you are in, press the <b>up</b> key to travel up. </p>
            <img src='./assets/img/instructions/pressUp.jpg' class='instructions-image'>","","instructions","","","","","","","","","","","",""
"revaluation","12","137945","0.0-3.0-2.0-0.0","spark_pilot_norest","14427","5","22","Male","","true","","","","","[]","./assets/img/space/0.jpg","[]","first stage practice","space","-5","null","null","","false","","","","","",""
"html-keyboard-response","13","138448","0.0-3.0-2.0-1.0","spark_pilot_norest","14427","5","22","Male","","","","","","","null","<div style=""font-size:60px;"">+</div>","null","fixation","","","","","","","","","","","",""
"revaluation","14","142456","0.0-3.0-2.0-0.1","spark_pilot_norest","14427","5","22","Male","","false","","","","","[611.1999999992549]","./assets/img/space/1.jpg","[""ArrowUp""]","first stage practice","space","0","null","null","ArrowUp","false","","","","","",""
"html-keyboard-response","15","142958","0.0-3.0-2.0-1.1","spark_pilot_norest","14427","5","22","Male","","","","","","","null","<div style=""font-size:60px;"">+</div>","null","fixation","","","","","","","","","","","",""
"revaluation","16","146964","0.0-3.0-2.0-0.2","spark_pilot_norest","14427","5","22","Male","","false","","","","","[603.3000000007451]","./assets/img/space/2.jpg","[""ArrowUp""]","first stage practice","space","0","null","null","ArrowUp","false","","","","","",""
"html-keyboard-response","17","147467","0.0-3.0-2.0-1.2","spark_pilot_norest","14427","5","22","Male","","","","","","","null","<div style=""font-size:60px;"">+</div>","null","fixation","","","","","","","","","","","",""
"learning-instructions","18","154000","0.0-3.0-3.0-0.0","spark_pilot_norest","14427","5","22","Male","","","","","","","1840.5","<p> Great job! Now try pressing the <b>down</b> key to travel down. </p>
            <img src='./assets/img/instructions/pressDown.jpg' class='instructions-image'>","","instructions","","","","","","","","","","","",""
"revaluation","19","158004","0.0-3.0-4.0-0.0","spark_pilot_norest","14427","5","22","Male","","false","","","","","[866.8000000007451]","./assets/img/space/3.jpg","[""ArrowDown""]","first stage practice","space","0","null","null","ArrowDown","false","","","","","",""
"html-keyboard-response","20","158505","0.0-3.0-4.0-1.0","spark_pilot_norest","14427","5","22","Male","","","","","","","null","<div style=""font-size:60px;"">+</div>","null","fixation","","","","","","","","","","","",""
"revaluation","21","162511","0.0-3.0-4.0-0.1","spark_pilot_norest","14427","5","22","Male","","false","","","","","[488.80000000074506]","./assets/img/space/4.jpg","[""ArrowDown""]","first stage practice","space","0","null","null","ArrowDown","false","","","","","",""
"html-keyboard-response","22","163012","0.0-3.0-4.0-1.1","spark_pilot_norest","14427","5","22","Male","","","","","","","null","<div style=""font-size:60px;"">+</div>","null","fixation","","","","","","","","","","","",""
"revaluation","23","167018","0.0-3.0-4.0-0.2","spark_pilot_norest","14427","5","22","Male","","false","","","","","[694]","./assets/img/space/5.jpg","[""ArrowDown""]","first stage practice","space","0","null","null","ArrowDown","false","","","","","",""
"html-keyboard-response","24","167521","0.0-3.0-4.0-1.2","spark_pilot_norest","14427","5","22","Male","","","","","","","null","<div style=""font-size:60px;"">+</div>","null","fixation","","","","","","","","","","","",""
"learning-instructions","25","179675","0.0-3.0-5.0-0.0","spark_pilot_norest","14427","5","22","Male","","","","","","","2305.599999997765","<p> The animals don’t move, so the animal in the upper part of a place will stay in the upper part of a place, and the animal in the lower part of a place will stay in the lower part of a place. </p>","","instructions","","","","","","","","","","","",""
"learning-instructions","26","189763","0.0-3.0-5.0-0.1","spark_pilot_norest","14427","5","22","Male","","","","","","","958.4000000022352","<p> Each animal has two treasure chests for you to choose from. </p>
            <p> The amount of treasure in each chest can range from <b> 0 to 40 pieces.</b></p>","","instructions","","","","","","","","","","","",""
"learning-instructions","27","202596","0.0-3.0-5.0-0.2","spark_pilot_norest","14427","5","22","Male","","","","","","","1651.7999999970198","<p> You should decide which chest to search for treasure by using the <b>left</b> and <b>right</b> arrow keys. </p>
            <p><b> Pay attention to which animal is on the screen, as the animals have different treasure chests. </b></p>
            <img src='./assets/img/instructions/leftright.jpg' class='instructions-image'>","","instructions","","","","","","","","","","","",""
"learning-instructions","28","210119","0.0-3.0-5.0-0.3","spark_pilot_norest","14427","5","22","Male","","","","","","","1164","<p> Let’s try practicing that now. </p>
            <p> When you see an animal, choose which chest to search for treasure. </p>
            <img src='./assets/img/instructions/chooseChest.jpg' class='instructions-image'>","","instructions","","","","","","","","","","","",""
"revaluation","29","214131","0.0-3.0-6.0-0.0","spark_pilot_norest","14427","5","22","Male","","false","","","","","[1407.199999999255]","./assets/img/space/animals/rabbit.jpg","[""ArrowRight""]","second stage practice","space","23","{""ArrowUp,ArrowLeft"":3,""ArrowUp,ArrowRight"":36,""ArrowDown,ArrowLeft"":15,""ArrowDown,ArrowRight"":23}","true","ArrowDown,ArrowRight","","","","","","",""
"html-keyboard-response","30","214634","0.0-3.0-6.0-1.0","spark_pilot_norest","14427","5","22","Male","","","","","","","null","<div style=""font-size:60px;"">+</div>","null","fixation","","","","","","","","","","","",""
"revaluation","31","218639","0.0-3.0-6.0-0.1","spark_pilot_norest","14427","5","22","Male","","false","","","","","[532.3999999985099]","./assets/img/space/animals/cat.jpg","[""ArrowRight""]","second stage practice","space","36","{""ArrowUp,ArrowLeft"":3,""ArrowUp,ArrowRight"":36,""ArrowDown,ArrowLeft"":15,""ArrowDown,ArrowRight"":23}","true","ArrowUp,ArrowRight","","","","","","",""
"html-keyboard-response","32","219141","0.0-3.0-6.0-1.1","spark_pilot_norest","14427","5","22","Male","","","","","","","null","<div style=""font-size:60px;"">+</div>","null","fixation","","","","","","","","","","","",""
"revaluation","33","223148","0.0-3.0-6.0-0.2","spark_pilot_norest","14427","5","22","Male","","false","","","","","[505.20000000298023]","./assets/img/space/animals/cat.jpg","[""ArrowRight""]","second stage practice","space","36","{""ArrowUp,ArrowLeft"":3,""ArrowUp,ArrowRight"":36,""ArrowDown,ArrowLeft"":15,""ArrowDown,ArrowRight"":23}","true","ArrowUp,ArrowRight","","","","","","",""
"html-keyboard-response","34","223651","0.0-3.0-6.0-1.2","spark_pilot_norest","14427","5","22","Male","","","","","","","null","<div style=""font-size:60px;"">+</div>","null","fixation","","","","","","","","","","","",""
"revaluation","35","227657","0.0-3.0-6.0-0.3","spark_pilot_norest","14427","5","22","Male","","false","","","","","[497.30000000074506]","./assets/img/space/animals/rabbit.jpg","[""ArrowRight""]","second stage practice","space","23","{""ArrowUp,ArrowLeft"":3,""ArrowUp,ArrowRight"":36,""ArrowDown,ArrowLeft"":15,""ArrowDown,ArrowRight"":23}","true","ArrowDown,ArrowRight","","","","","","",""
"html-keyboard-response","36","228159","0.0-3.0-6.0-1.3","spark_pilot_norest","14427","5","22","Male","","","","","","","null","<div style=""font-size:60px;"">+</div>","null","fixation","","","","","","","","","","","",""
"learning-instructions","37","248744","0.0-3.0-7.0-0.0","spark_pilot_norest","14427","5","22","Male","","","","","","","3778.7000000029802","<p> Great job. Now let’s try putting it together. </p>
            <p> On each turn, you will first see a picture to remind you of the place you are in, and you need to choose whether to go up or down. </p>
            <p> Then you will see an animal and choose which of its chests to search for treasure. </p>","","instructions","","","","","","","","","","","",""
"learning-instructions","38","258165","0.0-3.0-7.0-0.1","spark_pilot_norest","14427","5","22","Male","","","","","","","1161.6000000014901","<p> When you choose whether to go up or down, try to go to the animal with the chest with the most treasure. </p>
            <p> Try practicing that now! </p>","","instructions","","","","","","","","","","","",""
"revaluation","39","264171","0.0-3.0-8.0-0.0","spark_pilot_norest","14427","5","22","Male","","false","","","","","[1060.3999999985099,515.8999999985099]","./assets/img/space/6.jpg","[""ArrowUp"",""ArrowRight""]","full practice","space","36","{""ArrowUp,ArrowLeft"":3,""ArrowUp,ArrowRight"":36,""ArrowDown,ArrowLeft"":15,""ArrowDown,ArrowRight"":23}","true","ArrowUp,ArrowRight","false","","","","","",""
"html-keyboard-response","40","264674","0.0-3.0-8.0-1.0","spark_pilot_norest","14427","5","22","Male","","","","","","","null","<div style=""font-size:60px;"">+</div>","null","fixation","","","","","","","","","","","",""
"revaluation","41","270683","0.0-3.0-8.0-0.1","spark_pilot_norest","14427","5","22","Male","","false","","","","","[726,423.9000000022352]","./assets/img/space/7.jpg","[""ArrowUp"",""ArrowRight""]","full practice","space","36","{""ArrowUp,ArrowLeft"":3,""ArrowUp,ArrowRight"":36,""ArrowDown,ArrowLeft"":15,""ArrowDown,ArrowRight"":23}","true","ArrowUp,ArrowRight","false","","","","","",""
"html-keyboard-response","42","271185","0.0-3.0-8.0-1.1","spark_pilot_norest","14427","5","22","Male","","","","","","","null","<div style=""font-size:60px;"">+</div>","null","fixation","","","","","","","","","","","",""
"revaluation","43","277193","0.0-3.0-8.0-0.2","spark_pilot_norest","14427","5","22","Male","","false","","","","","[679.7000000029802,406.30000000074506]","./assets/img/space/8.jpg","[""ArrowUp"",""ArrowRight""]","full practice","space","36","{""ArrowUp,ArrowLeft"":3,""ArrowUp,ArrowRight"":36,""ArrowDown,ArrowLeft"":15,""ArrowDown,ArrowRight"":23}","true","ArrowUp,ArrowRight","false","","","","","",""
"html-keyboard-response","44","277696","0.0-3.0-8.0-1.2","spark_pilot_norest","14427","5","22","Male","","","","","","","null","<div style=""font-size:60px;"">+</div>","null","fixation","","","","","","","","","","","",""
"revaluation","45","283702","0.0-3.0-8.0-0.3","spark_pilot_norest","14427","5","22","Male","","false","","","","","[752.1000000014901,367.30000000074506]","./assets/img/space/9.jpg","[""ArrowUp"",""ArrowRight""]","full practice","space","36","{""ArrowUp,ArrowLeft"":3,""ArrowUp,ArrowRight"":36,""ArrowDown,ArrowLeft"":15,""ArrowDown,ArrowRight"":23}","true","ArrowUp,ArrowRight","false","","","","","",""
"html-keyboard-response","46","284205","0.0-3.0-8.0-1.3","spark_pilot_norest","14427","5","22","Male","","","","","","","null","<div style=""font-size:60px;"">+</div>","null","fixation","","","","","","","","","","","",""
"revaluation","47","290214","0.0-3.0-8.0-0.4","spark_pilot_norest","14427","5","22","Male","","false","","","","","[529.0999999977648,333.19999999925494]","./assets/img/space/10.jpg","[""ArrowUp"",""ArrowRight""]","full practice","space","36","{""ArrowUp,ArrowLeft"":3,""ArrowUp,ArrowRight"":36,""ArrowDown,ArrowLeft"":15,""ArrowDown,ArrowRight"":23}","true","ArrowUp,ArrowRight","false","","","","","",""
"html-keyboard-response","48","290716","0.0-3.0-8.0-1.4","spark_pilot_norest","14427","5","22","Male","","","","","","","null","<div style=""font-size:60px;"">+</div>","null","fixation","","","","","","","","","","","",""
"learning-instructions","49","304276","0.0-3.0-9.0-0.0","spark_pilot_norest","14427","5","22","Male","","","","","","","3220.5","<p> One last thing: sometimes, you will see a robber. The robber can be anywhere in the picture. </p>
            <p> If you do not stop them, you will lose treasure. </p>
            <img src='./assets/img/instructions/robber.jpg' class='instructions-image'>","","instructions","","","","","","","","","","","",""
"learning-instructions","50","312999","0.0-3.0-9.0-0.1","spark_pilot_norest","14427","5","22","Male","","","","","","","1559.5","<p> If you see the robber, you should <b>press the space bar</b> rather than using the arrow keys. </p>
            <p> Try practicing that now! </p>","","instructions","","","","","","","","","","","",""
"revaluation","51","317004","0.0-3.0-10.0-0.0","spark_pilot_norest","14427","5","22","Male","","false","","","","","[1322.4000000022352]","./assets/img/space/catch/0.jpg","[""spaceBar""]","catch practice","space","0","{""ArrowUp,ArrowLeft"":3,""ArrowUp,ArrowRight"":36,""ArrowDown,ArrowLeft"":15,""ArrowDown,ArrowRight"":23}","true","spaceBar","true","","","","","",""
"html-keyboard-response","52","317506","0.0-3.0-10.0-1.0","spark_pilot_norest","14427","5","22","Male","","","","","","","null","<div style=""font-size:60px;"">+</div>","null","fixation","","","","","","","","","","","",""
"revaluation","53","321513","0.0-3.0-10.0-0.1","spark_pilot_norest","14427","5","22","Male","","false","","","","","[589.6999999992549]","./assets/img/space/catch/1.jpg","[""spaceBar""]","catch practice","space","0","{""ArrowUp,ArrowLeft"":3,""ArrowUp,ArrowRight"":36,""ArrowDown,ArrowLeft"":15,""ArrowDown,ArrowRight"":23}","true","spaceBar","true","","","","","",""
"html-keyboard-response","54","322015","0.0-3.0-10.0-1.1","spark_pilot_norest","14427","5","22","Male","","","","","","","null","<div style=""font-size:60px;"">+</div>","null","fixation","","","","","","","","","","","",""
"revaluation","55","326020","0.0-3.0-10.0-0.2","spark_pilot_norest","14427","5","22","Male","","false","","","","","[585.1000000014901]","./assets/img/space/catch/2.jpg","[""spaceBar""]","catch practice","space","0","{""ArrowUp,ArrowLeft"":3,""ArrowUp,ArrowRight"":36,""ArrowDown,ArrowLeft"":15,""ArrowDown,ArrowRight"":23}","true","spaceBar","true","","","","","",""
"html-keyboard-response","56","326522","0.0-3.0-10.0-1.2","spark_pilot_norest","14427","5","22","Male","","","","","","","null","<div style=""font-size:60px;"">+</div>","null","fixation","","","","","","","","","","","",""
"learning-instructions","57","334554","0.0-3.0-11.0-0.0-0.0","spark_pilot_norest","14427","5","22","Male","","","","","","","2773.300000000745","<p> Now, you will practice a shortened version of the game to get a sense of how it all fits together. </p>","","instructions","","","","","","","","","","","",""
"learning-instructions","58","340584","0.0-3.0-11.0-0.0-0.1","spark_pilot_norest","14427","5","22","Male","","","","","","","2840.199999999255","<p>This time you are searching for treasure in outer space.</p>","","instructions","","","","","","","","","","","",""
"learning-instructions","59","355921","0.0-3.0-11.0-1.0-0.0","spark_pilot_norest","14427","5","22","Male","","","","","","","572.3999999985099","<p> Remember, when you see a picture of the place, use the up and down keys to <b>find an animal</b>.</p>
            <p> When you encounter an animal, you should use the left and right keys to <b>select a treasure chest</b>.</p>
            <p> Don't forget to look out for the robber! </p>","","instructions","","","","","","","","","","","",""
"revaluation","60","361927","0.0-3.0-11.0-2.0-0.0","spark_pilot_norest","14427","5","22","Male","","false","","","","","[1365.1000000014901,790.0999999977648]","./assets/img/space/11.jpg","[""ArrowUp"",""ArrowRight""]","practice block","space","36","{""ArrowUp,ArrowLeft"":3,""ArrowUp,ArrowRight"":36,""ArrowDown,ArrowLeft"":15,""ArrowDown,ArrowRight"":23}","true","ArrowUp,ArrowRight","false","","","","","",""
"html-keyboard-response","61","362430","0.0-3.0-11.0-2.0-1.0","spark_pilot_norest","14427","5","22","Male","","","","","","","null","<div style=""font-size:60px;"">+</div>","null","fixation","","","","","","","","","","","",""
"revaluation","62","368439","0.0-3.0-11.0-2.0-0.1","spark_pilot_norest","14427","5","22","Male","","false","","","","","[599.5999999977648,497.0999999977648]","./assets/img/space/12.jpg","[""ArrowUp"",""ArrowRight""]","practice block","space","36","{""ArrowUp,ArrowLeft"":3,""ArrowUp,ArrowRight"":36,""ArrowDown,ArrowLeft"":15,""ArrowDown,ArrowRight"":23}","true","ArrowUp,ArrowRight","false","","","","","",""
"html-keyboard-response","63","368941","0.0-3.0-11.0-2.0-1.1","spark_pilot_norest","14427","5","22","Male","","","","","","","null","<div style=""font-size:60px;"">+</div>","null","fixation","","","","","","","","","","","",""
"revaluation","64","374949","0.0-3.0-11.0-2.0-0.2","spark_pilot_norest","14427","5","22","Male","","false","","","","","[856,452.0999999977648]","./assets/img/space/13.jpg","[""ArrowUp"",""ArrowRight""]","practice block","space","36","{""ArrowUp,ArrowLeft"":3,""ArrowUp,ArrowRight"":36,""ArrowDown,ArrowLeft"":15,""ArrowDown,ArrowRight"":23}","true","ArrowUp,ArrowRight","false","","","","","",""
"html-keyboard-response","65","375451","0.0-3.0-11.0-2.0-1.2","spark_pilot_norest","14427","5","22","Male","","","","","","","null","<div style=""font-size:60px;"">+</div>","null","fixation","","","","","","","","","","","",""
"revaluation","66","381460","0.0-3.0-11.0-2.0-0.3","spark_pilot_norest","14427","5","22","Male","","false","","","","","[1230.3999999985099,493.4000000022352]","./assets/img/space/14.jpg","[""ArrowUp"",""ArrowRight""]","practice block","space","36","{""ArrowUp,ArrowLeft"":3,""ArrowUp,ArrowRight"":36,""ArrowDown,ArrowLeft"":15,""ArrowDown,ArrowRight"":23}","true","ArrowUp,ArrowRight","false","","","","","",""
"html-keyboard-response","67","381962","0.0-3.0-11.0-2.0-1.3","spark_pilot_norest","14427","5","22","Male","","","","","","","null","<div style=""font-size:60px;"">+</div>","null","fixation","","","","","","","","","","","",""
"revaluation","68","387969","0.0-3.0-11.0-2.0-0.4","spark_pilot_norest","14427","5","22","Male","","false","","","","","[962,426.19999999925494]","./assets/img/space/11.jpg","[""ArrowUp"",""ArrowRight""]","practice block","space","36","{""ArrowUp,ArrowLeft"":3,""ArrowUp,ArrowRight"":36,""ArrowDown,ArrowLeft"":15,""ArrowDown,ArrowRight"":23}","true","ArrowUp,ArrowRight","false","","","","","",""
"html-keyboard-response","69","388472","0.0-3.0-11.0-2.0-1.4","spark_pilot_norest","14427","5","22","Male","","","","","","","null","<div style=""font-size:60px;"">+</div>","null","fixation","","","","","","","","","","","",""
"revaluation","70","394480","0.0-3.0-11.0-2.0-0.5","spark_pilot_norest","14427","5","22","Male","","false","","","","","[910.3999999985099,444]","./assets/img/space/12.jpg","[""ArrowUp"",""ArrowRight""]","practice block","space","36","{""ArrowUp,ArrowLeft"":3,""ArrowUp,ArrowRight"":36,""ArrowDown,ArrowLeft"":15,""ArrowDown,ArrowRight"":23}","true","ArrowUp,ArrowRight","false","","","","","",""
"html-keyboard-response","71","394983","0.0-3.0-11.0-2.0-1.5","spark_pilot_norest","14427","5","22","Male","","","","","","","null","<div style=""font-size:60px;"">+</div>","null","fixation","","","","","","","","","","","",""
"revaluation","72","400990","0.0-3.0-11.0-2.0-0.6","spark_pilot_norest","14427","5","22","Male","","false","","","","","[768.3000000007451,506.19999999925494]","./assets/img/space/13.jpg","[""ArrowUp"",""ArrowRight""]","practice block","space","36","{""ArrowUp,ArrowLeft"":3,""ArrowUp,ArrowRight"":36,""ArrowDown,ArrowLeft"":15,""ArrowDown,ArrowRight"":23}","true","ArrowUp,ArrowRight","false","","","","","",""
"html-keyboard-response","73","401492","0.0-3.0-11.0-2.0-1.6","spark_pilot_norest","14427","5","22","Male","","","","","","","null","<div style=""font-size:60px;"">+</div>","null","fixation","","","","","","","","","","","",""
"revaluation","74","407500","0.0-3.0-11.0-2.0-0.7","spark_pilot_norest","14427","5","22","Male","","false","","","","","[701.0999999977648,385.19999999925494]","./assets/img/space/14.jpg","[""ArrowUp"",""ArrowRight""]","practice block","space","36","{""ArrowUp,ArrowLeft"":3,""ArrowUp,ArrowRight"":36,""ArrowDown,ArrowLeft"":15,""ArrowDown,ArrowRight"":23}","true","ArrowUp,ArrowRight","false","","","","","",""
"html-keyboard-response","75","408002","0.0-3.0-11.0-2.0-1.7","spark_pilot_norest","14427","5","22","Male","","","","","","","null","<div style=""font-size:60px;"">+</div>","null","fixation","","","","","","","","","","","",""
"revaluation","76","412007","0.0-3.0-11.0-2.0-0.8","spark_pilot_norest","14427","5","22","Male","","false","","","","","[726]","./assets/img/space/catch/3.jpg","[""spaceBar""]","practice block","space","0","{""ArrowUp,ArrowLeft"":3,""ArrowUp,ArrowRight"":36,""ArrowDown,ArrowLeft"":15,""ArrowDown,ArrowRight"":23}","true","spaceBar","true","","","","","",""
"html-keyboard-response","77","412510","0.0-3.0-11.0-2.0-1.8","spark_pilot_norest","14427","5","22","Male","","","","","","","null","<div style=""font-size:60px;"">+</div>","null","fixation","","","","","","","","","","","",""
"learning-instructions","78","427332","0.0-3.0-11.0-3.0-0.0","spark_pilot_norest","14427","5","22","Male","","","","","","","1884.2000000029802","<p> Now, you will travel with a friend who will choose whether you go up or down first. </p>
            <p> On these turns, you will just see the animal that they found. You will still get to choose which chest to search for treasure.</p>","","instructions","","","","","","","","","","","",""
"revaluation","79","431340","0.0-3.0-11.0-4.0-0.0","spark_pilot_norest","14427","5","22","Male","","false","","","","","[1054.5]","./assets/img/space/animals/rabbit.jpg","[""ArrowLeft""]","practice block","space","15","{""ArrowUp,ArrowLeft"":3,""ArrowUp,ArrowRight"":36,""ArrowDown,ArrowLeft"":15,""ArrowDown,ArrowRight"":23}","false","ArrowDown,ArrowLeft","","","","","","",""
"html-keyboard-response","80","431842","0.0-3.0-11.0-4.0-1.0","spark_pilot_norest","14427","5","22","Male","","","","","","","null","<div style=""font-size:60px;"">+</div>","null","fixation","","","","","","","","","","","",""
"revaluation","81","435852","0.0-3.0-11.0-4.0-0.1","spark_pilot_norest","14427","5","22","Male","","false","","","","","[673.6000000014901]","./assets/img/space/animals/cat.jpg","[""ArrowLeft""]","practice block","space","3","{""ArrowUp,ArrowLeft"":3,""ArrowUp,ArrowRight"":36,""ArrowDown,ArrowLeft"":15,""ArrowDown,ArrowRight"":23}","false","ArrowUp,ArrowLeft","","","","","","",""
"html-keyboard-response","82","436354","0.0-3.0-11.0-4.0-1.1","spark_pilot_norest","14427","5","22","Male","","","","","","","null","<div style=""font-size:60px;"">+</div>","null","fixation","","","","","","","","","","","",""
"revaluation","83","440360","0.0-3.0-11.0-4.0-0.2","spark_pilot_norest","14427","5","22","Male","","false","","","","","[462.69999999925494]","./assets/img/space/animals/cat.jpg","[""ArrowRight""]","practice block","space","36","{""ArrowUp,ArrowLeft"":3,""ArrowUp,ArrowRight"":36,""ArrowDown,ArrowLeft"":15,""ArrowDown,ArrowRight"":23}","true","ArrowUp,ArrowRight","","","","","","",""
"html-keyboard-response","84","440861","0.0-3.0-11.0-4.0-1.2","spark_pilot_norest","14427","5","22","Male","","","","","","","null","<div style=""font-size:60px;"">+</div>","null","fixation","","","","","","","","","","","",""
"revaluation","85","444866","0.0-3.0-11.0-4.0-0.3","spark_pilot_norest","14427","5","22","Male","","false","","","","","[210.60000000149012]","./assets/img/space/animals/rabbit.jpg","[""ArrowRight""]","practice block","space","23","{""ArrowUp,ArrowLeft"":3,""ArrowUp,ArrowRight"":36,""ArrowDown,ArrowLeft"":15,""ArrowDown,ArrowRight"":23}","true","ArrowDown,ArrowRight","","","","","","",""
"html-keyboard-response","86","445367","0.0-3.0-11.0-4.0-1.3","spark_pilot_norest","14427","5","22","Male","","","","","","","null","<div style=""font-size:60px;"">+</div>","null","fixation","","","","","","","","","","","",""
"learning-instructions","87","453492","0.0-3.0-11.0-5.0-0.0","spark_pilot_norest","14427","5","22","Male","","","","","","","null","<p> You have almost finished this part of the game! </p>
            <p> We are going to ask you to make a few more choices. </p>","","instructions","","","","","","","","","","","",""
"learning-instructions","88","469496","0.0-3.0-11.0-5.0-0.1","spark_pilot_norest","14427","5","22","Male","","","","","","","null","<p> First, you need to decide whether to go up or down. When you see each picture, use the arrow keys to make your choice. </p>
            <p><b>You will not see which animal you found, but try to get to the one that will give you the most treasure.</b></p>","","instructions","","","","","","","","","","","",""
"html-keyboard-response","89","470498","0.0-3.0-11.0-6.0-0.0","spark_pilot_norest","14427","5","22","Male","","","","","","","null","<div style=""font-size:100px;color:red;"">Starting in...</div>","null","","","","","","","","","","","","",""
"html-keyboard-response","90","471500","0.0-3.0-11.0-6.0-1.0","spark_pilot_norest","14427","5","22","Male","","","","","","","null","<div style=""font-size:200px;color:red;"">3</div>","null","","","","","","","","","","","","",""
"html-keyboard-response","91","472502","0.0-3.0-11.0-6.0-2.0","spark_pilot_norest","14427","5","22","Male","","","","","","","null","<div style=""font-size:200px;color:red;"">2</div>","null","","","","","","","","","","","","",""
"html-keyboard-response","92","473505","0.0-3.0-11.0-6.0-3.0","spark_pilot_norest","14427","5","22","Male","","","","","","","null","<div style=""font-size:200px;color:red;"">1</div>","null","","","","","","","","","","","","",""
"revaluation","93","473974","0.0-3.0-11.0-7.0","spark_pilot_norest","14427","5","22","Male","","false","","","","","[466.29999999701977]","./assets/img/space/15.jpg","[""ArrowUp""]","practice block","space","0","{""ArrowUp,ArrowLeft"":3,""ArrowUp,ArrowRight"":36,""ArrowDown,ArrowLeft"":15,""ArrowDown,ArrowRight"":23}","true","ArrowUp","false","","","","","",""
"html-keyboard-response","94","474475","0.0-3.0-11.0-8.0","spark_pilot_norest","14427","5","22","Male","","","","","","","null","<div style=""font-size:60px;"">+</div>","null","fixation","","","","","","","","","","","",""
"learning-instructions","95","487850","0.0-3.0-11.0-9.0-0.0","spark_pilot_norest","14427","5","22","Male","","","","","","","null","<p> Now you will see the animals again and can search their chests for treasure. </p>
            <p> This time, you will not see how much treasure you earned, but you will earn more bonus money for making better choices. </p>","","instructions","","","","","","","","","","","",""
"html-keyboard-response","96","488853","0.0-3.0-11.0-10.0-0.0","spark_pilot_norest","14427","5","22","Male","","","","","","","null","<div style=""font-size:100px;color:red;"">Starting in...</div>","null","","","","","","","","","","","","",""
"html-keyboard-response","97","489856","0.0-3.0-11.0-10.0-1.0","spark_pilot_norest","14427","5","22","Male","","","","","","","null","<div style=""font-size:200px;color:red;"">3</div>","null","","","","","","","","","","","","",""
"html-keyboard-response","98","490858","0.0-3.0-11.0-10.0-2.0","spark_pilot_norest","14427","5","22","Male","","","","","","","null","<div style=""font-size:200px;color:red;"">2</div>","null","","","","","","","","","","","","",""
"html-keyboard-response","99","491861","0.0-3.0-11.0-10.0-3.0","spark_pilot_norest","14427","5","22","Male","","","","","","","null","<div style=""font-size:200px;color:red;"">1</div>","null","","","","","","","","","","","","",""
"revaluation","100","492760","0.0-3.0-11.0-11.0-0.0","spark_pilot_norest","14427","5","22","Male","","false","","","","","[894.6999999992549]","./assets/img/space/animals/cat.jpg","[""ArrowRight""]","practice block","space","0","{""ArrowUp,ArrowLeft"":3,""ArrowUp,ArrowRight"":36,""ArrowDown,ArrowLeft"":15,""ArrowDown,ArrowRight"":23}","true","ArrowUp,ArrowRight","","","","","","",""
"html-keyboard-response","101","493261","0.0-3.0-11.0-11.0-1.0","spark_pilot_norest","14427","5","22","Male","","","","","","","null","<div style=""font-size:60px;"">+</div>","null","fixation","","","","","","","","","","","",""
"revaluation","102","494068","0.0-3.0-11.0-11.0-0.1","spark_pilot_norest","14427","5","22","Male","","false","","","","","[804]","./assets/img/space/animals/rabbit.jpg","[""ArrowRight""]","practice block","space","0","{""ArrowUp,ArrowLeft"":3,""ArrowUp,ArrowRight"":36,""ArrowDown,ArrowLeft"":15,""ArrowDown,ArrowRight"":23}","true","ArrowDown,ArrowRight","","","","","","",""
"html-keyboard-response","103","494569","0.0-3.0-11.0-11.0-1.1","spark_pilot_norest","14427","5","22","Male","","","","","","","null","<div style=""font-size:60px;"">+</div>","null","fixation","","","","","","","","","","","",""
"learning-instructions","104","500541","0.0-3.0-12.0-0.0","spark_pilot_norest","14427","5","22","Male","","","","","","","1396.0999999977648","<p> Before you start, we're going to ask you a few questions about how the game works. </p>","","instructions","","","","","","","","","","","",""
"comp-q","105","507022","0.0-3.0-13.0-0.0-0.0","spark_pilot_norest","14427","5","22","Male","","","","","","","890.7999999970198","<p> <b> True or False? </b> </p>
            <p> There can be 50 pieces of treasure in a given animal's chest. </p>","1","comp_question","","","","true","","","","","","","",""
"comp-q","106","514514","0.0-3.0-13.0-0.0-1.0","spark_pilot_norest","14427","5","22","Male","","","","","","","835.5","<p> <b> That's right! </b> The amount of treasure in each chest can range from 0 to 40 pieces. </p>","0","comp_answer","","","","","","","","","","","",""
"comp-q","107","522359","0.0-3.0-13.0-0.1-0.1","spark_pilot_norest","14427","5","22","Male","","","","","","","717.6999999992549","<p> <b> True or False? </b> </p><p> In this game, all animals have the same amount of treasure in their left and right chests. </p>","1","comp_question","","","","true","","","","","","","",""
"comp-q","108","528337","0.0-3.0-13.0-0.1-1.1","spark_pilot_norest","14427","5","22","Male","","","","","","","749","<p> <b> That's right! </b> Animals have different amounts of treasure in their treasure chests. </p>","0","comp_answer","","","","","","","","","","","",""
"comp-q","109","534914","0.0-3.0-13.0-0.2-0.2","spark_pilot_norest","14427","5","22","Male","","","","","","","734.3999999985099","<p> <b> True or False? </b> </p><p> The same animal will always be there if you go up in the same place. </p>","0","comp_question","","","","true","","","","","","","",""
"comp-q","110","542355","0.0-3.0-13.0-0.2-1.2","spark_pilot_norest","14427","5","22","Male","","","","","","","1001.5","<p> <b> That's right! </b> One animal lives in the upper part and one lives in the lower part of every place. </p>","0","comp_answer","","","","","","","","","","","",""
"comp-q","111","548422","0.0-3.0-13.0-0.3-0.3","spark_pilot_norest","14427","5","22","Male","","","","","","","546.1000000014901","<p> <b> True or False? </b> </p><p> If you see a different picture, it means you are in a new place. </p>","1","comp_question","","","","true","","","","","","","",""
"comp-q","112","560595","0.0-3.0-13.0-0.3-1.3","spark_pilot_norest","14427","5","22","Male","","","","","","","953.3999999985099","<p> <b> That's right! </b> Lots of different images may show the same place. For example,  you may see three different images that all remind you that you are in outer space. </p>","0","comp_answer","","","","","","","","","","","",""
"learning-instructions","113","571988","0.0-3.0-14.0-0.0","spark_pilot_norest","14427","5","22","Male","","","","","","","1546.4000000022352","<p> Good job. Remember to do your best because the amount of treasure you earn will be converted into bonus money. </p>
            <p> It’s time to start the real game! </p>","","instructions","","","","","","","","","","","",""
"learning-instructions","114","576511","0.0-4.0-0.0-0.0","spark_pilot_norest","14427","5","22","Male","","","","","","","1759.5999999977648","<p> This time you are searching for treasure in the <b>canyon</b>.</p>","","instructions","","","","","","","","","","","",""
"learning-instructions","115","594466","0.0-4.0-0.0-0.1","spark_pilot_norest","14427","5","22","Male","","","","","","","663.8999999985099","<p><b>New</b> animals with <b>new</b> treasure chests live here. You need to explore to discover where the animal with the best treasure chest is.</p>
                    <p> Like before, once you figure out which animal has the chest with the most treasure, you should try to get to that animal and select that chest! </p>","","instructions","","","","","","","","","","","",""
"learning-instructions","116","610337","0.0-4.0-1.0-0.0","spark_pilot_norest","14427","5","22","Male","","","","","","","1142.6000000014901","<p> Remember, when you see a picture of the place, use the up and down keys to <b>find an animal</b>.</p>
            <p> When you encounter an animal, you should use the left and right keys to <b>select a treasure chest</b>.</p>
            <p> Don't forget to look out for the robber! </p>","","instructions","","","","","","","","","","","",""
"revaluation","117","616346","0.0-4.0-2.0-0.0","spark_pilot_norest","14427","5","22","Male","","false","","","","","[1715.4000000022352,651.5]","./assets/img/canyon/memory/15.jpg","[""ArrowUp"",""ArrowRight""]","value training","canyon","10","{""ArrowUp,ArrowLeft"":26,""ArrowUp,ArrowRight"":10,""ArrowDown,ArrowLeft"":5,""ArrowDown,ArrowRight"":17}","false","ArrowUp,ArrowRight","false","original","1","0","","",""
"html-keyboard-response","118","616853","0.0-4.0-2.0-1.0","spark_pilot_norest","14427","5","22","Male","","","","","","","null","<div style=""font-size:60px;"">+</div>","null","fixation","","","","","","","","","1","","",""
"revaluation","119","622862","0.0-4.0-2.0-0.1","spark_pilot_norest","14427","5","22","Male","","false","","","","","[776.6999999992549,565]","./assets/img/canyon/memory/36.jpg","[""ArrowUp"",""ArrowLeft""]","value training","canyon","26","{""ArrowUp,ArrowLeft"":26,""ArrowUp,ArrowRight"":10,""ArrowDown,ArrowLeft"":5,""ArrowDown,ArrowRight"":17}","true","ArrowUp,ArrowLeft","false","original","1","2","","",""
"html-keyboard-response","120","623365","0.0-4.0-2.0-1.1","spark_pilot_norest","14427","5","22","Male","","","","","","","null","<div style=""font-size:60px;"">+</div>","null","fixation","","","","","","","","","3","","",""
"revaluation","121","629372","0.0-4.0-2.0-0.2","spark_pilot_norest","14427","5","22","Male","","false","","","","","[734.3999999985099,486]","./assets/img/canyon/memory/25.jpg","[""ArrowDown"",""ArrowLeft""]","value training","canyon","5","{""ArrowUp,ArrowLeft"":26,""ArrowUp,ArrowRight"":10,""ArrowDown,ArrowLeft"":5,""ArrowDown,ArrowRight"":17}","false","ArrowDown,ArrowLeft","false","original","1","4","","",""
"html-keyboard-response","122","629874","0.0-4.0-2.0-1.2","spark_pilot_norest","14427","5","22","Male","","","","","","","null","<div style=""font-size:60px;"">+</div>","null","fixation","","","","","","","","","5","","",""
"revaluation","123","635882","0.0-4.0-2.0-0.3","spark_pilot_norest","14427","5","22","Male","","false","","","","","[809.1000000014901,564]","./assets/img/canyon/memory/21.jpg","[""ArrowDown"",""ArrowRight""]","value training","canyon","17","{""ArrowUp,ArrowLeft"":26,""ArrowUp,ArrowRight"":10,""ArrowDown,ArrowLeft"":5,""ArrowDown,ArrowRight"":17}","false","ArrowDown,ArrowRight","false","original","1","6","","",""
"html-keyboard-response","124","636384","0.0-4.0-2.0-1.3","spark_pilot_norest","14427","5","22","Male","","","","","","","null","<div style=""font-size:60px;"">+</div>","null","fixation","","","","","","","","","7","","",""
"revaluation","125","642392","0.0-4.0-2.0-0.4","spark_pilot_norest","14427","5","22","Male","","false","","","","","[1241.5,356.80000000074506]","./assets/img/canyon/memory/10.jpg","[""ArrowUp"",""ArrowLeft""]","value training","canyon","26","{""ArrowUp,ArrowLeft"":26,""ArrowUp,ArrowRight"":10,""ArrowDown,ArrowLeft"":5,""ArrowDown,ArrowRight"":17}","true","ArrowUp,ArrowLeft","false","original","1","8","","",""
"html-keyboard-response","126","642895","0.0-4.0-2.0-1.4","spark_pilot_norest","14427","5","22","Male","","","","","","","null","<div style=""font-size:60px;"">+</div>","null","fixation","","","","","","","","","9","","",""
"revaluation","127","646901","0.0-4.0-2.0-0.5","spark_pilot_norest","14427","5","22","Male","","false","","","","","[758.8000000007451]","./assets/img/canyon/catch/6.jpg","[""spaceBar""]","value training","canyon","0","{""ArrowUp,ArrowLeft"":26,""ArrowUp,ArrowRight"":10,""ArrowDown,ArrowLeft"":5,""ArrowDown,ArrowRight"":17}","true","spaceBar","true","original","1","10","","",""
"html-keyboard-response","128","647404","0.0-4.0-2.0-1.5","spark_pilot_norest","14427","5","22","Male","","","","","","","null","<div style=""font-size:60px;"">+</div>","null","fixation","","","","","","","","","11","","",""
"revaluation","129","653412","0.0-4.0-2.0-0.6","spark_pilot_norest","14427","5","22","Male","","false","","","","","[1374.300000000745,347.8999999985099]","./assets/img/canyon/memory/19.jpg","[""ArrowUp"",""ArrowLeft""]","value training","canyon","26","{""ArrowUp,ArrowLeft"":26,""ArrowUp,ArrowRight"":10,""ArrowDown,ArrowLeft"":5,""ArrowDown,ArrowRight"":17}","true","ArrowUp,ArrowLeft","false","original","1","12","","",""
"html-keyboard-response","130","653914","0.0-4.0-2.0-1.6","spark_pilot_norest","14427","5","22","Male","","","","","","","null","<div style=""font-size:60px;"">+</div>","null","fixation","","","","","","","","","13","","",""
"revaluation","131","659922","0.0-4.0-2.0-0.7","spark_pilot_norest","14427","5","22","Male","","false","","","","","[1143.7000000029802,340.69999999925494]","./assets/img/canyon/memory/40.jpg","[""ArrowUp"",""ArrowLeft""]","value training","canyon","26","{""ArrowUp,ArrowLeft"":26,""ArrowUp,ArrowRight"":10,""ArrowDown,ArrowLeft"":5,""ArrowDown,ArrowRight"":17}","true","ArrowUp,ArrowLeft","false","original","1","14","","",""
"html-keyboard-response","132","660424","0.0-4.0-2.0-1.7","spark_pilot_norest","14427","5","22","Male","","","","","","","null","<div style=""font-size:60px;"">+</div>","null","fixation","","","","","","","","","15","","",""
"revaluation","133","666432","0.0-4.0-2.0-0.8","spark_pilot_norest","14427","5","22","Male","","false","","","","","[547.1999999992549,260.69999999925494]","./assets/img/canyon/memory/2.jpg","[""ArrowUp"",""ArrowLeft""]","value training","canyon","26","{""ArrowUp,ArrowLeft"":26,""ArrowUp,ArrowRight"":10,""ArrowDown,ArrowLeft"":5,""ArrowDown,ArrowRight"":17}","true","ArrowUp,ArrowLeft","false","original","1","16","","",""
"html-keyboard-response","134","666935","0.0-4.0-2.0-1.8","spark_pilot_norest","14427","5","22","Male","","","","","","","null","<div style=""font-size:60px;"">+</div>","null","fixation","","","","","","","","","17","","",""
"revaluation","135","672944","0.0-4.0-2.0-0.9","spark_pilot_norest","14427","5","22","Male","","false","","","","","[1075.1000000014901,286.8999999985099]","./assets/img/canyon/memory/30.jpg","[""ArrowUp"",""ArrowLeft""]","value training","canyon","26","{""ArrowUp,ArrowLeft"":26,""ArrowUp,ArrowRight"":10,""ArrowDown,ArrowLeft"":5,""ArrowDown,ArrowRight"":17}","true","ArrowUp,ArrowLeft","false","original","1","18","","",""
"html-keyboard-response","136","673446","0.0-4.0-2.0-1.9","spark_pilot_norest","14427","5","22","Male","","","","","","","null","<div style=""font-size:60px;"">+</div>","null","fixation","","","","","","","","","19","","",""
"revaluation","137","679454","0.0-4.0-2.0-0.10","spark_pilot_norest","14427","5","22","Male","","false","","","","","[439.1000000014901,351.9000000022352]","./assets/img/canyon/memory/16.jpg","[""ArrowUp"",""ArrowLeft""]","value training","canyon","26","{""ArrowUp,ArrowLeft"":26,""ArrowUp,ArrowRight"":10,""ArrowDown,ArrowLeft"":5,""ArrowDown,ArrowRight"":17}","true","ArrowUp,ArrowLeft","false","original","1","20","","",""
"html-keyboard-response","138","679957","0.0-4.0-2.0-1.10","spark_pilot_norest","14427","5","22","Male","","","","","","","null","<div style=""font-size:60px;"">+</div>","null","fixation","","","","","","","","","21","","",""
"revaluation","139","685965","0.0-4.0-2.0-0.11","spark_pilot_norest","14427","5","22","Male","","false","","","","","[1942.8999999985099,452.79999999701977]","./assets/img/canyon/memory/40.jpg","[""ArrowUp"",""ArrowLeft""]","value training","canyon","26","{""ArrowUp,ArrowLeft"":26,""ArrowUp,ArrowRight"":10,""ArrowDown,ArrowLeft"":5,""ArrowDown,ArrowRight"":17}","true","ArrowUp,ArrowLeft","false","original","1","22","","",""
"html-keyboard-response","140","686468","0.0-4.0-2.0-1.11","spark_pilot_norest","14427","5","22","Male","","","","","","","null","<div style=""font-size:60px;"">+</div>","null","fixation","","","","","","","","","23","","",""
"revaluation","141","692476","0.0-4.0-2.0-0.12","spark_pilot_norest","14427","5","22","Male","","false","","","","","[861.5,669.8000000007451]","./assets/img/canyon/memory/29.jpg","[""ArrowUp"",""ArrowLeft""]","value training","canyon","26","{""ArrowUp,ArrowLeft"":26,""ArrowUp,ArrowRight"":10,""ArrowDown,ArrowLeft"":5,""ArrowDown,ArrowRight"":17}","true","ArrowUp,ArrowLeft","false","original","1","24","","",""
"html-keyboard-response","142","692978","0.0-4.0-2.0-1.12","spark_pilot_norest","14427","5","22","Male","","","","","","","null","<div style=""font-size:60px;"">+</div>","null","fixation","","","","","","","","","25","","",""
"revaluation","143","698986","0.0-4.0-2.0-0.13","spark_pilot_norest","14427","5","22","Male","","false","","","","","[580.5999999977648,328.3999999985099]","./assets/img/canyon/memory/9.jpg","[""ArrowUp"",""ArrowLeft""]","value training","canyon","26","{""ArrowUp,ArrowLeft"":26,""ArrowUp,ArrowRight"":10,""ArrowDown,ArrowLeft"":5,""ArrowDown,ArrowRight"":17}","true","ArrowUp,ArrowLeft","false","original","1","26","","",""
"html-keyboard-response","144","699489","0.0-4.0-2.0-1.13","spark_pilot_norest","14427","5","22","Male","","","","","","","null","<div style=""font-size:60px;"">+</div>","null","fixation","","","","","","","","","27","","",""
"revaluation","145","705496","0.0-4.0-2.0-0.14","spark_pilot_norest","14427","5","22","Male","","false","","","","","[1099.2000000029802,634.6999999992549]","./assets/img/canyon/memory/21.jpg","[""ArrowUp"",""ArrowLeft""]","value training","canyon","26","{""ArrowUp,ArrowLeft"":26,""ArrowUp,ArrowRight"":10,""ArrowDown,ArrowLeft"":5,""ArrowDown,ArrowRight"":17}","true","ArrowUp,ArrowLeft","false","original","1","28","","",""
"html-keyboard-response","146","705999","0.0-4.0-2.0-1.14","spark_pilot_norest","14427","5","22","Male","","","","","","","null","<div style=""font-size:60px;"">+</div>","null","fixation","","","","","","","","","29","","",""
"revaluation","147","712007","0.0-4.0-2.0-0.15","spark_pilot_norest","14427","5","22","Male","","false","","","","","[633.2999999970198,517.5]","./assets/img/canyon/memory/1.jpg","[""ArrowUp"",""ArrowLeft""]","value training","canyon","26","{""ArrowUp,ArrowLeft"":26,""ArrowUp,ArrowRight"":10,""ArrowDown,ArrowLeft"":5,""ArrowDown,ArrowRight"":17}","true","ArrowUp,ArrowLeft","false","original","1","30","","",""
"html-keyboard-response","148","712509","0.0-4.0-2.0-1.15","spark_pilot_norest","14427","5","22","Male","","","","","","","null","<div style=""font-size:60px;"">+</div>","null","fixation","","","","","","","","","31","","",""
"revaluation","149","718517","0.0-4.0-2.0-0.16","spark_pilot_norest","14427","5","22","Male","","false","","","","","[724.7000000029802,519.9000000022352]","./assets/img/canyon/memory/30.jpg","[""ArrowUp"",""ArrowLeft""]","value training","canyon","26","{""ArrowUp,ArrowLeft"":26,""ArrowUp,ArrowRight"":10,""ArrowDown,ArrowLeft"":5,""ArrowDown,ArrowRight"":17}","true","ArrowUp,ArrowLeft","false","original","1","32","","",""
"html-keyboard-response","150","719018","0.0-4.0-2.0-1.16","spark_pilot_norest","14427","5","22","Male","","","","","","","null","<div style=""font-size:60px;"">+</div>","null","fixation","","","","","","","","","33","","",""
"revaluation","151","725026","0.0-4.0-2.0-0.17","spark_pilot_norest","14427","5","22","Male","","false","","","","","[930,655.3000000007451]","./assets/img/canyon/memory/28.jpg","[""ArrowUp"",""ArrowLeft""]","value training","canyon","26","{""ArrowUp,ArrowLeft"":26,""ArrowUp,ArrowRight"":10,""ArrowDown,ArrowLeft"":5,""ArrowDown,ArrowRight"":17}","true","ArrowUp,ArrowLeft","false","original","1","34","","",""
"html-keyboard-response","152","725528","0.0-4.0-2.0-1.17","spark_pilot_norest","14427","5","22","Male","","","","","","","null","<div style=""font-size:60px;"">+</div>","null","fixation","","","","","","","","","35","","",""
"revaluation","153","731538","0.0-4.0-2.0-0.18","spark_pilot_norest","14427","5","22","Male","","false","","","","","[795.5999999977648,495.70000000298023]","./assets/img/canyon/memory/3.jpg","[""ArrowUp"",""ArrowLeft""]","value training","canyon","26","{""ArrowUp,ArrowLeft"":26,""ArrowUp,ArrowRight"":10,""ArrowDown,ArrowLeft"":5,""ArrowDown,ArrowRight"":17}","true","ArrowUp,ArrowLeft","false","original","1","36","","",""
"html-keyboard-response","154","732040","0.0-4.0-2.0-1.18","spark_pilot_norest","14427","5","22","Male","","","","","","","null","<div style=""font-size:60px;"">+</div>","null","fixation","","","","","","","","","37","","",""
"revaluation","155","738046","0.0-4.0-2.0-0.19","spark_pilot_norest","14427","5","22","Male","","false","","","","","[729.8000000007451,564]","./assets/img/canyon/memory/16.jpg","[""ArrowUp"",""ArrowLeft""]","value training","canyon","26","{""ArrowUp,ArrowLeft"":26,""ArrowUp,ArrowRight"":10,""ArrowDown,ArrowLeft"":5,""ArrowDown,ArrowRight"":17}","true","ArrowUp,ArrowLeft","false","original","1","38","","",""
"html-keyboard-response","156","738548","0.0-4.0-2.0-1.19","spark_pilot_norest","14427","5","22","Male","","","","","","","null","<div style=""font-size:60px;"">+</div>","null","fixation","","","","","","","","","39","","",""
"revaluation","157","744555","0.0-4.0-2.0-0.20","spark_pilot_norest","14427","5","22","Male","","false","","","","","[1109.5999999977648,1525.5]","./assets/img/canyon/memory/31.jpg","[""ArrowUp"",""ArrowLeft""]","value training","canyon","26","{""ArrowUp,ArrowLeft"":26,""ArrowUp,ArrowRight"":10,""ArrowDown,ArrowLeft"":5,""ArrowDown,ArrowRight"":17}","true","ArrowUp,ArrowLeft","false","original","1","40","","",""
"html-keyboard-response","158","745057","0.0-4.0-2.0-1.20","spark_pilot_norest","14427","5","22","Male","","","","","","","null","<div style=""font-size:60px;"">+</div>","null","fixation","","","","","","","","","41","","",""
"revaluation","159","751065","0.0-4.0-2.0-0.21","spark_pilot_norest","14427","5","22","Male","","false","","","","","[566.2999999970198,524.1000000014901]","./assets/img/canyon/memory/3.jpg","[""ArrowUp"",""ArrowLeft""]","value training","canyon","26","{""ArrowUp,ArrowLeft"":26,""ArrowUp,ArrowRight"":10,""ArrowDown,ArrowLeft"":5,""ArrowDown,ArrowRight"":17}","true","ArrowUp,ArrowLeft","false","original","1","42","","",""
"html-keyboard-response","160","751567","0.0-4.0-2.0-1.21","spark_pilot_norest","14427","5","22","Male","","","","","","","null","<div style=""font-size:60px;"">+</div>","null","fixation","","","","","","","","","43","","",""
"revaluation","161","755573","0.0-4.0-2.0-0.22","spark_pilot_norest","14427","5","22","Male","","false","","","","","[743.3000000007451]","./assets/img/canyon/catch/7.jpg","[""spaceBar""]","value training","canyon","0","{""ArrowUp,ArrowLeft"":26,""ArrowUp,ArrowRight"":10,""ArrowDown,ArrowLeft"":5,""ArrowDown,ArrowRight"":17}","true","spaceBar","true","original","1","44","","",""
"html-keyboard-response","162","756076","0.0-4.0-2.0-1.22","spark_pilot_norest","14427","5","22","Male","","","","","","","null","<div style=""font-size:60px;"">+</div>","null","fixation","","","","","","","","","45","","",""
"revaluation","163","762084","0.0-4.0-2.0-0.23","spark_pilot_norest","14427","5","22","Male","","false","","","","","[1106.800000000745,669.3999999985099]","./assets/img/canyon/memory/41.jpg","[""ArrowUp"",""ArrowLeft""]","value training","canyon","26","{""ArrowUp,ArrowLeft"":26,""ArrowUp,ArrowRight"":10,""ArrowDown,ArrowLeft"":5,""ArrowDown,ArrowRight"":17}","true","ArrowUp,ArrowLeft","false","original","1","46","","",""
"html-keyboard-response","164","762587","0.0-4.0-2.0-1.23","spark_pilot_norest","14427","5","22","Male","","","","","","","null","<div style=""font-size:60px;"">+</div>","null","fixation","","","","","","","","","47","","",""
"revaluation","165","768593","0.0-4.0-2.0-0.24","spark_pilot_norest","14427","5","22","Male","","false","","","","","[818.9000000022352,581.6000000014901]","./assets/img/canyon/memory/8.jpg","[""ArrowUp"",""ArrowLeft""]","value training","canyon","26","{""ArrowUp,ArrowLeft"":26,""ArrowUp,ArrowRight"":10,""ArrowDown,ArrowLeft"":5,""ArrowDown,ArrowRight"":17}","true","ArrowUp,ArrowLeft","false","original","1","48","","",""
"html-keyboard-response","166","769096","0.0-4.0-2.0-1.24","spark_pilot_norest","14427","5","22","Male","","","","","","","null","<div style=""font-size:60px;"">+</div>","null","fixation","","","","","","","","","49","","",""
"revaluation","167","773103","0.0-4.0-2.0-0.25","spark_pilot_norest","14427","5","22","Male","","false","","","","","[740.2000000029802]","./assets/img/canyon/catch/5.jpg","[""spaceBar""]","value training","canyon","0","{""ArrowUp,ArrowLeft"":26,""ArrowUp,ArrowRight"":10,""ArrowDown,ArrowLeft"":5,""ArrowDown,ArrowRight"":17}","true","spaceBar","true","original","1","50","","",""
"html-keyboard-response","168","773606","0.0-4.0-2.0-1.25","spark_pilot_norest","14427","5","22","Male","","","","","","","null","<div style=""font-size:60px;"">+</div>","null","fixation","","","","","","","","","51","","",""
"revaluation","169","779613","0.0-4.0-2.0-0.26","spark_pilot_norest","14427","5","22","Male","","false","","","","","[1431.300000000745,594]","./assets/img/canyon/memory/17.jpg","[""ArrowUp"",""ArrowLeft""]","value training","canyon","26","{""ArrowUp,ArrowLeft"":26,""ArrowUp,ArrowRight"":10,""ArrowDown,ArrowLeft"":5,""ArrowDown,ArrowRight"":17}","true","ArrowUp,ArrowLeft","false","original","1","52","","",""
"html-keyboard-response","170","780115","0.0-4.0-2.0-1.26","spark_pilot_norest","14427","5","22","Male","","","","","","","null","<div style=""font-size:60px;"">+</div>","null","fixation","","","","","","","","","53","","",""
"revaluation","171","784121","0.0-4.0-2.0-0.27","spark_pilot_norest","14427","5","22","Male","","false","","","","","[724.4000000022352]","./assets/img/canyon/catch/1.jpg","[""spaceBar""]","value training","canyon","0","{""ArrowUp,ArrowLeft"":26,""ArrowUp,ArrowRight"":10,""ArrowDown,ArrowLeft"":5,""ArrowDown,ArrowRight"":17}","true","spaceBar","true","original","1","54","","",""
"html-keyboard-response","172","784624","0.0-4.0-2.0-1.27","spark_pilot_norest","14427","5","22","Male","","","","","","","null","<div style=""font-size:60px;"">+</div>","null","fixation","","","","","","","","","55","","",""
"revaluation","173","790632","0.0-4.0-2.0-0.28","spark_pilot_norest","14427","5","22","Male","","false","","","","","[1001.0999999977648,573.3000000007451]","./assets/img/canyon/memory/19.jpg","[""ArrowUp"",""ArrowLeft""]","value training","canyon","26","{""ArrowUp,ArrowLeft"":26,""ArrowUp,ArrowRight"":10,""ArrowDown,ArrowLeft"":5,""ArrowDown,ArrowRight"":17}","true","ArrowUp,ArrowLeft","false","original","1","56","","",""
"html-keyboard-response","174","791135","0.0-4.0-2.0-1.28","spark_pilot_norest","14427","5","22","Male","","","","","","","null","<div style=""font-size:60px;"">+</div>","null","fixation","","","","","","","","","57","","",""
"revaluation","175","797143","0.0-4.0-2.0-0.29","spark_pilot_norest","14427","5","22","Male","","false","","","","","[1209.4000000022352,479.79999999701977]","./assets/img/canyon/memory/24.jpg","[""ArrowUp"",""ArrowLeft""]","value training","canyon","26","{""ArrowUp,ArrowLeft"":26,""ArrowUp,ArrowRight"":10,""ArrowDown,ArrowLeft"":5,""ArrowDown,ArrowRight"":17}","true","ArrowUp,ArrowLeft","false","original","1","58","","",""
"html-keyboard-response","176","797645","0.0-4.0-2.0-1.29","spark_pilot_norest","14427","5","22","Male","","","","","","","null","<div style=""font-size:60px;"">+</div>","null","fixation","","","","","","","","","59","","",""
"revaluation","177","801652","0.0-4.0-2.0-0.30","spark_pilot_norest","14427","5","22","Male","","false","","","","","[526.8999999985099]","./assets/img/canyon/catch/4.jpg","[""spaceBar""]","value training","canyon","0","{""ArrowUp,ArrowLeft"":26,""ArrowUp,ArrowRight"":10,""ArrowDown,ArrowLeft"":5,""ArrowDown,ArrowRight"":17}","true","spaceBar","true","original","1","60","","",""
"html-keyboard-response","178","802154","0.0-4.0-2.0-1.30","spark_pilot_norest","14427","5","22","Male","","","","","","","null","<div style=""font-size:60px;"">+</div>","null","fixation","","","","","","","","","61","","",""
"revaluation","179","808162","0.0-4.0-2.0-0.31","spark_pilot_norest","14427","5","22","Male","","false","","","","","[738.6000000014901,697.2999999970198]","./assets/img/canyon/memory/25.jpg","[""ArrowUp"",""ArrowLeft""]","value training","canyon","26","{""ArrowUp,ArrowLeft"":26,""ArrowUp,ArrowRight"":10,""ArrowDown,ArrowLeft"":5,""ArrowDown,ArrowRight"":17}","true","ArrowUp,ArrowLeft","false","original","1","62","","",""
"html-keyboard-response","180","808664","0.0-4.0-2.0-1.31","spark_pilot_norest","14427","5","22","Male","","","","","","","null","<div style=""font-size:60px;"">+</div>","null","fixation","","","","","","","","","63","","",""
"revaluation","181","814672","0.0-4.0-2.0-0.32","spark_pilot_norest","14427","5","22","Male","","false","","","","","[776.5,528.1999999992549]","./assets/img/canyon/memory/2.jpg","[""ArrowUp"",""ArrowLeft""]","value training","canyon","26","{""ArrowUp,ArrowLeft"":26,""ArrowUp,ArrowRight"":10,""ArrowDown,ArrowLeft"":5,""ArrowDown,ArrowRight"":17}","true","ArrowUp,ArrowLeft","false","original","1","64","","",""
"html-keyboard-response","182","815175","0.0-4.0-2.0-1.32","spark_pilot_norest","14427","5","22","Male","","","","","","","null","<div style=""font-size:60px;"">+</div>","null","fixation","","","","","","","","","65","","",""
"revaluation","183","821183","0.0-4.0-2.0-0.33","spark_pilot_norest","14427","5","22","Male","","false","","","","","[752.3999999985099,493.80000000074506]","./assets/img/canyon/memory/36.jpg","[""ArrowUp"",""ArrowLeft""]","value training","canyon","26","{""ArrowUp,ArrowLeft"":26,""ArrowUp,ArrowRight"":10,""ArrowDown,ArrowLeft"":5,""ArrowDown,ArrowRight"":17}","true","ArrowUp,ArrowLeft","false","original","1","66","","",""
"html-keyboard-response","184","821686","0.0-4.0-2.0-1.33","spark_pilot_norest","14427","5","22","Male","","","","","","","null","<div style=""font-size:60px;"">+</div>","null","fixation","","","","","","","","","67","","",""
"revaluation","185","827694","0.0-4.0-2.0-0.34","spark_pilot_norest","14427","5","22","Male","","false","","","","","[980.3999999985099,610.3000000007451]","./assets/img/canyon/memory/10.jpg","[""ArrowUp"",""ArrowLeft""]","value training","canyon","26","{""ArrowUp,ArrowLeft"":26,""ArrowUp,ArrowRight"":10,""ArrowDown,ArrowLeft"":5,""ArrowDown,ArrowRight"":17}","true","ArrowUp,ArrowLeft","false","original","1","68","","",""
"html-keyboard-response","186","828196","0.0-4.0-2.0-1.34","spark_pilot_norest","14427","5","22","Male","","","","","","","null","<div style=""font-size:60px;"">+</div>","null","fixation","","","","","","","","","69","","",""
"revaluation","187","834204","0.0-4.0-2.0-0.35","spark_pilot_norest","14427","5","22","Male","","false","","","","","[830.1999999992549,675.6000000014901]","./assets/img/canyon/memory/28.jpg","[""ArrowUp"",""ArrowLeft""]","value training","canyon","26","{""ArrowUp,ArrowLeft"":26,""ArrowUp,ArrowRight"":10,""ArrowDown,ArrowLeft"":5,""ArrowDown,ArrowRight"":17}","true","ArrowUp,ArrowLeft","false","original","1","70","","",""
"html-keyboard-response","188","834706","0.0-4.0-2.0-1.35","spark_pilot_norest","14427","5","22","Male","","","","","","","null","<div style=""font-size:60px;"">+</div>","null","fixation","","","","","","","","","71","","",""
"revaluation","189","840714","0.0-4.0-2.0-0.36","spark_pilot_norest","14427","5","22","Male","","false","","","","","[790.3000000007451,660.7000000029802]","./assets/img/canyon/memory/8.jpg","[""ArrowUp"",""ArrowLeft""]","value training","canyon","26","{""ArrowUp,ArrowLeft"":26,""ArrowUp,ArrowRight"":10,""ArrowDown,ArrowLeft"":5,""ArrowDown,ArrowRight"":17}","true","ArrowUp,ArrowLeft","false","original","1","72","","",""
"html-keyboard-response","190","841216","0.0-4.0-2.0-1.36","spark_pilot_norest","14427","5","22","Male","","","","","","","null","<div style=""font-size:60px;"">+</div>","null","fixation","","","","","","","","","73","","",""
"revaluation","191","847224","0.0-4.0-2.0-0.37","spark_pilot_norest","14427","5","22","Male","","false","","","","","[788.0999999977648,494.20000000298023]","./assets/img/canyon/memory/31.jpg","[""ArrowUp"",""ArrowLeft""]","value training","canyon","26","{""ArrowUp,ArrowLeft"":26,""ArrowUp,ArrowRight"":10,""ArrowDown,ArrowLeft"":5,""ArrowDown,ArrowRight"":17}","true","ArrowUp,ArrowLeft","false","original","1","74","","",""
"html-keyboard-response","192","847726","0.0-4.0-2.0-1.37","spark_pilot_norest","14427","5","22","Male","","","","","","","null","<div style=""font-size:60px;"">+</div>","null","fixation","","","","","","","","","75","","",""
"revaluation","193","853735","0.0-4.0-2.0-0.38","spark_pilot_norest","14427","5","22","Male","","false","","","","","[831.0999999977648,677.1999999992549]","./assets/img/canyon/memory/41.jpg","[""ArrowUp"",""ArrowLeft""]","value training","canyon","26","{""ArrowUp,ArrowLeft"":26,""ArrowUp,ArrowRight"":10,""ArrowDown,ArrowLeft"":5,""ArrowDown,ArrowRight"":17}","true","ArrowUp,ArrowLeft","false","original","1","76","","",""
"html-keyboard-response","194","854237","0.0-4.0-2.0-1.38","spark_pilot_norest","14427","5","22","Male","","","","","","","null","<div style=""font-size:60px;"">+</div>","null","fixation","","","","","","","","","77","","",""
"revaluation","195","860244","0.0-4.0-2.0-0.39","spark_pilot_norest","14427","5","22","Male","","false","","","","","[990.9000000022352,618.2999999970198]","./assets/img/canyon/memory/1.jpg","[""ArrowUp"",""ArrowLeft""]","value training","canyon","26","{""ArrowUp,ArrowLeft"":26,""ArrowUp,ArrowRight"":10,""ArrowDown,ArrowLeft"":5,""ArrowDown,ArrowRight"":17}","true","ArrowUp,ArrowLeft","false","original","1","78","","",""
"html-keyboard-response","196","860747","0.0-4.0-2.0-1.39","spark_pilot_norest","14427","5","22","Male","","","","","","","null","<div style=""font-size:60px;"">+</div>","null","fixation","","","","","","","","","79","","",""
"revaluation","197","866756","0.0-4.0-2.0-0.40","spark_pilot_norest","14427","5","22","Male","","false","","","","","[686.1000000014901,504.3999999985099]","./assets/img/canyon/memory/29.jpg","[""ArrowUp"",""ArrowLeft""]","value training","canyon","26","{""ArrowUp,ArrowLeft"":26,""ArrowUp,ArrowRight"":10,""ArrowDown,ArrowLeft"":5,""ArrowDown,ArrowRight"":17}","true","ArrowUp,ArrowLeft","false","original","1","80","","",""
"html-keyboard-response","198","867258","0.0-4.0-2.0-1.40","spark_pilot_norest","14427","5","22","Male","","","","","","","null","<div style=""font-size:60px;"">+</div>","null","fixation","","","","","","","","","81","","",""
"revaluation","199","873264","0.0-4.0-2.0-0.41","spark_pilot_norest","14427","5","22","Male","","false","","","","","[936.3000000007451,724.3999999985099]","./assets/img/canyon/memory/6.jpg","[""ArrowUp"",""ArrowLeft""]","value training","canyon","26","{""ArrowUp,ArrowLeft"":26,""ArrowUp,ArrowRight"":10,""ArrowDown,ArrowLeft"":5,""ArrowDown,ArrowRight"":17}","true","ArrowUp,ArrowLeft","false","original","1","82","","",""
"html-keyboard-response","200","873767","0.0-4.0-2.0-1.41","spark_pilot_norest","14427","5","22","Male","","","","","","","null","<div style=""font-size:60px;"">+</div>","null","fixation","","","","","","","","","83","","",""
"revaluation","201","879775","0.0-4.0-2.0-0.42","spark_pilot_norest","14427","5","22","Male","","false","","","","","[778.4000000022352,578.4000000022352]","./assets/img/canyon/memory/15.jpg","[""ArrowUp"",""ArrowLeft""]","value training","canyon","26","{""ArrowUp,ArrowLeft"":26,""ArrowUp,ArrowRight"":10,""ArrowDown,ArrowLeft"":5,""ArrowDown,ArrowRight"":17}","true","ArrowUp,ArrowLeft","false","original","1","84","","",""
"html-keyboard-response","202","880278","0.0-4.0-2.0-1.42","spark_pilot_norest","14427","5","22","Male","","","","","","","null","<div style=""font-size:60px;"">+</div>","null","fixation","","","","","","","","","85","","",""
"revaluation","203","884284","0.0-4.0-2.0-0.43","spark_pilot_norest","14427","5","22","Male","","false","","","","","[645.6000000014901]","./assets/img/canyon/catch/3.jpg","[""spaceBar""]","value training","canyon","0","{""ArrowUp,ArrowLeft"":26,""ArrowUp,ArrowRight"":10,""ArrowDown,ArrowLeft"":5,""ArrowDown,ArrowRight"":17}","true","spaceBar","true","original","1","86","","",""
"html-keyboard-response","204","884786","0.0-4.0-2.0-1.43","spark_pilot_norest","14427","5","22","Male","","","","","","","null","<div style=""font-size:60px;"">+</div>","null","fixation","","","","","","","","","87","","",""
"revaluation","205","890794","0.0-4.0-2.0-0.44","spark_pilot_norest","14427","5","22","Male","","false","","","","","[1157.6000000014901,612.6999999992549]","./assets/img/canyon/memory/24.jpg","[""ArrowUp"",""ArrowLeft""]","value training","canyon","26","{""ArrowUp,ArrowLeft"":26,""ArrowUp,ArrowRight"":10,""ArrowDown,ArrowLeft"":5,""ArrowDown,ArrowRight"":17}","true","ArrowUp,ArrowLeft","false","original","1","88","","",""
"html-keyboard-response","206","891297","0.0-4.0-2.0-1.44","spark_pilot_norest","14427","5","22","Male","","","","","","","null","<div style=""font-size:60px;"">+</div>","null","fixation","","","","","","","","","89","","",""
"revaluation","207","897304","0.0-4.0-2.0-0.45","spark_pilot_norest","14427","5","22","Male","","false","","","","","[759.9000000022352,469.79999999701977]","./assets/img/canyon/memory/17.jpg","[""ArrowUp"",""ArrowLeft""]","value training","canyon","26","{""ArrowUp,ArrowLeft"":26,""ArrowUp,ArrowRight"":10,""ArrowDown,ArrowLeft"":5,""ArrowDown,ArrowRight"":17}","true","ArrowUp,ArrowLeft","false","original","1","90","","",""
"html-keyboard-response","208","897805","0.0-4.0-2.0-1.45","spark_pilot_norest","14427","5","22","Male","","","","","","","null","<div style=""font-size:60px;"">+</div>","null","fixation","","","","","","","","","91","","",""
"revaluation","209","903812","0.0-4.0-2.0-0.46","spark_pilot_norest","14427","5","22","Male","","false","","","","","[644.1999999992549,455.5]","./assets/img/canyon/memory/6.jpg","[""ArrowUp"",""ArrowLeft""]","value training","canyon","26","{""ArrowUp,ArrowLeft"":26,""ArrowUp,ArrowRight"":10,""ArrowDown,ArrowLeft"":5,""ArrowDown,ArrowRight"":17}","true","ArrowUp,ArrowLeft","false","original","1","92","","",""
"html-keyboard-response","210","904315","0.0-4.0-2.0-1.46","spark_pilot_norest","14427","5","22","Male","","","","","","","null","<div style=""font-size:60px;"">+</div>","null","fixation","","","","","","","","","93","","",""
"revaluation","211","908321","0.0-4.0-2.0-0.47","spark_pilot_norest","14427","5","22","Male","","false","","","","","[617.1000000014901]","./assets/img/canyon/catch/0.jpg","[""spaceBar""]","value training","canyon","0","{""ArrowUp,ArrowLeft"":26,""ArrowUp,ArrowRight"":10,""ArrowDown,ArrowLeft"":5,""ArrowDown,ArrowRight"":17}","true","spaceBar","true","original","1","94","","",""
"html-keyboard-response","212","908823","0.0-4.0-2.0-1.47","spark_pilot_norest","14427","5","22","Male","","","","","","","null","<div style=""font-size:60px;"">+</div>","null","fixation","","","","","","","","","95","","",""
"revaluation","213","914830","0.0-4.0-2.0-0.48","spark_pilot_norest","14427","5","22","Male","","false","","","","","[785.6999999992549,567.8999999985099]","./assets/img/canyon/memory/9.jpg","[""ArrowUp"",""ArrowLeft""]","value training","canyon","26","{""ArrowUp,ArrowLeft"":26,""ArrowUp,ArrowRight"":10,""ArrowDown,ArrowLeft"":5,""ArrowDown,ArrowRight"":17}","true","ArrowUp,ArrowLeft","false","original","1","96","","",""
"html-keyboard-response","214","915332","0.0-4.0-2.0-1.48","spark_pilot_norest","14427","5","22","Male","","","","","","","null","<div style=""font-size:60px;"">+</div>","null","fixation","","","","","","","","","97","","",""
"revaluation","215","919338","0.0-4.0-2.0-0.49","spark_pilot_norest","14427","5","22","Male","","false","","","","","[786.1999999992549]","./assets/img/canyon/catch/2.jpg","[""spaceBar""]","value training","canyon","0","{""ArrowUp,ArrowLeft"":26,""ArrowUp,ArrowRight"":10,""ArrowDown,ArrowLeft"":5,""ArrowDown,ArrowRight"":17}","true","spaceBar","true","original","1","98","","",""
"html-keyboard-response","216","919840","0.0-4.0-2.0-1.49","spark_pilot_norest","14427","5","22","Male","","","","","","","null","<div style=""font-size:60px;"">+</div>","null","fixation","","","","","","","","","99","","",""
"learning-instructions","217","935896","0.0-4.0-3.0-0.0","spark_pilot_norest","14427","5","22","Male","","","","","","","3140.5","<p> Now, you will travel with a friend who will choose whether you go up or down first. </p>
            <p> On these turns, you will just see the animal that they found. You will still get to choose which chest to search for treasure.</p>","","instructions","","","","","","","","","","","",""
"revaluation","218","939901","0.0-4.0-4.0-0.0","spark_pilot_norest","14427","5","22","Male","","false","","","","","[890.2999999970198]","./assets/img/canyon/animals/giraffe.jpg","[""ArrowLeft""]","revaluation","canyon","26","{""ArrowUp,ArrowLeft"":26,""ArrowUp,ArrowRight"":10,""ArrowDown,ArrowLeft"":5,""ArrowDown,ArrowRight"":17}","true","ArrowUp,ArrowLeft","","original","1","0","","",""
"html-keyboard-response","219","940408","0.0-4.0-4.0-1.0","spark_pilot_norest","14427","5","22","Male","","","","","","","null","<div style=""font-size:60px;"">+</div>","null","fixation","","","","","","","","","1","","",""
"revaluation","220","944412","0.0-4.0-4.0-0.1","spark_pilot_norest","14427","5","22","Male","","false","","","","","[603]","./assets/img/canyon/animals/lion.jpg","[""ArrowLeft""]","revaluation","canyon","5","{""ArrowUp,ArrowLeft"":26,""ArrowUp,ArrowRight"":10,""ArrowDown,ArrowLeft"":5,""ArrowDown,ArrowRight"":17}","false","ArrowDown,ArrowLeft","","original","1","2","","",""
"html-keyboard-response","221","944914","0.0-4.0-4.0-1.1","spark_pilot_norest","14427","5","22","Male","","","","","","","null","<div style=""font-size:60px;"">+</div>","null","fixation","","","","","","","","","3","","",""
"revaluation","222","948920","0.0-4.0-4.0-0.2","spark_pilot_norest","14427","5","22","Male","","false","","","","","[802.9000000022352]","./assets/img/canyon/animals/lion.jpg","[""ArrowRight""]","revaluation","canyon","17","{""ArrowUp,ArrowLeft"":26,""ArrowUp,ArrowRight"":10,""ArrowDown,ArrowLeft"":5,""ArrowDown,ArrowRight"":17}","true","ArrowDown,ArrowRight","","original","1","4","","",""
"html-keyboard-response","223","949422","0.0-4.0-4.0-1.2","spark_pilot_norest","14427","5","22","Male","","","","","","","null","<div style=""font-size:60px;"">+</div>","null","fixation","","","","","","","","","5","","",""
"revaluation","224","953427","0.0-4.0-4.0-0.3","spark_pilot_norest","14427","5","22","Male","","false","","","","","[541.1999999992549]","./assets/img/canyon/animals/lion.jpg","[""ArrowRight""]","revaluation","canyon","17","{""ArrowUp,ArrowLeft"":26,""ArrowUp,ArrowRight"":10,""ArrowDown,ArrowLeft"":5,""ArrowDown,ArrowRight"":17}","true","ArrowDown,ArrowRight","","original","1","6","","",""
"html-keyboard-response","225","953930","0.0-4.0-4.0-1.3","spark_pilot_norest","14427","5","22","Male","","","","","","","null","<div style=""font-size:60px;"">+</div>","null","fixation","","","","","","","","","7","","",""
"revaluation","226","957935","0.0-4.0-4.0-0.4","spark_pilot_norest","14427","5","22","Male","","false","","","","","[748.1999999992549]","./assets/img/canyon/animals/giraffe.jpg","[""ArrowLeft""]","revaluation","canyon","26","{""ArrowUp,ArrowLeft"":26,""ArrowUp,ArrowRight"":10,""ArrowDown,ArrowLeft"":5,""ArrowDown,ArrowRight"":17}","true","ArrowUp,ArrowLeft","","original","1","8","","",""
"html-keyboard-response","227","958437","0.0-4.0-4.0-1.4","spark_pilot_norest","14427","5","22","Male","","","","","","","null","<div style=""font-size:60px;"">+</div>","null","fixation","","","","","","","","","9","","",""
"revaluation","228","962441","0.0-4.0-4.0-0.5","spark_pilot_norest","14427","5","22","Male","","false","","","","","[956.5999999977648]","./assets/img/canyon/animals/giraffe.jpg","[""ArrowLeft""]","revaluation","canyon","26","{""ArrowUp,ArrowLeft"":26,""ArrowUp,ArrowRight"":10,""ArrowDown,ArrowLeft"":5,""ArrowDown,ArrowRight"":17}","true","ArrowUp,ArrowLeft","","original","1","10","","",""
"html-keyboard-response","229","962943","0.0-4.0-4.0-1.5","spark_pilot_norest","14427","5","22","Male","","","","","","","null","<div style=""font-size:60px;"">+</div>","null","fixation","","","","","","","","","11","","",""
"revaluation","230","966949","0.0-4.0-4.0-0.6","spark_pilot_norest","14427","5","22","Male","","false","","","","","[656.5]","./assets/img/canyon/animals/lion.jpg","[""ArrowRight""]","revaluation","canyon","17","{""ArrowUp,ArrowLeft"":26,""ArrowUp,ArrowRight"":10,""ArrowDown,ArrowLeft"":5,""ArrowDown,ArrowRight"":17}","true","ArrowDown,ArrowRight","","original","1","12","","",""
"html-keyboard-response","231","967452","0.0-4.0-4.0-1.6","spark_pilot_norest","14427","5","22","Male","","","","","","","null","<div style=""font-size:60px;"">+</div>","null","fixation","","","","","","","","","13","","",""
"revaluation","232","971458","0.0-4.0-4.0-0.7","spark_pilot_norest","14427","5","22","Male","","false","","","","","[575.0999999977648]","./assets/img/canyon/animals/lion.jpg","[""ArrowRight""]","revaluation","canyon","17","{""ArrowUp,ArrowLeft"":26,""ArrowUp,ArrowRight"":10,""ArrowDown,ArrowLeft"":5,""ArrowDown,ArrowRight"":17}","true","ArrowDown,ArrowRight","","original","1","14","","",""
"html-keyboard-response","233","971960","0.0-4.0-4.0-1.7","spark_pilot_norest","14427","5","22","Male","","","","","","","null","<div style=""font-size:60px;"">+</div>","null","fixation","","","","","","","","","15","","",""
"revaluation","234","975966","0.0-4.0-4.0-0.8","spark_pilot_norest","14427","5","22","Male","","false","","","","","[599.1999999992549]","./assets/img/canyon/animals/lion.jpg","[""ArrowRight""]","revaluation","canyon","17","{""ArrowUp,ArrowLeft"":26,""ArrowUp,ArrowRight"":10,""ArrowDown,ArrowLeft"":5,""ArrowDown,ArrowRight"":17}","true","ArrowDown,ArrowRight","","original","1","16","","",""
"html-keyboard-response","235","976469","0.0-4.0-4.0-1.8","spark_pilot_norest","14427","5","22","Male","","","","","","","null","<div style=""font-size:60px;"">+</div>","null","fixation","","","","","","","","","17","","",""
"revaluation","236","980475","0.0-4.0-4.0-0.9","spark_pilot_norest","14427","5","22","Male","","false","","","","","[779.1999999992549]","./assets/img/canyon/animals/giraffe.jpg","[""ArrowLeft""]","revaluation","canyon","26","{""ArrowUp,ArrowLeft"":26,""ArrowUp,ArrowRight"":10,""ArrowDown,ArrowLeft"":5,""ArrowDown,ArrowRight"":17}","true","ArrowUp,ArrowLeft","","original","1","18","","",""
"html-keyboard-response","237","980977","0.0-4.0-4.0-1.9","spark_pilot_norest","14427","5","22","Male","","","","","","","null","<div style=""font-size:60px;"">+</div>","null","fixation","","","","","","","","","19","","",""
"revaluation","238","984983","0.0-4.0-4.0-0.10","spark_pilot_norest","14427","5","22","Male","","false","","","","","[854.3000000007451]","./assets/img/canyon/animals/giraffe.jpg","[""ArrowLeft""]","revaluation","canyon","26","{""ArrowUp,ArrowLeft"":26,""ArrowUp,ArrowRight"":10,""ArrowDown,ArrowLeft"":5,""ArrowDown,ArrowRight"":17}","true","ArrowUp,ArrowLeft","","original","1","20","","",""
"html-keyboard-response","239","985485","0.0-4.0-4.0-1.10","spark_pilot_norest","14427","5","22","Male","","","","","","","null","<div style=""font-size:60px;"">+</div>","null","fixation","","","","","","","","","21","","",""
"revaluation","240","989492","0.0-4.0-4.0-0.11","spark_pilot_norest","14427","5","22","Male","","false","","","","","[594.0999999977648]","./assets/img/canyon/animals/giraffe.jpg","[""ArrowLeft""]","revaluation","canyon","26","{""ArrowUp,ArrowLeft"":26,""ArrowUp,ArrowRight"":10,""ArrowDown,ArrowLeft"":5,""ArrowDown,ArrowRight"":17}","true","ArrowUp,ArrowLeft","","original","1","22","","",""
"html-keyboard-response","241","989993","0.0-4.0-4.0-1.11","spark_pilot_norest","14427","5","22","Male","","","","","","","null","<div style=""font-size:60px;"">+</div>","null","fixation","","","","","","","","","23","","",""
"revaluation","242","994000","0.0-4.0-4.0-0.12","spark_pilot_norest","14427","5","22","Male","","false","","","","","[718.5]","./assets/img/canyon/animals/giraffe.jpg","[""ArrowLeft""]","revaluation","canyon","26","{""ArrowUp,ArrowLeft"":26,""ArrowUp,ArrowRight"":10,""ArrowDown,ArrowLeft"":5,""ArrowDown,ArrowRight"":17}","true","ArrowUp,ArrowLeft","","original","1","24","","",""
"html-keyboard-response","243","994501","0.0-4.0-4.0-1.12","spark_pilot_norest","14427","5","22","Male","","","","","","","null","<div style=""font-size:60px;"">+</div>","null","fixation","","","","","","","","","25","","",""
"revaluation","244","998507","0.0-4.0-4.0-0.13","spark_pilot_norest","14427","5","22","Male","","false","","","","","[644.1999999992549]","./assets/img/canyon/animals/lion.jpg","[""ArrowRight""]","revaluation","canyon","17","{""ArrowUp,ArrowLeft"":26,""ArrowUp,ArrowRight"":10,""ArrowDown,ArrowLeft"":5,""ArrowDown,ArrowRight"":17}","true","ArrowDown,ArrowRight","","original","1","26","","",""
"html-keyboard-response","245","999010","0.0-4.0-4.0-1.13","spark_pilot_norest","14427","5","22","Male","","","","","","","null","<div style=""font-size:60px;"">+</div>","null","fixation","","","","","","","","","27","","",""
"revaluation","246","1003016","0.0-4.0-4.0-0.14","spark_pilot_norest","14427","5","22","Male","","false","","","","","[859.2000000029802]","./assets/img/canyon/animals/lion.jpg","[""ArrowRight""]","revaluation","canyon","17","{""ArrowUp,ArrowLeft"":26,""ArrowUp,ArrowRight"":10,""ArrowDown,ArrowLeft"":5,""ArrowDown,ArrowRight"":17}","true","ArrowDown,ArrowRight","","original","1","28","","",""
"html-keyboard-response","247","1003518","0.0-4.0-4.0-1.14","spark_pilot_norest","14427","5","22","Male","","","","","","","null","<div style=""font-size:60px;"">+</div>","null","fixation","","","","","","","","","29","","",""
"revaluation","248","1007523","0.0-4.0-4.0-0.15","spark_pilot_norest","14427","5","22","Male","","false","","","","","[770.5999999977648]","./assets/img/canyon/animals/giraffe.jpg","[""ArrowLeft""]","revaluation","canyon","26","{""ArrowUp,ArrowLeft"":26,""ArrowUp,ArrowRight"":10,""ArrowDown,ArrowLeft"":5,""ArrowDown,ArrowRight"":17}","true","ArrowUp,ArrowLeft","","original","1","30","","",""
"html-keyboard-response","249","1008025","0.0-4.0-4.0-1.15","spark_pilot_norest","14427","5","22","Male","","","","","","","null","<div style=""font-size:60px;"">+</div>","null","fixation","","","","","","","","","31","","",""
"revaluation","250","1012031","0.0-4.0-4.0-0.16","spark_pilot_norest","14427","5","22","Male","","false","","","","","[871.8000000007451]","./assets/img/canyon/animals/lion.jpg","[""ArrowRight""]","revaluation","canyon","17","{""ArrowUp,ArrowLeft"":26,""ArrowUp,ArrowRight"":10,""ArrowDown,ArrowLeft"":5,""ArrowDown,ArrowRight"":17}","true","ArrowDown,ArrowRight","","original","1","32","","",""
"html-keyboard-response","251","1012534","0.0-4.0-4.0-1.16","spark_pilot_norest","14427","5","22","Male","","","","","","","null","<div style=""font-size:60px;"">+</div>","null","fixation","","","","","","","","","33","","",""
"revaluation","252","1016541","0.0-4.0-4.0-0.17","spark_pilot_norest","14427","5","22","Male","","false","","","","","[643.6000000014901]","./assets/img/canyon/animals/giraffe.jpg","[""ArrowLeft""]","revaluation","canyon","26","{""ArrowUp,ArrowLeft"":26,""ArrowUp,ArrowRight"":10,""ArrowDown,ArrowLeft"":5,""ArrowDown,ArrowRight"":17}","true","ArrowUp,ArrowLeft","","original","1","34","","",""
"html-keyboard-response","253","1017043","0.0-4.0-4.0-1.17","spark_pilot_norest","14427","5","22","Male","","","","","","","null","<div style=""font-size:60px;"">+</div>","null","fixation","","","","","","","","","35","","",""
"learning-instructions","254","1025175","0.0-4.0-5.0-0.0","spark_pilot_norest","14427","5","22","Male","","","","","","","null","<p> You have almost finished this part of the game! </p>
            <p> We are going to ask you to make a few more choices. </p>","","instructions","","","","","","","","","","","",""
"learning-instructions","255","1041150","0.0-4.0-5.0-0.1","spark_pilot_norest","14427","5","22","Male","","","","","","","null","<p> First, you need to decide whether to go up or down. When you see each picture, use the arrow keys to make your choice. </p>
            <p><b>You will not see which animal you found, but try to get to the one that will give you the most treasure.</b></p>","","instructions","","","","","","","","","","","",""
"html-keyboard-response","256","1042151","0.0-4.0-6.0-0.0","spark_pilot_norest","14427","5","22","Male","","","","","","","null","<div style=""font-size:100px;color:red;"">Starting in...</div>","null","","","","","","","","","","","","",""
"html-keyboard-response","257","1043153","0.0-4.0-6.0-1.0","spark_pilot_norest","14427","5","22","Male","","","","","","","null","<div style=""font-size:200px;color:red;"">3</div>","null","","","","","","","","","","","","",""
"html-keyboard-response","258","1044155","0.0-4.0-6.0-2.0","spark_pilot_norest","14427","5","22","Male","","","","","","","null","<div style=""font-size:200px;color:red;"">2</div>","null","","","","","","","","","","","","",""
"html-keyboard-response","259","1045158","0.0-4.0-6.0-3.0","spark_pilot_norest","14427","5","22","Male","","","","","","","null","<div style=""font-size:200px;color:red;"">1</div>","null","","","","","","","","","","","","",""
"revaluation","260","1045795","0.0-4.0-7.0-0.0","spark_pilot_norest","14427","5","22","Male","","false","","","","","[635.0999999977648]","./assets/img/canyon/test/1.jpg","[""ArrowUp""]","first stage test","canyon","0","{""ArrowUp,ArrowLeft"":26,""ArrowUp,ArrowRight"":10,""ArrowDown,ArrowLeft"":5,""ArrowDown,ArrowRight"":17}","true","ArrowUp","false","original","1","","","",""
"html-keyboard-response","261","1046296","0.0-4.0-7.0-1.0","spark_pilot_norest","14427","5","22","Male","","","","","","","null","<div style=""font-size:60px;"">+</div>","null","fixation","","","","","","","","","","","",""
"revaluation","262","1047166","0.0-4.0-7.0-0.1","spark_pilot_norest","14427","5","22","Male","","false","","","","","[866.1000000014901]","./assets/img/canyon/test/0.jpg","[""ArrowUp""]","first stage test","canyon","0","{""ArrowUp,ArrowLeft"":26,""ArrowUp,ArrowRight"":10,""ArrowDown,ArrowLeft"":5,""ArrowDown,ArrowRight"":17}","true","ArrowUp","false","original","1","","","",""
"html-keyboard-response","263","1047666","0.0-4.0-7.0-1.1","spark_pilot_norest","14427","5","22","Male","","","","","","","null","<div style=""font-size:60px;"">+</div>","null","fixation","","","","","","","","","","","",""
"revaluation","264","1048307","0.0-4.0-7.0-0.2","spark_pilot_norest","14427","5","22","Male","","false","","","","","[638.3999999985099]","./assets/img/canyon/test/3.jpg","[""ArrowUp""]","first stage test","canyon","0","{""ArrowUp,ArrowLeft"":26,""ArrowUp,ArrowRight"":10,""ArrowDown,ArrowLeft"":5,""ArrowDown,ArrowRight"":17}","true","ArrowUp","false","original","1","","","",""
"html-keyboard-response","265","1048808","0.0-4.0-7.0-1.2","spark_pilot_norest","14427","5","22","Male","","","","","","","null","<div style=""font-size:60px;"">+</div>","null","fixation","","","","","","","","","","","",""
"revaluation","266","1049409","0.0-4.0-7.0-0.3","spark_pilot_norest","14427","5","22","Male","","false","","","","","[597.3000000007451]","./assets/img/canyon/test/2.jpg","[""ArrowUp""]","first stage test","canyon","0","{""ArrowUp,ArrowLeft"":26,""ArrowUp,ArrowRight"":10,""ArrowDown,ArrowLeft"":5,""ArrowDown,ArrowRight"":17}","true","ArrowUp","false","original","1","","","",""
"html-keyboard-response","267","1049910","0.0-4.0-7.0-1.3","spark_pilot_norest","14427","5","22","Male","","","","","","","null","<div style=""font-size:60px;"">+</div>","null","fixation","","","","","","","","","","","",""
"learning-instructions","268","1063257","0.0-4.0-8.0-0.0","spark_pilot_norest","14427","5","22","Male","","","","","","","null","<p> Now you will see the animals again and can search their chests for treasure. </p>
            <p> This time, you will not see how much treasure you earned, but you will earn more bonus money for making better choices. </p>","","instructions","","","","","","","","","","","",""
"html-keyboard-response","269","1064259","0.0-4.0-9.0-0.0","spark_pilot_norest","14427","5","22","Male","","","","","","","null","<div style=""font-size:100px;color:red;"">Starting in...</div>","null","","","","","","","","","","","","",""
"html-keyboard-response","270","1065260","0.0-4.0-9.0-1.0","spark_pilot_norest","14427","5","22","Male","","","","","","","null","<div style=""font-size:200px;color:red;"">3</div>","null","","","","","","","","","","","","",""
"html-keyboard-response","271","1066263","0.0-4.0-9.0-2.0","spark_pilot_norest","14427","5","22","Male","","","","","","","null","<div style=""font-size:200px;color:red;"">2</div>","null","","","","","","","","","","","","",""
"html-keyboard-response","272","1067265","0.0-4.0-9.0-3.0","spark_pilot_norest","14427","5","22","Male","","","","","","","null","<div style=""font-size:200px;color:red;"">1</div>","null","","","","","","","","","","","","",""
"revaluation","273","1068469","0.0-4.0-10.0-0.0","spark_pilot_norest","14427","5","22","Male","","false","","","","","[1201.199999999255]","./assets/img/canyon/animals/giraffe.jpg","[""ArrowLeft""]","second stage test","canyon","0","{""ArrowUp,ArrowLeft"":26,""ArrowUp,ArrowRight"":10,""ArrowDown,ArrowLeft"":5,""ArrowDown,ArrowRight"":17}","true","ArrowUp,ArrowLeft","","original","1","","","",""
"html-keyboard-response","274","1068971","0.0-4.0-10.0-1.0","spark_pilot_norest","14427","5","22","Male","","","","","","","null","<div style=""font-size:60px;"">+</div>","null","fixation","","","","","","","","","","","",""
"revaluation","275","1069554","0.0-4.0-10.0-0.1","spark_pilot_norest","14427","5","22","Male","","false","","","","","[580.5]","./assets/img/canyon/animals/giraffe.jpg","[""ArrowLeft""]","second stage test","canyon","0","{""ArrowUp,ArrowLeft"":26,""ArrowUp,ArrowRight"":10,""ArrowDown,ArrowLeft"":5,""ArrowDown,ArrowRight"":17}","true","ArrowUp,ArrowLeft","","original","1","","","",""
"html-keyboard-response","276","1070056","0.0-4.0-10.0-1.1","spark_pilot_norest","14427","5","22","Male","","","","","","","null","<div style=""font-size:60px;"">+</div>","null","fixation","","","","","","","","","","","",""
"revaluation","277","1070672","0.0-4.0-10.0-0.2","spark_pilot_norest","14427","5","22","Male","","false","","","","","[613.1999999992549]","./assets/img/canyon/animals/giraffe.jpg","[""ArrowLeft""]","second stage test","canyon","0","{""ArrowUp,ArrowLeft"":26,""ArrowUp,ArrowRight"":10,""ArrowDown,ArrowLeft"":5,""ArrowDown,ArrowRight"":17}","true","ArrowUp,ArrowLeft","","original","1","","","",""
"html-keyboard-response","278","1071173","0.0-4.0-10.0-1.2","spark_pilot_norest","14427","5","22","Male","","","","","","","null","<div style=""font-size:60px;"">+</div>","null","fixation","","","","","","","","","","","",""
"revaluation","279","1071838","0.0-4.0-10.0-0.3","spark_pilot_norest","14427","5","22","Male","","false","","","","","[661.2999999970198]","./assets/img/canyon/animals/giraffe.jpg","[""ArrowLeft""]","second stage test","canyon","0","{""ArrowUp,ArrowLeft"":26,""ArrowUp,ArrowRight"":10,""ArrowDown,ArrowLeft"":5,""ArrowDown,ArrowRight"":17}","true","ArrowUp,ArrowLeft","","original","1","","","",""
"html-keyboard-response","280","1072339","0.0-4.0-10.0-1.3","spark_pilot_norest","14427","5","22","Male","","","","","","","null","<div style=""font-size:60px;"">+</div>","null","fixation","","","","","","","","","","","",""
"revaluation","281","1073011","0.0-4.0-10.0-0.4","spark_pilot_norest","14427","5","22","Male","","false","","","","","[667.8000000007451]","./assets/img/canyon/animals/lion.jpg","[""ArrowRight""]","second stage test","canyon","0","{""ArrowUp,ArrowLeft"":26,""ArrowUp,ArrowRight"":10,""ArrowDown,ArrowLeft"":5,""ArrowDown,ArrowRight"":17}","true","ArrowDown,ArrowRight","","original","1","","","",""
"html-keyboard-response","282","1073512","0.0-4.0-10.0-1.4","spark_pilot_norest","14427","5","22","Male","","","","","","","null","<div style=""font-size:60px;"">+</div>","null","fixation","","","","","","","","","","","",""
"revaluation","283","1074024","0.0-4.0-10.0-0.5","spark_pilot_norest","14427","5","22","Male","","false","","","","","[508.69999999925494]","./assets/img/canyon/animals/lion.jpg","[""ArrowRight""]","second stage test","canyon","0","{""ArrowUp,ArrowLeft"":26,""ArrowUp,ArrowRight"":10,""ArrowDown,ArrowLeft"":5,""ArrowDown,ArrowRight"":17}","true","ArrowDown,ArrowRight","","original","1","","","",""
"html-keyboard-response","284","1074525","0.0-4.0-10.0-1.5","spark_pilot_norest","14427","5","22","Male","","","","","","","null","<div style=""font-size:60px;"">+</div>","null","fixation","","","","","","","","","","","",""
"revaluation","285","1075032","0.0-4.0-10.0-0.6","spark_pilot_norest","14427","5","22","Male","","false","","","","","[504.1000000014901]","./assets/img/canyon/animals/lion.jpg","[""ArrowRight""]","second stage test","canyon","0","{""ArrowUp,ArrowLeft"":26,""ArrowUp,ArrowRight"":10,""ArrowDown,ArrowLeft"":5,""ArrowDown,ArrowRight"":17}","true","ArrowDown,ArrowRight","","original","1","","","",""
"html-keyboard-response","286","1075534","0.0-4.0-10.0-1.6","spark_pilot_norest","14427","5","22","Male","","","","","","","null","<div style=""font-size:60px;"">+</div>","null","fixation","","","","","","","","","","","",""
"revaluation","287","1076086","0.0-4.0-10.0-0.7","spark_pilot_norest","14427","5","22","Male","","false","","","","","[549.3000000007451]","./assets/img/canyon/animals/lion.jpg","[""ArrowRight""]","second stage test","canyon","0","{""ArrowUp,ArrowLeft"":26,""ArrowUp,ArrowRight"":10,""ArrowDown,ArrowLeft"":5,""ArrowDown,ArrowRight"":17}","true","ArrowDown,ArrowRight","","original","1","","","",""
"html-keyboard-response","288","1076587","0.0-4.0-10.0-1.7","spark_pilot_norest","14427","5","22","Male","","","","","","","null","<div style=""font-size:60px;"">+</div>","null","fixation","","","","","","","","","","","",""
"learning-instructions","289","1081746","0.0-4.0-0.1-0.2","spark_pilot_norest","14427","5","22","Male","","","","","","","2448.10000000149","<p> This time you are searching for treasure in the <b>ocean</b>.</p>","","instructions","","","","","","","","","","","",""
"learning-instructions","290","1100090","0.0-4.0-0.1-0.3","spark_pilot_norest","14427","5","22","Male","","","","","","","1091.7000000029802","<p><b>New</b> animals with <b>new</b> treasure chests live here. You need to explore to discover where the animal with the best treasure chest is.</p>
                    <p> Like before, once you figure out which animal has the chest with the most treasure, you should try to get to that animal and select that chest! </p>","","instructions","","","","","","","","","","","",""
"learning-instructions","291","1115395","0.0-4.0-1.1-0.1","spark_pilot_norest","14427","5","22","Male","","","","","","","590.5","<p> Remember, when you see a picture of the place, use the up and down keys to <b>find an animal</b>.</p>
            <p> When you encounter an animal, you should use the left and right keys to <b>select a treasure chest</b>.</p>
            <p> Don't forget to look out for the robber! </p>","","instructions","","","","","","","","","","","",""
"revaluation","292","1121398","0.0-4.0-2.1-0.50","spark_pilot_norest","14427","5","22","Male","","false","","","","","[1586.2000000029802,538.0999999977648]","./assets/img/ocean/memory/9.jpg","[""ArrowUp"",""ArrowLeft""]","value training","ocean","23","{""ArrowUp,ArrowLeft"":23,""ArrowUp,ArrowRight"":10,""ArrowDown,ArrowLeft"":8,""ArrowDown,ArrowRight"":30}","false","ArrowUp,ArrowLeft","false","revaluation","2","0","","",""
"html-keyboard-response","293","1121900","0.0-4.0-2.1-1.50","spark_pilot_norest","14427","5","22","Male","","","","","","","null","<div style=""font-size:60px;"">+</div>","null","fixation","","","","","","","","","1","","",""
"revaluation","294","1125904","0.0-4.0-2.1-0.51","spark_pilot_norest","14427","5","22","Male","","false","","","","","[541.1999999992549]","./assets/img/ocean/catch/6.jpg","[""ArrowUp""]","value training","ocean","-10","{""ArrowUp,ArrowLeft"":23,""ArrowUp,ArrowRight"":10,""ArrowDown,ArrowLeft"":8,""ArrowDown,ArrowRight"":30}","false","ArrowUp","true","revaluation","2","2","","",""
"html-keyboard-response","295","1126406","0.0-4.0-2.1-1.51","spark_pilot_norest","14427","5","22","Male","","","","","","","null","<div style=""font-size:60px;"">+</div>","null","fixation","","","","","","","","","3","","",""
"revaluation","296","1132413","0.0-4.0-2.1-0.52","spark_pilot_norest","14427","5","22","Male","","false","","","","","[810.8999999985099,568.3999999985099]","./assets/img/ocean/memory/3.jpg","[""ArrowUp"",""ArrowRight""]","value training","ocean","10","{""ArrowUp,ArrowLeft"":23,""ArrowUp,ArrowRight"":10,""ArrowDown,ArrowLeft"":8,""ArrowDown,ArrowRight"":30}","false","ArrowUp,ArrowRight","false","revaluation","2","4","","",""
"html-keyboard-response","297","1132915","0.0-4.0-2.1-1.52","spark_pilot_norest","14427","5","22","Male","","","","","","","null","<div style=""font-size:60px;"">+</div>","null","fixation","","","","","","","","","5","","",""
"revaluation","298","1138922","0.0-4.0-2.1-0.53","spark_pilot_norest","14427","5","22","Male","","false","","","","","[474.3999999985099,404.8999999985099]","./assets/img/ocean/memory/16.jpg","[""ArrowDown"",""ArrowLeft""]","value training","ocean","8","{""ArrowUp,ArrowLeft"":23,""ArrowUp,ArrowRight"":10,""ArrowDown,ArrowLeft"":8,""ArrowDown,ArrowRight"":30}","false","ArrowDown,ArrowLeft","false","revaluation","2","6","","",""
"html-keyboard-response","299","1139424","0.0-4.0-2.1-1.53","spark_pilot_norest","14427","5","22","Male","","","","","","","null","<div style=""font-size:60px;"">+</div>","null","fixation","","","","","","","","","7","","",""
"revaluation","300","1145431","0.0-4.0-2.1-0.54","spark_pilot_norest","14427","5","22","Male","","false","","","","","[737.6000000014901,350.20000000298023]","./assets/img/ocean/memory/24.jpg","[""ArrowDown"",""ArrowRight""]","value training","ocean","30","{""ArrowUp,ArrowLeft"":23,""ArrowUp,ArrowRight"":10,""ArrowDown,ArrowLeft"":8,""ArrowDown,ArrowRight"":30}","true","ArrowDown,ArrowRight","false","revaluation","2","8","","",""
"html-keyboard-response","301","1145934","0.0-4.0-2.1-1.54","spark_pilot_norest","14427","5","22","Male","","","","","","","null","<div style=""font-size:60px;"">+</div>","null","fixation","","","","","","","","","9","","",""
"revaluation","302","1151940","0.0-4.0-2.1-0.55","spark_pilot_norest","14427","5","22","Male","","false","","","","","[640.1999999992549,292.5]","./assets/img/ocean/memory/30.jpg","[""ArrowDown"",""ArrowRight""]","value training","ocean","30","{""ArrowUp,ArrowLeft"":23,""ArrowUp,ArrowRight"":10,""ArrowDown,ArrowLeft"":8,""ArrowDown,ArrowRight"":30}","true","ArrowDown,ArrowRight","false","revaluation","2","10","","",""
"html-keyboard-response","303","1152443","0.0-4.0-2.1-1.55","spark_pilot_norest","14427","5","22","Male","","","","","","","null","<div style=""font-size:60px;"">+</div>","null","fixation","","","","","","","","","11","","",""
"revaluation","304","1158451","0.0-4.0-2.1-0.56","spark_pilot_norest","14427","5","22","Male","","false","","","","","[630,388]","./assets/img/ocean/memory/21.jpg","[""ArrowDown"",""ArrowRight""]","value training","ocean","30","{""ArrowUp,ArrowLeft"":23,""ArrowUp,ArrowRight"":10,""ArrowDown,ArrowLeft"":8,""ArrowDown,ArrowRight"":30}","true","ArrowDown,ArrowRight","false","revaluation","2","12","","",""
"html-keyboard-response","305","1158953","0.0-4.0-2.1-1.56","spark_pilot_norest","14427","5","22","Male","","","","","","","null","<div style=""font-size:60px;"">+</div>","null","fixation","","","","","","","","","13","","",""
"revaluation","306","1164961","0.0-4.0-2.1-0.57","spark_pilot_norest","14427","5","22","Male","","false","","","","","[568.3000000007451,427.6000000014901]","./assets/img/ocean/memory/6.jpg","[""ArrowDown"",""ArrowRight""]","value training","ocean","30","{""ArrowUp,ArrowLeft"":23,""ArrowUp,ArrowRight"":10,""ArrowDown,ArrowLeft"":8,""ArrowDown,ArrowRight"":30}","true","ArrowDown,ArrowRight","false","revaluation","2","14","","",""
"html-keyboard-response","307","1165464","0.0-4.0-2.1-1.57","spark_pilot_norest","14427","5","22","Male","","","","","","","null","<div style=""font-size:60px;"">+</div>","null","fixation","","","","","","","","","15","","",""
"revaluation","308","1169470","0.0-4.0-2.1-0.58","spark_pilot_norest","14427","5","22","Male","","false","","","","","[647]","./assets/img/ocean/catch/7.jpg","[""spaceBar""]","value training","ocean","0","{""ArrowUp,ArrowLeft"":23,""ArrowUp,ArrowRight"":10,""ArrowDown,ArrowLeft"":8,""ArrowDown,ArrowRight"":30}","true","spaceBar","true","revaluation","2","16","","",""
"html-keyboard-response","309","1169971","0.0-4.0-2.1-1.58","spark_pilot_norest","14427","5","22","Male","","","","","","","null","<div style=""font-size:60px;"">+</div>","null","fixation","","","","","","","","","17","","",""
"revaluation","310","1173976","0.0-4.0-2.1-0.59","spark_pilot_norest","14427","5","22","Male","","false","","","","","[463.5999999977648]","./assets/img/ocean/catch/5.jpg","[""ArrowDown""]","value training","ocean","-10","{""ArrowUp,ArrowLeft"":23,""ArrowUp,ArrowRight"":10,""ArrowDown,ArrowLeft"":8,""ArrowDown,ArrowRight"":30}","false","ArrowDown","true","revaluation","2","18","","",""
"html-keyboard-response","311","1174478","0.0-4.0-2.1-1.59","spark_pilot_norest","14427","5","22","Male","","","","","","","null","<div style=""font-size:60px;"">+</div>","null","fixation","","","","","","","","","19","","",""
"revaluation","312","1180487","0.0-4.0-2.1-0.60","spark_pilot_norest","14427","5","22","Male","","false","","","","","[663.6999999992549,395.69999999925494]","./assets/img/ocean/memory/8.jpg","[""ArrowDown"",""ArrowRight""]","value training","ocean","30","{""ArrowUp,ArrowLeft"":23,""ArrowUp,ArrowRight"":10,""ArrowDown,ArrowLeft"":8,""ArrowDown,ArrowRight"":30}","true","ArrowDown,ArrowRight","false","revaluation","2","20","","",""
