"trial_type","trial_index","time_elapsed","internal_node_id","task_version","subject_id","assigned_condition","age","gender","success","timeout","failed_images","failed_audio","failed_video","browser_interaction","rt","stimulus","response","task_part","environment","score","rewardMap","correct","fullState","isCatch","condition","order","trial_num","key_press","ground_truth","bonus"
"pavlovia","0","1257","0.0-0.0","spark_pilot_norest","10510","3","8","Male","","","","","","","","","","","","","","","","","","","","","",""
"preload","1","9881","0.0-1.0","spark_pilot_norest","10510","3","8","Male","true","false","[]","[]","[]","[{""event"":""fullscreenenter"",""trial"":2,""time"":12522}]","","","","","","","","","","","","","","","",""
"fullscreen","2","13520","0.0-2.0","spark_pilot_norest","10510","3","8","Male","true","","","","","","","","","","","","","","","","","","","","",""
"audio-button-response","3","17707","0.0-3.0-0.0-0.0","spark_pilot_norest","10510","3","8","Male","","","","","","","3720","./assets/audio/audiotest/turtle.mp3","2","audio_test","","","","","","","","","","","",""
"learning-instructions","4","28084","0.0-3.0-1.0-0.0","spark_pilot_norest","10510","3","8","Male","","","","","","","3367.2999999970198","<p> Welcome! Please remember to stay in fullscreen mode and don't click away from the experiment. </p>","","instructions","","","","","","","","","","","",""
"learning-instructions","5","38466","0.0-3.0-1.0-0.1","spark_pilot_norest","10510","3","8","Male","","","","","","","1960","<p> Today you will be playing a game to earn treasure. </p>
            <p> At the end of the experiment, you will earn a bonus based on how much treasure you find. </p>
            <img src='./assets/img/instructions/treasure.jpg' class='instructions-image'>","","instructions","","","","","","","","","","","",""
"learning-instructions","6","48379","0.0-3.0-1.0-0.2","spark_pilot_norest","10510","3","8","Male","","","","","","","1652","<p> Animals have hidden treasure in treasure chests. </p>
            <p> You need to first find an animal and then choose which of their treasure chests to search. </p>
            <img src='./assets/img/space/animals/cat.jpg' class='instructions-image'>","","instructions","","","","","","","","","","","",""
"learning-instructions","7","62140","0.0-3.0-1.0-0.3","spark_pilot_norest","10510","3","8","Male","","","","","","","614.0999999940395","<p> In each round, you will search for treasure in a different place. In the real game, there will be two rounds. </p>
            <p> You will begin with a separate, practice round where you will search for treasure in outer space. </p>
            <img src='./assets/img/space/0.jpg' class='instructions-image'>","","instructions","","","","","","","","","","","",""
"learning-instructions","8","74355","0.0-3.0-1.0-0.4","spark_pilot_norest","10510","3","8","Male","","","","","","","799.8999999910593","<p> On every turn, you will see a picture of the place that you are in, but the specific image may be different each time. </p>
            <p> For example, both of these images mean you are in outer space. </p>
            <img src='./assets/img/instructions/outerspace.jpg' class='instructions-image'>","","instructions","","","","","","","","","","","",""
"learning-instructions","9","83499","0.0-3.0-1.0-0.5","spark_pilot_norest","10510","3","8","Male","","","","","","","1314","<p> You need to decide which direction to travel in. </p>
            <p> You can choose between going <b>up or down</b> by using the arrow keys. </p>
            <img src='./assets/img/instructions/updown.jpg' class='instructions-image'>","","instructions","","","","","","","","","","","",""
"learning-instructions","10","93395","0.0-3.0-1.0-0.6","spark_pilot_norest","10510","3","8","Male","","","","","","","1079","<p> You will have <b>2 seconds</b> to make your choice. </p>
            <p> If you do not make a choice within 2 seconds, you will not find an animal or earn treasure. </p>
            <img src='./assets/img/instructions/2seconds.jpg' class='instructions-image'>","","instructions","","","","","","","","","","","",""
"learning-instructions","11","101947","0.0-3.0-1.0-0.7","spark_pilot_norest","10510","3","8","Male","","","","","","","1520","<p> Let’s try practicing that now! </p>
            <p> When you see a picture of the place you are in, press the <b>up</b> key to travel up. </p>
            <img src='./assets/img/instructions/pressUp.jpg' class='instructions-image'>","","instructions","","","","","","","","","","","",""
"revaluation","12","105972","0.0-3.0-2.0-0.0","spark_pilot_norest","10510","3","8","Male","","false","","","","","[1319.5999999940395]","./assets/img/space/0.jpg","[""ArrowUp""]","first stage practice","space","0","null","null","ArrowUp","false","","","","","",""
"html-keyboard-response","13","106482","0.0-3.0-2.0-1.0","spark_pilot_norest","10510","3","8","Male","","","","","","","null","<div style=""font-size:60px;"">+</div>","null","fixation","","","","","","","","","","","",""
"revaluation","14","110488","0.0-3.0-2.0-0.1","spark_pilot_norest","10510","3","8","Male","","false","","","","","[1528.2000000029802]","./assets/img/space/1.jpg","[""ArrowUp""]","first stage practice","space","0","null","null","ArrowUp","false","","","","","",""
"html-keyboard-response","15","110999","0.0-3.0-2.0-1.1","spark_pilot_norest","10510","3","8","Male","","","","","","","null","<div style=""font-size:60px;"">+</div>","null","fixation","","","","","","","","","","","",""
"revaluation","16","115022","0.0-3.0-2.0-0.2","spark_pilot_norest","10510","3","8","Male","","false","","","","","[1743.0999999940395]","./assets/img/space/2.jpg","[""ArrowUp""]","first stage practice","space","0","null","null","ArrowUp","false","","","","","",""
"html-keyboard-response","17","115527","0.0-3.0-2.0-1.2","spark_pilot_norest","10510","3","8","Male","","","","","","","null","<div style=""font-size:60px;"">+</div>","null","fixation","","","","","","","","","","","",""
"learning-instructions","18","121214","0.0-3.0-3.0-0.0","spark_pilot_norest","10510","3","8","Male","","","","","","","977.9000000059605","<p> Great job! Now try pressing the <b>down</b> key to travel down. </p>
            <img src='./assets/img/instructions/pressDown.jpg' class='instructions-image'>","","instructions","","","","","","","","","","","",""
"revaluation","19","125225","0.0-3.0-4.0-0.0","spark_pilot_norest","10510","3","8","Male","","false","","","","","[1334.5]","./assets/img/space/3.jpg","[""ArrowDown""]","first stage practice","space","0","null","null","ArrowDown","false","","","","","",""
"html-keyboard-response","20","125733","0.0-3.0-4.0-1.0","spark_pilot_norest","10510","3","8","Male","","","","","","","null","<div style=""font-size:60px;"">+</div>","null","fixation","","","","","","","","","","","",""
"revaluation","21","129761","0.0-3.0-4.0-0.1","spark_pilot_norest","10510","3","8","Male","","false","","","","","[1095.5]","./assets/img/space/4.jpg","[""ArrowDown""]","first stage practice","space","0","null","null","ArrowDown","false","","","","","",""
"html-keyboard-response","22","130270","0.0-3.0-4.0-1.1","spark_pilot_norest","10510","3","8","Male","","","","","","","null","<div style=""font-size:60px;"">+</div>","null","fixation","","","","","","","","","","","",""
"revaluation","23","134282","0.0-3.0-4.0-0.2","spark_pilot_norest","10510","3","8","Male","","true","","","","","[]","./assets/img/space/5.jpg","[]","first stage practice","space","-5","null","null","","false","","","","","",""
"html-keyboard-response","24","134788","0.0-3.0-4.0-1.2","spark_pilot_norest","10510","3","8","Male","","","","","","","null","<div style=""font-size:60px;"">+</div>","null","fixation","","","","","","","","","","","",""
"learning-instructions","25","146156","0.0-3.0-5.0-0.0","spark_pilot_norest","10510","3","8","Male","","","","","","","1490.0999999940395","<p> The animals don’t move, so the animal in the upper part of a place will stay in the upper part of a place, and the animal in the lower part of a place will stay in the lower part of a place. </p>","","instructions","","","","","","","","","","","",""
"learning-instructions","26","156059","0.0-3.0-5.0-0.1","spark_pilot_norest","10510","3","8","Male","","","","","","","773.2999999970198","<p> Each animal has two treasure chests for you to choose from. </p>
            <p> The amount of treasure in each chest can range from <b> 0 to 40 pieces.</b></p>","","instructions","","","","","","","","","","","",""
"learning-instructions","27","169356","0.0-3.0-5.0-0.2","spark_pilot_norest","10510","3","8","Male","","","","","","","2110.2999999970198","<p> You should decide which chest to search for treasure by using the <b>left</b> and <b>right</b> arrow keys. </p>
            <p><b> Pay attention to which animal is on the screen, as the animals have different treasure chests. </b></p>
            <img src='./assets/img/instructions/leftright.jpg' class='instructions-image'>","","instructions","","","","","","","","","","","",""
"learning-instructions","28","176618","0.0-3.0-5.0-0.3","spark_pilot_norest","10510","3","8","Male","","","","","","","902.2999999970198","<p> Let’s try practicing that now. </p>
            <p> When you see an animal, choose which chest to search for treasure. </p>
            <img src='./assets/img/instructions/chooseChest.jpg' class='instructions-image'>","","instructions","","","","","","","","","","","",""
"revaluation","29","180642","0.0-3.0-6.0-0.0","spark_pilot_norest","10510","3","8","Male","","false","","","","","[1086.2999999970198]","./assets/img/space/animals/rabbit.jpg","[""ArrowLeft""]","second stage practice","space","15","{""ArrowUp,ArrowLeft"":3,""ArrowUp,ArrowRight"":36,""ArrowDown,ArrowLeft"":15,""ArrowDown,ArrowRight"":23}","false","ArrowDown,ArrowLeft","","","","","","",""
"html-keyboard-response","30","181143","0.0-3.0-6.0-1.0","spark_pilot_norest","10510","3","8","Male","","","","","","","null","<div style=""font-size:60px;"">+</div>","null","fixation","","","","","","","","","","","",""
"revaluation","31","185164","0.0-3.0-6.0-0.1","spark_pilot_norest","10510","3","8","Male","","false","","","","","[1246.5]","./assets/img/space/animals/cat.jpg","[""ArrowLeft""]","second stage practice","space","3","{""ArrowUp,ArrowLeft"":3,""ArrowUp,ArrowRight"":36,""ArrowDown,ArrowLeft"":15,""ArrowDown,ArrowRight"":23}","false","ArrowUp,ArrowLeft","","","","","","",""
"html-keyboard-response","32","185670","0.0-3.0-6.0-1.1","spark_pilot_norest","10510","3","8","Male","","","","","","","null","<div style=""font-size:60px;"">+</div>","null","fixation","","","","","","","","","","","",""
"revaluation","33","189687","0.0-3.0-6.0-0.2","spark_pilot_norest","10510","3","8","Male","","false","","","","","[707.5]","./assets/img/space/animals/rabbit.jpg","[""ArrowRight""]","second stage practice","space","23","{""ArrowUp,ArrowLeft"":3,""ArrowUp,ArrowRight"":36,""ArrowDown,ArrowLeft"":15,""ArrowDown,ArrowRight"":23}","true","ArrowDown,ArrowRight","","","","","","",""
"html-keyboard-response","34","190195","0.0-3.0-6.0-1.2","spark_pilot_norest","10510","3","8","Male","","","","","","","null","<div style=""font-size:60px;"">+</div>","null","fixation","","","","","","","","","","","",""
"revaluation","35","194221","0.0-3.0-6.0-0.3","spark_pilot_norest","10510","3","8","Male","","false","","","","","[1649.5]","./assets/img/space/animals/cat.jpg","[""ArrowLeft""]","second stage practice","space","3","{""ArrowUp,ArrowLeft"":3,""ArrowUp,ArrowRight"":36,""ArrowDown,ArrowLeft"":15,""ArrowDown,ArrowRight"":23}","false","ArrowUp,ArrowLeft","","","","","","",""
"html-keyboard-response","36","194731","0.0-3.0-6.0-1.3","spark_pilot_norest","10510","3","8","Male","","","","","","","null","<div style=""font-size:60px;"">+</div>","null","fixation","","","","","","","","","","","",""
"learning-instructions","37","212706","0.0-3.0-7.0-0.0","spark_pilot_norest","10510","3","8","Male","","","","","","","1151.2000000029802","<p> Great job. Now let’s try putting it together. </p>
            <p> On each turn, you will first see a picture to remind you of the place you are in, and you need to choose whether to go up or down. </p>
            <p> Then you will see an animal and choose which of its chests to search for treasure. </p>","","instructions","","","","","","","","","","","",""
"learning-instructions","38","222514","0.0-3.0-7.0-0.1","spark_pilot_norest","10510","3","8","Male","","","","","","","1550.6000000089407","<p> When you choose whether to go up or down, try to go to the animal with the chest with the most treasure. </p>
            <p> Try practicing that now! </p>","","instructions","","","","","","","","","","","",""
"revaluation","39","228539","0.0-3.0-8.0-0.0","spark_pilot_norest","10510","3","8","Male","","false","","","","","[1338.0999999940395,1509.5999999940395]","./assets/img/space/6.jpg","[""ArrowDown"",""ArrowLeft""]","full practice","space","15","{""ArrowUp,ArrowLeft"":3,""ArrowUp,ArrowRight"":36,""ArrowDown,ArrowLeft"":15,""ArrowDown,ArrowRight"":23}","false","ArrowDown,ArrowLeft","false","","","","","",""
"html-keyboard-response","40","229046","0.0-3.0-8.0-1.0","spark_pilot_norest","10510","3","8","Male","","","","","","","null","<div style=""font-size:60px;"">+</div>","null","fixation","","","","","","","","","","","",""
"revaluation","41","235069","0.0-3.0-8.0-0.1","spark_pilot_norest","10510","3","8","Male","","false","","","","","[791.7999999970198,627.3999999910593]","./assets/img/space/7.jpg","[""ArrowUp"",""ArrowRight""]","full practice","space","36","{""ArrowUp,ArrowLeft"":3,""ArrowUp,ArrowRight"":36,""ArrowDown,ArrowLeft"":15,""ArrowDown,ArrowRight"":23}","true","ArrowUp,ArrowRight","false","","","","","",""
"html-keyboard-response","42","235571","0.0-3.0-8.0-1.1","spark_pilot_norest","10510","3","8","Male","","","","","","","null","<div style=""font-size:60px;"">+</div>","null","fixation","","","","","","","","","","","",""
"revaluation","43","241583","0.0-3.0-8.0-0.2","spark_pilot_norest","10510","3","8","Male","","false","","","","","[597,1087.4000000059605]","./assets/img/space/8.jpg","[""ArrowDown"",""ArrowRight""]","full practice","space","23","{""ArrowUp,ArrowLeft"":3,""ArrowUp,ArrowRight"":36,""ArrowDown,ArrowLeft"":15,""ArrowDown,ArrowRight"":23}","false","ArrowDown,ArrowRight","false","","","","","",""
"html-keyboard-response","44","242085","0.0-3.0-8.0-1.2","spark_pilot_norest","10510","3","8","Male","","","","","","","null","<div style=""font-size:60px;"">+</div>","null","fixation","","","","","","","","","","","",""
"revaluation","45","248119","0.0-3.0-8.0-0.3","spark_pilot_norest","10510","3","8","Male","","false","","","","","[1022.9000000059605,1255.7999999970198]","./assets/img/space/9.jpg","[""ArrowUp"",""ArrowRight""]","full practice","space","36","{""ArrowUp,ArrowLeft"":3,""ArrowUp,ArrowRight"":36,""ArrowDown,ArrowLeft"":15,""ArrowDown,ArrowRight"":23}","true","ArrowUp,ArrowRight","false","","","","","",""
"html-keyboard-response","46","248621","0.0-3.0-8.0-1.3","spark_pilot_norest","10510","3","8","Male","","","","","","","null","<div style=""font-size:60px;"">+</div>","null","fixation","","","","","","","","","","","",""
"revaluation","47","254636","0.0-3.0-8.0-0.4","spark_pilot_norest","10510","3","8","Male","","false","","","","","[1095.7999999970198,457.90000000596046]","./assets/img/space/10.jpg","[""ArrowDown"",""ArrowRight""]","full practice","space","23","{""ArrowUp,ArrowLeft"":3,""ArrowUp,ArrowRight"":36,""ArrowDown,ArrowLeft"":15,""ArrowDown,ArrowRight"":23}","false","ArrowDown,ArrowRight","false","","","","","",""
"html-keyboard-response","48","255137","0.0-3.0-8.0-1.4","spark_pilot_norest","10510","3","8","Male","","","","","","","null","<div style=""font-size:60px;"">+</div>","null","fixation","","","","","","","","","","","",""
"learning-instructions","49","266570","0.0-3.0-9.0-0.0","spark_pilot_norest","10510","3","8","Male","","","","","","","1101.2000000029802","<p> One last thing: sometimes, you will see a robber. The robber can be anywhere in the picture. </p>
            <p> If you do not stop them, you will lose treasure. </p>
            <img src='./assets/img/instructions/robber.jpg' class='instructions-image'>","","instructions","","","","","","","","","","","",""
"learning-instructions","50","274778","0.0-3.0-9.0-0.1","spark_pilot_norest","10510","3","8","Male","","","","","","","1030.8999999910593","<p> If you see the robber, you should <b>press the space bar</b> rather than using the arrow keys. </p>
            <p> Try practicing that now! </p>","","instructions","","","","","","","","","","","",""
"revaluation","51","278788","0.0-3.0-10.0-0.0","spark_pilot_norest","10510","3","8","Male","","false","","","","","[1592.2999999970198]","./assets/img/space/catch/0.jpg","[""spaceBar""]","catch practice","space","0","{""ArrowUp,ArrowLeft"":3,""ArrowUp,ArrowRight"":36,""ArrowDown,ArrowLeft"":15,""ArrowDown,ArrowRight"":23}","true","spaceBar","true","","","","","",""
"html-keyboard-response","52","279290","0.0-3.0-10.0-1.0","spark_pilot_norest","10510","3","8","Male","","","","","","","null","<div style=""font-size:60px;"">+</div>","null","fixation","","","","","","","","","","","",""
"revaluation","53","283296","0.0-3.0-10.0-0.1","spark_pilot_norest","10510","3","8","Male","","false","","","","","[1087.7999999970198]","./assets/img/space/catch/1.jpg","[""spaceBar""]","catch practice","space","0","{""ArrowUp,ArrowLeft"":3,""ArrowUp,ArrowRight"":36,""ArrowDown,ArrowLeft"":15,""ArrowDown,ArrowRight"":23}","true","spaceBar","true","","","","","",""
"html-keyboard-response","54","283797","0.0-3.0-10.0-1.1","spark_pilot_norest","10510","3","8","Male","","","","","","","null","<div style=""font-size:60px;"">+</div>","null","fixation","","","","","","","","","","","",""
"revaluation","55","287816","0.0-3.0-10.0-0.2","spark_pilot_norest","10510","3","8","Male","","false","","","","","[525.7000000029802]","./assets/img/space/catch/2.jpg","[""spaceBar""]","catch practice","space","0","{""ArrowUp,ArrowLeft"":3,""ArrowUp,ArrowRight"":36,""ArrowDown,ArrowLeft"":15,""ArrowDown,ArrowRight"":23}","true","spaceBar","true","","","","","",""
"html-keyboard-response","56","288324","0.0-3.0-10.0-1.2","spark_pilot_norest","10510","3","8","Male","","","","","","","null","<div style=""font-size:60px;"">+</div>","null","fixation","","","","","","","","","","","",""
"learning-instructions","57","295065","0.0-3.0-11.0-0.0-0.0","spark_pilot_norest","10510","3","8","Male","","","","","","","1468.800000011921","<p> Now, you will practice a shortened version of the game to get a sense of how it all fits together. </p>","","instructions","","","","","","","","","","","",""
"learning-instructions","58","299857","0.0-3.0-11.0-0.0-0.1","spark_pilot_norest","10510","3","8","Male","","","","","","","1600","<p>This time you are searching for treasure in outer space.</p>","","instructions","","","","","","","","","","","",""
"learning-instructions","59","317026","0.0-3.0-11.0-1.0-0.0","spark_pilot_norest","10510","3","8","Male","","","","","","","2397.6000000089407","<p> Remember, when you see a picture of the place, use the up and down keys to <b>find an animal</b>.</p>
            <p> When you encounter an animal, you should use the left and right keys to <b>select a treasure chest</b>.</p>
            <p> Don't forget to look out for the robber! </p>","","instructions","","","","","","","","","","","",""
"revaluation","60","323068","0.0-3.0-11.0-2.0-0.0","spark_pilot_norest","10510","3","8","Male","","false","","","","","[1869,932.1000000089407]","./assets/img/space/11.jpg","[""ArrowDown"",""ArrowRight""]","practice block","space","23","{""ArrowUp,ArrowLeft"":3,""ArrowUp,ArrowRight"":36,""ArrowDown,ArrowLeft"":15,""ArrowDown,ArrowRight"":23}","false","ArrowDown,ArrowRight","false","","","","","",""
"html-keyboard-response","61","323571","0.0-3.0-11.0-2.0-1.0","spark_pilot_norest","10510","3","8","Male","","","","","","","null","<div style=""font-size:60px;"">+</div>","null","fixation","","","","","","","","","","","",""
"revaluation","62","329602","0.0-3.0-11.0-2.0-0.1","spark_pilot_norest","10510","3","8","Male","","false","","","","","[1665.2000000029802,702.2000000029802]","./assets/img/space/12.jpg","[""ArrowDown"",""ArrowLeft""]","practice block","space","15","{""ArrowUp,ArrowLeft"":3,""ArrowUp,ArrowRight"":36,""ArrowDown,ArrowLeft"":15,""ArrowDown,ArrowRight"":23}","false","ArrowDown,ArrowLeft","false","","","","","",""
"html-keyboard-response","63","330105","0.0-3.0-11.0-2.0-1.1","spark_pilot_norest","10510","3","8","Male","","","","","","","null","<div style=""font-size:60px;"">+</div>","null","fixation","","","","","","","","","","","",""
"revaluation","64","336137","0.0-3.0-11.0-2.0-0.2","spark_pilot_norest","10510","3","8","Male","","true","","","","","[1113.2999999970198]","./assets/img/space/13.jpg","[""ArrowDown""]","practice block","space","-5","{""ArrowUp,ArrowLeft"":3,""ArrowUp,ArrowRight"":36,""ArrowDown,ArrowLeft"":15,""ArrowDown,ArrowRight"":23}","false","ArrowDown","false","","","","","",""
"html-keyboard-response","65","336653","0.0-3.0-11.0-2.0-1.2","spark_pilot_norest","10510","3","8","Male","","","","","","","null","<div style=""font-size:60px;"">+</div>","null","fixation","","","","","","","","","","","",""
"revaluation","66","342682","0.0-3.0-11.0-2.0-0.3","spark_pilot_norest","10510","3","8","Male","","false","","","","","[1156.5,425.30000001192093]","./assets/img/space/14.jpg","[""ArrowDown"",""ArrowRight""]","practice block","space","23","{""ArrowUp,ArrowLeft"":3,""ArrowUp,ArrowRight"":36,""ArrowDown,ArrowLeft"":15,""ArrowDown,ArrowRight"":23}","false","ArrowDown,ArrowRight","false","","","","","",""
"html-keyboard-response","67","343189","0.0-3.0-11.0-2.0-1.3","spark_pilot_norest","10510","3","8","Male","","","","","","","null","<div style=""font-size:60px;"">+</div>","null","fixation","","","","","","","","","","","",""
"revaluation","68","349197","0.0-3.0-11.0-2.0-0.4","spark_pilot_norest","10510","3","8","Male","","false","","","","","[808.7000000029802,416.29999999701977]","./assets/img/space/11.jpg","[""ArrowUp"",""ArrowRight""]","practice block","space","36","{""ArrowUp,ArrowLeft"":3,""ArrowUp,ArrowRight"":36,""ArrowDown,ArrowLeft"":15,""ArrowDown,ArrowRight"":23}","true","ArrowUp,ArrowRight","false","","","","","",""
"html-keyboard-response","69","349699","0.0-3.0-11.0-2.0-1.4","spark_pilot_norest","10510","3","8","Male","","","","","","","null","<div style=""font-size:60px;"">+</div>","null","fixation","","","","","","","","","","","",""
"revaluation","70","355703","0.0-3.0-11.0-2.0-0.5","spark_pilot_norest","10510","3","8","Male","","false","","","","","[942.2999999970198,465.70000000298023]","./assets/img/space/12.jpg","[""ArrowDown"",""ArrowLeft""]","practice block","space","15","{""ArrowUp,ArrowLeft"":3,""ArrowUp,ArrowRight"":36,""ArrowDown,ArrowLeft"":15,""ArrowDown,ArrowRight"":23}","false","ArrowDown,ArrowLeft","false","","","","","",""
"html-keyboard-response","71","356205","0.0-3.0-11.0-2.0-1.5","spark_pilot_norest","10510","3","8","Male","","","","","","","null","<div style=""font-size:60px;"">+</div>","null","fixation","","","","","","","","","","","",""
"revaluation","72","362228","0.0-3.0-11.0-2.0-0.6","spark_pilot_norest","10510","3","8","Male","","false","","","","","[774.8000000119209,706.9000000059605]","./assets/img/space/13.jpg","[""ArrowUp"",""ArrowRight""]","practice block","space","36","{""ArrowUp,ArrowLeft"":3,""ArrowUp,ArrowRight"":36,""ArrowDown,ArrowLeft"":15,""ArrowDown,ArrowRight"":23}","true","ArrowUp,ArrowRight","false","","","","","",""
"html-keyboard-response","73","362730","0.0-3.0-11.0-2.0-1.6","spark_pilot_norest","10510","3","8","Male","","","","","","","null","<div style=""font-size:60px;"">+</div>","null","fixation","","","","","","","","","","","",""
"revaluation","74","368736","0.0-3.0-11.0-2.0-0.7","spark_pilot_norest","10510","3","8","Male","","false","","","","","[675.2000000029802,354.30000001192093]","./assets/img/space/14.jpg","[""ArrowDown"",""ArrowLeft""]","practice block","space","15","{""ArrowUp,ArrowLeft"":3,""ArrowUp,ArrowRight"":36,""ArrowDown,ArrowLeft"":15,""ArrowDown,ArrowRight"":23}","false","ArrowDown,ArrowLeft","false","","","","","",""
"html-keyboard-response","75","369245","0.0-3.0-11.0-2.0-1.7","spark_pilot_norest","10510","3","8","Male","","","","","","","null","<div style=""font-size:60px;"">+</div>","null","fixation","","","","","","","","","","","",""
"revaluation","76","373252","0.0-3.0-11.0-2.0-0.8","spark_pilot_norest","10510","3","8","Male","","false","","","","","[452.90000000596046]","./assets/img/space/catch/3.jpg","[""ArrowUp""]","practice block","space","-10","{""ArrowUp,ArrowLeft"":3,""ArrowUp,ArrowRight"":36,""ArrowDown,ArrowLeft"":15,""ArrowDown,ArrowRight"":23}","false","ArrowUp","true","","","","","",""
"html-keyboard-response","77","373753","0.0-3.0-11.0-2.0-1.8","spark_pilot_norest","10510","3","8","Male","","","","","","","null","<div style=""font-size:60px;"">+</div>","null","fixation","","","","","","","","","","","",""
"learning-instructions","78","388986","0.0-3.0-11.0-3.0-0.0","spark_pilot_norest","10510","3","8","Male","","","","","","","1867.2000000029802","<p> Now, you will travel with a friend who will choose whether you go up or down first. </p>
            <p> On these turns, you will just see the animal that they found. You will still get to choose which chest to search for treasure.</p>","","instructions","","","","","","","","","","","",""
"revaluation","79","393004","0.0-3.0-11.0-4.0-0.0","spark_pilot_norest","10510","3","8","Male","","false","","","","","[1269.800000011921]","./assets/img/space/animals/cat.jpg","[""ArrowLeft""]","practice block","space","3","{""ArrowUp,ArrowLeft"":3,""ArrowUp,ArrowRight"":36,""ArrowDown,ArrowLeft"":15,""ArrowDown,ArrowRight"":23}","false","ArrowUp,ArrowLeft","","","","","","",""
"html-keyboard-response","80","393519","0.0-3.0-11.0-4.0-1.0","spark_pilot_norest","10510","3","8","Male","","","","","","","null","<div style=""font-size:60px;"">+</div>","null","fixation","","","","","","","","","","","",""
"revaluation","81","397551","0.0-3.0-11.0-4.0-0.1","spark_pilot_norest","10510","3","8","Male","","false","","","","","[734.1999999880791]","./assets/img/space/animals/rabbit.jpg","[""ArrowLeft""]","practice block","space","15","{""ArrowUp,ArrowLeft"":3,""ArrowUp,ArrowRight"":36,""ArrowDown,ArrowLeft"":15,""ArrowDown,ArrowRight"":23}","false","ArrowDown,ArrowLeft","","","","","","",""
"html-keyboard-response","82","398055","0.0-3.0-11.0-4.0-1.1","spark_pilot_norest","10510","3","8","Male","","","","","","","null","<div style=""font-size:60px;"">+</div>","null","fixation","","","","","","","","","","","",""
"revaluation","83","402071","0.0-3.0-11.0-4.0-0.2","spark_pilot_norest","10510","3","8","Male","","false","","","","","[1149.1000000089407]","./assets/img/space/animals/cat.jpg","[""ArrowLeft""]","practice block","space","3","{""ArrowUp,ArrowLeft"":3,""ArrowUp,ArrowRight"":36,""ArrowDown,ArrowLeft"":15,""ArrowDown,ArrowRight"":23}","false","ArrowUp,ArrowLeft","","","","","","",""
"html-keyboard-response","84","402587","0.0-3.0-11.0-4.0-1.2","spark_pilot_norest","10510","3","8","Male","","","","","","","null","<div style=""font-size:60px;"">+</div>","null","fixation","","","","","","","","","","","",""
"revaluation","85","406619","0.0-3.0-11.0-4.0-0.3","spark_pilot_norest","10510","3","8","Male","","false","","","","","[694.7000000029802]","./assets/img/space/animals/rabbit.jpg","[""ArrowLeft""]","practice block","space","15","{""ArrowUp,ArrowLeft"":3,""ArrowUp,ArrowRight"":36,""ArrowDown,ArrowLeft"":15,""ArrowDown,ArrowRight"":23}","false","ArrowDown,ArrowLeft","","","","","","",""
"html-keyboard-response","86","407123","0.0-3.0-11.0-4.0-1.3","spark_pilot_norest","10510","3","8","Male","","","","","","","null","<div style=""font-size:60px;"">+</div>","null","fixation","","","","","","","","","","","",""
"learning-instructions","87","415274","0.0-3.0-11.0-5.0-0.0","spark_pilot_norest","10510","3","8","Male","","","","","","","null","<p> You have almost finished this part of the game! </p>
            <p> We are going to ask you to make a few more choices. </p>","","instructions","","","","","","","","","","","",""
"learning-instructions","88","431311","0.0-3.0-11.0-5.0-0.1","spark_pilot_norest","10510","3","8","Male","","","","","","","null","<p> First, you need to decide whether to go up or down. When you see each picture, use the arrow keys to make your choice. </p>
            <p><b>You will not see which animal you found, but try to get to the one that will give you the most treasure.</b></p>","","instructions","","","","","","","","","","","",""
"html-keyboard-response","89","432317","0.0-3.0-11.0-6.0-0.0","spark_pilot_norest","10510","3","8","Male","","","","","","","null","<div style=""font-size:100px;color:red;"">Starting in...</div>","null","","","","","","","","","","","","",""
"html-keyboard-response","90","433319","0.0-3.0-11.0-6.0-1.0","spark_pilot_norest","10510","3","8","Male","","","","","","","null","<div style=""font-size:200px;color:red;"">3</div>","null","","","","","","","","","","","","",""
"html-keyboard-response","91","434331","0.0-3.0-11.0-6.0-2.0","spark_pilot_norest","10510","3","8","Male","","","","","","","null","<div style=""font-size:200px;color:red;"">2</div>","null","","","","","","","","","","","","",""
"html-keyboard-response","92","435333","0.0-3.0-11.0-6.0-3.0","spark_pilot_norest","10510","3","8","Male","","","","","","","null","<div style=""font-size:200px;color:red;"">1</div>","null","","","","","","","","","","","","",""
"revaluation","93","435815","0.0-3.0-11.0-7.0","spark_pilot_norest","10510","3","8","Male","","false","","","","","[477.90000000596046]","./assets/img/space/15.jpg","[""ArrowDown""]","practice block","space","0","{""ArrowUp,ArrowLeft"":3,""ArrowUp,ArrowRight"":36,""ArrowDown,ArrowLeft"":15,""ArrowDown,ArrowRight"":23}","false","ArrowDown","false","","","","","",""
"html-keyboard-response","94","436323","0.0-3.0-11.0-8.0","spark_pilot_norest","10510","3","8","Male","","","","","","","null","<div style=""font-size:60px;"">+</div>","null","fixation","","","","","","","","","","","",""
"learning-instructions","95","449738","0.0-3.0-11.0-9.0-0.0","spark_pilot_norest","10510","3","8","Male","","","","","","","null","<p> Now you will see the animals again and can search their chests for treasure. </p>
            <p> This time, you will not see how much treasure you earned, but you will earn more bonus money for making better choices. </p>","","instructions","","","","","","","","","","","",""
"html-keyboard-response","96","450747","0.0-3.0-11.0-10.0-0.0","spark_pilot_norest","10510","3","8","Male","","","","","","","null","<div style=""font-size:100px;color:red;"">Starting in...</div>","null","","","","","","","","","","","","",""
"html-keyboard-response","97","451751","0.0-3.0-11.0-10.0-1.0","spark_pilot_norest","10510","3","8","Male","","","","","","","null","<div style=""font-size:200px;color:red;"">3</div>","null","","","","","","","","","","","","",""
"html-keyboard-response","98","452767","0.0-3.0-11.0-10.0-2.0","spark_pilot_norest","10510","3","8","Male","","","","","","","null","<div style=""font-size:200px;color:red;"">2</div>","null","","","","","","","","","","","","",""
"html-keyboard-response","99","453780","0.0-3.0-11.0-10.0-3.0","spark_pilot_norest","10510","3","8","Male","","","","","","","null","<div style=""font-size:200px;color:red;"">1</div>","null","","","","","","","","","","","","",""
"revaluation","100","454700","0.0-3.0-11.0-11.0-0.0","spark_pilot_norest","10510","3","8","Male","","false","","","","","[916.3000000119209]","./assets/img/space/animals/cat.jpg","[""ArrowLeft""]","practice block","space","0","{""ArrowUp,ArrowLeft"":3,""ArrowUp,ArrowRight"":36,""ArrowDown,ArrowLeft"":15,""ArrowDown,ArrowRight"":23}","false","ArrowUp,ArrowLeft","","","","","","",""
"html-keyboard-response","101","455207","0.0-3.0-11.0-11.0-1.0","spark_pilot_norest","10510","3","8","Male","","","","","","","null","<div style=""font-size:60px;"">+</div>","null","fixation","","","","","","","","","","","",""
"revaluation","102","456174","0.0-3.0-11.0-11.0-0.1","spark_pilot_norest","10510","3","8","Male","","false","","","","","[962.1999999880791]","./assets/img/space/animals/rabbit.jpg","[""ArrowLeft""]","practice block","space","0","{""ArrowUp,ArrowLeft"":3,""ArrowUp,ArrowRight"":36,""ArrowDown,ArrowLeft"":15,""ArrowDown,ArrowRight"":23}","false","ArrowDown,ArrowLeft","","","","","","",""
"html-keyboard-response","103","456688","0.0-3.0-11.0-11.0-1.1","spark_pilot_norest","10510","3","8","Male","","","","","","","null","<div style=""font-size:60px;"">+</div>","null","fixation","","","","","","","","","","","",""
"learning-instructions","104","461986","0.0-3.0-12.0-0.0","spark_pilot_norest","10510","3","8","Male","","","","","","","708","<p> Before you start, we're going to ask you a few questions about how the game works. </p>","","instructions","","","","","","","","","","","",""
"comp-q","105","473893","0.0-3.0-13.0-0.0-0.0","spark_pilot_norest","10510","3","8","Male","","","","","","","6323.399999991059","<p> <b> True or False? </b> </p>
            <p> There can be 50 pieces of treasure in a given animal's chest. </p>","1","comp_question","","","","true","","","","","","","",""
"comp-q","106","482617","0.0-3.0-13.0-0.0-1.0","spark_pilot_norest","10510","3","8","Male","","","","","","","2059.2999999970198","<p> <b> That's right! </b> The amount of treasure in each chest can range from 0 to 40 pieces. </p>","0","comp_answer","","","","","","","","","","","",""
"comp-q","107","490817","0.0-3.0-13.0-0.1-0.1","spark_pilot_norest","10510","3","8","Male","","","","","","","1080","<p> <b> True or False? </b> </p><p> In this game, all animals have the same amount of treasure in their left and right chests. </p>","1","comp_question","","","","true","","","","","","","",""
"comp-q","108","497705","0.0-3.0-13.0-0.1-1.1","spark_pilot_norest","10510","3","8","Male","","","","","","","1648.4000000059605","<p> <b> That's right! </b> Animals have different amounts of treasure in their treasure chests. </p>","0","comp_answer","","","","","","","","","","","",""
"comp-q","109","504241","0.0-3.0-13.0-0.2-0.2","spark_pilot_norest","10510","3","8","Male","","","","","","","693.0999999940395","<p> <b> True or False? </b> </p><p> The same animal will always be there if you go up in the same place. </p>","0","comp_question","","","","true","","","","","","","",""
"comp-q","110","512185","0.0-3.0-13.0-0.2-1.2","spark_pilot_norest","10510","3","8","Male","","","","","","","1488.5999999940395","<p> <b> That's right! </b> One animal lives in the upper part and one lives in the lower part of every place. </p>","0","comp_answer","","","","","","","","","","","",""
"comp-q","111","521601","0.0-3.0-13.0-0.3-0.3","spark_pilot_norest","10510","3","8","Male","","","","","","","3894.2999999970198","<p> <b> True or False? </b> </p><p> If you see a different picture, it means you are in a new place. </p>","1","comp_question","","","","true","","","","","","","",""
"comp-q","112","535633","0.0-3.0-13.0-0.3-1.3","spark_pilot_norest","10510","3","8","Male","","","","","","","2806","<p> <b> That's right! </b> Lots of different images may show the same place. For example,  you may see three different images that all remind you that you are in outer space. </p>","0","comp_answer","","","","","","","","","","","",""
"learning-instructions","113","546369","0.0-3.0-14.0-0.0","spark_pilot_norest","10510","3","8","Male","","","","","","","891.2000000029802","<p> Good job. Remember to do your best because the amount of treasure you earn will be converted into bonus money. </p>
            <p> It’s time to start the real game! </p>","","instructions","","","","","","","","","","","",""
"learning-instructions","114","550681","0.0-4.0-0.0-0.0","spark_pilot_norest","10510","3","8","Male","","","","","","","1604.7999999970198","<p> This time you are searching for treasure in the <b>ocean</b>.</p>","","instructions","","","","","","","","","","","",""
"learning-instructions","115","569434","0.0-4.0-0.0-0.1","spark_pilot_norest","10510","3","8","Male","","","","","","","1456.2999999970198","<p><b>New</b> animals with <b>new</b> treasure chests live here. You need to explore to discover where the animal with the best treasure chest is.</p>
                    <p> Like before, once you figure out which animal has the chest with the most treasure, you should try to get to that animal and select that chest! </p>","","instructions","","","","","","","","","","","",""
"learning-instructions","116","584889","0.0-4.0-1.0-0.0","spark_pilot_norest","10510","3","8","Male","","","","","","","731.7999999970198","<p> Remember, when you see a picture of the place, use the up and down keys to <b>find an animal</b>.</p>
            <p> When you encounter an animal, you should use the left and right keys to <b>select a treasure chest</b>.</p>
            <p> Don't forget to look out for the robber! </p>","","instructions","","","","","","","","","","","",""
"revaluation","117","590932","0.0-4.0-2.0-0.0","spark_pilot_norest","10510","3","8","Male","","false","","","","","[1361.9000000059605,803.8000000119209]","./assets/img/ocean/memory/35.jpg","[""ArrowDown"",""ArrowLeft""]","value training","ocean","8","{""ArrowUp,ArrowLeft"":23,""ArrowUp,ArrowRight"":10,""ArrowDown,ArrowLeft"":8,""ArrowDown,ArrowRight"":30}","false","ArrowDown,ArrowLeft","false","original","1","0","","",""
"html-keyboard-response","118","591441","0.0-4.0-2.0-1.0","spark_pilot_norest","10510","3","8","Male","","","","","","","null","<div style=""font-size:60px;"">+</div>","null","fixation","","","","","","","","","1","","",""
"revaluation","119","597470","0.0-4.0-2.0-0.1","spark_pilot_norest","10510","3","8","Male","","false","","","","","[1029.2999999970198,608.9000000059605]","./assets/img/ocean/memory/41.jpg","[""ArrowDown"",""ArrowLeft""]","value training","ocean","8","{""ArrowUp,ArrowLeft"":23,""ArrowUp,ArrowRight"":10,""ArrowDown,ArrowLeft"":8,""ArrowDown,ArrowRight"":30}","false","ArrowDown,ArrowLeft","false","original","1","2","","",""
"html-keyboard-response","120","597975","0.0-4.0-2.0-1.1","spark_pilot_norest","10510","3","8","Male","","","","","","","null","<div style=""font-size:60px;"">+</div>","null","fixation","","","","","","","","","3","","",""
"revaluation","121","604004","0.0-4.0-2.0-0.2","spark_pilot_norest","10510","3","8","Male","","false","","","","","[928.5999999940395,1212.5]","./assets/img/ocean/memory/37.jpg","[""ArrowUp"",""ArrowLeft""]","value training","ocean","23","{""ArrowUp,ArrowLeft"":23,""ArrowUp,ArrowRight"":10,""ArrowDown,ArrowLeft"":8,""ArrowDown,ArrowRight"":30}","false","ArrowUp,ArrowLeft","false","original","1","4","","",""
"html-keyboard-response","122","604506","0.0-4.0-2.0-1.2","spark_pilot_norest","10510","3","8","Male","","","","","","","null","<div style=""font-size:60px;"">+</div>","null","fixation","","","","","","","","","5","","",""
"revaluation","123","610531","0.0-4.0-2.0-0.3","spark_pilot_norest","10510","3","8","Male","","false","","","","","[1252.9000000059605,655.0999999940395]","./assets/img/ocean/memory/33.jpg","[""ArrowDown"",""ArrowLeft""]","value training","ocean","8","{""ArrowUp,ArrowLeft"":23,""ArrowUp,ArrowRight"":10,""ArrowDown,ArrowLeft"":8,""ArrowDown,ArrowRight"":30}","false","ArrowDown,ArrowLeft","false","original","1","6","","",""
"html-keyboard-response","124","611041","0.0-4.0-2.0-1.3","spark_pilot_norest","10510","3","8","Male","","","","","","","null","<div style=""font-size:60px;"">+</div>","null","fixation","","","","","","","","","7","","",""
"revaluation","125","615053","0.0-4.0-2.0-0.4","spark_pilot_norest","10510","3","8","Male","","false","","","","","[1298.7999999970198]","./assets/img/ocean/catch/4.jpg","[""spaceBar""]","value training","ocean","0","{""ArrowUp,ArrowLeft"":23,""ArrowUp,ArrowRight"":10,""ArrowDown,ArrowLeft"":8,""ArrowDown,ArrowRight"":30}","true","spaceBar","true","original","1","8","","",""
"html-keyboard-response","126","615554","0.0-4.0-2.0-1.4","spark_pilot_norest","10510","3","8","Male","","","","","","","null","<div style=""font-size:60px;"">+</div>","null","fixation","","","","","","","","","9","","",""
"revaluation","127","621561","0.0-4.0-2.0-0.5","spark_pilot_norest","10510","3","8","Male","","false","","","","","[738.9000000059605,509.09999999403954]","./assets/img/ocean/memory/33.jpg","[""ArrowDown"",""ArrowLeft""]","value training","ocean","8","{""ArrowUp,ArrowLeft"":23,""ArrowUp,ArrowRight"":10,""ArrowDown,ArrowLeft"":8,""ArrowDown,ArrowRight"":30}","false","ArrowDown,ArrowLeft","false","original","1","10","","",""
"html-keyboard-response","128","622063","0.0-4.0-2.0-1.5","spark_pilot_norest","10510","3","8","Male","","","","","","","null","<div style=""font-size:60px;"">+</div>","null","fixation","","","","","","","","","11","","",""
"revaluation","129","628073","0.0-4.0-2.0-0.6","spark_pilot_norest","10510","3","8","Male","","false","","","","","[1185.2000000029802,585.5]","./assets/img/ocean/memory/7.jpg","[""ArrowDown"",""ArrowRight""]","value training","ocean","30","{""ArrowUp,ArrowLeft"":23,""ArrowUp,ArrowRight"":10,""ArrowDown,ArrowLeft"":8,""ArrowDown,ArrowRight"":30}","true","ArrowDown,ArrowRight","false","original","1","12","","",""
"html-keyboard-response","130","628574","0.0-4.0-2.0-1.6","spark_pilot_norest","10510","3","8","Male","","","","","","","null","<div style=""font-size:60px;"">+</div>","null","fixation","","","","","","","","","13","","",""
"revaluation","131","634585","0.0-4.0-2.0-0.7","spark_pilot_norest","10510","3","8","Male","","false","","","","","[1032.7000000029802,1044.300000011921]","./assets/img/ocean/memory/0.jpg","[""ArrowUp"",""ArrowLeft""]","value training","ocean","23","{""ArrowUp,ArrowLeft"":23,""ArrowUp,ArrowRight"":10,""ArrowDown,ArrowLeft"":8,""ArrowDown,ArrowRight"":30}","false","ArrowUp,ArrowLeft","false","original","1","14","","",""
"html-keyboard-response","132","635087","0.0-4.0-2.0-1.7","spark_pilot_norest","10510","3","8","Male","","","","","","","null","<div style=""font-size:60px;"">+</div>","null","fixation","","","","","","","","","15","","",""
"revaluation","133","641093","0.0-4.0-2.0-0.8","spark_pilot_norest","10510","3","8","Male","","false","","","","","[726.1000000089407,732.5]","./assets/img/ocean/memory/1.jpg","[""ArrowDown"",""ArrowRight""]","value training","ocean","30","{""ArrowUp,ArrowLeft"":23,""ArrowUp,ArrowRight"":10,""ArrowDown,ArrowLeft"":8,""ArrowDown,ArrowRight"":30}","true","ArrowDown,ArrowRight","false","original","1","16","","",""
"html-keyboard-response","134","641605","0.0-4.0-2.0-1.8","spark_pilot_norest","10510","3","8","Male","","","","","","","null","<div style=""font-size:60px;"">+</div>","null","fixation","","","","","","","","","17","","",""
"revaluation","135","647611","0.0-4.0-2.0-0.9","spark_pilot_norest","10510","3","8","Male","","false","","","","","[890,929.2000000029802]","./assets/img/ocean/memory/12.jpg","[""ArrowDown"",""ArrowRight""]","value training","ocean","30","{""ArrowUp,ArrowLeft"":23,""ArrowUp,ArrowRight"":10,""ArrowDown,ArrowLeft"":8,""ArrowDown,ArrowRight"":30}","true","ArrowDown,ArrowRight","false","original","1","18","","",""
"html-keyboard-response","136","648114","0.0-4.0-2.0-1.9","spark_pilot_norest","10510","3","8","Male","","","","","","","null","<div style=""font-size:60px;"">+</div>","null","fixation","","","","","","","","","19","","",""
"revaluation","137","654122","0.0-4.0-2.0-0.10","spark_pilot_norest","10510","3","8","Male","","false","","","","","[1009.1000000089407,666.7999999970198]","./assets/img/ocean/memory/27.jpg","[""ArrowDown"",""ArrowRight""]","value training","ocean","30","{""ArrowUp,ArrowLeft"":23,""ArrowUp,ArrowRight"":10,""ArrowDown,ArrowLeft"":8,""ArrowDown,ArrowRight"":30}","true","ArrowDown,ArrowRight","false","original","1","20","","",""
"html-keyboard-response","138","654624","0.0-4.0-2.0-1.10","spark_pilot_norest","10510","3","8","Male","","","","","","","null","<div style=""font-size:60px;"">+</div>","null","fixation","","","","","","","","","21","","",""
"revaluation","139","660632","0.0-4.0-2.0-0.11","spark_pilot_norest","10510","3","8","Male","","false","","","","","[655.7999999970198,943.8000000119209]","./assets/img/ocean/memory/8.jpg","[""ArrowDown"",""ArrowRight""]","value training","ocean","30","{""ArrowUp,ArrowLeft"":23,""ArrowUp,ArrowRight"":10,""ArrowDown,ArrowLeft"":8,""ArrowDown,ArrowRight"":30}","true","ArrowDown,ArrowRight","false","original","1","22","","",""
"html-keyboard-response","140","661134","0.0-4.0-2.0-1.11","spark_pilot_norest","10510","3","8","Male","","","","","","","null","<div style=""font-size:60px;"">+</div>","null","fixation","","","","","","","","","23","","",""
"revaluation","141","667152","0.0-4.0-2.0-0.12","spark_pilot_norest","10510","3","8","Male","","false","","","","","[750,404.70000000298023]","./assets/img/ocean/memory/3.jpg","[""ArrowDown"",""ArrowRight""]","value training","ocean","30","{""ArrowUp,ArrowLeft"":23,""ArrowUp,ArrowRight"":10,""ArrowDown,ArrowLeft"":8,""ArrowDown,ArrowRight"":30}","true","ArrowDown,ArrowRight","false","original","1","24","","",""
"html-keyboard-response","142","667653","0.0-4.0-2.0-1.12","spark_pilot_norest","10510","3","8","Male","","","","","","","null","<div style=""font-size:60px;"">+</div>","null","fixation","","","","","","","","","25","","",""
"revaluation","143","673661","0.0-4.0-2.0-0.13","spark_pilot_norest","10510","3","8","Male","","false","","","","","[1092,566.9000000059605]","./assets/img/ocean/memory/32.jpg","[""ArrowDown"",""ArrowLeft""]","value training","ocean","8","{""ArrowUp,ArrowLeft"":23,""ArrowUp,ArrowRight"":10,""ArrowDown,ArrowLeft"":8,""ArrowDown,ArrowRight"":30}","false","ArrowDown,ArrowLeft","false","original","1","26","","",""
"html-keyboard-response","144","674162","0.0-4.0-2.0-1.13","spark_pilot_norest","10510","3","8","Male","","","","","","","null","<div style=""font-size:60px;"">+</div>","null","fixation","","","","","","","","","27","","",""
"revaluation","145","680171","0.0-4.0-2.0-0.14","spark_pilot_norest","10510","3","8","Male","","false","","","","","[613.4000000059605,588.7999999970198]","./assets/img/ocean/memory/34.jpg","[""ArrowDown"",""ArrowRight""]","value training","ocean","30","{""ArrowUp,ArrowLeft"":23,""ArrowUp,ArrowRight"":10,""ArrowDown,ArrowLeft"":8,""ArrowDown,ArrowRight"":30}","true","ArrowDown,ArrowRight","false","original","1","28","","",""
"html-keyboard-response","146","680673","0.0-4.0-2.0-1.14","spark_pilot_norest","10510","3","8","Male","","","","","","","null","<div style=""font-size:60px;"">+</div>","null","fixation","","","","","","","","","29","","",""
"revaluation","147","686681","0.0-4.0-2.0-0.15","spark_pilot_norest","10510","3","8","Male","","false","","","","","[378.19999998807907,562.5999999940395]","./assets/img/ocean/memory/2.jpg","[""ArrowUp"",""ArrowRight""]","value training","ocean","10","{""ArrowUp,ArrowLeft"":23,""ArrowUp,ArrowRight"":10,""ArrowDown,ArrowLeft"":8,""ArrowDown,ArrowRight"":30}","false","ArrowUp,ArrowRight","false","original","1","30","","",""
"html-keyboard-response","148","687183","0.0-4.0-2.0-1.15","spark_pilot_norest","10510","3","8","Male","","","","","","","null","<div style=""font-size:60px;"">+</div>","null","fixation","","","","","","","","","31","","",""
"revaluation","149","693190","0.0-4.0-2.0-0.16","spark_pilot_norest","10510","3","8","Male","","false","","","","","[952.5999999940395,443.20000000298023]","./assets/img/ocean/memory/30.jpg","[""ArrowDown"",""ArrowRight""]","value training","ocean","30","{""ArrowUp,ArrowLeft"":23,""ArrowUp,ArrowRight"":10,""ArrowDown,ArrowLeft"":8,""ArrowDown,ArrowRight"":30}","true","ArrowDown,ArrowRight","false","original","1","32","","",""
"html-keyboard-response","150","693693","0.0-4.0-2.0-1.16","spark_pilot_norest","10510","3","8","Male","","","","","","","null","<div style=""font-size:60px;"">+</div>","null","fixation","","","","","","","","","33","","",""
"revaluation","151","699701","0.0-4.0-2.0-0.17","spark_pilot_norest","10510","3","8","Male","","false","","","","","[847.2000000029802,376.90000000596046]","./assets/img/ocean/memory/12.jpg","[""ArrowDown"",""ArrowRight""]","value training","ocean","30","{""ArrowUp,ArrowLeft"":23,""ArrowUp,ArrowRight"":10,""ArrowDown,ArrowLeft"":8,""ArrowDown,ArrowRight"":30}","true","ArrowDown,ArrowRight","false","original","1","34","","",""
"html-keyboard-response","152","700203","0.0-4.0-2.0-1.17","spark_pilot_norest","10510","3","8","Male","","","","","","","null","<div style=""font-size:60px;"">+</div>","null","fixation","","","","","","","","","35","","",""
"revaluation","153","706224","0.0-4.0-2.0-0.18","spark_pilot_norest","10510","3","8","Male","","false","","","","","[804.7999999970198,954.5999999940395]","./assets/img/ocean/memory/27.jpg","[""ArrowDown"",""ArrowRight""]","value training","ocean","30","{""ArrowUp,ArrowLeft"":23,""ArrowUp,ArrowRight"":10,""ArrowDown,ArrowLeft"":8,""ArrowDown,ArrowRight"":30}","true","ArrowDown,ArrowRight","false","original","1","36","","",""
"html-keyboard-response","154","706726","0.0-4.0-2.0-1.18","spark_pilot_norest","10510","3","8","Male","","","","","","","null","<div style=""font-size:60px;"">+</div>","null","fixation","","","","","","","","","37","","",""
"revaluation","155","712734","0.0-4.0-2.0-0.19","spark_pilot_norest","10510","3","8","Male","","false","","","","","[841.4000000059605,478.3999999910593]","./assets/img/ocean/memory/1.jpg","[""ArrowDown"",""ArrowRight""]","value training","ocean","30","{""ArrowUp,ArrowLeft"":23,""ArrowUp,ArrowRight"":10,""ArrowDown,ArrowLeft"":8,""ArrowDown,ArrowRight"":30}","true","ArrowDown,ArrowRight","false","original","1","38","","",""
"html-keyboard-response","156","713236","0.0-4.0-2.0-1.19","spark_pilot_norest","10510","3","8","Male","","","","","","","null","<div style=""font-size:60px;"">+</div>","null","fixation","","","","","","","","","39","","",""
"revaluation","157","719245","0.0-4.0-2.0-0.20","spark_pilot_norest","10510","3","8","Male","","false","","","","","[647.2999999970198,500.79999999701977]","./assets/img/ocean/memory/29.jpg","[""ArrowDown"",""ArrowRight""]","value training","ocean","30","{""ArrowUp,ArrowLeft"":23,""ArrowUp,ArrowRight"":10,""ArrowDown,ArrowLeft"":8,""ArrowDown,ArrowRight"":30}","true","ArrowDown,ArrowRight","false","original","1","40","","",""
"html-keyboard-response","158","719746","0.0-4.0-2.0-1.20","spark_pilot_norest","10510","3","8","Male","","","","","","","null","<div style=""font-size:60px;"">+</div>","null","fixation","","","","","","","","","41","","",""
"revaluation","159","725754","0.0-4.0-2.0-0.21","spark_pilot_norest","10510","3","8","Male","","false","","","","","[675.2999999970198,478]","./assets/img/ocean/memory/13.jpg","[""ArrowDown"",""ArrowRight""]","value training","ocean","30","{""ArrowUp,ArrowLeft"":23,""ArrowUp,ArrowRight"":10,""ArrowDown,ArrowLeft"":8,""ArrowDown,ArrowRight"":30}","true","ArrowDown,ArrowRight","false","original","1","42","","",""
"html-keyboard-response","160","726256","0.0-4.0-2.0-1.21","spark_pilot_norest","10510","3","8","Male","","","","","","","null","<div style=""font-size:60px;"">+</div>","null","fixation","","","","","","","","","43","","",""
"revaluation","161","732263","0.0-4.0-2.0-0.22","spark_pilot_norest","10510","3","8","Male","","false","","","","","[598.2000000029802,602]","./assets/img/ocean/memory/41.jpg","[""ArrowDown"",""ArrowRight""]","value training","ocean","30","{""ArrowUp,ArrowLeft"":23,""ArrowUp,ArrowRight"":10,""ArrowDown,ArrowLeft"":8,""ArrowDown,ArrowRight"":30}","true","ArrowDown,ArrowRight","false","original","1","44","","",""
"html-keyboard-response","162","732765","0.0-4.0-2.0-1.22","spark_pilot_norest","10510","3","8","Male","","","","","","","null","<div style=""font-size:60px;"">+</div>","null","fixation","","","","","","","","","45","","",""
"revaluation","163","736770","0.0-4.0-2.0-0.23","spark_pilot_norest","10510","3","8","Male","","false","","","","","[1187.7000000029802]","./assets/img/ocean/catch/3.jpg","[""spaceBar""]","value training","ocean","0","{""ArrowUp,ArrowLeft"":23,""ArrowUp,ArrowRight"":10,""ArrowDown,ArrowLeft"":8,""ArrowDown,ArrowRight"":30}","true","spaceBar","true","original","1","46","","",""
"html-keyboard-response","164","737277","0.0-4.0-2.0-1.23","spark_pilot_norest","10510","3","8","Male","","","","","","","null","<div style=""font-size:60px;"">+</div>","null","fixation","","","","","","","","","47","","",""
"revaluation","165","741286","0.0-4.0-2.0-0.24","spark_pilot_norest","10510","3","8","Male","","false","","","","","[861.2000000029802]","./assets/img/ocean/catch/1.jpg","[""ArrowDown""]","value training","ocean","-10","{""ArrowUp,ArrowLeft"":23,""ArrowUp,ArrowRight"":10,""ArrowDown,ArrowLeft"":8,""ArrowDown,ArrowRight"":30}","false","ArrowDown","true","original","1","48","","",""
"html-keyboard-response","166","741788","0.0-4.0-2.0-1.24","spark_pilot_norest","10510","3","8","Male","","","","","","","null","<div style=""font-size:60px;"">+</div>","null","fixation","","","","","","","","","49","","",""
"revaluation","167","747796","0.0-4.0-2.0-0.25","spark_pilot_norest","10510","3","8","Male","","false","","","","","[1134.5,744.9000000059605]","./assets/img/ocean/memory/17.jpg","[""ArrowDown"",""ArrowRight""]","value training","ocean","30","{""ArrowUp,ArrowLeft"":23,""ArrowUp,ArrowRight"":10,""ArrowDown,ArrowLeft"":8,""ArrowDown,ArrowRight"":30}","true","ArrowDown,ArrowRight","false","original","1","50","","",""
"html-keyboard-response","168","748299","0.0-4.0-2.0-1.25","spark_pilot_norest","10510","3","8","Male","","","","","","","null","<div style=""font-size:60px;"">+</div>","null","fixation","","","","","","","","","51","","",""
"revaluation","169","754307","0.0-4.0-2.0-0.26","spark_pilot_norest","10510","3","8","Male","","false","","","","","[764,720.4000000059605]","./assets/img/ocean/memory/2.jpg","[""ArrowDown"",""ArrowRight""]","value training","ocean","30","{""ArrowUp,ArrowLeft"":23,""ArrowUp,ArrowRight"":10,""ArrowDown,ArrowLeft"":8,""ArrowDown,ArrowRight"":30}","true","ArrowDown,ArrowRight","false","original","1","52","","",""
"html-keyboard-response","170","754809","0.0-4.0-2.0-1.26","spark_pilot_norest","10510","3","8","Male","","","","","","","null","<div style=""font-size:60px;"">+</div>","null","fixation","","","","","","","","","53","","",""
"revaluation","171","760816","0.0-4.0-2.0-0.27","spark_pilot_norest","10510","3","8","Male","","false","","","","","[836.9000000059605,541.4000000059605]","./assets/img/ocean/memory/32.jpg","[""ArrowDown"",""ArrowRight""]","value training","ocean","30","{""ArrowUp,ArrowLeft"":23,""ArrowUp,ArrowRight"":10,""ArrowDown,ArrowLeft"":8,""ArrowDown,ArrowRight"":30}","true","ArrowDown,ArrowRight","false","original","1","54","","",""
"html-keyboard-response","172","761319","0.0-4.0-2.0-1.27","spark_pilot_norest","10510","3","8","Male","","","","","","","null","<div style=""font-size:60px;"">+</div>","null","fixation","","","","","","","","","55","","",""
"revaluation","173","765326","0.0-4.0-2.0-0.28","spark_pilot_norest","10510","3","8","Male","","false","","","","","[1048.2999999970198]","./assets/img/ocean/catch/7.jpg","[""spaceBar""]","value training","ocean","0","{""ArrowUp,ArrowLeft"":23,""ArrowUp,ArrowRight"":10,""ArrowDown,ArrowLeft"":8,""ArrowDown,ArrowRight"":30}","true","spaceBar","true","original","1","56","","",""
"html-keyboard-response","174","765831","0.0-4.0-2.0-1.28","spark_pilot_norest","10510","3","8","Male","","","","","","","null","<div style=""font-size:60px;"">+</div>","null","fixation","","","","","","","","","57","","",""
"revaluation","175","771839","0.0-4.0-2.0-0.29","spark_pilot_norest","10510","3","8","Male","","false","","","","","[1129.5,513.7000000029802]","./assets/img/ocean/memory/28.jpg","[""ArrowDown"",""ArrowRight""]","value training","ocean","30","{""ArrowUp,ArrowLeft"":23,""ArrowUp,ArrowRight"":10,""ArrowDown,ArrowLeft"":8,""ArrowDown,ArrowRight"":30}","true","ArrowDown,ArrowRight","false","original","1","58","","",""
"html-keyboard-response","176","772340","0.0-4.0-2.0-1.29","spark_pilot_norest","10510","3","8","Male","","","","","","","null","<div style=""font-size:60px;"">+</div>","null","fixation","","","","","","","","","59","","",""
"revaluation","177","778346","0.0-4.0-2.0-0.30","spark_pilot_norest","10510","3","8","Male","","false","","","","","[654.9000000059605,299.3999999910593]","./assets/img/ocean/memory/17.jpg","[""ArrowDown"",""ArrowRight""]","value training","ocean","30","{""ArrowUp,ArrowLeft"":23,""ArrowUp,ArrowRight"":10,""ArrowDown,ArrowLeft"":8,""ArrowDown,ArrowRight"":30}","true","ArrowDown,ArrowRight","false","original","1","60","","",""
"html-keyboard-response","178","778847","0.0-4.0-2.0-1.30","spark_pilot_norest","10510","3","8","Male","","","","","","","null","<div style=""font-size:60px;"">+</div>","null","fixation","","","","","","","","","61","","",""
"revaluation","179","784855","0.0-4.0-2.0-0.31","spark_pilot_norest","10510","3","8","Male","","false","","","","","[657.6999999880791,405.70000000298023]","./assets/img/ocean/memory/0.jpg","[""ArrowDown"",""ArrowRight""]","value training","ocean","30","{""ArrowUp,ArrowLeft"":23,""ArrowUp,ArrowRight"":10,""ArrowDown,ArrowLeft"":8,""ArrowDown,ArrowRight"":30}","true","ArrowDown,ArrowRight","false","original","1","62","","",""
"html-keyboard-response","180","785356","0.0-4.0-2.0-1.31","spark_pilot_norest","10510","3","8","Male","","","","","","","null","<div style=""font-size:60px;"">+</div>","null","fixation","","","","","","","","","63","","",""
"revaluation","181","789362","0.0-4.0-2.0-0.32","spark_pilot_norest","10510","3","8","Male","","false","","","","","[772.9000000059605]","./assets/img/ocean/catch/6.jpg","[""spaceBar""]","value training","ocean","0","{""ArrowUp,ArrowLeft"":23,""ArrowUp,ArrowRight"":10,""ArrowDown,ArrowLeft"":8,""ArrowDown,ArrowRight"":30}","true","spaceBar","true","original","1","64","","",""
"html-keyboard-response","182","789865","0.0-4.0-2.0-1.32","spark_pilot_norest","10510","3","8","Male","","","","","","","null","<div style=""font-size:60px;"">+</div>","null","fixation","","","","","","","","","65","","",""
"revaluation","183","795873","0.0-4.0-2.0-0.33","spark_pilot_norest","10510","3","8","Male","","false","","","","","[727.2000000029802,410]","./assets/img/ocean/memory/37.jpg","[""ArrowDown"",""ArrowRight""]","value training","ocean","30","{""ArrowUp,ArrowLeft"":23,""ArrowUp,ArrowRight"":10,""ArrowDown,ArrowLeft"":8,""ArrowDown,ArrowRight"":30}","true","ArrowDown,ArrowRight","false","original","1","66","","",""
"html-keyboard-response","184","796375","0.0-4.0-2.0-1.33","spark_pilot_norest","10510","3","8","Male","","","","","","","null","<div style=""font-size:60px;"">+</div>","null","fixation","","","","","","","","","67","","",""
"revaluation","185","802384","0.0-4.0-2.0-0.34","spark_pilot_norest","10510","3","8","Male","","false","","","","","[1216.5999999940395,510.19999998807907]","./assets/img/ocean/memory/31.jpg","[""ArrowDown"",""ArrowRight""]","value training","ocean","30","{""ArrowUp,ArrowLeft"":23,""ArrowUp,ArrowRight"":10,""ArrowDown,ArrowLeft"":8,""ArrowDown,ArrowRight"":30}","true","ArrowDown,ArrowRight","false","original","1","68","","",""
"html-keyboard-response","186","802886","0.0-4.0-2.0-1.34","spark_pilot_norest","10510","3","8","Male","","","","","","","null","<div style=""font-size:60px;"">+</div>","null","fixation","","","","","","","","","69","","",""
"revaluation","187","808895","0.0-4.0-2.0-0.35","spark_pilot_norest","10510","3","8","Male","","false","","","","","[550.5,947.0999999940395]","./assets/img/ocean/memory/8.jpg","[""ArrowDown"",""ArrowRight""]","value training","ocean","30","{""ArrowUp,ArrowLeft"":23,""ArrowUp,ArrowRight"":10,""ArrowDown,ArrowLeft"":8,""ArrowDown,ArrowRight"":30}","true","ArrowDown,ArrowRight","false","original","1","70","","",""
"html-keyboard-response","188","809396","0.0-4.0-2.0-1.35","spark_pilot_norest","10510","3","8","Male","","","","","","","null","<div style=""font-size:60px;"">+</div>","null","fixation","","","","","","","","","71","","",""
"revaluation","189","813404","0.0-4.0-2.0-0.36","spark_pilot_norest","10510","3","8","Male","","false","","","","","[1121.699999988079]","./assets/img/ocean/catch/5.jpg","[""spaceBar""]","value training","ocean","0","{""ArrowUp,ArrowLeft"":23,""ArrowUp,ArrowRight"":10,""ArrowDown,ArrowLeft"":8,""ArrowDown,ArrowRight"":30}","true","spaceBar","true","original","1","72","","",""
"html-keyboard-response","190","813905","0.0-4.0-2.0-1.36","spark_pilot_norest","10510","3","8","Male","","","","","","","null","<div style=""font-size:60px;"">+</div>","null","fixation","","","","","","","","","73","","",""
"revaluation","191","817912","0.0-4.0-2.0-0.37","spark_pilot_norest","10510","3","8","Male","","false","","","","","[803.2000000029802]","./assets/img/ocean/catch/2.jpg","[""spaceBar""]","value training","ocean","0","{""ArrowUp,ArrowLeft"":23,""ArrowUp,ArrowRight"":10,""ArrowDown,ArrowLeft"":8,""ArrowDown,ArrowRight"":30}","true","spaceBar","true","original","1","74","","",""
"html-keyboard-response","192","818417","0.0-4.0-2.0-1.37","spark_pilot_norest","10510","3","8","Male","","","","","","","null","<div style=""font-size:60px;"">+</div>","null","fixation","","","","","","","","","75","","",""
"revaluation","193","822424","0.0-4.0-2.0-0.38","spark_pilot_norest","10510","3","8","Male","","false","","","","","[575.8999999910593]","./assets/img/ocean/catch/0.jpg","[""spaceBar""]","value training","ocean","0","{""ArrowUp,ArrowLeft"":23,""ArrowUp,ArrowRight"":10,""ArrowDown,ArrowLeft"":8,""ArrowDown,ArrowRight"":30}","true","spaceBar","true","original","1","76","","",""
"html-keyboard-response","194","822926","0.0-4.0-2.0-1.38","spark_pilot_norest","10510","3","8","Male","","","","","","","null","<div style=""font-size:60px;"">+</div>","null","fixation","","","","","","","","","77","","",""
"revaluation","195","828934","0.0-4.0-2.0-0.39","spark_pilot_norest","10510","3","8","Male","","false","","","","","[933.3999999910593,1245.7000000029802]","./assets/img/ocean/memory/30.jpg","[""ArrowDown"",""ArrowRight""]","value training","ocean","30","{""ArrowUp,ArrowLeft"":23,""ArrowUp,ArrowRight"":10,""ArrowDown,ArrowLeft"":8,""ArrowDown,ArrowRight"":30}","true","ArrowDown,ArrowRight","false","original","1","78","","",""
"html-keyboard-response","196","829438","0.0-4.0-2.0-1.39","spark_pilot_norest","10510","3","8","Male","","","","","","","null","<div style=""font-size:60px;"">+</div>","null","fixation","","","","","","","","","79","","",""
"revaluation","197","835444","0.0-4.0-2.0-0.40","spark_pilot_norest","10510","3","8","Male","","false","","","","","[515.1000000089407,501.69999998807907]","./assets/img/ocean/memory/29.jpg","[""ArrowDown"",""ArrowRight""]","value training","ocean","30","{""ArrowUp,ArrowLeft"":23,""ArrowUp,ArrowRight"":10,""ArrowDown,ArrowLeft"":8,""ArrowDown,ArrowRight"":30}","true","ArrowDown,ArrowRight","false","original","1","80","","",""
"html-keyboard-response","198","835946","0.0-4.0-2.0-1.40","spark_pilot_norest","10510","3","8","Male","","","","","","","null","<div style=""font-size:60px;"">+</div>","null","fixation","","","","","","","","","81","","",""
"revaluation","199","841955","0.0-4.0-2.0-0.41","spark_pilot_norest","10510","3","8","Male","","false","","","","","[817.3000000119209,538.8000000119209]","./assets/img/ocean/memory/31.jpg","[""ArrowDown"",""ArrowRight""]","value training","ocean","30","{""ArrowUp,ArrowLeft"":23,""ArrowUp,ArrowRight"":10,""ArrowDown,ArrowLeft"":8,""ArrowDown,ArrowRight"":30}","true","ArrowDown,ArrowRight","false","original","1","82","","",""
"html-keyboard-response","200","842457","0.0-4.0-2.0-1.41","spark_pilot_norest","10510","3","8","Male","","","","","","","null","<div style=""font-size:60px;"">+</div>","null","fixation","","","","","","","","","83","","",""
"revaluation","201","848463","0.0-4.0-2.0-0.42","spark_pilot_norest","10510","3","8","Male","","false","","","","","[508.29999999701977,559.5999999940395]","./assets/img/ocean/memory/38.jpg","[""ArrowDown"",""ArrowRight""]","value training","ocean","30","{""ArrowUp,ArrowLeft"":23,""ArrowUp,ArrowRight"":10,""ArrowDown,ArrowLeft"":8,""ArrowDown,ArrowRight"":30}","true","ArrowDown,ArrowRight","false","original","1","84","","",""
"html-keyboard-response","202","848966","0.0-4.0-2.0-1.42","spark_pilot_norest","10510","3","8","Male","","","","","","","null","<div style=""font-size:60px;"">+</div>","null","fixation","","","","","","","","","85","","",""
"revaluation","203","854977","0.0-4.0-2.0-0.43","spark_pilot_norest","10510","3","8","Male","","false","","","","","[784.0999999940395,493]","./assets/img/ocean/memory/28.jpg","[""ArrowDown"",""ArrowRight""]","value training","ocean","30","{""ArrowUp,ArrowLeft"":23,""ArrowUp,ArrowRight"":10,""ArrowDown,ArrowLeft"":8,""ArrowDown,ArrowRight"":30}","true","ArrowDown,ArrowRight","false","original","1","86","","",""
"html-keyboard-response","204","855479","0.0-4.0-2.0-1.43","spark_pilot_norest","10510","3","8","Male","","","","","","","null","<div style=""font-size:60px;"">+</div>","null","fixation","","","","","","","","","87","","",""
"revaluation","205","861488","0.0-4.0-2.0-0.44","spark_pilot_norest","10510","3","8","Male","","false","","","","","[759.1000000089407,406.20000000298023]","./assets/img/ocean/memory/38.jpg","[""ArrowDown"",""ArrowRight""]","value training","ocean","30","{""ArrowUp,ArrowLeft"":23,""ArrowUp,ArrowRight"":10,""ArrowDown,ArrowLeft"":8,""ArrowDown,ArrowRight"":30}","true","ArrowDown,ArrowRight","false","original","1","88","","",""
"html-keyboard-response","206","861990","0.0-4.0-2.0-1.44","spark_pilot_norest","10510","3","8","Male","","","","","","","null","<div style=""font-size:60px;"">+</div>","null","fixation","","","","","","","","","89","","",""
"revaluation","207","867998","0.0-4.0-2.0-0.45","spark_pilot_norest","10510","3","8","Male","","false","","","","","[1348.7999999970198,624.6999999880791]","./assets/img/ocean/memory/35.jpg","[""ArrowUp"",""ArrowLeft""]","value training","ocean","23","{""ArrowUp,ArrowLeft"":23,""ArrowUp,ArrowRight"":10,""ArrowDown,ArrowLeft"":8,""ArrowDown,ArrowRight"":30}","false","ArrowUp,ArrowLeft","false","original","1","90","","",""
"html-keyboard-response","208","868501","0.0-4.0-2.0-1.45","spark_pilot_norest","10510","3","8","Male","","","","","","","null","<div style=""font-size:60px;"">+</div>","null","fixation","","","","","","","","","91","","",""
"revaluation","209","874511","0.0-4.0-2.0-0.46","spark_pilot_norest","10510","3","8","Male","","false","","","","","[727,519]","./assets/img/ocean/memory/3.jpg","[""ArrowDown"",""ArrowRight""]","value training","ocean","30","{""ArrowUp,ArrowLeft"":23,""ArrowUp,ArrowRight"":10,""ArrowDown,ArrowLeft"":8,""ArrowDown,ArrowRight"":30}","true","ArrowDown,ArrowRight","false","original","1","92","","",""
"html-keyboard-response","210","875014","0.0-4.0-2.0-1.46","spark_pilot_norest","10510","3","8","Male","","","","","","","null","<div style=""font-size:60px;"">+</div>","null","fixation","","","","","","","","","93","","",""
"revaluation","211","881029","0.0-4.0-2.0-0.47","spark_pilot_norest","10510","3","8","Male","","false","","","","","[703.7999999970198,529.7999999970198]","./assets/img/ocean/memory/7.jpg","[""ArrowDown"",""ArrowRight""]","value training","ocean","30","{""ArrowUp,ArrowLeft"":23,""ArrowUp,ArrowRight"":10,""ArrowDown,ArrowLeft"":8,""ArrowDown,ArrowRight"":30}","true","ArrowDown,ArrowRight","false","original","1","94","","",""
"html-keyboard-response","212","881531","0.0-4.0-2.0-1.47","spark_pilot_norest","10510","3","8","Male","","","","","","","null","<div style=""font-size:60px;"">+</div>","null","fixation","","","","","","","","","95","","",""
"revaluation","213","887536","0.0-4.0-2.0-0.48","spark_pilot_norest","10510","3","8","Male","","false","","","","","[721.5,396.30000001192093]","./assets/img/ocean/memory/34.jpg","[""ArrowDown"",""ArrowRight""]","value training","ocean","30","{""ArrowUp,ArrowLeft"":23,""ArrowUp,ArrowRight"":10,""ArrowDown,ArrowLeft"":8,""ArrowDown,ArrowRight"":30}","true","ArrowDown,ArrowRight","false","original","1","96","","",""
"html-keyboard-response","214","888039","0.0-4.0-2.0-1.48","spark_pilot_norest","10510","3","8","Male","","","","","","","null","<div style=""font-size:60px;"">+</div>","null","fixation","","","","","","","","","97","","",""
"revaluation","215","894049","0.0-4.0-2.0-0.49","spark_pilot_norest","10510","3","8","Male","","false","","","","","[601.7000000029802,582.1000000089407]","./assets/img/ocean/memory/13.jpg","[""ArrowDown"",""ArrowRight""]","value training","ocean","30","{""ArrowUp,ArrowLeft"":23,""ArrowUp,ArrowRight"":10,""ArrowDown,ArrowLeft"":8,""ArrowDown,ArrowRight"":30}","true","ArrowDown,ArrowRight","false","original","1","98","","",""
"html-keyboard-response","216","894552","0.0-4.0-2.0-1.49","spark_pilot_norest","10510","3","8","Male","","","","","","","null","<div style=""font-size:60px;"">+</div>","null","fixation","","","","","","","","","99","","",""
"learning-instructions","217","908592","0.0-4.0-3.0-0.0","spark_pilot_norest","10510","3","8","Male","","","","","","","680.5","<p> Now, you will travel with a friend who will choose whether you go up or down first. </p>
            <p> On these turns, you will just see the animal that they found. You will still get to choose which chest to search for treasure.</p>","","instructions","","","","","","","","","","","",""
"revaluation","218","912607","0.0-4.0-4.0-0.0","spark_pilot_norest","10510","3","8","Male","","false","","","","","[960.2000000029802]","./assets/img/ocean/animals/seahorse.jpg","[""ArrowRight""]","revaluation","ocean","30","{""ArrowUp,ArrowLeft"":23,""ArrowUp,ArrowRight"":10,""ArrowDown,ArrowLeft"":8,""ArrowDown,ArrowRight"":30}","true","ArrowDown,ArrowRight","","original","1","0","","",""
"html-keyboard-response","219","913112","0.0-4.0-4.0-1.0","spark_pilot_norest","10510","3","8","Male","","","","","","","null","<div style=""font-size:60px;"">+</div>","null","fixation","","","","","","","","","1","","",""
"revaluation","220","917123","0.0-4.0-4.0-0.1","spark_pilot_norest","10510","3","8","Male","","false","","","","","[714.5]","./assets/img/ocean/animals/octopus.jpg","[""ArrowLeft""]","revaluation","ocean","23","{""ArrowUp,ArrowLeft"":23,""ArrowUp,ArrowRight"":10,""ArrowDown,ArrowLeft"":8,""ArrowDown,ArrowRight"":30}","true","ArrowUp,ArrowLeft","","original","1","2","","",""
"html-keyboard-response","221","917639","0.0-4.0-4.0-1.1","spark_pilot_norest","10510","3","8","Male","","","","","","","null","<div style=""font-size:60px;"">+</div>","null","fixation","","","","","","","","","3","","",""
"revaluation","222","921661","0.0-4.0-4.0-0.2","spark_pilot_norest","10510","3","8","Male","","false","","","","","[1097.5]","./assets/img/ocean/animals/octopus.jpg","[""ArrowLeft""]","revaluation","ocean","23","{""ArrowUp,ArrowLeft"":23,""ArrowUp,ArrowRight"":10,""ArrowDown,ArrowLeft"":8,""ArrowDown,ArrowRight"":30}","true","ArrowUp,ArrowLeft","","original","1","4","","",""
"html-keyboard-response","223","922163","0.0-4.0-4.0-1.2","spark_pilot_norest","10510","3","8","Male","","","","","","","null","<div style=""font-size:60px;"">+</div>","null","fixation","","","","","","","","","5","","",""
"revaluation","224","926187","0.0-4.0-4.0-0.3","spark_pilot_norest","10510","3","8","Male","","false","","","","","[858.2999999970198]","./assets/img/ocean/animals/seahorse.jpg","[""ArrowRight""]","revaluation","ocean","30","{""ArrowUp,ArrowLeft"":23,""ArrowUp,ArrowRight"":10,""ArrowDown,ArrowLeft"":8,""ArrowDown,ArrowRight"":30}","true","ArrowDown,ArrowRight","","original","1","6","","",""
"html-keyboard-response","225","926696","0.0-4.0-4.0-1.3","spark_pilot_norest","10510","3","8","Male","","","","","","","null","<div style=""font-size:60px;"">+</div>","null","fixation","","","","","","","","","7","","",""
"revaluation","226","930708","0.0-4.0-4.0-0.4","spark_pilot_norest","10510","3","8","Male","","false","","","","","[1410.9000000059605]","./assets/img/ocean/animals/seahorse.jpg","[""ArrowLeft""]","revaluation","ocean","8","{""ArrowUp,ArrowLeft"":23,""ArrowUp,ArrowRight"":10,""ArrowDown,ArrowLeft"":8,""ArrowDown,ArrowRight"":30}","false","ArrowDown,ArrowLeft","","original","1","8","","",""
"html-keyboard-response","227","931214","0.0-4.0-4.0-1.4","spark_pilot_norest","10510","3","8","Male","","","","","","","null","<div style=""font-size:60px;"">+</div>","null","fixation","","","","","","","","","9","","",""
"revaluation","228","935228","0.0-4.0-4.0-0.5","spark_pilot_norest","10510","3","8","Male","","false","","","","","[1078.0999999940395]","./assets/img/ocean/animals/octopus.jpg","[""ArrowLeft""]","revaluation","ocean","23","{""ArrowUp,ArrowLeft"":23,""ArrowUp,ArrowRight"":10,""ArrowDown,ArrowLeft"":8,""ArrowDown,ArrowRight"":30}","true","ArrowUp,ArrowLeft","","original","1","10","","",""
"html-keyboard-response","229","935744","0.0-4.0-4.0-1.5","spark_pilot_norest","10510","3","8","Male","","","","","","","null","<div style=""font-size:60px;"">+</div>","null","fixation","","","","","","","","","11","","",""
"revaluation","230","939758","0.0-4.0-4.0-0.6","spark_pilot_norest","10510","3","8","Male","","false","","","","","[693.8999999910593]","./assets/img/ocean/animals/seahorse.jpg","[""ArrowRight""]","revaluation","ocean","30","{""ArrowUp,ArrowLeft"":23,""ArrowUp,ArrowRight"":10,""ArrowDown,ArrowLeft"":8,""ArrowDown,ArrowRight"":30}","true","ArrowDown,ArrowRight","","original","1","12","","",""
"html-keyboard-response","231","940260","0.0-4.0-4.0-1.6","spark_pilot_norest","10510","3","8","Male","","","","","","","null","<div style=""font-size:60px;"">+</div>","null","fixation","","","","","","","","","13","","",""
"revaluation","232","944267","0.0-4.0-4.0-0.7","spark_pilot_norest","10510","3","8","Male","","false","","","","","[860.3999999910593]","./assets/img/ocean/animals/octopus.jpg","[""ArrowLeft""]","revaluation","ocean","23","{""ArrowUp,ArrowLeft"":23,""ArrowUp,ArrowRight"":10,""ArrowDown,ArrowLeft"":8,""ArrowDown,ArrowRight"":30}","true","ArrowUp,ArrowLeft","","original","1","14","","",""
"html-keyboard-response","233","944769","0.0-4.0-4.0-1.7","spark_pilot_norest","10510","3","8","Male","","","","","","","null","<div style=""font-size:60px;"">+</div>","null","fixation","","","","","","","","","15","","",""
"revaluation","234","948776","0.0-4.0-4.0-0.8","spark_pilot_norest","10510","3","8","Male","","false","","","","","[1457.4000000059605]","./assets/img/ocean/animals/seahorse.jpg","[""ArrowRight""]","revaluation","ocean","30","{""ArrowUp,ArrowLeft"":23,""ArrowUp,ArrowRight"":10,""ArrowDown,ArrowLeft"":8,""ArrowDown,ArrowRight"":30}","true","ArrowDown,ArrowRight","","original","1","16","","",""
"html-keyboard-response","235","949278","0.0-4.0-4.0-1.8","spark_pilot_norest","10510","3","8","Male","","","","","","","null","<div style=""font-size:60px;"">+</div>","null","fixation","","","","","","","","","17","","",""
"revaluation","236","953284","0.0-4.0-4.0-0.9","spark_pilot_norest","10510","3","8","Male","","false","","","","","[846.1000000089407]","./assets/img/ocean/animals/seahorse.jpg","[""ArrowRight""]","revaluation","ocean","30","{""ArrowUp,ArrowLeft"":23,""ArrowUp,ArrowRight"":10,""ArrowDown,ArrowLeft"":8,""ArrowDown,ArrowRight"":30}","true","ArrowDown,ArrowRight","","original","1","18","","",""
"html-keyboard-response","237","953794","0.0-4.0-4.0-1.9","spark_pilot_norest","10510","3","8","Male","","","","","","","null","<div style=""font-size:60px;"">+</div>","null","fixation","","","","","","","","","19","","",""
"revaluation","238","957812","0.0-4.0-4.0-0.10","spark_pilot_norest","10510","3","8","Male","","false","","","","","[614.2999999970198]","./assets/img/ocean/animals/octopus.jpg","[""ArrowLeft""]","revaluation","ocean","23","{""ArrowUp,ArrowLeft"":23,""ArrowUp,ArrowRight"":10,""ArrowDown,ArrowLeft"":8,""ArrowDown,ArrowRight"":30}","true","ArrowUp,ArrowLeft","","original","1","20","","",""
"html-keyboard-response","239","958314","0.0-4.0-4.0-1.10","spark_pilot_norest","10510","3","8","Male","","","","","","","null","<div style=""font-size:60px;"">+</div>","null","fixation","","","","","","","","","21","","",""
"revaluation","240","962319","0.0-4.0-4.0-0.11","spark_pilot_norest","10510","3","8","Male","","false","","","","","[795.7000000029802]","./assets/img/ocean/animals/seahorse.jpg","[""ArrowRight""]","revaluation","ocean","30","{""ArrowUp,ArrowLeft"":23,""ArrowUp,ArrowRight"":10,""ArrowDown,ArrowLeft"":8,""ArrowDown,ArrowRight"":30}","true","ArrowDown,ArrowRight","","original","1","22","","",""
"html-keyboard-response","241","962821","0.0-4.0-4.0-1.11","spark_pilot_norest","10510","3","8","Male","","","","","","","null","<div style=""font-size:60px;"">+</div>","null","fixation","","","","","","","","","23","","",""
"revaluation","242","966826","0.0-4.0-4.0-0.12","spark_pilot_norest","10510","3","8","Male","","false","","","","","[1086.2999999970198]","./assets/img/ocean/animals/seahorse.jpg","[""ArrowRight""]","revaluation","ocean","30","{""ArrowUp,ArrowLeft"":23,""ArrowUp,ArrowRight"":10,""ArrowDown,ArrowLeft"":8,""ArrowDown,ArrowRight"":30}","true","ArrowDown,ArrowRight","","original","1","24","","",""
"html-keyboard-response","243","967328","0.0-4.0-4.0-1.12","spark_pilot_norest","10510","3","8","Male","","","","","","","null","<div style=""font-size:60px;"">+</div>","null","fixation","","","","","","","","","25","","",""
"revaluation","244","971335","0.0-4.0-4.0-0.13","spark_pilot_norest","10510","3","8","Male","","false","","","","","[879.2000000029802]","./assets/img/ocean/animals/octopus.jpg","[""ArrowLeft""]","revaluation","ocean","23","{""ArrowUp,ArrowLeft"":23,""ArrowUp,ArrowRight"":10,""ArrowDown,ArrowLeft"":8,""ArrowDown,ArrowRight"":30}","true","ArrowUp,ArrowLeft","","original","1","26","","",""
"html-keyboard-response","245","971836","0.0-4.0-4.0-1.13","spark_pilot_norest","10510","3","8","Male","","","","","","","null","<div style=""font-size:60px;"">+</div>","null","fixation","","","","","","","","","27","","",""
"revaluation","246","975846","0.0-4.0-4.0-0.14","spark_pilot_norest","10510","3","8","Male","","false","","","","","[1073.2999999970198]","./assets/img/ocean/animals/octopus.jpg","[""ArrowLeft""]","revaluation","ocean","23","{""ArrowUp,ArrowLeft"":23,""ArrowUp,ArrowRight"":10,""ArrowDown,ArrowLeft"":8,""ArrowDown,ArrowRight"":30}","true","ArrowUp,ArrowLeft","","original","1","28","","",""
"html-keyboard-response","247","976348","0.0-4.0-4.0-1.14","spark_pilot_norest","10510","3","8","Male","","","","","","","null","<div style=""font-size:60px;"">+</div>","null","fixation","","","","","","","","","29","","",""
"revaluation","248","980355","0.0-4.0-4.0-0.15","spark_pilot_norest","10510","3","8","Male","","false","","","","","[640.2999999970198]","./assets/img/ocean/animals/octopus.jpg","[""ArrowLeft""]","revaluation","ocean","23","{""ArrowUp,ArrowLeft"":23,""ArrowUp,ArrowRight"":10,""ArrowDown,ArrowLeft"":8,""ArrowDown,ArrowRight"":30}","true","ArrowUp,ArrowLeft","","original","1","30","","",""
"html-keyboard-response","249","980857","0.0-4.0-4.0-1.15","spark_pilot_norest","10510","3","8","Male","","","","","","","null","<div style=""font-size:60px;"">+</div>","null","fixation","","","","","","","","","31","","",""
"revaluation","250","984864","0.0-4.0-4.0-0.16","spark_pilot_norest","10510","3","8","Male","","false","","","","","[1414.7999999970198]","./assets/img/ocean/animals/octopus.jpg","[""ArrowLeft""]","revaluation","ocean","23","{""ArrowUp,ArrowLeft"":23,""ArrowUp,ArrowRight"":10,""ArrowDown,ArrowLeft"":8,""ArrowDown,ArrowRight"":30}","true","ArrowUp,ArrowLeft","","original","1","32","","",""
"html-keyboard-response","251","985366","0.0-4.0-4.0-1.16","spark_pilot_norest","10510","3","8","Male","","","","","","","null","<div style=""font-size:60px;"">+</div>","null","fixation","","","","","","","","","33","","",""
"revaluation","252","989375","0.0-4.0-4.0-0.17","spark_pilot_norest","10510","3","8","Male","","false","","","","","[1281]","./assets/img/ocean/animals/seahorse.jpg","[""ArrowRight""]","revaluation","ocean","30","{""ArrowUp,ArrowLeft"":23,""ArrowUp,ArrowRight"":10,""ArrowDown,ArrowLeft"":8,""ArrowDown,ArrowRight"":30}","true","ArrowDown,ArrowRight","","original","1","34","","",""
"html-keyboard-response","253","989877","0.0-4.0-4.0-1.17","spark_pilot_norest","10510","3","8","Male","","","","","","","null","<div style=""font-size:60px;"">+</div>","null","fixation","","","","","","","","","35","","",""
"learning-instructions","254","998471","0.0-4.0-5.0-0.0","spark_pilot_norest","10510","3","8","Male","","","","","","","null","<p> You have almost finished this part of the game! </p>
            <p> We are going to ask you to make a few more choices. </p>","","instructions","","","","","","","","","","","",""
"learning-instructions","255","1014461","0.0-4.0-5.0-0.1","spark_pilot_norest","10510","3","8","Male","","","","","","","null","<p> First, you need to decide whether to go up or down. When you see each picture, use the arrow keys to make your choice. </p>
            <p><b>You will not see which animal you found, but try to get to the one that will give you the most treasure.</b></p>","","instructions","","","","","","","","","","","",""
"html-keyboard-response","256","1015475","0.0-4.0-6.0-0.0","spark_pilot_norest","10510","3","8","Male","","","","","","","null","<div style=""font-size:100px;color:red;"">Starting in...</div>","null","","","","","","","","","","","","",""
"html-keyboard-response","257","1016489","0.0-4.0-6.0-1.0","spark_pilot_norest","10510","3","8","Male","","","","","","","null","<div style=""font-size:200px;color:red;"">3</div>","null","","","","","","","","","","","","",""
"html-keyboard-response","258","1017492","0.0-4.0-6.0-2.0","spark_pilot_norest","10510","3","8","Male","","","","","","","null","<div style=""font-size:200px;color:red;"">2</div>","null","","","","","","","","","","","","",""
"html-keyboard-response","259","1018505","0.0-4.0-6.0-3.0","spark_pilot_norest","10510","3","8","Male","","","","","","","null","<div style=""font-size:200px;color:red;"">1</div>","null","","","","","","","","","","","","",""
"revaluation","260","1019762","0.0-4.0-7.0-0.0","spark_pilot_norest","10510","3","8","Male","","false","","","","","[1255]","./assets/img/ocean/test/2.jpg","[""ArrowDown""]","first stage test","ocean","0","{""ArrowUp,ArrowLeft"":23,""ArrowUp,ArrowRight"":10,""ArrowDown,ArrowLeft"":8,""ArrowDown,ArrowRight"":30}","true","ArrowDown","false","original","1","","","",""
"html-keyboard-response","261","1020264","0.0-4.0-7.0-1.0","spark_pilot_norest","10510","3","8","Male","","","","","","","null","<div style=""font-size:60px;"">+</div>","null","fixation","","","","","","","","","","","",""
"revaluation","262","1022345","0.0-4.0-7.0-0.1","spark_pilot_norest","10510","3","8","Male","","false","","","","","[2075.2999999970198]","./assets/img/ocean/test/3.jpg","[""ArrowDown""]","first stage test","ocean","0","{""ArrowUp,ArrowLeft"":23,""ArrowUp,ArrowRight"":10,""ArrowDown,ArrowLeft"":8,""ArrowDown,ArrowRight"":30}","true","ArrowDown","false","original","1","","","",""
"html-keyboard-response","263","1022858","0.0-4.0-7.0-1.1","spark_pilot_norest","10510","3","8","Male","","","","","","","null","<div style=""font-size:60px;"">+</div>","null","fixation","","","","","","","","","","","",""
"revaluation","264","1024113","0.0-4.0-7.0-0.2","spark_pilot_norest","10510","3","8","Male","","false","","","","","[1250.6000000089407]","./assets/img/ocean/test/1.jpg","[""ArrowDown""]","first stage test","ocean","0","{""ArrowUp,ArrowLeft"":23,""ArrowUp,ArrowRight"":10,""ArrowDown,ArrowLeft"":8,""ArrowDown,ArrowRight"":30}","true","ArrowDown","false","original","1","","","",""
"html-keyboard-response","265","1024630","0.0-4.0-7.0-1.2","spark_pilot_norest","10510","3","8","Male","","","","","","","null","<div style=""font-size:60px;"">+</div>","null","fixation","","","","","","","","","","","",""
"revaluation","266","1027144","0.0-4.0-7.0-0.3","spark_pilot_norest","10510","3","8","Male","","false","","","","","[2508.6000000089407]","./assets/img/ocean/test/0.jpg","[""ArrowUp""]","first stage test","ocean","0","{""ArrowUp,ArrowLeft"":23,""ArrowUp,ArrowRight"":10,""ArrowDown,ArrowLeft"":8,""ArrowDown,ArrowRight"":30}","false","ArrowUp","false","original","1","","","",""
"html-keyboard-response","267","1027648","0.0-4.0-7.0-1.3","spark_pilot_norest","10510","3","8","Male","","","","","","","null","<div style=""font-size:60px;"">+</div>","null","fixation","","","","","","","","","","","",""
"learning-instructions","268","1040993","0.0-4.0-8.0-0.0","spark_pilot_norest","10510","3","8","Male","","","","","","","null","<p> Now you will see the animals again and can search their chests for treasure. </p>
            <p> This time, you will not see how much treasure you earned, but you will earn more bonus money for making better choices. </p>","","instructions","","","","","","","","","","","",""
"html-keyboard-response","269","1042002","0.0-4.0-9.0-0.0","spark_pilot_norest","10510","3","8","Male","","","","","","","null","<div style=""font-size:100px;color:red;"">Starting in...</div>","null","","","","","","","","","","","","",""
"html-keyboard-response","270","1043006","0.0-4.0-9.0-1.0","spark_pilot_norest","10510","3","8","Male","","","","","","","null","<div style=""font-size:200px;color:red;"">3</div>","null","","","","","","","","","","","","",""
"html-keyboard-response","271","1044019","0.0-4.0-9.0-2.0","spark_pilot_norest","10510","3","8","Male","","","","","","","null","<div style=""font-size:200px;color:red;"">2</div>","null","","","","","","","","","","","","",""
"html-keyboard-response","272","1045023","0.0-4.0-9.0-3.0","spark_pilot_norest","10510","3","8","Male","","","","","","","null","<div style=""font-size:200px;color:red;"">1</div>","null","","","","","","","","","","","","",""
"revaluation","273","1046580","0.0-4.0-10.0-0.0","spark_pilot_norest","10510","3","8","Male","","false","","","","","[1551.8999999910593]","./assets/img/ocean/animals/octopus.jpg","[""ArrowRight""]","second stage test","ocean","0","{""ArrowUp,ArrowLeft"":23,""ArrowUp,ArrowRight"":10,""ArrowDown,ArrowLeft"":8,""ArrowDown,ArrowRight"":30}","false","ArrowUp,ArrowRight","","original","1","","","",""
"html-keyboard-response","274","1047092","0.0-4.0-10.0-1.0","spark_pilot_norest","10510","3","8","Male","","","","","","","null","<div style=""font-size:60px;"">+</div>","null","fixation","","","","","","","","","","","",""
"revaluation","275","1048538","0.0-4.0-10.0-0.1","spark_pilot_norest","10510","3","8","Male","","false","","","","","[1441.5]","./assets/img/ocean/animals/octopus.jpg","[""ArrowLeft""]","second stage test","ocean","0","{""ArrowUp,ArrowLeft"":23,""ArrowUp,ArrowRight"":10,""ArrowDown,ArrowLeft"":8,""ArrowDown,ArrowRight"":30}","true","ArrowUp,ArrowLeft","","original","1","","","",""
"html-keyboard-response","276","1049045","0.0-4.0-10.0-1.1","spark_pilot_norest","10510","3","8","Male","","","","","","","null","<div style=""font-size:60px;"">+</div>","null","fixation","","","","","","","","","","","",""
"revaluation","277","1049890","0.0-4.0-10.0-0.2","spark_pilot_norest","10510","3","8","Male","","false","","","","","[839.2000000029802]","./assets/img/ocean/animals/octopus.jpg","[""ArrowLeft""]","second stage test","ocean","0","{""ArrowUp,ArrowLeft"":23,""ArrowUp,ArrowRight"":10,""ArrowDown,ArrowLeft"":8,""ArrowDown,ArrowRight"":30}","true","ArrowUp,ArrowLeft","","original","1","","","",""
"html-keyboard-response","278","1050394","0.0-4.0-10.0-1.2","spark_pilot_norest","10510","3","8","Male","","","","","","","null","<div style=""font-size:60px;"">+</div>","null","fixation","","","","","","","","","","","",""
"revaluation","279","1051226","0.0-4.0-10.0-0.3","spark_pilot_norest","10510","3","8","Male","","false","","","","","[828.0999999940395]","./assets/img/ocean/animals/octopus.jpg","[""ArrowLeft""]","second stage test","ocean","0","{""ArrowUp,ArrowLeft"":23,""ArrowUp,ArrowRight"":10,""ArrowDown,ArrowLeft"":8,""ArrowDown,ArrowRight"":30}","true","ArrowUp,ArrowLeft","","original","1","","","",""
"html-keyboard-response","280","1051742","0.0-4.0-10.0-1.3","spark_pilot_norest","10510","3","8","Male","","","","","","","null","<div style=""font-size:60px;"">+</div>","null","fixation","","","","","","","","","","","",""
"revaluation","281","1052575","0.0-4.0-10.0-0.4","spark_pilot_norest","10510","3","8","Male","","false","","","","","[828.9000000059605]","./assets/img/ocean/animals/seahorse.jpg","[""ArrowRight""]","second stage test","ocean","0","{""ArrowUp,ArrowLeft"":23,""ArrowUp,ArrowRight"":10,""ArrowDown,ArrowLeft"":8,""ArrowDown,ArrowRight"":30}","true","ArrowDown,ArrowRight","","original","1","","","",""
"html-keyboard-response","282","1053076","0.0-4.0-10.0-1.4","spark_pilot_norest","10510","3","8","Male","","","","","","","null","<div style=""font-size:60px;"">+</div>","null","fixation","","","","","","","","","","","",""
"revaluation","283","1054194","0.0-4.0-10.0-0.5","spark_pilot_norest","10510","3","8","Male","","false","","","","","[1113.0999999940395]","./assets/img/ocean/animals/seahorse.jpg","[""ArrowRight""]","second stage test","ocean","0","{""ArrowUp,ArrowLeft"":23,""ArrowUp,ArrowRight"":10,""ArrowDown,ArrowLeft"":8,""ArrowDown,ArrowRight"":30}","true","ArrowDown,ArrowRight","","original","1","","","",""
"html-keyboard-response","284","1054711","0.0-4.0-10.0-1.5","spark_pilot_norest","10510","3","8","Male","","","","","","","null","<div style=""font-size:60px;"">+</div>","null","fixation","","","","","","","","","","","",""
"revaluation","285","1055254","0.0-4.0-10.0-0.6","spark_pilot_norest","10510","3","8","Male","","false","","","","","[539.1999999880791]","./assets/img/ocean/animals/seahorse.jpg","[""ArrowRight""]","second stage test","ocean","0","{""ArrowUp,ArrowLeft"":23,""ArrowUp,ArrowRight"":10,""ArrowDown,ArrowLeft"":8,""ArrowDown,ArrowRight"":30}","true","ArrowDown,ArrowRight","","original","1","","","",""
"html-keyboard-response","286","1055761","0.0-4.0-10.0-1.6","spark_pilot_norest","10510","3","8","Male","","","","","","","null","<div style=""font-size:60px;"">+</div>","null","fixation","","","","","","","","","","","",""
"revaluation","287","1056447","0.0-4.0-10.0-0.7","spark_pilot_norest","10510","3","8","Male","","false","","","","","[682.2999999970198]","./assets/img/ocean/animals/seahorse.jpg","[""ArrowRight""]","second stage test","ocean","0","{""ArrowUp,ArrowLeft"":23,""ArrowUp,ArrowRight"":10,""ArrowDown,ArrowLeft"":8,""ArrowDown,ArrowRight"":30}","true","ArrowDown,ArrowRight","","original","1","","","",""
"html-keyboard-response","288","1056960","0.0-4.0-10.0-1.7","spark_pilot_norest","10510","3","8","Male","","","","","","","null","<div style=""font-size:60px;"">+</div>","null","fixation","","","","","","","","","","","",""
"learning-instructions","289","1062411","0.0-4.0-0.1-0.2","spark_pilot_norest","10510","3","8","Male","","","","","","","2669.5999999940395","<p> This time you are searching for treasure in the <b>canyon</b>.</p>","","instructions","","","","","","","","","","","",""
"learning-instructions","290","1081163","0.0-4.0-0.1-0.3","spark_pilot_norest","10510","3","8","Male","","","","","","","1501.2000000029802","<p><b>New</b> animals with <b>new</b> treasure chests live here. You need to explore to discover where the animal with the best treasure chest is.</p>
                    <p> Like before, once you figure out which animal has the chest with the most treasure, you should try to get to that animal and select that chest! </p>","","instructions","","","","","","","","","","","",""
"learning-instructions","291","1097812","0.0-4.0-1.1-0.1","spark_pilot_norest","10510","3","8","Male","","","","","","","1920.7999999970198","<p> Remember, when you see a picture of the place, use the up and down keys to <b>find an animal</b>.</p>
            <p> When you encounter an animal, you should use the left and right keys to <b>select a treasure chest</b>.</p>
            <p> Don't forget to look out for the robber! </p>","","instructions","","","","","","","","","","","",""
"revaluation","292","1103858","0.0-4.0-2.1-0.50","spark_pilot_norest","10510","3","8","Male","","false","","","","","[1177.9000000059605,960.7999999970198]","./assets/img/canyon/memory/33.jpg","[""ArrowDown"",""ArrowLeft""]","value training","canyon","5","{""ArrowUp,ArrowLeft"":26,""ArrowUp,ArrowRight"":10,""ArrowDown,ArrowLeft"":5,""ArrowDown,ArrowRight"":17}","false","ArrowDown,ArrowLeft","false","revaluation","2","0","","",""
"html-keyboard-response","293","1104365","0.0-4.0-2.1-1.50","spark_pilot_norest","10510","3","8","Male","","","","","","","null","<div style=""font-size:60px;"">+</div>","null","fixation","","","","","","","","","1","","",""
"revaluation","294","1110391","0.0-4.0-2.1-0.51","spark_pilot_norest","10510","3","8","Male","","false","","","","","[746.4000000059605,637.2999999970198]","./assets/img/canyon/memory/32.jpg","[""ArrowDown"",""ArrowRight""]","value training","canyon","17","{""ArrowUp,ArrowLeft"":26,""ArrowUp,ArrowRight"":10,""ArrowDown,ArrowLeft"":5,""ArrowDown,ArrowRight"":17}","false","ArrowDown,ArrowRight","false","revaluation","2","2","","",""
"html-keyboard-response","295","1110898","0.0-4.0-2.1-1.51","spark_pilot_norest","10510","3","8","Male","","","","","","","null","<div style=""font-size:60px;"">+</div>","null","fixation","","","","","","","","","3","","",""
"revaluation","296","1116928","0.0-4.0-2.1-0.52","spark_pilot_norest","10510","3","8","Male","","false","","","","","[612.2000000029802,760.1000000089407]","./assets/img/canyon/memory/30.jpg","[""ArrowUp"",""ArrowLeft""]","value training","canyon","26","{""ArrowUp,ArrowLeft"":26,""ArrowUp,ArrowRight"":10,""ArrowDown,ArrowLeft"":5,""ArrowDown,ArrowRight"":17}","true","ArrowUp,ArrowLeft","false","revaluation","2","4","","",""
"html-keyboard-response","297","1117430","0.0-4.0-2.1-1.52","spark_pilot_norest","10510","3","8","Male","","","","","","","null","<div style=""font-size:60px;"">+</div>","null","fixation","","","","","","","","","5","","",""
"revaluation","298","1123471","0.0-4.0-2.1-0.53","spark_pilot_norest","10510","3","8","Male","","false","","","","","[1452.5999999940395,770.5999999940395]","./assets/img/canyon/memory/17.jpg","[""ArrowUp"",""ArrowRight""]","value training","canyon","10","{""ArrowUp,ArrowLeft"":26,""ArrowUp,ArrowRight"":10,""ArrowDown,ArrowLeft"":5,""ArrowDown,ArrowRight"":17}","false","ArrowUp,ArrowRight","false","revaluation","2","6","","",""
"html-keyboard-response","299","1123982","0.0-4.0-2.1-1.53","spark_pilot_norest","10510","3","8","Male","","","","","","","null","<div style=""font-size:60px;"">+</div>","null","fixation","","","","","","","","","7","","",""
"revaluation","300","1127986","0.0-4.0-2.1-0.54","spark_pilot_norest","10510","3","8","Male","","false","","","","","[1128.5]","./assets/img/canyon/catch/0.jpg","[""spaceBar""]","value training","canyon","0","{""ArrowUp,ArrowLeft"":26,""ArrowUp,ArrowRight"":10,""ArrowDown,ArrowLeft"":5,""ArrowDown,ArrowRight"":17}","true","spaceBar","true","revaluation","2","8","","",""
"html-keyboard-response","301","1128489","0.0-4.0-2.1-1.54","spark_pilot_norest","10510","3","8","Male","","","","","","","null","<div style=""font-size:60px;"">+</div>","null","fixation","","","","","","","","","9","","",""
"revaluation","302","1134494","0.0-4.0-2.1-0.55","spark_pilot_norest","10510","3","8","Male","","false","","","","","[1131.0999999940395,784.6000000089407]","./assets/img/canyon/memory/41.jpg","[""ArrowUp"",""ArrowLeft""]","value training","canyon","26","{""ArrowUp,ArrowLeft"":26,""ArrowUp,ArrowRight"":10,""ArrowDown,ArrowLeft"":5,""ArrowDown,ArrowRight"":17}","true","ArrowUp,ArrowLeft","false","revaluation","2","10","","",""
"html-keyboard-response","303","1134995","0.0-4.0-2.1-1.55","spark_pilot_norest","10510","3","8","Male","","","","","","","null","<div style=""font-size:60px;"">+</div>","null","fixation","","","","","","","","","11","","",""
"revaluation","304","1141001","0.0-4.0-2.1-0.56","spark_pilot_norest","10510","3","8","Male","","false","","","","","[983.9000000059605,670]","./assets/img/canyon/memory/27.jpg","[""ArrowUp"",""ArrowLeft""]","value training","canyon","26","{""ArrowUp,ArrowLeft"":26,""ArrowUp,ArrowRight"":10,""ArrowDown,ArrowLeft"":5,""ArrowDown,ArrowRight"":17}","true","ArrowUp,ArrowLeft","false","revaluation","2","12","","",""
"html-keyboard-response","305","1141504","0.0-4.0-2.1-1.56","spark_pilot_norest","10510","3","8","Male","","","","","","","null","<div style=""font-size:60px;"">+</div>","null","fixation","","","","","","","","","13","","",""
"revaluation","306","1145512","0.0-4.0-2.1-0.57","spark_pilot_norest","10510","3","8","Male","","false","","","","","[770.2000000029802]","./assets/img/canyon/catch/6.jpg","[""spaceBar""]","value training","canyon","0","{""ArrowUp,ArrowLeft"":26,""ArrowUp,ArrowRight"":10,""ArrowDown,ArrowLeft"":5,""ArrowDown,ArrowRight"":17}","true","spaceBar","true","revaluation","2","14","","",""
"html-keyboard-response","307","1146015","0.0-4.0-2.1-1.57","spark_pilot_norest","10510","3","8","Male","","","","","","","null","<div style=""font-size:60px;"">+</div>","null","fixation","","","","","","","","","15","","",""
"revaluation","308","1152024","0.0-4.0-2.1-0.58","spark_pilot_norest","10510","3","8","Male","","false","","","","","[596,593.5]","./assets/img/canyon/memory/33.jpg","[""ArrowUp"",""ArrowLeft""]","value training","canyon","26","{""ArrowUp,ArrowLeft"":26,""ArrowUp,ArrowRight"":10,""ArrowDown,ArrowLeft"":5,""ArrowDown,ArrowRight"":17}","true","ArrowUp,ArrowLeft","false","revaluation","2","16","","",""
"html-keyboard-response","309","1152527","0.0-4.0-2.1-1.58","spark_pilot_norest","10510","3","8","Male","","","","","","","null","<div style=""font-size:60px;"">+</div>","null","fixation","","","","","","","","","17","","",""
"revaluation","310","1158535","0.0-4.0-2.1-0.59","spark_pilot_norest","10510","3","8","Male","","false","","","","","[766.2000000029802,549.5]","./assets/img/canyon/memory/41.jpg","[""ArrowUp"",""ArrowLeft""]","value training","canyon","26","{""ArrowUp,ArrowLeft"":26,""ArrowUp,ArrowRight"":10,""ArrowDown,ArrowLeft"":5,""ArrowDown,ArrowRight"":17}","true","ArrowUp,ArrowLeft","false","revaluation","2","18","","",""
"html-keyboard-response","311","1159038","0.0-4.0-2.1-1.59","spark_pilot_norest","10510","3","8","Male","","","","","","","null","<div style=""font-size:60px;"">+</div>","null","fixation","","","","","","","","","19","","",""
"revaluation","312","1165046","0.0-4.0-2.1-0.60","spark_pilot_norest","10510","3","8","Male","","false","","","","","[560.5,568.2999999970198]","./assets/img/canyon/memory/28.jpg","[""ArrowUp"",""ArrowLeft""]","value training","canyon","26","{""ArrowUp,ArrowLeft"":26,""ArrowUp,ArrowRight"":10,""ArrowDown,ArrowLeft"":5,""ArrowDown,ArrowRight"":17}","true","ArrowUp,ArrowLeft","false","revaluation","2","20","","",""
"html-keyboard-response","313","1165548","0.0-4.0-2.1-1.60","spark_pilot_norest","10510","3","8","Male","","","","","","","null","<div style=""font-size:60px;"">+</div>","null","fixation","","","","","","","","","21","","",""
