"trial_type","trial_index","time_elapsed","internal_node_id","task_version","subject_id","assigned_condition","age","gender","success","timeout","failed_images","failed_audio","failed_video","browser_interaction","rt","stimulus","response","task_part","environment","score","rewardMap","correct","fullState","isCatch","condition","order","trial_num","key_press","ground_truth","bonus"
"pavlovia","0","1556","0.0-0.0","spark_pilot_norest","9445","3","9","Female","","","","","","","","","","","","","","","","","","","","","",""
"preload","1","11661","0.0-1.0","spark_pilot_norest","9445","3","9","Female","true","false","[]","[]","[]","[{""event"":""fullscreenenter"",""trial"":2,""time"":19698}]","","","","","","","","","","","","","","","",""
"fullscreen","2","20694","0.0-2.0","spark_pilot_norest","9445","3","9","Female","true","","","","","","","","","","","","","","","","","","","","",""
"audio-button-response","3","26933","0.0-3.0-0.0-0.0","spark_pilot_norest","9445","3","9","Female","","","","","","","6144","./assets/audio/audiotest/turtle.mp3","2","audio_test","","","","","","","","","","","",""
"learning-instructions","4","35978","0.0-3.0-1.0-0.0","spark_pilot_norest","9445","3","9","Female","","","","","","","2055.7000000001863","<p> Welcome! Please remember to stay in fullscreen mode and don't click away from the experiment. </p>","","instructions","","","","","","","","","","","",""
"learning-instructions","5","90610","0.0-3.0-1.0-0.1","spark_pilot_norest","9445","3","9","Female","","","","","","","46207.799999999814","<p> Today you will be playing a game to earn treasure. </p>
            <p> At the end of the experiment, you will earn a bonus based on how much treasure you find. </p>
            <img src='./assets/img/instructions/treasure.jpg' class='instructions-image'>","","instructions","","","","","","","","","","","",""
"learning-instructions","6","99667","0.0-3.0-1.0-0.2","spark_pilot_norest","9445","3","9","Female","","","","","","","707.7999999998137","<p> Animals have hidden treasure in treasure chests. </p>
            <p> You need to first find an animal and then choose which of their treasure chests to search. </p>
            <img src='./assets/img/space/animals/cat.jpg' class='instructions-image'>","","instructions","","","","","","","","","","","",""
"learning-instructions","7","137933","0.0-3.0-1.0-0.3","spark_pilot_norest","9445","3","9","Female","","","","","","","25090","<p> In each round, you will search for treasure in a different place. In the real game, there will be two rounds. </p>
            <p> You will begin with a separate, practice round where you will search for treasure in outer space. </p>
            <img src='./assets/img/space/0.jpg' class='instructions-image'>","","instructions","","","","","","","","","","","",""
"learning-instructions","8","150207","0.0-3.0-1.0-0.4","spark_pilot_norest","9445","3","9","Female","","","","","","","842.9000000003725","<p> On every turn, you will see a picture of the place that you are in, but the specific image may be different each time. </p>
            <p> For example, both of these images mean you are in outer space. </p>
            <img src='./assets/img/instructions/outerspace.jpg' class='instructions-image'>","","instructions","","","","","","","","","","","",""
"learning-instructions","9","159287","0.0-3.0-1.0-0.5","spark_pilot_norest","9445","3","9","Female","","","","","","","1236.2000000001863","<p> You need to decide which direction to travel in. </p>
            <p> You can choose between going <b>up or down</b> by using the arrow keys. </p>
            <img src='./assets/img/instructions/updown.jpg' class='instructions-image'>","","instructions","","","","","","","","","","","",""
"learning-instructions","10","169541","0.0-3.0-1.0-0.6","spark_pilot_norest","9445","3","9","Female","","","","","","","1427.4000000003725","<p> You will have <b>2 seconds</b> to make your choice. </p>
            <p> If you do not make a choice within 2 seconds, you will not find an animal or earn treasure. </p>
            <img src='./assets/img/instructions/2seconds.jpg' class='instructions-image'>","","instructions","","","","","","","","","","","",""
"learning-instructions","11","177218","0.0-3.0-1.0-0.7","spark_pilot_norest","9445","3","9","Female","","","","","","","620.5","<p> Let’s try practicing that now! </p>
            <p> When you see a picture of the place you are in, press the <b>up</b> key to travel up. </p>
            <img src='./assets/img/instructions/pressUp.jpg' class='instructions-image'>","","instructions","","","","","","","","","","","",""
"revaluation","12","181247","0.0-3.0-2.0-0.0","spark_pilot_norest","9445","3","9","Female","","false","","","","","[914.5]","./assets/img/space/0.jpg","[""ArrowUp""]","first stage practice","space","0","null","null","ArrowUp","false","","","","","",""
"html-keyboard-response","13","181750","0.0-3.0-2.0-1.0","spark_pilot_norest","9445","3","9","Female","","","","","","","null","<div style=""font-size:60px;"">+</div>","null","fixation","","","","","","","","","","","",""
"revaluation","14","185766","0.0-3.0-2.0-0.1","spark_pilot_norest","9445","3","9","Female","","false","","","","","[1292.800000000745]","./assets/img/space/1.jpg","[""ArrowUp""]","first stage practice","space","0","null","null","ArrowUp","false","","","","","",""
"html-keyboard-response","15","186270","0.0-3.0-2.0-1.1","spark_pilot_norest","9445","3","9","Female","","","","","","","null","<div style=""font-size:60px;"">+</div>","null","fixation","","","","","","","","","","","",""
"revaluation","16","190287","0.0-3.0-2.0-0.2","spark_pilot_norest","9445","3","9","Female","","false","","","","","[109.1000000005588]","./assets/img/space/2.jpg","[""ArrowUp""]","first stage practice","space","0","null","null","ArrowUp","false","","","","","",""
"html-keyboard-response","17","190790","0.0-3.0-2.0-1.2","spark_pilot_norest","9445","3","9","Female","","","","","","","null","<div style=""font-size:60px;"">+</div>","null","fixation","","","","","","","","","","","",""
"learning-instructions","18","197183","0.0-3.0-3.0-0.0","spark_pilot_norest","9445","3","9","Female","","","","","","","1684.5","<p> Great job! Now try pressing the <b>down</b> key to travel down. </p>
            <img src='./assets/img/instructions/pressDown.jpg' class='instructions-image'>","","instructions","","","","","","","","","","","",""
"revaluation","19","201199","0.0-3.0-4.0-0.0","spark_pilot_norest","9445","3","9","Female","","false","","","","","[462]","./assets/img/space/3.jpg","[""ArrowDown""]","first stage practice","space","0","null","null","ArrowDown","false","","","","","",""
"html-keyboard-response","20","201702","0.0-3.0-4.0-1.0","spark_pilot_norest","9445","3","9","Female","","","","","","","null","<div style=""font-size:60px;"">+</div>","null","fixation","","","","","","","","","","","",""
"revaluation","21","205718","0.0-3.0-4.0-0.1","spark_pilot_norest","9445","3","9","Female","","false","","","","","[514.8999999994412]","./assets/img/space/4.jpg","[""ArrowDown""]","first stage practice","space","0","null","null","ArrowDown","false","","","","","",""
"html-keyboard-response","22","206222","0.0-3.0-4.0-1.1","spark_pilot_norest","9445","3","9","Female","","","","","","","null","<div style=""font-size:60px;"">+</div>","null","fixation","","","","","","","","","","","",""
"revaluation","23","210238","0.0-3.0-4.0-0.2","spark_pilot_norest","9445","3","9","Female","","false","","","","","[405.79999999981374]","./assets/img/space/5.jpg","[""ArrowDown""]","first stage practice","space","0","null","null","ArrowDown","false","","","","","",""
"html-keyboard-response","24","210742","0.0-3.0-4.0-1.2","spark_pilot_norest","9445","3","9","Female","","","","","","","null","<div style=""font-size:60px;"">+</div>","null","fixation","","","","","","","","","","","",""
"learning-instructions","25","222340","0.0-3.0-5.0-0.0","spark_pilot_norest","9445","3","9","Female","","","","","","","1731.0999999996275","<p> The animals don’t move, so the animal in the upper part of a place will stay in the upper part of a place, and the animal in the lower part of a place will stay in the lower part of a place. </p>","","instructions","","","","","","","","","","","",""
"learning-instructions","26","232548","0.0-3.0-5.0-0.1","spark_pilot_norest","9445","3","9","Female","","","","","","","1053.4000000003725","<p> Each animal has two treasure chests for you to choose from. </p>
            <p> The amount of treasure in each chest can range from <b> 0 to 40 pieces.</b></p>","","instructions","","","","","","","","","","","",""
"learning-instructions","27","245920","0.0-3.0-5.0-0.2","spark_pilot_norest","9445","3","9","Female","","","","","","","2162.7999999998137","<p> You should decide which chest to search for treasure by using the <b>left</b> and <b>right</b> arrow keys. </p>
            <p><b> Pay attention to which animal is on the screen, as the animals have different treasure chests. </b></p>
            <img src='./assets/img/instructions/leftright.jpg' class='instructions-image'>","","instructions","","","","","","","","","","","",""
"learning-instructions","28","253002","0.0-3.0-5.0-0.3","spark_pilot_norest","9445","3","9","Female","","","","","","","706.9000000003725","<p> Let’s try practicing that now. </p>
            <p> When you see an animal, choose which chest to search for treasure. </p>
            <img src='./assets/img/instructions/chooseChest.jpg' class='instructions-image'>","","instructions","","","","","","","","","","","",""
"revaluation","29","257015","0.0-3.0-6.0-0.0","spark_pilot_norest","9445","3","9","Female","","false","","","","","[707]","./assets/img/space/animals/rabbit.jpg","[""ArrowLeft""]","second stage practice","space","15","{""ArrowUp,ArrowLeft"":3,""ArrowUp,ArrowRight"":36,""ArrowDown,ArrowLeft"":15,""ArrowDown,ArrowRight"":23}","false","ArrowDown,ArrowLeft","","","","","","",""
"html-keyboard-response","30","257518","0.0-3.0-6.0-1.0","spark_pilot_norest","9445","3","9","Female","","","","","","","null","<div style=""font-size:60px;"">+</div>","null","fixation","","","","","","","","","","","",""
"revaluation","31","261535","0.0-3.0-6.0-0.1","spark_pilot_norest","9445","3","9","Female","","false","","","","","[691.3999999994412]","./assets/img/space/animals/cat.jpg","[""ArrowRight""]","second stage practice","space","36","{""ArrowUp,ArrowLeft"":3,""ArrowUp,ArrowRight"":36,""ArrowDown,ArrowLeft"":15,""ArrowDown,ArrowRight"":23}","true","ArrowUp,ArrowRight","","","","","","",""
"html-keyboard-response","32","262038","0.0-3.0-6.0-1.1","spark_pilot_norest","9445","3","9","Female","","","","","","","null","<div style=""font-size:60px;"">+</div>","null","fixation","","","","","","","","","","","",""
"revaluation","33","266054","0.0-3.0-6.0-0.2","spark_pilot_norest","9445","3","9","Female","","false","","","","","[310.5]","./assets/img/space/animals/cat.jpg","[""ArrowRight""]","second stage practice","space","36","{""ArrowUp,ArrowLeft"":3,""ArrowUp,ArrowRight"":36,""ArrowDown,ArrowLeft"":15,""ArrowDown,ArrowRight"":23}","true","ArrowUp,ArrowRight","","","","","","",""
"html-keyboard-response","34","266558","0.0-3.0-6.0-1.2","spark_pilot_norest","9445","3","9","Female","","","","","","","null","<div style=""font-size:60px;"">+</div>","null","fixation","","","","","","","","","","","",""
"revaluation","35","270575","0.0-3.0-6.0-0.3","spark_pilot_norest","9445","3","9","Female","","false","","","","","[438.70000000018626]","./assets/img/space/animals/rabbit.jpg","[""ArrowRight""]","second stage practice","space","23","{""ArrowUp,ArrowLeft"":3,""ArrowUp,ArrowRight"":36,""ArrowDown,ArrowLeft"":15,""ArrowDown,ArrowRight"":23}","true","ArrowDown,ArrowRight","","","","","","",""
"html-keyboard-response","36","271078","0.0-3.0-6.0-1.3","spark_pilot_norest","9445","3","9","Female","","","","","","","null","<div style=""font-size:60px;"">+</div>","null","fixation","","","","","","","","","","","",""
"learning-instructions","37","289155","0.0-3.0-7.0-0.0","spark_pilot_norest","9445","3","9","Female","","","","","","","1237","<p> Great job. Now let’s try putting it together. </p>
            <p> On each turn, you will first see a picture to remind you of the place you are in, and you need to choose whether to go up or down. </p>
            <p> Then you will see an animal and choose which of its chests to search for treasure. </p>","","instructions","","","","","","","","","","","",""
"learning-instructions","38","298316","0.0-3.0-7.0-0.1","spark_pilot_norest","9445","3","9","Female","","","","","","","890.7000000001863","<p> When you choose whether to go up or down, try to go to the animal with the chest with the most treasure. </p>
            <p> Try practicing that now! </p>","","instructions","","","","","","","","","","","",""
"revaluation","39","304342","0.0-3.0-8.0-0.0","spark_pilot_norest","9445","3","9","Female","","false","","","","","[668.5,927.5]","./assets/img/space/6.jpg","[""ArrowDown"",""ArrowLeft""]","full practice","space","15","{""ArrowUp,ArrowLeft"":3,""ArrowUp,ArrowRight"":36,""ArrowDown,ArrowLeft"":15,""ArrowDown,ArrowRight"":23}","false","ArrowDown,ArrowLeft","false","","","","","",""
"html-keyboard-response","40","304846","0.0-3.0-8.0-1.0","spark_pilot_norest","9445","3","9","Female","","","","","","","null","<div style=""font-size:60px;"">+</div>","null","fixation","","","","","","","","","","","",""
"revaluation","41","310870","0.0-3.0-8.0-0.1","spark_pilot_norest","9445","3","9","Female","","false","","","","","[300.20000000018626,335.59999999962747]","./assets/img/space/7.jpg","[""ArrowUp"",""ArrowRight""]","full practice","space","36","{""ArrowUp,ArrowLeft"":3,""ArrowUp,ArrowRight"":36,""ArrowDown,ArrowLeft"":15,""ArrowDown,ArrowRight"":23}","true","ArrowUp,ArrowRight","false","","","","","",""
"html-keyboard-response","42","311374","0.0-3.0-8.0-1.1","spark_pilot_norest","9445","3","9","Female","","","","","","","null","<div style=""font-size:60px;"">+</div>","null","fixation","","","","","","","","","","","",""
"revaluation","43","317399","0.0-3.0-8.0-0.2","spark_pilot_norest","9445","3","9","Female","","false","","","","","[429,498.79999999981374]","./assets/img/space/8.jpg","[""ArrowUp"",""ArrowLeft""]","full practice","space","3","{""ArrowUp,ArrowLeft"":3,""ArrowUp,ArrowRight"":36,""ArrowDown,ArrowLeft"":15,""ArrowDown,ArrowRight"":23}","false","ArrowUp,ArrowLeft","false","","","","","",""
"html-keyboard-response","44","317902","0.0-3.0-8.0-1.2","spark_pilot_norest","9445","3","9","Female","","","","","","","null","<div style=""font-size:60px;"">+</div>","null","fixation","","","","","","","","","","","",""
"revaluation","45","323926","0.0-3.0-8.0-0.3","spark_pilot_norest","9445","3","9","Female","","false","","","","","[994.5,591.8999999994412]","./assets/img/space/9.jpg","[""ArrowDown"",""ArrowRight""]","full practice","space","23","{""ArrowUp,ArrowLeft"":3,""ArrowUp,ArrowRight"":36,""ArrowDown,ArrowLeft"":15,""ArrowDown,ArrowRight"":23}","false","ArrowDown,ArrowRight","false","","","","","",""
"html-keyboard-response","46","324430","0.0-3.0-8.0-1.3","spark_pilot_norest","9445","3","9","Female","","","","","","","null","<div style=""font-size:60px;"">+</div>","null","fixation","","","","","","","","","","","",""
"revaluation","47","330454","0.0-3.0-8.0-0.4","spark_pilot_norest","9445","3","9","Female","","false","","","","","[654.3999999994412,336.90000000037253]","./assets/img/space/10.jpg","[""ArrowDown"",""ArrowRight""]","full practice","space","23","{""ArrowUp,ArrowLeft"":3,""ArrowUp,ArrowRight"":36,""ArrowDown,ArrowLeft"":15,""ArrowDown,ArrowRight"":23}","false","ArrowDown,ArrowRight","false","","","","","",""
"html-keyboard-response","48","330958","0.0-3.0-8.0-1.4","spark_pilot_norest","9445","3","9","Female","","","","","","","null","<div style=""font-size:60px;"">+</div>","null","fixation","","","","","","","","","","","",""
"learning-instructions","49","342560","0.0-3.0-9.0-0.0","spark_pilot_norest","9445","3","9","Female","","","","","","","1291.7999999998137","<p> One last thing: sometimes, you will see a robber. The robber can be anywhere in the picture. </p>
            <p> If you do not stop them, you will lose treasure. </p>
            <img src='./assets/img/instructions/robber.jpg' class='instructions-image'>","","instructions","","","","","","","","","","","",""
"learning-instructions","50","350161","0.0-3.0-9.0-0.1","spark_pilot_norest","9445","3","9","Female","","","","","","","420","<p> If you see the robber, you should <b>press the space bar</b> rather than using the arrow keys. </p>
            <p> Try practicing that now! </p>","","instructions","","","","","","","","","","","",""
"revaluation","51","354174","0.0-3.0-10.0-0.0","spark_pilot_norest","9445","3","9","Female","","false","","","","","[859.5]","./assets/img/space/catch/0.jpg","[""spaceBar""]","catch practice","space","0","{""ArrowUp,ArrowLeft"":3,""ArrowUp,ArrowRight"":36,""ArrowDown,ArrowLeft"":15,""ArrowDown,ArrowRight"":23}","true","spaceBar","true","","","","","",""
"html-keyboard-response","52","354678","0.0-3.0-10.0-1.0","spark_pilot_norest","9445","3","9","Female","","","","","","","null","<div style=""font-size:60px;"">+</div>","null","fixation","","","","","","","","","","","",""
"revaluation","53","358695","0.0-3.0-10.0-0.1","spark_pilot_norest","9445","3","9","Female","","false","","","","","[633.7000000001863]","./assets/img/space/catch/1.jpg","[""spaceBar""]","catch practice","space","0","{""ArrowUp,ArrowLeft"":3,""ArrowUp,ArrowRight"":36,""ArrowDown,ArrowLeft"":15,""ArrowDown,ArrowRight"":23}","true","spaceBar","true","","","","","",""
"html-keyboard-response","54","359198","0.0-3.0-10.0-1.1","spark_pilot_norest","9445","3","9","Female","","","","","","","null","<div style=""font-size:60px;"">+</div>","null","fixation","","","","","","","","","","","",""
"revaluation","55","363214","0.0-3.0-10.0-0.2","spark_pilot_norest","9445","3","9","Female","","false","","","","","[380.29999999981374]","./assets/img/space/catch/2.jpg","[""spaceBar""]","catch practice","space","0","{""ArrowUp,ArrowLeft"":3,""ArrowUp,ArrowRight"":36,""ArrowDown,ArrowLeft"":15,""ArrowDown,ArrowRight"":23}","true","spaceBar","true","","","","","",""
"html-keyboard-response","56","363718","0.0-3.0-10.0-1.2","spark_pilot_norest","9445","3","9","Female","","","","","","","null","<div style=""font-size:60px;"">+</div>","null","fixation","","","","","","","","","","","",""
"learning-instructions","57","370502","0.0-3.0-11.0-0.0-0.0","spark_pilot_norest","9445","3","9","Female","","","","","","","1508.9000000003725","<p> Now, you will practice a shortened version of the game to get a sense of how it all fits together. </p>","","instructions","","","","","","","","","","","",""
"learning-instructions","58","374429","0.0-3.0-11.0-0.0-0.1","spark_pilot_norest","9445","3","9","Female","","","","","","","728.5","<p>This time you are searching for treasure in outer space.</p>","","instructions","","","","","","","","","","","",""
"learning-instructions","59","390569","0.0-3.0-11.0-1.0-0.0","spark_pilot_norest","9445","3","9","Female","","","","","","","1351.300000000745","<p> Remember, when you see a picture of the place, use the up and down keys to <b>find an animal</b>.</p>
            <p> When you encounter an animal, you should use the left and right keys to <b>select a treasure chest</b>.</p>
            <p> Don't forget to look out for the robber! </p>","","instructions","","","","","","","","","","","",""
"revaluation","60","396591","0.0-3.0-11.0-2.0-0.0","spark_pilot_norest","9445","3","9","Female","","false","","","","","[954,522.9000000003725]","./assets/img/space/11.jpg","[""ArrowUp"",""ArrowLeft""]","practice block","space","3","{""ArrowUp,ArrowLeft"":3,""ArrowUp,ArrowRight"":36,""ArrowDown,ArrowLeft"":15,""ArrowDown,ArrowRight"":23}","false","ArrowUp,ArrowLeft","false","","","","","",""
"html-keyboard-response","61","397094","0.0-3.0-11.0-2.0-1.0","spark_pilot_norest","9445","3","9","Female","","","","","","","null","<div style=""font-size:60px;"">+</div>","null","fixation","","","","","","","","","","","",""
"revaluation","62","403118","0.0-3.0-11.0-2.0-0.1","spark_pilot_norest","9445","3","9","Female","","false","","","","","[909.9000000003725,604]","./assets/img/space/12.jpg","[""ArrowDown"",""ArrowRight""]","practice block","space","23","{""ArrowUp,ArrowLeft"":3,""ArrowUp,ArrowRight"":36,""ArrowDown,ArrowLeft"":15,""ArrowDown,ArrowRight"":23}","false","ArrowDown,ArrowRight","false","","","","","",""
"html-keyboard-response","63","403622","0.0-3.0-11.0-2.0-1.1","spark_pilot_norest","9445","3","9","Female","","","","","","","null","<div style=""font-size:60px;"">+</div>","null","fixation","","","","","","","","","","","",""
"revaluation","64","409646","0.0-3.0-11.0-2.0-0.2","spark_pilot_norest","9445","3","9","Female","","false","","","","","[687.0999999996275,613.9000000003725]","./assets/img/space/13.jpg","[""ArrowDown"",""ArrowRight""]","practice block","space","23","{""ArrowUp,ArrowLeft"":3,""ArrowUp,ArrowRight"":36,""ArrowDown,ArrowLeft"":15,""ArrowDown,ArrowRight"":23}","false","ArrowDown,ArrowRight","false","","","","","",""
"html-keyboard-response","65","410150","0.0-3.0-11.0-2.0-1.2","spark_pilot_norest","9445","3","9","Female","","","","","","","null","<div style=""font-size:60px;"">+</div>","null","fixation","","","","","","","","","","","",""
"revaluation","66","416174","0.0-3.0-11.0-2.0-0.3","spark_pilot_norest","9445","3","9","Female","","false","","","","","[818.5,552.0999999996275]","./assets/img/space/14.jpg","[""ArrowDown"",""ArrowRight""]","practice block","space","23","{""ArrowUp,ArrowLeft"":3,""ArrowUp,ArrowRight"":36,""ArrowDown,ArrowLeft"":15,""ArrowDown,ArrowRight"":23}","false","ArrowDown,ArrowRight","false","","","","","",""
"html-keyboard-response","67","416678","0.0-3.0-11.0-2.0-1.3","spark_pilot_norest","9445","3","9","Female","","","","","","","null","<div style=""font-size:60px;"">+</div>","null","fixation","","","","","","","","","","","",""
"revaluation","68","422702","0.0-3.0-11.0-2.0-0.4","spark_pilot_norest","9445","3","9","Female","","false","","","","","[674.0999999996275,283.29999999981374]","./assets/img/space/11.jpg","[""ArrowUp"",""ArrowRight""]","practice block","space","36","{""ArrowUp,ArrowLeft"":3,""ArrowUp,ArrowRight"":36,""ArrowDown,ArrowLeft"":15,""ArrowDown,ArrowRight"":23}","true","ArrowUp,ArrowRight","false","","","","","",""
"html-keyboard-response","69","423206","0.0-3.0-11.0-2.0-1.4","spark_pilot_norest","9445","3","9","Female","","","","","","","null","<div style=""font-size:60px;"">+</div>","null","fixation","","","","","","","","","","","",""
"revaluation","70","429230","0.0-3.0-11.0-2.0-0.5","spark_pilot_norest","9445","3","9","Female","","false","","","","","[626.1999999992549,489.70000000018626]","./assets/img/space/12.jpg","[""ArrowUp"",""ArrowRight""]","practice block","space","36","{""ArrowUp,ArrowLeft"":3,""ArrowUp,ArrowRight"":36,""ArrowDown,ArrowLeft"":15,""ArrowDown,ArrowRight"":23}","true","ArrowUp,ArrowRight","false","","","","","",""
"html-keyboard-response","71","429733","0.0-3.0-11.0-2.0-1.5","spark_pilot_norest","9445","3","9","Female","","","","","","","null","<div style=""font-size:60px;"">+</div>","null","fixation","","","","","","","","","","","",""
"revaluation","72","435758","0.0-3.0-11.0-2.0-0.6","spark_pilot_norest","9445","3","9","Female","","false","","","","","[764,379.5]","./assets/img/space/13.jpg","[""ArrowUp"",""ArrowRight""]","practice block","space","36","{""ArrowUp,ArrowLeft"":3,""ArrowUp,ArrowRight"":36,""ArrowDown,ArrowLeft"":15,""ArrowDown,ArrowRight"":23}","true","ArrowUp,ArrowRight","false","","","","","",""
"html-keyboard-response","73","436262","0.0-3.0-11.0-2.0-1.6","spark_pilot_norest","9445","3","9","Female","","","","","","","null","<div style=""font-size:60px;"">+</div>","null","fixation","","","","","","","","","","","",""
"revaluation","74","442286","0.0-3.0-11.0-2.0-0.7","spark_pilot_norest","9445","3","9","Female","","false","","","","","[636.8999999994412,617.8999999994412]","./assets/img/space/14.jpg","[""ArrowUp"",""ArrowRight""]","practice block","space","36","{""ArrowUp,ArrowLeft"":3,""ArrowUp,ArrowRight"":36,""ArrowDown,ArrowLeft"":15,""ArrowDown,ArrowRight"":23}","true","ArrowUp,ArrowRight","false","","","","","",""
"html-keyboard-response","75","442790","0.0-3.0-11.0-2.0-1.7","spark_pilot_norest","9445","3","9","Female","","","","","","","null","<div style=""font-size:60px;"">+</div>","null","fixation","","","","","","","","","","","",""
"revaluation","76","446807","0.0-3.0-11.0-2.0-0.8","spark_pilot_norest","9445","3","9","Female","","false","","","","","[603.7000000001863]","./assets/img/space/catch/3.jpg","[""spaceBar""]","practice block","space","0","{""ArrowUp,ArrowLeft"":3,""ArrowUp,ArrowRight"":36,""ArrowDown,ArrowLeft"":15,""ArrowDown,ArrowRight"":23}","true","spaceBar","true","","","","","",""
"html-keyboard-response","77","447310","0.0-3.0-11.0-2.0-1.8","spark_pilot_norest","9445","3","9","Female","","","","","","","null","<div style=""font-size:60px;"">+</div>","null","fixation","","","","","","","","","","","",""
"learning-instructions","78","461686","0.0-3.0-11.0-3.0-0.0","spark_pilot_norest","9445","3","9","Female","","","","","","","1352.199999999255","<p> Now, you will travel with a friend who will choose whether you go up or down first. </p>
            <p> On these turns, you will just see the animal that they found. You will still get to choose which chest to search for treasure.</p>","","instructions","","","","","","","","","","","",""
"revaluation","79","465702","0.0-3.0-11.0-4.0-0.0","spark_pilot_norest","9445","3","9","Female","","false","","","","","[1010.4000000003725]","./assets/img/space/animals/rabbit.jpg","[""ArrowRight""]","practice block","space","23","{""ArrowUp,ArrowLeft"":3,""ArrowUp,ArrowRight"":36,""ArrowDown,ArrowLeft"":15,""ArrowDown,ArrowRight"":23}","true","ArrowDown,ArrowRight","","","","","","",""
"html-keyboard-response","80","466206","0.0-3.0-11.0-4.0-1.0","spark_pilot_norest","9445","3","9","Female","","","","","","","null","<div style=""font-size:60px;"">+</div>","null","fixation","","","","","","","","","","","",""
"revaluation","81","470222","0.0-3.0-11.0-4.0-0.1","spark_pilot_norest","9445","3","9","Female","","false","","","","","[759.5999999996275]","./assets/img/space/animals/cat.jpg","[""ArrowRight""]","practice block","space","36","{""ArrowUp,ArrowLeft"":3,""ArrowUp,ArrowRight"":36,""ArrowDown,ArrowLeft"":15,""ArrowDown,ArrowRight"":23}","true","ArrowUp,ArrowRight","","","","","","",""
"html-keyboard-response","82","470726","0.0-3.0-11.0-4.0-1.1","spark_pilot_norest","9445","3","9","Female","","","","","","","null","<div style=""font-size:60px;"">+</div>","null","fixation","","","","","","","","","","","",""
"revaluation","83","474742","0.0-3.0-11.0-4.0-0.2","spark_pilot_norest","9445","3","9","Female","","false","","","","","[492.5]","./assets/img/space/animals/cat.jpg","[""ArrowRight""]","practice block","space","36","{""ArrowUp,ArrowLeft"":3,""ArrowUp,ArrowRight"":36,""ArrowDown,ArrowLeft"":15,""ArrowDown,ArrowRight"":23}","true","ArrowUp,ArrowRight","","","","","","",""
"html-keyboard-response","84","475246","0.0-3.0-11.0-4.0-1.2","spark_pilot_norest","9445","3","9","Female","","","","","","","null","<div style=""font-size:60px;"">+</div>","null","fixation","","","","","","","","","","","",""
"revaluation","85","479262","0.0-3.0-11.0-4.0-0.3","spark_pilot_norest","9445","3","9","Female","","false","","","","","[565]","./assets/img/space/animals/rabbit.jpg","[""ArrowRight""]","practice block","space","23","{""ArrowUp,ArrowLeft"":3,""ArrowUp,ArrowRight"":36,""ArrowDown,ArrowLeft"":15,""ArrowDown,ArrowRight"":23}","true","ArrowDown,ArrowRight","","","","","","",""
"html-keyboard-response","86","479766","0.0-3.0-11.0-4.0-1.3","spark_pilot_norest","9445","3","9","Female","","","","","","","null","<div style=""font-size:60px;"">+</div>","null","fixation","","","","","","","","","","","",""
"learning-instructions","87","487894","0.0-3.0-11.0-5.0-0.0","spark_pilot_norest","9445","3","9","Female","","","","","","","null","<p> You have almost finished this part of the game! </p>
            <p> We are going to ask you to make a few more choices. </p>","","instructions","","","","","","","","","","","",""
"learning-instructions","88","503926","0.0-3.0-11.0-5.0-0.1","spark_pilot_norest","9445","3","9","Female","","","","","","","null","<p> First, you need to decide whether to go up or down. When you see each picture, use the arrow keys to make your choice. </p>
            <p><b>You will not see which animal you found, but try to get to the one that will give you the most treasure.</b></p>","","instructions","","","","","","","","","","","",""
"html-keyboard-response","89","504934","0.0-3.0-11.0-6.0-0.0","spark_pilot_norest","9445","3","9","Female","","","","","","","null","<div style=""font-size:100px;color:red;"">Starting in...</div>","null","","","","","","","","","","","","",""
"html-keyboard-response","90","505942","0.0-3.0-11.0-6.0-1.0","spark_pilot_norest","9445","3","9","Female","","","","","","","null","<div style=""font-size:200px;color:red;"">3</div>","null","","","","","","","","","","","","",""
"html-keyboard-response","91","506950","0.0-3.0-11.0-6.0-2.0","spark_pilot_norest","9445","3","9","Female","","","","","","","null","<div style=""font-size:200px;color:red;"">2</div>","null","","","","","","","","","","","","",""
"html-keyboard-response","92","507958","0.0-3.0-11.0-6.0-3.0","spark_pilot_norest","9445","3","9","Female","","","","","","","null","<div style=""font-size:200px;color:red;"">1</div>","null","","","","","","","","","","","","",""
"revaluation","93","508600","0.0-3.0-11.0-7.0","spark_pilot_norest","9445","3","9","Female","","false","","","","","[636.8999999994412]","./assets/img/space/15.jpg","[""ArrowUp""]","practice block","space","0","{""ArrowUp,ArrowLeft"":3,""ArrowUp,ArrowRight"":36,""ArrowDown,ArrowLeft"":15,""ArrowDown,ArrowRight"":23}","true","ArrowUp","false","","","","","",""
"html-keyboard-response","94","509102","0.0-3.0-11.0-8.0","spark_pilot_norest","9445","3","9","Female","","","","","","","null","<div style=""font-size:60px;"">+</div>","null","fixation","","","","","","","","","","","",""
"learning-instructions","95","522510","0.0-3.0-11.0-9.0-0.0","spark_pilot_norest","9445","3","9","Female","","","","","","","null","<p> Now you will see the animals again and can search their chests for treasure. </p>
            <p> This time, you will not see how much treasure you earned, but you will earn more bonus money for making better choices. </p>","","instructions","","","","","","","","","","","",""
"html-keyboard-response","96","523518","0.0-3.0-11.0-10.0-0.0","spark_pilot_norest","9445","3","9","Female","","","","","","","null","<div style=""font-size:100px;color:red;"">Starting in...</div>","null","","","","","","","","","","","","",""
"html-keyboard-response","97","524526","0.0-3.0-11.0-10.0-1.0","spark_pilot_norest","9445","3","9","Female","","","","","","","null","<div style=""font-size:200px;color:red;"">3</div>","null","","","","","","","","","","","","",""
"html-keyboard-response","98","525534","0.0-3.0-11.0-10.0-2.0","spark_pilot_norest","9445","3","9","Female","","","","","","","null","<div style=""font-size:200px;color:red;"">2</div>","null","","","","","","","","","","","","",""
"html-keyboard-response","99","526542","0.0-3.0-11.0-10.0-3.0","spark_pilot_norest","9445","3","9","Female","","","","","","","null","<div style=""font-size:200px;color:red;"">1</div>","null","","","","","","","","","","","","",""
"revaluation","100","527104","0.0-3.0-11.0-11.0-0.0","spark_pilot_norest","9445","3","9","Female","","false","","","","","[556.7000000001863]","./assets/img/space/animals/cat.jpg","[""ArrowRight""]","practice block","space","0","{""ArrowUp,ArrowLeft"":3,""ArrowUp,ArrowRight"":36,""ArrowDown,ArrowLeft"":15,""ArrowDown,ArrowRight"":23}","true","ArrowUp,ArrowRight","","","","","","",""
"html-keyboard-response","101","527606","0.0-3.0-11.0-11.0-1.0","spark_pilot_norest","9445","3","9","Female","","","","","","","null","<div style=""font-size:60px;"">+</div>","null","fixation","","","","","","","","","","","",""
"revaluation","102","528246","0.0-3.0-11.0-11.0-0.1","spark_pilot_norest","9445","3","9","Female","","false","","","","","[635.7000000001863]","./assets/img/space/animals/rabbit.jpg","[""ArrowRight""]","practice block","space","0","{""ArrowUp,ArrowLeft"":3,""ArrowUp,ArrowRight"":36,""ArrowDown,ArrowLeft"":15,""ArrowDown,ArrowRight"":23}","true","ArrowDown,ArrowRight","","","","","","",""
"html-keyboard-response","103","528750","0.0-3.0-11.0-11.0-1.1","spark_pilot_norest","9445","3","9","Female","","","","","","","null","<div style=""font-size:60px;"">+</div>","null","fixation","","","","","","","","","","","",""
"learning-instructions","104","535093","0.0-3.0-12.0-0.0","spark_pilot_norest","9445","3","9","Female","","","","","","","1752.1000000005588","<p> Before you start, we're going to ask you a few questions about how the game works. </p>","","instructions","","","","","","","","","","","",""
"comp-q","105","544156","0.0-3.0-13.0-0.0-0.0","spark_pilot_norest","9445","3","9","Female","","","","","","","3458.5","<p> <b> True or False? </b> </p>
            <p> There can be 50 pieces of treasure in a given animal's chest. </p>","0","comp_question","","","","false","","","","","","","",""
"comp-q","106","551824","0.0-3.0-13.0-0.0-1.0","spark_pilot_norest","9445","3","9","Female","","","","","","","1129.8999999994412","<p> <b>Incorrect.</b> The amount of treasure in each chest can range from 0 to 40 pieces. </p>","0","comp_answer","","","","","","","","","","","",""
"comp-q","107","558235","0.0-3.0-13.0-0.1-0.1","spark_pilot_norest","9445","3","9","Female","","","","","","","839.2000000001863","<p> <b> True or False? </b> </p>
            <p> There can be 50 pieces of treasure in a given animal's chest. </p>","1","comp_question","","","","true","","","","","","","",""
"comp-q","108","565930","0.0-3.0-13.0-0.1-1.1","spark_pilot_norest","9445","3","9","Female","","","","","","","1031.5999999996275","<p> <b> That's right! </b> The amount of treasure in each chest can range from 0 to 40 pieces. </p>","0","comp_answer","","","","","","","","","","","",""
"comp-q","109","573900","0.0-3.0-13.0-0.2-0.2","spark_pilot_norest","9445","3","9","Female","","","","","","","836.9000000003725","<p> <b> True or False? </b> </p><p> In this game, all animals have the same amount of treasure in their left and right chests. </p>","1","comp_question","","","","true","","","","","","","",""
"comp-q","110","581451","0.0-3.0-13.0-0.2-1.2","spark_pilot_norest","9445","3","9","Female","","","","","","","2305.2000000001863","<p> <b> That's right! </b> Animals have different amounts of treasure in their treasure chests. </p>","0","comp_answer","","","","","","","","","","","",""
"comp-q","111","588699","0.0-3.0-13.0-0.3-0.3","spark_pilot_norest","9445","3","9","Female","","","","","","","1388.7999999998137","<p> <b> True or False? </b> </p><p> The same animal will always be there if you go up in the same place. </p>","0","comp_question","","","","true","","","","","","","",""
"comp-q","112","596199","0.0-3.0-13.0-0.3-1.3","spark_pilot_norest","9445","3","9","Female","","","","","","","1044.2000000001863","<p> <b> That's right! </b> One animal lives in the upper part and one lives in the lower part of every place. </p>","0","comp_answer","","","","","","","","","","","",""
"comp-q","113","602749","0.0-3.0-13.0-0.4-0.4","spark_pilot_norest","9445","3","9","Female","","","","","","","1010.8999999994412","<p> <b> True or False? </b> </p><p> If you see a different picture, it means you are in a new place. </p>","1","comp_question","","","","true","","","","","","","",""
"comp-q","114","616034","0.0-3.0-13.0-0.4-1.4","spark_pilot_norest","9445","3","9","Female","","","","","","","2033.2000000001863","<p> <b> That's right! </b> Lots of different images may show the same place. For example,  you may see three different images that all remind you that you are in outer space. </p>","0","comp_answer","","","","","","","","","","","",""
"learning-instructions","115","628224","0.0-3.0-14.0-0.0","spark_pilot_norest","9445","3","9","Female","","","","","","","2324.7000000001863","<p> Good job. Remember to do your best because the amount of treasure you earn will be converted into bonus money. </p>
            <p> It’s time to start the real game! </p>","","instructions","","","","","","","","","","","",""
"learning-instructions","116","645327","0.0-4.0-0.0-0.0","spark_pilot_norest","9445","3","9","Female","","","","","","","14379.599999999627","<p> This time you are searching for treasure in the <b>ocean</b>.</p>","","instructions","","","","","","","","","","","",""
"learning-instructions","117","667028","0.0-4.0-0.0-0.1","spark_pilot_norest","9445","3","9","Female","","","","","","","4373.5999999996275","<p><b>New</b> animals with <b>new</b> treasure chests live here. You need to explore to discover where the animal with the best treasure chest is.</p>
                    <p> Like before, once you figure out which animal has the chest with the most treasure, you should try to get to that animal and select that chest! </p>","","instructions","","","","","","","","","","","",""
"learning-instructions","118","736860","0.0-4.0-1.0-0.0","spark_pilot_norest","9445","3","9","Female","","","","","","","55092.299999999814","<p> Remember, when you see a picture of the place, use the up and down keys to <b>find an animal</b>.</p>
            <p> When you encounter an animal, you should use the left and right keys to <b>select a treasure chest</b>.</p>
            <p> Don't forget to look out for the robber! </p>","","instructions","","","","","","","","","","","",""
"revaluation","119","742887","0.0-4.0-2.0-0.0","spark_pilot_norest","9445","3","9","Female","","false","","","","","[1042.7000000001863,729.2999999998137]","./assets/img/ocean/memory/33.jpg","[""ArrowUp"",""ArrowRight""]","value training","ocean","10","{""ArrowUp,ArrowLeft"":23,""ArrowUp,ArrowRight"":10,""ArrowDown,ArrowLeft"":8,""ArrowDown,ArrowRight"":30}","false","ArrowUp,ArrowRight","false","original","1","0","","",""
"html-keyboard-response","120","743398","0.0-4.0-2.0-1.0","spark_pilot_norest","9445","3","9","Female","","","","","","","null","<div style=""font-size:60px;"">+</div>","null","fixation","","","","","","","","","1","","",""
"revaluation","121","749422","0.0-4.0-2.0-0.1","spark_pilot_norest","9445","3","9","Female","","false","","","","","[567.0999999996275,978.8999999994412]","./assets/img/ocean/memory/9.jpg","[""ArrowUp"",""ArrowLeft""]","value training","ocean","23","{""ArrowUp,ArrowLeft"":23,""ArrowUp,ArrowRight"":10,""ArrowDown,ArrowLeft"":8,""ArrowDown,ArrowRight"":30}","false","ArrowUp,ArrowLeft","false","original","1","2","","",""
"html-keyboard-response","122","749926","0.0-4.0-2.0-1.1","spark_pilot_norest","9445","3","9","Female","","","","","","","null","<div style=""font-size:60px;"">+</div>","null","fixation","","","","","","","","","3","","",""
"revaluation","123","755950","0.0-4.0-2.0-0.2","spark_pilot_norest","9445","3","9","Female","","false","","","","","[462.29999999981374,503.20000000018626]","./assets/img/ocean/memory/6.jpg","[""ArrowDown"",""ArrowLeft""]","value training","ocean","8","{""ArrowUp,ArrowLeft"":23,""ArrowUp,ArrowRight"":10,""ArrowDown,ArrowLeft"":8,""ArrowDown,ArrowRight"":30}","false","ArrowDown,ArrowLeft","false","original","1","4","","",""
"html-keyboard-response","124","756454","0.0-4.0-2.0-1.2","spark_pilot_norest","9445","3","9","Female","","","","","","","null","<div style=""font-size:60px;"">+</div>","null","fixation","","","","","","","","","5","","",""
"revaluation","125","762478","0.0-4.0-2.0-0.3","spark_pilot_norest","9445","3","9","Female","","false","","","","","[317.59999999962747,468.70000000018626]","./assets/img/ocean/memory/4.jpg","[""ArrowUp"",""ArrowLeft""]","value training","ocean","23","{""ArrowUp,ArrowLeft"":23,""ArrowUp,ArrowRight"":10,""ArrowDown,ArrowLeft"":8,""ArrowDown,ArrowRight"":30}","false","ArrowUp,ArrowLeft","false","original","1","6","","",""
"html-keyboard-response","126","762982","0.0-4.0-2.0-1.3","spark_pilot_norest","9445","3","9","Female","","","","","","","null","<div style=""font-size:60px;"">+</div>","null","fixation","","","","","","","","","7","","",""
"revaluation","127","766998","0.0-4.0-2.0-0.4","spark_pilot_norest","9445","3","9","Female","","false","","","","","[452.8999999994412]","./assets/img/ocean/catch/6.jpg","[""ArrowDown""]","value training","ocean","-10","{""ArrowUp,ArrowLeft"":23,""ArrowUp,ArrowRight"":10,""ArrowDown,ArrowLeft"":8,""ArrowDown,ArrowRight"":30}","false","ArrowDown","true","original","1","8","","",""
"html-keyboard-response","128","767502","0.0-4.0-2.0-1.4","spark_pilot_norest","9445","3","9","Female","","","","","","","null","<div style=""font-size:60px;"">+</div>","null","fixation","","","","","","","","","9","","",""
"revaluation","129","773526","0.0-4.0-2.0-0.5","spark_pilot_norest","9445","3","9","Female","","false","","","","","[701.7999999998137,782.2999999998137]","./assets/img/ocean/memory/3.jpg","[""ArrowDown"",""ArrowRight""]","value training","ocean","30","{""ArrowUp,ArrowLeft"":23,""ArrowUp,ArrowRight"":10,""ArrowDown,ArrowLeft"":8,""ArrowDown,ArrowRight"":30}","true","ArrowDown,ArrowRight","false","original","1","10","","",""
"html-keyboard-response","130","774030","0.0-4.0-2.0-1.5","spark_pilot_norest","9445","3","9","Female","","","","","","","null","<div style=""font-size:60px;"">+</div>","null","fixation","","","","","","","","","11","","",""
"revaluation","131","780054","0.0-4.0-2.0-0.6","spark_pilot_norest","9445","3","9","Female","","false","","","","","[461.59999999962747,489.5]","./assets/img/ocean/memory/5.jpg","[""ArrowDown"",""ArrowRight""]","value training","ocean","30","{""ArrowUp,ArrowLeft"":23,""ArrowUp,ArrowRight"":10,""ArrowDown,ArrowLeft"":8,""ArrowDown,ArrowRight"":30}","true","ArrowDown,ArrowRight","false","original","1","12","","",""
"html-keyboard-response","132","780558","0.0-4.0-2.0-1.6","spark_pilot_norest","9445","3","9","Female","","","","","","","null","<div style=""font-size:60px;"">+</div>","null","fixation","","","","","","","","","13","","",""
"revaluation","133","786582","0.0-4.0-2.0-0.7","spark_pilot_norest","9445","3","9","Female","","false","","","","","[571.4000000003725,518.2999999998137]","./assets/img/ocean/memory/2.jpg","[""ArrowDown"",""ArrowRight""]","value training","ocean","30","{""ArrowUp,ArrowLeft"":23,""ArrowUp,ArrowRight"":10,""ArrowDown,ArrowLeft"":8,""ArrowDown,ArrowRight"":30}","true","ArrowDown,ArrowRight","false","original","1","14","","",""
"html-keyboard-response","134","787086","0.0-4.0-2.0-1.7","spark_pilot_norest","9445","3","9","Female","","","","","","","null","<div style=""font-size:60px;"">+</div>","null","fixation","","","","","","","","","15","","",""
"revaluation","135","791102","0.0-4.0-2.0-0.8","spark_pilot_norest","9445","3","9","Female","","false","","","","","[475.70000000018626]","./assets/img/ocean/catch/0.jpg","[""spaceBar""]","value training","ocean","0","{""ArrowUp,ArrowLeft"":23,""ArrowUp,ArrowRight"":10,""ArrowDown,ArrowLeft"":8,""ArrowDown,ArrowRight"":30}","true","spaceBar","true","original","1","16","","",""
"html-keyboard-response","136","791606","0.0-4.0-2.0-1.8","spark_pilot_norest","9445","3","9","Female","","","","","","","null","<div style=""font-size:60px;"">+</div>","null","fixation","","","","","","","","","17","","",""
"revaluation","137","797630","0.0-4.0-2.0-0.9","spark_pilot_norest","9445","3","9","Female","","false","","","","","[883.5999999996275,495.29999999981374]","./assets/img/ocean/memory/21.jpg","[""ArrowUp"",""ArrowLeft""]","value training","ocean","23","{""ArrowUp,ArrowLeft"":23,""ArrowUp,ArrowRight"":10,""ArrowDown,ArrowLeft"":8,""ArrowDown,ArrowRight"":30}","false","ArrowUp,ArrowLeft","false","original","1","18","","",""
"html-keyboard-response","138","798134","0.0-4.0-2.0-1.9","spark_pilot_norest","9445","3","9","Female","","","","","","","null","<div style=""font-size:60px;"">+</div>","null","fixation","","","","","","","","","19","","",""
"revaluation","139","804158","0.0-4.0-2.0-0.10","spark_pilot_norest","9445","3","9","Female","","false","","","","","[644.3999999994412,443.5]","./assets/img/ocean/memory/33.jpg","[""ArrowDown"",""ArrowRight""]","value training","ocean","30","{""ArrowUp,ArrowLeft"":23,""ArrowUp,ArrowRight"":10,""ArrowDown,ArrowLeft"":8,""ArrowDown,ArrowRight"":30}","true","ArrowDown,ArrowRight","false","original","1","20","","",""
"html-keyboard-response","140","804662","0.0-4.0-2.0-1.10","spark_pilot_norest","9445","3","9","Female","","","","","","","null","<div style=""font-size:60px;"">+</div>","null","fixation","","","","","","","","","21","","",""
"revaluation","141","810686","0.0-4.0-2.0-0.11","spark_pilot_norest","9445","3","9","Female","","false","","","","","[456.8999999994412,637.7999999998137]","./assets/img/ocean/memory/7.jpg","[""ArrowUp"",""ArrowRight""]","value training","ocean","10","{""ArrowUp,ArrowLeft"":23,""ArrowUp,ArrowRight"":10,""ArrowDown,ArrowLeft"":8,""ArrowDown,ArrowRight"":30}","false","ArrowUp,ArrowRight","false","original","1","22","","",""
"html-keyboard-response","142","811190","0.0-4.0-2.0-1.11","spark_pilot_norest","9445","3","9","Female","","","","","","","null","<div style=""font-size:60px;"">+</div>","null","fixation","","","","","","","","","23","","",""
"revaluation","143","815206","0.0-4.0-2.0-0.12","spark_pilot_norest","9445","3","9","Female","","false","","","","","[683.5]","./assets/img/ocean/catch/1.jpg","[""spaceBar""]","value training","ocean","0","{""ArrowUp,ArrowLeft"":23,""ArrowUp,ArrowRight"":10,""ArrowDown,ArrowLeft"":8,""ArrowDown,ArrowRight"":30}","true","spaceBar","true","original","1","24","","",""
"html-keyboard-response","144","815710","0.0-4.0-2.0-1.12","spark_pilot_norest","9445","3","9","Female","","","","","","","null","<div style=""font-size:60px;"">+</div>","null","fixation","","","","","","","","","25","","",""
"revaluation","145","821734","0.0-4.0-2.0-0.13","spark_pilot_norest","9445","3","9","Female","","false","","","","","[568.6000000005588,1045.7999999998137]","./assets/img/ocean/memory/5.jpg","[""ArrowUp"",""ArrowLeft""]","value training","ocean","23","{""ArrowUp,ArrowLeft"":23,""ArrowUp,ArrowRight"":10,""ArrowDown,ArrowLeft"":8,""ArrowDown,ArrowRight"":30}","false","ArrowUp,ArrowLeft","false","original","1","26","","",""
"html-keyboard-response","146","822238","0.0-4.0-2.0-1.13","spark_pilot_norest","9445","3","9","Female","","","","","","","null","<div style=""font-size:60px;"">+</div>","null","fixation","","","","","","","","","27","","",""
"revaluation","147","828262","0.0-4.0-2.0-0.14","spark_pilot_norest","9445","3","9","Female","","false","","","","","[963.5999999996275,510.29999999981374]","./assets/img/ocean/memory/25.jpg","[""ArrowUp"",""ArrowLeft""]","value training","ocean","23","{""ArrowUp,ArrowLeft"":23,""ArrowUp,ArrowRight"":10,""ArrowDown,ArrowLeft"":8,""ArrowDown,ArrowRight"":30}","false","ArrowUp,ArrowLeft","false","original","1","28","","",""
"html-keyboard-response","148","828766","0.0-4.0-2.0-1.14","spark_pilot_norest","9445","3","9","Female","","","","","","","null","<div style=""font-size:60px;"">+</div>","null","fixation","","","","","","","","","29","","",""
"revaluation","149","834790","0.0-4.0-2.0-0.15","spark_pilot_norest","9445","3","9","Female","","false","","","","","[693.8999999994412,556]","./assets/img/ocean/memory/28.jpg","[""ArrowDown"",""ArrowRight""]","value training","ocean","30","{""ArrowUp,ArrowLeft"":23,""ArrowUp,ArrowRight"":10,""ArrowDown,ArrowLeft"":8,""ArrowDown,ArrowRight"":30}","true","ArrowDown,ArrowRight","false","original","1","30","","",""
"html-keyboard-response","150","835294","0.0-4.0-2.0-1.15","spark_pilot_norest","9445","3","9","Female","","","","","","","null","<div style=""font-size:60px;"">+</div>","null","fixation","","","","","","","","","31","","",""
"revaluation","151","839310","0.0-4.0-2.0-0.16","spark_pilot_norest","9445","3","9","Female","","false","","","","","[648.4000000003725]","./assets/img/ocean/catch/4.jpg","[""spaceBar""]","value training","ocean","0","{""ArrowUp,ArrowLeft"":23,""ArrowUp,ArrowRight"":10,""ArrowDown,ArrowLeft"":8,""ArrowDown,ArrowRight"":30}","true","spaceBar","true","original","1","32","","",""
"html-keyboard-response","152","839814","0.0-4.0-2.0-1.16","spark_pilot_norest","9445","3","9","Female","","","","","","","null","<div style=""font-size:60px;"">+</div>","null","fixation","","","","","","","","","33","","",""
"revaluation","153","845838","0.0-4.0-2.0-0.17","spark_pilot_norest","9445","3","9","Female","","false","","","","","[773.0999999996275,539]","./assets/img/ocean/memory/21.jpg","[""ArrowDown"",""ArrowRight""]","value training","ocean","30","{""ArrowUp,ArrowLeft"":23,""ArrowUp,ArrowRight"":10,""ArrowDown,ArrowLeft"":8,""ArrowDown,ArrowRight"":30}","true","ArrowDown,ArrowRight","false","original","1","34","","",""
"html-keyboard-response","154","846342","0.0-4.0-2.0-1.17","spark_pilot_norest","9445","3","9","Female","","","","","","","null","<div style=""font-size:60px;"">+</div>","null","fixation","","","","","","","","","35","","",""
"revaluation","155","852366","0.0-4.0-2.0-0.18","spark_pilot_norest","9445","3","9","Female","","false","","","","","[781.1999999992549,552]","./assets/img/ocean/memory/30.jpg","[""ArrowUp"",""ArrowLeft""]","value training","ocean","23","{""ArrowUp,ArrowLeft"":23,""ArrowUp,ArrowRight"":10,""ArrowDown,ArrowLeft"":8,""ArrowDown,ArrowRight"":30}","false","ArrowUp,ArrowLeft","false","original","1","36","","",""
"html-keyboard-response","156","852870","0.0-4.0-2.0-1.18","spark_pilot_norest","9445","3","9","Female","","","","","","","null","<div style=""font-size:60px;"">+</div>","null","fixation","","","","","","","","","37","","",""
"revaluation","157","858894","0.0-4.0-2.0-0.19","spark_pilot_norest","9445","3","9","Female","","false","","","","","[700.7000000001863,764.5]","./assets/img/ocean/memory/6.jpg","[""ArrowDown"",""ArrowRight""]","value training","ocean","30","{""ArrowUp,ArrowLeft"":23,""ArrowUp,ArrowRight"":10,""ArrowDown,ArrowLeft"":8,""ArrowDown,ArrowRight"":30}","true","ArrowDown,ArrowRight","false","original","1","38","","",""
"html-keyboard-response","158","859398","0.0-4.0-2.0-1.19","spark_pilot_norest","9445","3","9","Female","","","","","","","null","<div style=""font-size:60px;"">+</div>","null","fixation","","","","","","","","","39","","",""
"revaluation","159","865422","0.0-4.0-2.0-0.20","spark_pilot_norest","9445","3","9","Female","","false","","","","","[652.9000000003725,705.5]","./assets/img/ocean/memory/4.jpg","[""ArrowUp"",""ArrowLeft""]","value training","ocean","23","{""ArrowUp,ArrowLeft"":23,""ArrowUp,ArrowRight"":10,""ArrowDown,ArrowLeft"":8,""ArrowDown,ArrowRight"":30}","false","ArrowUp,ArrowLeft","false","original","1","40","","",""
"html-keyboard-response","160","865926","0.0-4.0-2.0-1.20","spark_pilot_norest","9445","3","9","Female","","","","","","","null","<div style=""font-size:60px;"">+</div>","null","fixation","","","","","","","","","41","","",""
"revaluation","161","871950","0.0-4.0-2.0-0.21","spark_pilot_norest","9445","3","9","Female","","false","","","","","[1203,560.2999999998137]","./assets/img/ocean/memory/20.jpg","[""ArrowDown"",""ArrowRight""]","value training","ocean","30","{""ArrowUp,ArrowLeft"":23,""ArrowUp,ArrowRight"":10,""ArrowDown,ArrowLeft"":8,""ArrowDown,ArrowRight"":30}","true","ArrowDown,ArrowRight","false","original","1","42","","",""
"html-keyboard-response","162","872454","0.0-4.0-2.0-1.21","spark_pilot_norest","9445","3","9","Female","","","","","","","null","<div style=""font-size:60px;"">+</div>","null","fixation","","","","","","","","","43","","",""
"revaluation","163","876470","0.0-4.0-2.0-0.22","spark_pilot_norest","9445","3","9","Female","","false","","","","","[501.79999999981374]","./assets/img/ocean/catch/2.jpg","[""spaceBar""]","value training","ocean","0","{""ArrowUp,ArrowLeft"":23,""ArrowUp,ArrowRight"":10,""ArrowDown,ArrowLeft"":8,""ArrowDown,ArrowRight"":30}","true","spaceBar","true","original","1","44","","",""
"html-keyboard-response","164","876974","0.0-4.0-2.0-1.22","spark_pilot_norest","9445","3","9","Female","","","","","","","null","<div style=""font-size:60px;"">+</div>","null","fixation","","","","","","","","","45","","",""
"revaluation","165","882999","0.0-4.0-2.0-0.23","spark_pilot_norest","9445","3","9","Female","","false","","","","","[668.9000000003725,718.3999999994412]","./assets/img/ocean/memory/41.jpg","[""ArrowUp"",""ArrowRight""]","value training","ocean","10","{""ArrowUp,ArrowLeft"":23,""ArrowUp,ArrowRight"":10,""ArrowDown,ArrowLeft"":8,""ArrowDown,ArrowRight"":30}","false","ArrowUp,ArrowRight","false","original","1","46","","",""
"html-keyboard-response","166","883502","0.0-4.0-2.0-1.23","spark_pilot_norest","9445","3","9","Female","","","","","","","null","<div style=""font-size:60px;"">+</div>","null","fixation","","","","","","","","","47","","",""
"revaluation","167","887518","0.0-4.0-2.0-0.24","spark_pilot_norest","9445","3","9","Female","","false","","","","","[755.8000000007451]","./assets/img/ocean/catch/5.jpg","[""spaceBar""]","value training","ocean","0","{""ArrowUp,ArrowLeft"":23,""ArrowUp,ArrowRight"":10,""ArrowDown,ArrowLeft"":8,""ArrowDown,ArrowRight"":30}","true","spaceBar","true","original","1","48","","",""
"html-keyboard-response","168","888022","0.0-4.0-2.0-1.24","spark_pilot_norest","9445","3","9","Female","","","","","","","null","<div style=""font-size:60px;"">+</div>","null","fixation","","","","","","","","","49","","",""
"revaluation","169","894046","0.0-4.0-2.0-0.25","spark_pilot_norest","9445","3","9","Female","","false","","","","","[1210.2000000001863,382.19999999925494]","./assets/img/ocean/memory/2.jpg","[""ArrowUp"",""ArrowLeft""]","value training","ocean","23","{""ArrowUp,ArrowLeft"":23,""ArrowUp,ArrowRight"":10,""ArrowDown,ArrowLeft"":8,""ArrowDown,ArrowRight"":30}","false","ArrowUp,ArrowLeft","false","original","1","50","","",""
"html-keyboard-response","170","894551","0.0-4.0-2.0-1.25","spark_pilot_norest","9445","3","9","Female","","","","","","","null","<div style=""font-size:60px;"">+</div>","null","fixation","","","","","","","","","51","","",""
"revaluation","171","898566","0.0-4.0-2.0-0.26","spark_pilot_norest","9445","3","9","Female","","false","","","","","[599.5]","./assets/img/ocean/catch/7.jpg","[""spaceBar""]","value training","ocean","0","{""ArrowUp,ArrowLeft"":23,""ArrowUp,ArrowRight"":10,""ArrowDown,ArrowLeft"":8,""ArrowDown,ArrowRight"":30}","true","spaceBar","true","original","1","52","","",""
"html-keyboard-response","172","899070","0.0-4.0-2.0-1.26","spark_pilot_norest","9445","3","9","Female","","","","","","","null","<div style=""font-size:60px;"">+</div>","null","fixation","","","","","","","","","53","","",""
"revaluation","173","905094","0.0-4.0-2.0-0.27","spark_pilot_norest","9445","3","9","Female","","false","","","","","[1083.4000000003725,477.90000000037253]","./assets/img/ocean/memory/0.jpg","[""ArrowUp"",""ArrowLeft""]","value training","ocean","23","{""ArrowUp,ArrowLeft"":23,""ArrowUp,ArrowRight"":10,""ArrowDown,ArrowLeft"":8,""ArrowDown,ArrowRight"":30}","false","ArrowUp,ArrowLeft","false","original","1","54","","",""
"html-keyboard-response","174","905598","0.0-4.0-2.0-1.27","spark_pilot_norest","9445","3","9","Female","","","","","","","null","<div style=""font-size:60px;"">+</div>","null","fixation","","","","","","","","","55","","",""
"revaluation","175","911622","0.0-4.0-2.0-0.28","spark_pilot_norest","9445","3","9","Female","","false","","","","","[816.4000000003725,649.8000000007451]","./assets/img/ocean/memory/20.jpg","[""ArrowUp"",""ArrowLeft""]","value training","ocean","23","{""ArrowUp,ArrowLeft"":23,""ArrowUp,ArrowRight"":10,""ArrowDown,ArrowLeft"":8,""ArrowDown,ArrowRight"":30}","false","ArrowUp,ArrowLeft","false","original","1","56","","",""
"html-keyboard-response","176","912126","0.0-4.0-2.0-1.28","spark_pilot_norest","9445","3","9","Female","","","","","","","null","<div style=""font-size:60px;"">+</div>","null","fixation","","","","","","","","","57","","",""
"revaluation","177","918150","0.0-4.0-2.0-0.29","spark_pilot_norest","9445","3","9","Female","","false","","","","","[649.7000000001863,1249.2999999998137]","./assets/img/ocean/memory/0.jpg","[""ArrowDown"",""ArrowRight""]","value training","ocean","30","{""ArrowUp,ArrowLeft"":23,""ArrowUp,ArrowRight"":10,""ArrowDown,ArrowLeft"":8,""ArrowDown,ArrowRight"":30}","true","ArrowDown,ArrowRight","false","original","1","58","","",""
"html-keyboard-response","178","918654","0.0-4.0-2.0-1.29","spark_pilot_norest","9445","3","9","Female","","","","","","","null","<div style=""font-size:60px;"">+</div>","null","fixation","","","","","","","","","59","","",""
"revaluation","179","924678","0.0-4.0-2.0-0.30","spark_pilot_norest","9445","3","9","Female","","false","","","","","[599.4000000003725,496.80000000074506]","./assets/img/ocean/memory/30.jpg","[""ArrowDown"",""ArrowRight""]","value training","ocean","30","{""ArrowUp,ArrowLeft"":23,""ArrowUp,ArrowRight"":10,""ArrowDown,ArrowLeft"":8,""ArrowDown,ArrowRight"":30}","true","ArrowDown,ArrowRight","false","original","1","60","","",""
"html-keyboard-response","180","925182","0.0-4.0-2.0-1.30","spark_pilot_norest","9445","3","9","Female","","","","","","","null","<div style=""font-size:60px;"">+</div>","null","fixation","","","","","","","","","61","","",""
"revaluation","181","931206","0.0-4.0-2.0-0.31","spark_pilot_norest","9445","3","9","Female","","false","","","","","[685.6000000005588,456.40000000037253]","./assets/img/ocean/memory/13.jpg","[""ArrowDown"",""ArrowRight""]","value training","ocean","30","{""ArrowUp,ArrowLeft"":23,""ArrowUp,ArrowRight"":10,""ArrowDown,ArrowLeft"":8,""ArrowDown,ArrowRight"":30}","true","ArrowDown,ArrowRight","false","original","1","62","","",""
"html-keyboard-response","182","931710","0.0-4.0-2.0-1.31","spark_pilot_norest","9445","3","9","Female","","","","","","","null","<div style=""font-size:60px;"">+</div>","null","fixation","","","","","","","","","63","","",""
"revaluation","183","937734","0.0-4.0-2.0-0.32","spark_pilot_norest","9445","3","9","Female","","false","","","","","[1331.2999999998137,651.1000000005588]","./assets/img/ocean/memory/10.jpg","[""ArrowDown"",""ArrowRight""]","value training","ocean","30","{""ArrowUp,ArrowLeft"":23,""ArrowUp,ArrowRight"":10,""ArrowDown,ArrowLeft"":8,""ArrowDown,ArrowRight"":30}","true","ArrowDown,ArrowRight","false","original","1","64","","",""
"html-keyboard-response","184","938238","0.0-4.0-2.0-1.32","spark_pilot_norest","9445","3","9","Female","","","","","","","null","<div style=""font-size:60px;"">+</div>","null","fixation","","","","","","","","","65","","",""
"revaluation","185","944262","0.0-4.0-2.0-0.33","spark_pilot_norest","9445","3","9","Female","","false","","","","","[431.29999999981374,313.5]","./assets/img/ocean/memory/18.jpg","[""ArrowUp"",""ArrowLeft""]","value training","ocean","23","{""ArrowUp,ArrowLeft"":23,""ArrowUp,ArrowRight"":10,""ArrowDown,ArrowLeft"":8,""ArrowDown,ArrowRight"":30}","false","ArrowUp,ArrowLeft","false","original","1","66","","",""
"html-keyboard-response","186","944766","0.0-4.0-2.0-1.33","spark_pilot_norest","9445","3","9","Female","","","","","","","null","<div style=""font-size:60px;"">+</div>","null","fixation","","","","","","","","","67","","",""
"revaluation","187","950790","0.0-4.0-2.0-0.34","spark_pilot_norest","9445","3","9","Female","","false","","","","","[637.0999999996275,520.3999999994412]","./assets/img/ocean/memory/31.jpg","[""ArrowUp"",""ArrowLeft""]","value training","ocean","23","{""ArrowUp,ArrowLeft"":23,""ArrowUp,ArrowRight"":10,""ArrowDown,ArrowLeft"":8,""ArrowDown,ArrowRight"":30}","false","ArrowUp,ArrowLeft","false","original","1","68","","",""
"html-keyboard-response","188","951294","0.0-4.0-2.0-1.34","spark_pilot_norest","9445","3","9","Female","","","","","","","null","<div style=""font-size:60px;"">+</div>","null","fixation","","","","","","","","","69","","",""
"revaluation","189","957318","0.0-4.0-2.0-0.35","spark_pilot_norest","9445","3","9","Female","","false","","","","","[901.2000000001863,572.9000000003725]","./assets/img/ocean/memory/28.jpg","[""ArrowUp"",""ArrowLeft""]","value training","ocean","23","{""ArrowUp,ArrowLeft"":23,""ArrowUp,ArrowRight"":10,""ArrowDown,ArrowLeft"":8,""ArrowDown,ArrowRight"":30}","false","ArrowUp,ArrowLeft","false","original","1","70","","",""
"html-keyboard-response","190","957822","0.0-4.0-2.0-1.35","spark_pilot_norest","9445","3","9","Female","","","","","","","null","<div style=""font-size:60px;"">+</div>","null","fixation","","","","","","","","","71","","",""
"revaluation","191","963846","0.0-4.0-2.0-0.36","spark_pilot_norest","9445","3","9","Female","","false","","","","","[850.7999999998137,1404]","./assets/img/ocean/memory/31.jpg","[""ArrowDown"",""ArrowLeft""]","value training","ocean","8","{""ArrowUp,ArrowLeft"":23,""ArrowUp,ArrowRight"":10,""ArrowDown,ArrowLeft"":8,""ArrowDown,ArrowRight"":30}","false","ArrowDown,ArrowLeft","false","original","1","72","","",""
"html-keyboard-response","192","964350","0.0-4.0-2.0-1.36","spark_pilot_norest","9445","3","9","Female","","","","","","","null","<div style=""font-size:60px;"">+</div>","null","fixation","","","","","","","","","73","","",""
"revaluation","193","970374","0.0-4.0-2.0-0.37","spark_pilot_norest","9445","3","9","Female","","false","","","","","[1257.1000000005588,612.7999999998137]","./assets/img/ocean/memory/41.jpg","[""ArrowUp"",""ArrowLeft""]","value training","ocean","23","{""ArrowUp,ArrowLeft"":23,""ArrowUp,ArrowRight"":10,""ArrowDown,ArrowLeft"":8,""ArrowDown,ArrowRight"":30}","false","ArrowUp,ArrowLeft","false","original","1","74","","",""
"html-keyboard-response","194","970878","0.0-4.0-2.0-1.37","spark_pilot_norest","9445","3","9","Female","","","","","","","null","<div style=""font-size:60px;"">+</div>","null","fixation","","","","","","","","","75","","",""
"revaluation","195","976902","0.0-4.0-2.0-0.38","spark_pilot_norest","9445","3","9","Female","","false","","","","","[530.3999999994412,502]","./assets/img/ocean/memory/7.jpg","[""ArrowUp"",""ArrowLeft""]","value training","ocean","23","{""ArrowUp,ArrowLeft"":23,""ArrowUp,ArrowRight"":10,""ArrowDown,ArrowLeft"":8,""ArrowDown,ArrowRight"":30}","false","ArrowUp,ArrowLeft","false","original","1","76","","",""
"html-keyboard-response","196","977406","0.0-4.0-2.0-1.38","spark_pilot_norest","9445","3","9","Female","","","","","","","null","<div style=""font-size:60px;"">+</div>","null","fixation","","","","","","","","","77","","",""
"revaluation","197","983430","0.0-4.0-2.0-0.39","spark_pilot_norest","9445","3","9","Female","","false","","","","","[561.7000000001863,332.90000000037253]","./assets/img/ocean/memory/18.jpg","[""ArrowUp"",""ArrowLeft""]","value training","ocean","23","{""ArrowUp,ArrowLeft"":23,""ArrowUp,ArrowRight"":10,""ArrowDown,ArrowLeft"":8,""ArrowDown,ArrowRight"":30}","false","ArrowUp,ArrowLeft","false","original","1","78","","",""
"html-keyboard-response","198","983934","0.0-4.0-2.0-1.39","spark_pilot_norest","9445","3","9","Female","","","","","","","null","<div style=""font-size:60px;"">+</div>","null","fixation","","","","","","","","","79","","",""
"revaluation","199","989958","0.0-4.0-2.0-0.40","spark_pilot_norest","9445","3","9","Female","","false","","","","","[751.1000000005588,438.79999999981374]","./assets/img/ocean/memory/9.jpg","[""ArrowUp"",""ArrowLeft""]","value training","ocean","23","{""ArrowUp,ArrowLeft"":23,""ArrowUp,ArrowRight"":10,""ArrowDown,ArrowLeft"":8,""ArrowDown,ArrowRight"":30}","false","ArrowUp,ArrowLeft","false","original","1","80","","",""
"html-keyboard-response","200","990462","0.0-4.0-2.0-1.40","spark_pilot_norest","9445","3","9","Female","","","","","","","null","<div style=""font-size:60px;"">+</div>","null","fixation","","","","","","","","","81","","",""
"revaluation","201","996487","0.0-4.0-2.0-0.41","spark_pilot_norest","9445","3","9","Female","","false","","","","","[918.7999999998137,829.2999999998137]","./assets/img/ocean/memory/10.jpg","[""ArrowDown"",""ArrowRight""]","value training","ocean","30","{""ArrowUp,ArrowLeft"":23,""ArrowUp,ArrowRight"":10,""ArrowDown,ArrowLeft"":8,""ArrowDown,ArrowRight"":30}","true","ArrowDown,ArrowRight","false","original","1","82","","",""
"html-keyboard-response","202","996990","0.0-4.0-2.0-1.41","spark_pilot_norest","9445","3","9","Female","","","","","","","null","<div style=""font-size:60px;"">+</div>","null","fixation","","","","","","","","","83","","",""
"revaluation","203","1001006","0.0-4.0-2.0-0.42","spark_pilot_norest","9445","3","9","Female","","false","","","","","[767]","./assets/img/ocean/catch/3.jpg","[""spaceBar""]","value training","ocean","0","{""ArrowUp,ArrowLeft"":23,""ArrowUp,ArrowRight"":10,""ArrowDown,ArrowLeft"":8,""ArrowDown,ArrowRight"":30}","true","spaceBar","true","original","1","84","","",""
"html-keyboard-response","204","1001510","0.0-4.0-2.0-1.42","spark_pilot_norest","9445","3","9","Female","","","","","","","null","<div style=""font-size:60px;"">+</div>","null","fixation","","","","","","","","","85","","",""
"revaluation","205","1007534","0.0-4.0-2.0-0.43","spark_pilot_norest","9445","3","9","Female","","false","","","","","[680,807.7999999998137]","./assets/img/ocean/memory/39.jpg","[""ArrowUp"",""ArrowLeft""]","value training","ocean","23","{""ArrowUp,ArrowLeft"":23,""ArrowUp,ArrowRight"":10,""ArrowDown,ArrowLeft"":8,""ArrowDown,ArrowRight"":30}","false","ArrowUp,ArrowLeft","false","original","1","86","","",""
"html-keyboard-response","206","1008038","0.0-4.0-2.0-1.43","spark_pilot_norest","9445","3","9","Female","","","","","","","null","<div style=""font-size:60px;"">+</div>","null","fixation","","","","","","","","","87","","",""
"revaluation","207","1014062","0.0-4.0-2.0-0.44","spark_pilot_norest","9445","3","9","Female","","false","","","","","[1251.4000000003725,871.8999999994412]","./assets/img/ocean/memory/3.jpg","[""ArrowDown"",""ArrowRight""]","value training","ocean","30","{""ArrowUp,ArrowLeft"":23,""ArrowUp,ArrowRight"":10,""ArrowDown,ArrowLeft"":8,""ArrowDown,ArrowRight"":30}","true","ArrowDown,ArrowRight","false","original","1","88","","",""
"html-keyboard-response","208","1014566","0.0-4.0-2.0-1.44","spark_pilot_norest","9445","3","9","Female","","","","","","","null","<div style=""font-size:60px;"">+</div>","null","fixation","","","","","","","","","89","","",""
"revaluation","209","1020590","0.0-4.0-2.0-0.45","spark_pilot_norest","9445","3","9","Female","","false","","","","","[457.8999999994412,794.8999999994412]","./assets/img/ocean/memory/1.jpg","[""ArrowUp"",""ArrowLeft""]","value training","ocean","23","{""ArrowUp,ArrowLeft"":23,""ArrowUp,ArrowRight"":10,""ArrowDown,ArrowLeft"":8,""ArrowDown,ArrowRight"":30}","false","ArrowUp,ArrowLeft","false","original","1","90","","",""
"html-keyboard-response","210","1021094","0.0-4.0-2.0-1.45","spark_pilot_norest","9445","3","9","Female","","","","","","","null","<div style=""font-size:60px;"">+</div>","null","fixation","","","","","","","","","91","","",""
"revaluation","211","1027118","0.0-4.0-2.0-0.46","spark_pilot_norest","9445","3","9","Female","","false","","","","","[754.2999999998137,565.6000000005588]","./assets/img/ocean/memory/13.jpg","[""ArrowUp"",""ArrowLeft""]","value training","ocean","23","{""ArrowUp,ArrowLeft"":23,""ArrowUp,ArrowRight"":10,""ArrowDown,ArrowLeft"":8,""ArrowDown,ArrowRight"":30}","false","ArrowUp,ArrowLeft","false","original","1","92","","",""
"html-keyboard-response","212","1027622","0.0-4.0-2.0-1.46","spark_pilot_norest","9445","3","9","Female","","","","","","","null","<div style=""font-size:60px;"">+</div>","null","fixation","","","","","","","","","93","","",""
"revaluation","213","1033646","0.0-4.0-2.0-0.47","spark_pilot_norest","9445","3","9","Female","","false","","","","","[737.2000000001863,877.5999999996275]","./assets/img/ocean/memory/39.jpg","[""ArrowUp"",""ArrowLeft""]","value training","ocean","23","{""ArrowUp,ArrowLeft"":23,""ArrowUp,ArrowRight"":10,""ArrowDown,ArrowLeft"":8,""ArrowDown,ArrowRight"":30}","false","ArrowUp,ArrowLeft","false","original","1","94","","",""
"html-keyboard-response","214","1034150","0.0-4.0-2.0-1.47","spark_pilot_norest","9445","3","9","Female","","","","","","","null","<div style=""font-size:60px;"">+</div>","null","fixation","","","","","","","","","95","","",""
"revaluation","215","1040174","0.0-4.0-2.0-0.48","spark_pilot_norest","9445","3","9","Female","","false","","","","","[1052,522.5]","./assets/img/ocean/memory/1.jpg","[""ArrowUp"",""ArrowLeft""]","value training","ocean","23","{""ArrowUp,ArrowLeft"":23,""ArrowUp,ArrowRight"":10,""ArrowDown,ArrowLeft"":8,""ArrowDown,ArrowRight"":30}","false","ArrowUp,ArrowLeft","false","original","1","96","","",""
"html-keyboard-response","216","1040678","0.0-4.0-2.0-1.48","spark_pilot_norest","9445","3","9","Female","","","","","","","null","<div style=""font-size:60px;"">+</div>","null","fixation","","","","","","","","","97","","",""
"revaluation","217","1046702","0.0-4.0-2.0-0.49","spark_pilot_norest","9445","3","9","Female","","false","","","","","[410.70000000018626,410.40000000037253]","./assets/img/ocean/memory/25.jpg","[""ArrowUp"",""ArrowLeft""]","value training","ocean","23","{""ArrowUp,ArrowLeft"":23,""ArrowUp,ArrowRight"":10,""ArrowDown,ArrowLeft"":8,""ArrowDown,ArrowRight"":30}","false","ArrowUp,ArrowLeft","false","original","1","98","","",""
"html-keyboard-response","218","1047206","0.0-4.0-2.0-1.49","spark_pilot_norest","9445","3","9","Female","","","","","","","null","<div style=""font-size:60px;"">+</div>","null","fixation","","","","","","","","","99","","",""
"learning-instructions","219","1062414","0.0-4.0-3.0-0.0","spark_pilot_norest","9445","3","9","Female","","","","","","","2229.600000000559","<p> Now, you will travel with a friend who will choose whether you go up or down first. </p>
            <p> On these turns, you will just see the animal that they found. You will still get to choose which chest to search for treasure.</p>","","instructions","","","","","","","","","","","",""
"revaluation","220","1066431","0.0-4.0-4.0-0.0","spark_pilot_norest","9445","3","9","Female","","false","","","","","[1051.7999999998137]","./assets/img/ocean/animals/octopus.jpg","[""ArrowLeft""]","revaluation","ocean","23","{""ArrowUp,ArrowLeft"":23,""ArrowUp,ArrowRight"":10,""ArrowDown,ArrowLeft"":8,""ArrowDown,ArrowRight"":30}","true","ArrowUp,ArrowLeft","","original","1","0","","",""
"html-keyboard-response","221","1066942","0.0-4.0-4.0-1.0","spark_pilot_norest","9445","3","9","Female","","","","","","","null","<div style=""font-size:60px;"">+</div>","null","fixation","","","","","","","","","1","","",""
"revaluation","222","1070958","0.0-4.0-4.0-0.1","spark_pilot_norest","9445","3","9","Female","","false","","","","","[495.20000000018626]","./assets/img/ocean/animals/octopus.jpg","[""ArrowLeft""]","revaluation","ocean","23","{""ArrowUp,ArrowLeft"":23,""ArrowUp,ArrowRight"":10,""ArrowDown,ArrowLeft"":8,""ArrowDown,ArrowRight"":30}","true","ArrowUp,ArrowLeft","","original","1","2","","",""
"html-keyboard-response","223","1071462","0.0-4.0-4.0-1.1","spark_pilot_norest","9445","3","9","Female","","","","","","","null","<div style=""font-size:60px;"">+</div>","null","fixation","","","","","","","","","3","","",""
"revaluation","224","1075478","0.0-4.0-4.0-0.2","spark_pilot_norest","9445","3","9","Female","","false","","","","","[475.29999999981374]","./assets/img/ocean/animals/seahorse.jpg","[""ArrowRight""]","revaluation","ocean","30","{""ArrowUp,ArrowLeft"":23,""ArrowUp,ArrowRight"":10,""ArrowDown,ArrowLeft"":8,""ArrowDown,ArrowRight"":30}","true","ArrowDown,ArrowRight","","original","1","4","","",""
"html-keyboard-response","225","1075982","0.0-4.0-4.0-1.2","spark_pilot_norest","9445","3","9","Female","","","","","","","null","<div style=""font-size:60px;"">+</div>","null","fixation","","","","","","","","","5","","",""
"revaluation","226","1079998","0.0-4.0-4.0-0.3","spark_pilot_norest","9445","3","9","Female","","false","","","","","[843.1000000005588]","./assets/img/ocean/animals/seahorse.jpg","[""ArrowRight""]","revaluation","ocean","30","{""ArrowUp,ArrowLeft"":23,""ArrowUp,ArrowRight"":10,""ArrowDown,ArrowLeft"":8,""ArrowDown,ArrowRight"":30}","true","ArrowDown,ArrowRight","","original","1","6","","",""
"html-keyboard-response","227","1080502","0.0-4.0-4.0-1.3","spark_pilot_norest","9445","3","9","Female","","","","","","","null","<div style=""font-size:60px;"">+</div>","null","fixation","","","","","","","","","7","","",""
"revaluation","228","1084518","0.0-4.0-4.0-0.4","spark_pilot_norest","9445","3","9","Female","","false","","","","","[727]","./assets/img/ocean/animals/seahorse.jpg","[""ArrowRight""]","revaluation","ocean","30","{""ArrowUp,ArrowLeft"":23,""ArrowUp,ArrowRight"":10,""ArrowDown,ArrowLeft"":8,""ArrowDown,ArrowRight"":30}","true","ArrowDown,ArrowRight","","original","1","8","","",""
"html-keyboard-response","229","1085022","0.0-4.0-4.0-1.4","spark_pilot_norest","9445","3","9","Female","","","","","","","null","<div style=""font-size:60px;"">+</div>","null","fixation","","","","","","","","","9","","",""
"revaluation","230","1089038","0.0-4.0-4.0-0.5","spark_pilot_norest","9445","3","9","Female","","false","","","","","[473.3999999994412]","./assets/img/ocean/animals/seahorse.jpg","[""ArrowRight""]","revaluation","ocean","30","{""ArrowUp,ArrowLeft"":23,""ArrowUp,ArrowRight"":10,""ArrowDown,ArrowLeft"":8,""ArrowDown,ArrowRight"":30}","true","ArrowDown,ArrowRight","","original","1","10","","",""
"html-keyboard-response","231","1089542","0.0-4.0-4.0-1.5","spark_pilot_norest","9445","3","9","Female","","","","","","","null","<div style=""font-size:60px;"">+</div>","null","fixation","","","","","","","","","11","","",""
"revaluation","232","1093566","0.0-4.0-4.0-0.6","spark_pilot_norest","9445","3","9","Female","","false","","","","","[479.3999999994412]","./assets/img/ocean/animals/octopus.jpg","[""ArrowLeft""]","revaluation","ocean","23","{""ArrowUp,ArrowLeft"":23,""ArrowUp,ArrowRight"":10,""ArrowDown,ArrowLeft"":8,""ArrowDown,ArrowRight"":30}","true","ArrowUp,ArrowLeft","","original","1","12","","",""
"html-keyboard-response","233","1094070","0.0-4.0-4.0-1.6","spark_pilot_norest","9445","3","9","Female","","","","","","","null","<div style=""font-size:60px;"">+</div>","null","fixation","","","","","","","","","13","","",""
"revaluation","234","1098087","0.0-4.0-4.0-0.7","spark_pilot_norest","9445","3","9","Female","","false","","","","","[1257.7999999998137]","./assets/img/ocean/animals/octopus.jpg","[""ArrowLeft""]","revaluation","ocean","23","{""ArrowUp,ArrowLeft"":23,""ArrowUp,ArrowRight"":10,""ArrowDown,ArrowLeft"":8,""ArrowDown,ArrowRight"":30}","true","ArrowUp,ArrowLeft","","original","1","14","","",""
"html-keyboard-response","235","1098590","0.0-4.0-4.0-1.7","spark_pilot_norest","9445","3","9","Female","","","","","","","null","<div style=""font-size:60px;"">+</div>","null","fixation","","","","","","","","","15","","",""
"revaluation","236","1102606","0.0-4.0-4.0-0.8","spark_pilot_norest","9445","3","9","Female","","false","","","","","[564.9000000003725]","./assets/img/ocean/animals/octopus.jpg","[""ArrowLeft""]","revaluation","ocean","23","{""ArrowUp,ArrowLeft"":23,""ArrowUp,ArrowRight"":10,""ArrowDown,ArrowLeft"":8,""ArrowDown,ArrowRight"":30}","true","ArrowUp,ArrowLeft","","original","1","16","","",""
"html-keyboard-response","237","1103110","0.0-4.0-4.0-1.8","spark_pilot_norest","9445","3","9","Female","","","","","","","null","<div style=""font-size:60px;"">+</div>","null","fixation","","","","","","","","","17","","",""
"revaluation","238","1107126","0.0-4.0-4.0-0.9","spark_pilot_norest","9445","3","9","Female","","false","","","","","[691.2999999998137]","./assets/img/ocean/animals/seahorse.jpg","[""ArrowRight""]","revaluation","ocean","30","{""ArrowUp,ArrowLeft"":23,""ArrowUp,ArrowRight"":10,""ArrowDown,ArrowLeft"":8,""ArrowDown,ArrowRight"":30}","true","ArrowDown,ArrowRight","","original","1","18","","",""
"html-keyboard-response","239","1107630","0.0-4.0-4.0-1.9","spark_pilot_norest","9445","3","9","Female","","","","","","","null","<div style=""font-size:60px;"">+</div>","null","fixation","","","","","","","","","19","","",""
"revaluation","240","1111646","0.0-4.0-4.0-0.10","spark_pilot_norest","9445","3","9","Female","","false","","","","","[647.7999999998137]","./assets/img/ocean/animals/seahorse.jpg","[""ArrowRight""]","revaluation","ocean","30","{""ArrowUp,ArrowLeft"":23,""ArrowUp,ArrowRight"":10,""ArrowDown,ArrowLeft"":8,""ArrowDown,ArrowRight"":30}","true","ArrowDown,ArrowRight","","original","1","20","","",""
"html-keyboard-response","241","1112150","0.0-4.0-4.0-1.10","spark_pilot_norest","9445","3","9","Female","","","","","","","null","<div style=""font-size:60px;"">+</div>","null","fixation","","","","","","","","","21","","",""
"revaluation","242","1116166","0.0-4.0-4.0-0.11","spark_pilot_norest","9445","3","9","Female","","false","","","","","[684.6000000005588]","./assets/img/ocean/animals/seahorse.jpg","[""ArrowRight""]","revaluation","ocean","30","{""ArrowUp,ArrowLeft"":23,""ArrowUp,ArrowRight"":10,""ArrowDown,ArrowLeft"":8,""ArrowDown,ArrowRight"":30}","true","ArrowDown,ArrowRight","","original","1","22","","",""
"html-keyboard-response","243","1116669","0.0-4.0-4.0-1.11","spark_pilot_norest","9445","3","9","Female","","","","","","","null","<div style=""font-size:60px;"">+</div>","null","fixation","","","","","","","","","23","","",""
"revaluation","244","1120686","0.0-4.0-4.0-0.12","spark_pilot_norest","9445","3","9","Female","","false","","","","","[582.5]","./assets/img/ocean/animals/octopus.jpg","[""ArrowLeft""]","revaluation","ocean","23","{""ArrowUp,ArrowLeft"":23,""ArrowUp,ArrowRight"":10,""ArrowDown,ArrowLeft"":8,""ArrowDown,ArrowRight"":30}","true","ArrowUp,ArrowLeft","","original","1","24","","",""
"html-keyboard-response","245","1121190","0.0-4.0-4.0-1.12","spark_pilot_norest","9445","3","9","Female","","","","","","","null","<div style=""font-size:60px;"">+</div>","null","fixation","","","","","","","","","25","","",""
"revaluation","246","1125206","0.0-4.0-4.0-0.13","spark_pilot_norest","9445","3","9","Female","","false","","","","","[638.7000000001863]","./assets/img/ocean/animals/octopus.jpg","[""ArrowLeft""]","revaluation","ocean","23","{""ArrowUp,ArrowLeft"":23,""ArrowUp,ArrowRight"":10,""ArrowDown,ArrowLeft"":8,""ArrowDown,ArrowRight"":30}","true","ArrowUp,ArrowLeft","","original","1","26","","",""
"html-keyboard-response","247","1125710","0.0-4.0-4.0-1.13","spark_pilot_norest","9445","3","9","Female","","","","","","","null","<div style=""font-size:60px;"">+</div>","null","fixation","","","","","","","","","27","","",""
"revaluation","248","1129726","0.0-4.0-4.0-0.14","spark_pilot_norest","9445","3","9","Female","","false","","","","","[806.5999999996275]","./assets/img/ocean/animals/seahorse.jpg","[""ArrowRight""]","revaluation","ocean","30","{""ArrowUp,ArrowLeft"":23,""ArrowUp,ArrowRight"":10,""ArrowDown,ArrowLeft"":8,""ArrowDown,ArrowRight"":30}","true","ArrowDown,ArrowRight","","original","1","28","","",""
"html-keyboard-response","249","1130230","0.0-4.0-4.0-1.14","spark_pilot_norest","9445","3","9","Female","","","","","","","null","<div style=""font-size:60px;"">+</div>","null","fixation","","","","","","","","","29","","",""
"revaluation","250","1134247","0.0-4.0-4.0-0.15","spark_pilot_norest","9445","3","9","Female","","false","","","","","[570.2999999998137]","./assets/img/ocean/animals/seahorse.jpg","[""ArrowLeft""]","revaluation","ocean","8","{""ArrowUp,ArrowLeft"":23,""ArrowUp,ArrowRight"":10,""ArrowDown,ArrowLeft"":8,""ArrowDown,ArrowRight"":30}","false","ArrowDown,ArrowLeft","","original","1","30","","",""
"html-keyboard-response","251","1134750","0.0-4.0-4.0-1.15","spark_pilot_norest","9445","3","9","Female","","","","","","","null","<div style=""font-size:60px;"">+</div>","null","fixation","","","","","","","","","31","","",""
"revaluation","252","1138766","0.0-4.0-4.0-0.16","spark_pilot_norest","9445","3","9","Female","","false","","","","","[578.0999999996275]","./assets/img/ocean/animals/octopus.jpg","[""ArrowLeft""]","revaluation","ocean","23","{""ArrowUp,ArrowLeft"":23,""ArrowUp,ArrowRight"":10,""ArrowDown,ArrowLeft"":8,""ArrowDown,ArrowRight"":30}","true","ArrowUp,ArrowLeft","","original","1","32","","",""
"html-keyboard-response","253","1139270","0.0-4.0-4.0-1.16","spark_pilot_norest","9445","3","9","Female","","","","","","","null","<div style=""font-size:60px;"">+</div>","null","fixation","","","","","","","","","33","","",""
"revaluation","254","1143286","0.0-4.0-4.0-0.17","spark_pilot_norest","9445","3","9","Female","","false","","","","","[544.6000000005588]","./assets/img/ocean/animals/octopus.jpg","[""ArrowLeft""]","revaluation","ocean","23","{""ArrowUp,ArrowLeft"":23,""ArrowUp,ArrowRight"":10,""ArrowDown,ArrowLeft"":8,""ArrowDown,ArrowRight"":30}","true","ArrowUp,ArrowLeft","","original","1","34","","",""
"html-keyboard-response","255","1143790","0.0-4.0-4.0-1.17","spark_pilot_norest","9445","3","9","Female","","","","","","","null","<div style=""font-size:60px;"">+</div>","null","fixation","","","","","","","","","35","","",""
"learning-instructions","256","1151982","0.0-4.0-5.0-0.0","spark_pilot_norest","9445","3","9","Female","","","","","","","null","<p> You have almost finished this part of the game! </p>
            <p> We are going to ask you to make a few more choices. </p>","","instructions","","","","","","","","","","","",""
"learning-instructions","257","1167958","0.0-4.0-5.0-0.1","spark_pilot_norest","9445","3","9","Female","","","","","","","null","<p> First, you need to decide whether to go up or down. When you see each picture, use the arrow keys to make your choice. </p>
            <p><b>You will not see which animal you found, but try to get to the one that will give you the most treasure.</b></p>","","instructions","","","","","","","","","","","",""
"html-keyboard-response","258","1168966","0.0-4.0-6.0-0.0","spark_pilot_norest","9445","3","9","Female","","","","","","","null","<div style=""font-size:100px;color:red;"">Starting in...</div>","null","","","","","","","","","","","","",""
"html-keyboard-response","259","1169974","0.0-4.0-6.0-1.0","spark_pilot_norest","9445","3","9","Female","","","","","","","null","<div style=""font-size:200px;color:red;"">3</div>","null","","","","","","","","","","","","",""
"html-keyboard-response","260","1170982","0.0-4.0-6.0-2.0","spark_pilot_norest","9445","3","9","Female","","","","","","","null","<div style=""font-size:200px;color:red;"">2</div>","null","","","","","","","","","","","","",""
"html-keyboard-response","261","1171990","0.0-4.0-6.0-3.0","spark_pilot_norest","9445","3","9","Female","","","","","","","null","<div style=""font-size:200px;color:red;"">1</div>","null","","","","","","","","","","","","",""
"revaluation","262","1172950","0.0-4.0-7.0-0.0","spark_pilot_norest","9445","3","9","Female","","false","","","","","[955.9000000003725]","./assets/img/ocean/test/2.jpg","[""ArrowUp""]","first stage test","ocean","0","{""ArrowUp,ArrowLeft"":23,""ArrowUp,ArrowRight"":10,""ArrowDown,ArrowLeft"":8,""ArrowDown,ArrowRight"":30}","false","ArrowUp","false","original","1","","","",""
"html-keyboard-response","263","1173454","0.0-4.0-7.0-1.0","spark_pilot_norest","9445","3","9","Female","","","","","","","null","<div style=""font-size:60px;"">+</div>","null","fixation","","","","","","","","","","","",""
"revaluation","264","1174528","0.0-4.0-7.0-0.1","spark_pilot_norest","9445","3","9","Female","","false","","","","","[1070.7999999988824]","./assets/img/ocean/test/0.jpg","[""ArrowUp""]","first stage test","ocean","0","{""ArrowUp,ArrowLeft"":23,""ArrowUp,ArrowRight"":10,""ArrowDown,ArrowLeft"":8,""ArrowDown,ArrowRight"":30}","false","ArrowUp","false","original","1","","","",""
"html-keyboard-response","265","1175030","0.0-4.0-7.0-1.1","spark_pilot_norest","9445","3","9","Female","","","","","","","null","<div style=""font-size:60px;"">+</div>","null","fixation","","","","","","","","","","","",""
"revaluation","266","1176008","0.0-4.0-7.0-0.2","spark_pilot_norest","9445","3","9","Female","","false","","","","","[974.4000000003725]","./assets/img/ocean/test/1.jpg","[""ArrowUp""]","first stage test","ocean","0","{""ArrowUp,ArrowLeft"":23,""ArrowUp,ArrowRight"":10,""ArrowDown,ArrowLeft"":8,""ArrowDown,ArrowRight"":30}","false","ArrowUp","false","original","1","","","",""
"html-keyboard-response","267","1176510","0.0-4.0-7.0-1.2","spark_pilot_norest","9445","3","9","Female","","","","","","","null","<div style=""font-size:60px;"">+</div>","null","fixation","","","","","","","","","","","",""
"revaluation","268","1177351","0.0-4.0-7.0-0.3","spark_pilot_norest","9445","3","9","Female","","false","","","","","[837.5]","./assets/img/ocean/test/3.jpg","[""ArrowUp""]","first stage test","ocean","0","{""ArrowUp,ArrowLeft"":23,""ArrowUp,ArrowRight"":10,""ArrowDown,ArrowLeft"":8,""ArrowDown,ArrowRight"":30}","false","ArrowUp","false","original","1","","","",""
"html-keyboard-response","269","1177854","0.0-4.0-7.0-1.3","spark_pilot_norest","9445","3","9","Female","","","","","","","null","<div style=""font-size:60px;"">+</div>","null","fixation","","","","","","","","","","","",""
"learning-instructions","270","1191214","0.0-4.0-8.0-0.0","spark_pilot_norest","9445","3","9","Female","","","","","","","null","<p> Now you will see the animals again and can search their chests for treasure. </p>
            <p> This time, you will not see how much treasure you earned, but you will earn more bonus money for making better choices. </p>","","instructions","","","","","","","","","","","",""
"html-keyboard-response","271","1192222","0.0-4.0-9.0-0.0","spark_pilot_norest","9445","3","9","Female","","","","","","","null","<div style=""font-size:100px;color:red;"">Starting in...</div>","null","","","","","","","","","","","","",""
"html-keyboard-response","272","1193230","0.0-4.0-9.0-1.0","spark_pilot_norest","9445","3","9","Female","","","","","","","null","<div style=""font-size:200px;color:red;"">3</div>","null","","","","","","","","","","","","",""
"html-keyboard-response","273","1194238","0.0-4.0-9.0-2.0","spark_pilot_norest","9445","3","9","Female","","","","","","","null","<div style=""font-size:200px;color:red;"">2</div>","null","","","","","","","","","","","","",""
"html-keyboard-response","274","1195246","0.0-4.0-9.0-3.0","spark_pilot_norest","9445","3","9","Female","","","","","","","null","<div style=""font-size:200px;color:red;"">1</div>","null","","","","","","","","","","","","",""
"revaluation","275","1197269","0.0-4.0-10.0-0.0","spark_pilot_norest","9445","3","9","Female","","false","","","","","[2018.5999999996275]","./assets/img/ocean/animals/octopus.jpg","[""ArrowLeft""]","second stage test","ocean","0","{""ArrowUp,ArrowLeft"":23,""ArrowUp,ArrowRight"":10,""ArrowDown,ArrowLeft"":8,""ArrowDown,ArrowRight"":30}","true","ArrowUp,ArrowLeft","","original","1","","","",""
"html-keyboard-response","276","1197774","0.0-4.0-10.0-1.0","spark_pilot_norest","9445","3","9","Female","","","","","","","null","<div style=""font-size:60px;"">+</div>","null","fixation","","","","","","","","","","","",""
"revaluation","277","1198687","0.0-4.0-10.0-0.1","spark_pilot_norest","9445","3","9","Female","","false","","","","","[910.8000000007451]","./assets/img/ocean/animals/octopus.jpg","[""ArrowLeft""]","second stage test","ocean","0","{""ArrowUp,ArrowLeft"":23,""ArrowUp,ArrowRight"":10,""ArrowDown,ArrowLeft"":8,""ArrowDown,ArrowRight"":30}","true","ArrowUp,ArrowLeft","","original","1","","","",""
"html-keyboard-response","278","1199190","0.0-4.0-10.0-1.1","spark_pilot_norest","9445","3","9","Female","","","","","","","null","<div style=""font-size:60px;"">+</div>","null","fixation","","","","","","","","","","","",""
"revaluation","279","1199669","0.0-4.0-10.0-0.2","spark_pilot_norest","9445","3","9","Female","","false","","","","","[474.7999999988824]","./assets/img/ocean/animals/octopus.jpg","[""ArrowLeft""]","second stage test","ocean","0","{""ArrowUp,ArrowLeft"":23,""ArrowUp,ArrowRight"":10,""ArrowDown,ArrowLeft"":8,""ArrowDown,ArrowRight"":30}","true","ArrowUp,ArrowLeft","","original","1","","","",""
"html-keyboard-response","280","1200174","0.0-4.0-10.0-1.2","spark_pilot_norest","9445","3","9","Female","","","","","","","null","<div style=""font-size:60px;"">+</div>","null","fixation","","","","","","","","","","","",""
"revaluation","281","1200633","0.0-4.0-10.0-0.3","spark_pilot_norest","9445","3","9","Female","","false","","","","","[456.19999999925494]","./assets/img/ocean/animals/octopus.jpg","[""ArrowLeft""]","second stage test","ocean","0","{""ArrowUp,ArrowLeft"":23,""ArrowUp,ArrowRight"":10,""ArrowDown,ArrowLeft"":8,""ArrowDown,ArrowRight"":30}","true","ArrowUp,ArrowLeft","","original","1","","","",""
"html-keyboard-response","282","1201142","0.0-4.0-10.0-1.3","spark_pilot_norest","9445","3","9","Female","","","","","","","null","<div style=""font-size:60px;"">+</div>","null","fixation","","","","","","","","","","","",""
"revaluation","283","1201823","0.0-4.0-10.0-0.4","spark_pilot_norest","9445","3","9","Female","","false","","","","","[677.9000000003725]","./assets/img/ocean/animals/seahorse.jpg","[""ArrowRight""]","second stage test","ocean","0","{""ArrowUp,ArrowLeft"":23,""ArrowUp,ArrowRight"":10,""ArrowDown,ArrowLeft"":8,""ArrowDown,ArrowRight"":30}","true","ArrowDown,ArrowRight","","original","1","","","",""
"html-keyboard-response","284","1202326","0.0-4.0-10.0-1.4","spark_pilot_norest","9445","3","9","Female","","","","","","","null","<div style=""font-size:60px;"">+</div>","null","fixation","","","","","","","","","","","",""
"revaluation","285","1202790","0.0-4.0-10.0-0.5","spark_pilot_norest","9445","3","9","Female","","false","","","","","[459.69999999925494]","./assets/img/ocean/animals/seahorse.jpg","[""ArrowRight""]","second stage test","ocean","0","{""ArrowUp,ArrowLeft"":23,""ArrowUp,ArrowRight"":10,""ArrowDown,ArrowLeft"":8,""ArrowDown,ArrowRight"":30}","true","ArrowDown,ArrowRight","","original","1","","","",""
"html-keyboard-response","286","1203294","0.0-4.0-10.0-1.5","spark_pilot_norest","9445","3","9","Female","","","","","","","null","<div style=""font-size:60px;"">+</div>","null","fixation","","","","","","","","","","","",""
"revaluation","287","1203746","0.0-4.0-10.0-0.6","spark_pilot_norest","9445","3","9","Female","","false","","","","","[447.90000000037253]","./assets/img/ocean/animals/seahorse.jpg","[""ArrowRight""]","second stage test","ocean","0","{""ArrowUp,ArrowLeft"":23,""ArrowUp,ArrowRight"":10,""ArrowDown,ArrowLeft"":8,""ArrowDown,ArrowRight"":30}","true","ArrowDown,ArrowRight","","original","1","","","",""
"html-keyboard-response","288","1204254","0.0-4.0-10.0-1.6","spark_pilot_norest","9445","3","9","Female","","","","","","","null","<div style=""font-size:60px;"">+</div>","null","fixation","","","","","","","","","","","",""
"revaluation","289","1204691","0.0-4.0-10.0-0.7","spark_pilot_norest","9445","3","9","Female","","false","","","","","[433.19999999925494]","./assets/img/ocean/animals/seahorse.jpg","[""ArrowRight""]","second stage test","ocean","0","{""ArrowUp,ArrowLeft"":23,""ArrowUp,ArrowRight"":10,""ArrowDown,ArrowLeft"":8,""ArrowDown,ArrowRight"":30}","true","ArrowDown,ArrowRight","","original","1","","","",""
"html-keyboard-response","290","1205198","0.0-4.0-10.0-1.7","spark_pilot_norest","9445","3","9","Female","","","","","","","null","<div style=""font-size:60px;"">+</div>","null","fixation","","","","","","","","","","","",""
"learning-instructions","291","1210754","0.0-4.0-0.1-0.2","spark_pilot_norest","9445","3","9","Female","","","","","","","2783.7999999988824","<p> This time you are searching for treasure in the <b>canyon</b>.</p>","","instructions","","","","","","","","","","","",""
"learning-instructions","292","1229034","0.0-4.0-0.1-0.3","spark_pilot_norest","9445","3","9","Female","","","","","","","1011.2999999988824","<p><b>New</b> animals with <b>new</b> treasure chests live here. You need to explore to discover where the animal with the best treasure chest is.</p>
                    <p> Like before, once you figure out which animal has the chest with the most treasure, you should try to get to that animal and select that chest! </p>","","instructions","","","","","","","","","","","",""
"learning-instructions","293","1244998","0.0-4.0-1.1-0.1","spark_pilot_norest","9445","3","9","Female","","","","","","","1223.5999999996275","<p> Remember, when you see a picture of the place, use the up and down keys to <b>find an animal</b>.</p>
            <p> When you encounter an animal, you should use the left and right keys to <b>select a treasure chest</b>.</p>
            <p> Don't forget to look out for the robber! </p>","","instructions","","","","","","","","","","","",""
"revaluation","294","1251022","0.0-4.0-2.1-0.50","spark_pilot_norest","9445","3","9","Female","","false","","","","","[751.5999999996275,568]","./assets/img/canyon/memory/28.jpg","[""ArrowUp"",""ArrowLeft""]","value training","canyon","26","{""ArrowUp,ArrowLeft"":26,""ArrowUp,ArrowRight"":10,""ArrowDown,ArrowLeft"":5,""ArrowDown,ArrowRight"":17}","true","ArrowUp,ArrowLeft","false","revaluation","2","0","","",""
"html-keyboard-response","295","1251526","0.0-4.0-2.1-1.50","spark_pilot_norest","9445","3","9","Female","","","","","","","null","<div style=""font-size:60px;"">+</div>","null","fixation","","","","","","","","","1","","",""
"revaluation","296","1257551","0.0-4.0-2.1-0.51","spark_pilot_norest","9445","3","9","Female","","false","","","","","[474.2000000011176,418.09999999962747]","./assets/img/canyon/memory/18.jpg","[""ArrowDown"",""ArrowRight""]","value training","canyon","17","{""ArrowUp,ArrowLeft"":26,""ArrowUp,ArrowRight"":10,""ArrowDown,ArrowLeft"":5,""ArrowDown,ArrowRight"":17}","false","ArrowDown,ArrowRight","false","revaluation","2","2","","",""
"html-keyboard-response","297","1258054","0.0-4.0-2.1-1.51","spark_pilot_norest","9445","3","9","Female","","","","","","","null","<div style=""font-size:60px;"">+</div>","null","fixation","","","","","","","","","3","","",""
"revaluation","298","1264078","0.0-4.0-2.1-0.52","spark_pilot_norest","9445","3","9","Female","","false","","","","","[584.6999999992549,465.59999999962747]","./assets/img/canyon/memory/2.jpg","[""ArrowDown"",""ArrowLeft""]","value training","canyon","5","{""ArrowUp,ArrowLeft"":26,""ArrowUp,ArrowRight"":10,""ArrowDown,ArrowLeft"":5,""ArrowDown,ArrowRight"":17}","false","ArrowDown,ArrowLeft","false","revaluation","2","4","","",""
"html-keyboard-response","299","1264582","0.0-4.0-2.1-1.52","spark_pilot_norest","9445","3","9","Female","","","","","","","null","<div style=""font-size:60px;"">+</div>","null","fixation","","","","","","","","","5","","",""
"revaluation","300","1270606","0.0-4.0-2.1-0.53","spark_pilot_norest","9445","3","9","Female","","false","","","","","[472.30000000074506,350.5]","./assets/img/canyon/memory/20.jpg","[""ArrowUp"",""ArrowLeft""]","value training","canyon","26","{""ArrowUp,ArrowLeft"":26,""ArrowUp,ArrowRight"":10,""ArrowDown,ArrowLeft"":5,""ArrowDown,ArrowRight"":17}","true","ArrowUp,ArrowLeft","false","revaluation","2","6","","",""
"html-keyboard-response","301","1271110","0.0-4.0-2.1-1.53","spark_pilot_norest","9445","3","9","Female","","","","","","","null","<div style=""font-size:60px;"">+</div>","null","fixation","","","","","","","","","7","","",""
"revaluation","302","1277134","0.0-4.0-2.1-0.54","spark_pilot_norest","9445","3","9","Female","","false","","","","","[957.2999999988824,744.6999999992549]","./assets/img/canyon/memory/5.jpg","[""ArrowDown"",""ArrowRight""]","value training","canyon","17","{""ArrowUp,ArrowLeft"":26,""ArrowUp,ArrowRight"":10,""ArrowDown,ArrowLeft"":5,""ArrowDown,ArrowRight"":17}","false","ArrowDown,ArrowRight","false","revaluation","2","8","","",""
"html-keyboard-response","303","1277638","0.0-4.0-2.1-1.54","spark_pilot_norest","9445","3","9","Female","","","","","","","null","<div style=""font-size:60px;"">+</div>","null","fixation","","","","","","","","","9","","",""
"revaluation","304","1283662","0.0-4.0-2.1-0.55","spark_pilot_norest","9445","3","9","Female","","false","","","","","[692.5,1032.2000000011176]","./assets/img/canyon/memory/1.jpg","[""ArrowUp"",""ArrowLeft""]","value training","canyon","26","{""ArrowUp,ArrowLeft"":26,""ArrowUp,ArrowRight"":10,""ArrowDown,ArrowLeft"":5,""ArrowDown,ArrowRight"":17}","true","ArrowUp,ArrowLeft","false","revaluation","2","10","","",""
"html-keyboard-response","305","1284166","0.0-4.0-2.1-1.55","spark_pilot_norest","9445","3","9","Female","","","","","","","null","<div style=""font-size:60px;"">+</div>","null","fixation","","","","","","","","","11","","",""
"revaluation","306","1290190","0.0-4.0-2.1-0.56","spark_pilot_norest","9445","3","9","Female","","false","","","","","[614,491.2000000011176]","./assets/img/canyon/memory/3.jpg","[""ArrowUp"",""ArrowLeft""]","value training","canyon","26","{""ArrowUp,ArrowLeft"":26,""ArrowUp,ArrowRight"":10,""ArrowDown,ArrowLeft"":5,""ArrowDown,ArrowRight"":17}","true","ArrowUp,ArrowLeft","false","revaluation","2","12","","",""
"html-keyboard-response","307","1290694","0.0-4.0-2.1-1.56","spark_pilot_norest","9445","3","9","Female","","","","","","","null","<div style=""font-size:60px;"">+</div>","null","fixation","","","","","","","","","13","","",""
"revaluation","308","1296718","0.0-4.0-2.1-0.57","spark_pilot_norest","9445","3","9","Female","","false","","","","","[746.1999999992549,808.0999999996275]","./assets/img/canyon/memory/4.jpg","[""ArrowUp"",""ArrowLeft""]","value training","canyon","26","{""ArrowUp,ArrowLeft"":26,""ArrowUp,ArrowRight"":10,""ArrowDown,ArrowLeft"":5,""ArrowDown,ArrowRight"":17}","true","ArrowUp,ArrowLeft","false","revaluation","2","14","","",""
"html-keyboard-response","309","1297222","0.0-4.0-2.1-1.57","spark_pilot_norest","9445","3","9","Female","","","","","","","null","<div style=""font-size:60px;"">+</div>","null","fixation","","","","","","","","","15","","",""
"revaluation","310","1303246","0.0-4.0-2.1-0.58","spark_pilot_norest","9445","3","9","Female","","false","","","","","[608.1000000014901,760.6999999992549]","./assets/img/canyon/memory/41.jpg","[""ArrowUp"",""ArrowLeft""]","value training","canyon","26","{""ArrowUp,ArrowLeft"":26,""ArrowUp,ArrowRight"":10,""ArrowDown,ArrowLeft"":5,""ArrowDown,ArrowRight"":17}","true","ArrowUp,ArrowLeft","false","revaluation","2","16","","",""
"html-keyboard-response","311","1303750","0.0-4.0-2.1-1.58","spark_pilot_norest","9445","3","9","Female","","","","","","","null","<div style=""font-size:60px;"">+</div>","null","fixation","","","","","","","","","17","","",""
"revaluation","312","1309774","0.0-4.0-2.1-0.59","spark_pilot_norest","9445","3","9","Female","","false","","","","","[530.0999999996275,848.3000000007451]","./assets/img/canyon/memory/33.jpg","[""ArrowUp"",""ArrowLeft""]","value training","canyon","26","{""ArrowUp,ArrowLeft"":26,""ArrowUp,ArrowRight"":10,""ArrowDown,ArrowLeft"":5,""ArrowDown,ArrowRight"":17}","true","ArrowUp,ArrowLeft","false","revaluation","2","18","","",""
