"trial_type","trial_index","time_elapsed","internal_node_id","task_version","subject_id","assigned_condition","age","gender","success","timeout","failed_images","failed_audio","failed_video","browser_interaction","rt","stimulus","response","task_part","environment","score","rewardMap","correct","fullState","isCatch","condition","order","trial_num","key_press","ground_truth","bonus"
"pavlovia","0","1365","0.0-0.0","spark_pilot_norest","8218","6","16","Female","","","","","","","","","","","","","","","","","","","","","",""
"preload","1","30150","0.0-1.0","spark_pilot_norest","8218","6","16","Female","true","false","[]","[]","[]","[{""event"":""fullscreenenter"",""trial"":2,""time"":33085}]","","","","","","","","","","","","","","","",""
"fullscreen","2","34027","0.0-2.0","spark_pilot_norest","8218","6","16","Female","true","","","","","","","","","","","","","","","","","","","","",""
"audio-button-response","3","36326","0.0-3.0-0.0-0.0","spark_pilot_norest","8218","6","16","Female","","","","","","","2128","./assets/audio/audiotest/turtle.mp3","2","audio_test","","","","","","","","","","","",""
"learning-instructions","4","46338","0.0-3.0-1.0-0.0","spark_pilot_norest","8218","6","16","Female","","","","","","","3015.600000023842","<p> Welcome! Please remember to stay in fullscreen mode and don't click away from the experiment. </p>","","instructions","","","","","","","","","","","",""
"learning-instructions","5","55622","0.0-3.0-1.0-0.1","spark_pilot_norest","8218","6","16","Female","","","","","","","830.8000000715256","<p> Today you will be playing a game to earn treasure. </p>
            <p> At the end of the experiment, you will earn a bonus based on how much treasure you find. </p>
            <img src='./assets/img/instructions/treasure.jpg' class='instructions-image'>","","instructions","","","","","","","","","","","",""
"learning-instructions","6","65321","0.0-3.0-1.0-0.2","spark_pilot_norest","8218","6","16","Female","","","","","","","1409.7000000476837","<p> Animals have hidden treasure in treasure chests. </p>
            <p> You need to first find an animal and then choose which of their treasure chests to search. </p>
            <img src='./assets/img/space/animals/cat.jpg' class='instructions-image'>","","instructions","","","","","","","","","","","",""
"learning-instructions","7","79762","0.0-3.0-1.0-0.3","spark_pilot_norest","8218","6","16","Female","","","","","","","1260.6000000238419","<p> In each round, you will search for treasure in a different place. In the real game, there will be two rounds. </p>
            <p> You will begin with a separate, practice round where you will search for treasure in outer space. </p>
            <img src='./assets/img/space/0.jpg' class='instructions-image'>","","instructions","","","","","","","","","","","",""
"learning-instructions","8","91797","0.0-3.0-1.0-0.4","spark_pilot_norest","8218","6","16","Female","","","","","","","575","<p> On every turn, you will see a picture of the place that you are in, but the specific image may be different each time. </p>
            <p> For example, both of these images mean you are in outer space. </p>
            <img src='./assets/img/instructions/outerspace.jpg' class='instructions-image'>","","instructions","","","","","","","","","","","",""
"learning-instructions","9","100354","0.0-3.0-1.0-0.5","spark_pilot_norest","8218","6","16","Female","","","","","","","721.2000000476837","<p> You need to decide which direction to travel in. </p>
            <p> You can choose between going <b>up or down</b> by using the arrow keys. </p>
            <img src='./assets/img/instructions/updown.jpg' class='instructions-image'>","","instructions","","","","","","","","","","","",""
"learning-instructions","10","111876","0.0-3.0-1.0-0.6","spark_pilot_norest","8218","6","16","Female","","","","","","","2686.1999999284744","<p> You will have <b>2 seconds</b> to make your choice. </p>
            <p> If you do not make a choice within 2 seconds, you will not find an animal or earn treasure. </p>
            <img src='./assets/img/instructions/2seconds.jpg' class='instructions-image'>","","instructions","","","","","","","","","","","",""
"learning-instructions","11","120056","0.0-3.0-1.0-0.7","spark_pilot_norest","8218","6","16","Female","","","","","","","1125.8999999761581","<p> Let’s try practicing that now! </p>
            <p> When you see a picture of the place you are in, press the <b>up</b> key to travel up. </p>
            <img src='./assets/img/instructions/pressUp.jpg' class='instructions-image'>","","instructions","","","","","","","","","","","",""
"revaluation","12","124131","0.0-3.0-2.0-0.0","spark_pilot_norest","8218","6","16","Female","","false","","","","","[758.2999999523163]","./assets/img/space/0.jpg","[""ArrowUp""]","first stage practice","space","0","null","null","ArrowUp","false","","","","","",""
"html-keyboard-response","13","124649","0.0-3.0-2.0-1.0","spark_pilot_norest","8218","6","16","Female","","","","","","","null","<div style=""font-size:60px;"">+</div>","null","fixation","","","","","","","","","","","",""
"revaluation","14","128690","0.0-3.0-2.0-0.1","spark_pilot_norest","8218","6","16","Female","","false","","","","","[1154.7999999523163]","./assets/img/space/1.jpg","[""ArrowUp""]","first stage practice","space","0","null","null","ArrowUp","false","","","","","",""
"html-keyboard-response","15","129208","0.0-3.0-2.0-1.1","spark_pilot_norest","8218","6","16","Female","","","","","","","null","<div style=""font-size:60px;"">+</div>","null","fixation","","","","","","","","","","","",""
"revaluation","16","133249","0.0-3.0-2.0-0.2","spark_pilot_norest","8218","6","16","Female","","false","","","","","[398.60000002384186]","./assets/img/space/2.jpg","[""ArrowUp""]","first stage practice","space","0","null","null","ArrowUp","false","","","","","",""
"html-keyboard-response","17","133758","0.0-3.0-2.0-1.2","spark_pilot_norest","8218","6","16","Female","","","","","","","null","<div style=""font-size:60px;"">+</div>","null","fixation","","","","","","","","","","","",""
"learning-instructions","18","139673","0.0-3.0-3.0-0.0","spark_pilot_norest","8218","6","16","Female","","","","","","","1210.2000000476837","<p> Great job! Now try pressing the <b>down</b> key to travel down. </p>
            <img src='./assets/img/instructions/pressDown.jpg' class='instructions-image'>","","instructions","","","","","","","","","","","",""
"revaluation","19","143719","0.0-3.0-4.0-0.0","spark_pilot_norest","8218","6","16","Female","","false","","","","","[672.1999999284744]","./assets/img/space/3.jpg","[""ArrowDown""]","first stage practice","space","0","null","null","ArrowDown","false","","","","","",""
"html-keyboard-response","20","144238","0.0-3.0-4.0-1.0","spark_pilot_norest","8218","6","16","Female","","","","","","","null","<div style=""font-size:60px;"">+</div>","null","fixation","","","","","","","","","","","",""
"revaluation","21","148268","0.0-3.0-4.0-0.1","spark_pilot_norest","8218","6","16","Female","","false","","","","","[252.5]","./assets/img/space/4.jpg","[""ArrowDown""]","first stage practice","space","0","null","null","ArrowDown","false","","","","","",""
"html-keyboard-response","22","148779","0.0-3.0-4.0-1.1","spark_pilot_norest","8218","6","16","Female","","","","","","","null","<div style=""font-size:60px;"">+</div>","null","fixation","","","","","","","","","","","",""
"revaluation","23","152818","0.0-3.0-4.0-0.2","spark_pilot_norest","8218","6","16","Female","","false","","","","","[479.60000002384186]","./assets/img/space/5.jpg","[""ArrowDown""]","first stage practice","space","0","null","null","ArrowDown","false","","","","","",""
"html-keyboard-response","24","153338","0.0-3.0-4.0-1.2","spark_pilot_norest","8218","6","16","Female","","","","","","","null","<div style=""font-size:60px;"">+</div>","null","fixation","","","","","","","","","","","",""
"learning-instructions","25","164016","0.0-3.0-5.0-0.0","spark_pilot_norest","8218","6","16","Female","","","","","","","782.3999999761581","<p> The animals don’t move, so the animal in the upper part of a place will stay in the upper part of a place, and the animal in the lower part of a place will stay in the lower part of a place. </p>","","instructions","","","","","","","","","","","",""
"learning-instructions","26","174032","0.0-3.0-5.0-0.1","spark_pilot_norest","8218","6","16","Female","","","","","","","851.1000000238419","<p> Each animal has two treasure chests for you to choose from. </p>
            <p> The amount of treasure in each chest can range from <b> 0 to 40 pieces.</b></p>","","instructions","","","","","","","","","","","",""
"learning-instructions","27","185875","0.0-3.0-5.0-0.2","spark_pilot_norest","8218","6","16","Female","","","","","","","614.5","<p> You should decide which chest to search for treasure by using the <b>left</b> and <b>right</b> arrow keys. </p>
            <p><b> Pay attention to which animal is on the screen, as the animals have different treasure chests. </b></p>
            <img src='./assets/img/instructions/leftright.jpg' class='instructions-image'>","","instructions","","","","","","","","","","","",""
"learning-instructions","28","193384","0.0-3.0-5.0-0.3","spark_pilot_norest","8218","6","16","Female","","","","","","","1112.8000000715256","<p> Let’s try practicing that now. </p>
            <p> When you see an animal, choose which chest to search for treasure. </p>
            <img src='./assets/img/instructions/chooseChest.jpg' class='instructions-image'>","","instructions","","","","","","","","","","","",""
"revaluation","29","197408","0.0-3.0-6.0-0.0","spark_pilot_norest","8218","6","16","Female","","false","","","","","[728]","./assets/img/space/animals/cat.jpg","[""ArrowRight""]","second stage practice","space","36","{""ArrowUp,ArrowLeft"":3,""ArrowUp,ArrowRight"":36,""ArrowDown,ArrowLeft"":15,""ArrowDown,ArrowRight"":23}","true","ArrowUp,ArrowRight","","","","","","",""
"html-keyboard-response","30","197915","0.0-3.0-6.0-1.0","spark_pilot_norest","8218","6","16","Female","","","","","","","null","<div style=""font-size:60px;"">+</div>","null","fixation","","","","","","","","","","","",""
"revaluation","31","201958","0.0-3.0-6.0-0.1","spark_pilot_norest","8218","6","16","Female","","false","","","","","[286.89999997615814]","./assets/img/space/animals/cat.jpg","[""ArrowRight""]","second stage practice","space","36","{""ArrowUp,ArrowLeft"":3,""ArrowUp,ArrowRight"":36,""ArrowDown,ArrowLeft"":15,""ArrowDown,ArrowRight"":23}","true","ArrowUp,ArrowRight","","","","","","",""
"html-keyboard-response","32","202469","0.0-3.0-6.0-1.1","spark_pilot_norest","8218","6","16","Female","","","","","","","null","<div style=""font-size:60px;"">+</div>","null","fixation","","","","","","","","","","","",""
"revaluation","33","206489","0.0-3.0-6.0-0.2","spark_pilot_norest","8218","6","16","Female","","false","","","","","[222.89999997615814]","./assets/img/space/animals/rabbit.jpg","[""ArrowLeft""]","second stage practice","space","15","{""ArrowUp,ArrowLeft"":3,""ArrowUp,ArrowRight"":36,""ArrowDown,ArrowLeft"":15,""ArrowDown,ArrowRight"":23}","false","ArrowDown,ArrowLeft","","","","","","",""
"html-keyboard-response","34","207007","0.0-3.0-6.0-1.2","spark_pilot_norest","8218","6","16","Female","","","","","","","null","<div style=""font-size:60px;"">+</div>","null","fixation","","","","","","","","","","","",""
"revaluation","35","211038","0.0-3.0-6.0-0.3","spark_pilot_norest","8218","6","16","Female","","false","","","","","[237.30000007152557]","./assets/img/space/animals/rabbit.jpg","[""ArrowRight""]","second stage practice","space","23","{""ArrowUp,ArrowLeft"":3,""ArrowUp,ArrowRight"":36,""ArrowDown,ArrowLeft"":15,""ArrowDown,ArrowRight"":23}","true","ArrowDown,ArrowRight","","","","","","",""
"html-keyboard-response","36","211558","0.0-3.0-6.0-1.3","spark_pilot_norest","8218","6","16","Female","","","","","","","null","<div style=""font-size:60px;"">+</div>","null","fixation","","","","","","","","","","","",""
"learning-instructions","37","230191","0.0-3.0-7.0-0.0","spark_pilot_norest","8218","6","16","Female","","","","","","","1771","<p> Great job. Now let’s try putting it together. </p>
            <p> On each turn, you will first see a picture to remind you of the place you are in, and you need to choose whether to go up or down. </p>
            <p> Then you will see an animal and choose which of its chests to search for treasure. </p>","","instructions","","","","","","","","","","","",""
"learning-instructions","38","239089","0.0-3.0-7.0-0.1","spark_pilot_norest","8218","6","16","Female","","","","","","","600.2999999523163","<p> When you choose whether to go up or down, try to go to the animal with the chest with the most treasure. </p>
            <p> Try practicing that now! </p>","","instructions","","","","","","","","","","","",""
"revaluation","39","245121","0.0-3.0-8.0-0.0","spark_pilot_norest","8218","6","16","Female","","false","","","","","[775.8999999761581,472.5]","./assets/img/space/6.jpg","[""ArrowUp"",""ArrowRight""]","full practice","space","36","{""ArrowUp,ArrowLeft"":3,""ArrowUp,ArrowRight"":36,""ArrowDown,ArrowLeft"":15,""ArrowDown,ArrowRight"":23}","true","ArrowUp,ArrowRight","false","","","","","",""
"html-keyboard-response","40","245636","0.0-3.0-8.0-1.0","spark_pilot_norest","8218","6","16","Female","","","","","","","null","<div style=""font-size:60px;"">+</div>","null","fixation","","","","","","","","","","","",""
"revaluation","41","251689","0.0-3.0-8.0-0.1","spark_pilot_norest","8218","6","16","Female","","false","","","","","[230.5,328.6999999284744]","./assets/img/space/7.jpg","[""ArrowUp"",""ArrowRight""]","full practice","space","36","{""ArrowUp,ArrowLeft"":3,""ArrowUp,ArrowRight"":36,""ArrowDown,ArrowLeft"":15,""ArrowDown,ArrowRight"":23}","true","ArrowUp,ArrowRight","false","","","","","",""
"html-keyboard-response","42","252208","0.0-3.0-8.0-1.1","spark_pilot_norest","8218","6","16","Female","","","","","","","null","<div style=""font-size:60px;"">+</div>","null","fixation","","","","","","","","","","","",""
"revaluation","43","258234","0.0-3.0-8.0-0.2","spark_pilot_norest","8218","6","16","Female","","false","","","","","[62.300000071525574,265.6999999284744]","./assets/img/space/8.jpg","[""ArrowUp"",""ArrowRight""]","full practice","space","36","{""ArrowUp,ArrowLeft"":3,""ArrowUp,ArrowRight"":36,""ArrowDown,ArrowLeft"":15,""ArrowDown,ArrowRight"":23}","true","ArrowUp,ArrowRight","false","","","","","",""
"html-keyboard-response","44","258747","0.0-3.0-8.0-1.2","spark_pilot_norest","8218","6","16","Female","","","","","","","null","<div style=""font-size:60px;"">+</div>","null","fixation","","","","","","","","","","","",""
"revaluation","45","264788","0.0-3.0-8.0-0.3","spark_pilot_norest","8218","6","16","Female","","false","","","","","[228.60000002384186,334.7999999523163]","./assets/img/space/9.jpg","[""ArrowUp"",""ArrowRight""]","full practice","space","36","{""ArrowUp,ArrowLeft"":3,""ArrowUp,ArrowRight"":36,""ArrowDown,ArrowLeft"":15,""ArrowDown,ArrowRight"":23}","true","ArrowUp,ArrowRight","false","","","","","",""
"html-keyboard-response","46","265307","0.0-3.0-8.0-1.3","spark_pilot_norest","8218","6","16","Female","","","","","","","null","<div style=""font-size:60px;"">+</div>","null","fixation","","","","","","","","","","","",""
"revaluation","47","271330","0.0-3.0-8.0-0.4","spark_pilot_norest","8218","6","16","Female","","false","","","","","[261,421.7999999523163]","./assets/img/space/10.jpg","[""ArrowUp"",""ArrowRight""]","full practice","space","36","{""ArrowUp,ArrowLeft"":3,""ArrowUp,ArrowRight"":36,""ArrowDown,ArrowLeft"":15,""ArrowDown,ArrowRight"":23}","true","ArrowUp,ArrowRight","false","","","","","",""
"html-keyboard-response","48","271832","0.0-3.0-8.0-1.4","spark_pilot_norest","8218","6","16","Female","","","","","","","null","<div style=""font-size:60px;"">+</div>","null","fixation","","","","","","","","","","","",""
"learning-instructions","49","283049","0.0-3.0-9.0-0.0","spark_pilot_norest","8218","6","16","Female","","","","","","","887.2000000476837","<p> One last thing: sometimes, you will see a robber. The robber can be anywhere in the picture. </p>
            <p> If you do not stop them, you will lose treasure. </p>
            <img src='./assets/img/instructions/robber.jpg' class='instructions-image'>","","instructions","","","","","","","","","","","",""
"learning-instructions","50","291451","0.0-3.0-9.0-0.1","spark_pilot_norest","8218","6","16","Female","","","","","","","1180.7999999523163","<p> If you see the robber, you should <b>press the space bar</b> rather than using the arrow keys. </p>
            <p> Try practicing that now! </p>","","instructions","","","","","","","","","","","",""
"revaluation","51","295464","0.0-3.0-10.0-0.0","spark_pilot_norest","8218","6","16","Female","","false","","","","","[575.1999999284744]","./assets/img/space/catch/0.jpg","[""spaceBar""]","catch practice","space","0","{""ArrowUp,ArrowLeft"":3,""ArrowUp,ArrowRight"":36,""ArrowDown,ArrowLeft"":15,""ArrowDown,ArrowRight"":23}","true","spaceBar","true","","","","","",""
"html-keyboard-response","52","295966","0.0-3.0-10.0-1.0","spark_pilot_norest","8218","6","16","Female","","","","","","","null","<div style=""font-size:60px;"">+</div>","null","fixation","","","","","","","","","","","",""
"revaluation","53","299998","0.0-3.0-10.0-0.1","spark_pilot_norest","8218","6","16","Female","","false","","","","","[383]","./assets/img/space/catch/1.jpg","[""spaceBar""]","catch practice","space","0","{""ArrowUp,ArrowLeft"":3,""ArrowUp,ArrowRight"":36,""ArrowDown,ArrowLeft"":15,""ArrowDown,ArrowRight"":23}","true","spaceBar","true","","","","","",""
"html-keyboard-response","54","300506","0.0-3.0-10.0-1.1","spark_pilot_norest","8218","6","16","Female","","","","","","","null","<div style=""font-size:60px;"">+</div>","null","fixation","","","","","","","","","","","",""
"revaluation","55","304550","0.0-3.0-10.0-0.2","spark_pilot_norest","8218","6","16","Female","","false","","","","","[398.5]","./assets/img/space/catch/2.jpg","[""spaceBar""]","catch practice","space","0","{""ArrowUp,ArrowLeft"":3,""ArrowUp,ArrowRight"":36,""ArrowDown,ArrowLeft"":15,""ArrowDown,ArrowRight"":23}","true","spaceBar","true","","","","","",""
"html-keyboard-response","56","305067","0.0-3.0-10.0-1.2","spark_pilot_norest","8218","6","16","Female","","","","","","","null","<div style=""font-size:60px;"">+</div>","null","fixation","","","","","","","","","","","",""
"learning-instructions","57","311803","0.0-3.0-11.0-0.0-0.0","spark_pilot_norest","8218","6","16","Female","","","","","","","1442.5","<p> Now, you will practice a shortened version of the game to get a sense of how it all fits together. </p>","","instructions","","","","","","","","","","","",""
"learning-instructions","58","315961","0.0-3.0-11.0-0.0-0.1","spark_pilot_norest","8218","6","16","Female","","","","","","","960.3999999761581","<p>This time you are searching for treasure in outer space.</p>","","instructions","","","","","","","","","","","",""
"learning-instructions","59","331170","0.0-3.0-11.0-1.0-0.0","spark_pilot_norest","8218","6","16","Female","","","","","","","399.2999999523163","<p> Remember, when you see a picture of the place, use the up and down keys to <b>find an animal</b>.</p>
            <p> When you encounter an animal, you should use the left and right keys to <b>select a treasure chest</b>.</p>
            <p> Don't forget to look out for the robber! </p>","","instructions","","","","","","","","","","","",""
"revaluation","60","337209","0.0-3.0-11.0-2.0-0.0","spark_pilot_norest","8218","6","16","Female","","false","","","","","[1250.7000000476837,383.60000002384186]","./assets/img/space/11.jpg","[""ArrowUp"",""ArrowRight""]","practice block","space","36","{""ArrowUp,ArrowLeft"":3,""ArrowUp,ArrowRight"":36,""ArrowDown,ArrowLeft"":15,""ArrowDown,ArrowRight"":23}","true","ArrowUp,ArrowRight","false","","","","","",""
"html-keyboard-response","61","337724","0.0-3.0-11.0-2.0-1.0","spark_pilot_norest","8218","6","16","Female","","","","","","","null","<div style=""font-size:60px;"">+</div>","null","fixation","","","","","","","","","","","",""
"revaluation","62","343748","0.0-3.0-11.0-2.0-0.1","spark_pilot_norest","8218","6","16","Female","","false","","","","","[501.5,531.7999999523163]","./assets/img/space/12.jpg","[""ArrowUp"",""ArrowRight""]","practice block","space","36","{""ArrowUp,ArrowLeft"":3,""ArrowUp,ArrowRight"":36,""ArrowDown,ArrowLeft"":15,""ArrowDown,ArrowRight"":23}","true","ArrowUp,ArrowRight","false","","","","","",""
"html-keyboard-response","63","344268","0.0-3.0-11.0-2.0-1.1","spark_pilot_norest","8218","6","16","Female","","","","","","","null","<div style=""font-size:60px;"">+</div>","null","fixation","","","","","","","","","","","",""
"revaluation","64","350308","0.0-3.0-11.0-2.0-0.2","spark_pilot_norest","8218","6","16","Female","","false","","","","","[515.3000000715256,267.60000002384186]","./assets/img/space/13.jpg","[""ArrowUp"",""ArrowRight""]","practice block","space","36","{""ArrowUp,ArrowLeft"":3,""ArrowUp,ArrowRight"":36,""ArrowDown,ArrowLeft"":15,""ArrowDown,ArrowRight"":23}","true","ArrowUp,ArrowRight","false","","","","","",""
"html-keyboard-response","65","350819","0.0-3.0-11.0-2.0-1.2","spark_pilot_norest","8218","6","16","Female","","","","","","","null","<div style=""font-size:60px;"">+</div>","null","fixation","","","","","","","","","","","",""
"revaluation","66","356868","0.0-3.0-11.0-2.0-0.3","spark_pilot_norest","8218","6","16","Female","","false","","","","","[743.2000000476837,335]","./assets/img/space/14.jpg","[""ArrowUp"",""ArrowRight""]","practice block","space","36","{""ArrowUp,ArrowLeft"":3,""ArrowUp,ArrowRight"":36,""ArrowDown,ArrowLeft"":15,""ArrowDown,ArrowRight"":23}","true","ArrowUp,ArrowRight","false","","","","","",""
"html-keyboard-response","67","357387","0.0-3.0-11.0-2.0-1.3","spark_pilot_norest","8218","6","16","Female","","","","","","","null","<div style=""font-size:60px;"">+</div>","null","fixation","","","","","","","","","","","",""
"revaluation","68","363400","0.0-3.0-11.0-2.0-0.4","spark_pilot_norest","8218","6","16","Female","","false","","","","","[501,242.79999995231628]","./assets/img/space/11.jpg","[""ArrowUp"",""ArrowRight""]","practice block","space","36","{""ArrowUp,ArrowLeft"":3,""ArrowUp,ArrowRight"":36,""ArrowDown,ArrowLeft"":15,""ArrowDown,ArrowRight"":23}","true","ArrowUp,ArrowRight","false","","","","","",""
"html-keyboard-response","69","363902","0.0-3.0-11.0-2.0-1.4","spark_pilot_norest","8218","6","16","Female","","","","","","","null","<div style=""font-size:60px;"">+</div>","null","fixation","","","","","","","","","","","",""
"revaluation","70","369914","0.0-3.0-11.0-2.0-0.5","spark_pilot_norest","8218","6","16","Female","","false","","","","","[570,236.69999992847443]","./assets/img/space/12.jpg","[""ArrowUp"",""ArrowRight""]","practice block","space","36","{""ArrowUp,ArrowLeft"":3,""ArrowUp,ArrowRight"":36,""ArrowDown,ArrowLeft"":15,""ArrowDown,ArrowRight"":23}","true","ArrowUp,ArrowRight","false","","","","","",""
"html-keyboard-response","71","370416","0.0-3.0-11.0-2.0-1.5","spark_pilot_norest","8218","6","16","Female","","","","","","","null","<div style=""font-size:60px;"">+</div>","null","fixation","","","","","","","","","","","",""
"revaluation","72","376431","0.0-3.0-11.0-2.0-0.6","spark_pilot_norest","8218","6","16","Female","","false","","","","","[443.39999997615814,377.60000002384186]","./assets/img/space/13.jpg","[""ArrowUp"",""ArrowRight""]","practice block","space","36","{""ArrowUp,ArrowLeft"":3,""ArrowUp,ArrowRight"":36,""ArrowDown,ArrowLeft"":15,""ArrowDown,ArrowRight"":23}","true","ArrowUp,ArrowRight","false","","","","","",""
"html-keyboard-response","73","376934","0.0-3.0-11.0-2.0-1.6","spark_pilot_norest","8218","6","16","Female","","","","","","","null","<div style=""font-size:60px;"">+</div>","null","fixation","","","","","","","","","","","",""
"revaluation","74","382952","0.0-3.0-11.0-2.0-0.7","spark_pilot_norest","8218","6","16","Female","","false","","","","","[414.5,373.8000000715256]","./assets/img/space/14.jpg","[""ArrowUp"",""ArrowRight""]","practice block","space","36","{""ArrowUp,ArrowLeft"":3,""ArrowUp,ArrowRight"":36,""ArrowDown,ArrowLeft"":15,""ArrowDown,ArrowRight"":23}","true","ArrowUp,ArrowRight","false","","","","","",""
"html-keyboard-response","75","383455","0.0-3.0-11.0-2.0-1.7","spark_pilot_norest","8218","6","16","Female","","","","","","","null","<div style=""font-size:60px;"">+</div>","null","fixation","","","","","","","","","","","",""
"revaluation","76","387471","0.0-3.0-11.0-2.0-0.8","spark_pilot_norest","8218","6","16","Female","","false","","","","","[431.8000000715256]","./assets/img/space/catch/3.jpg","[""spaceBar""]","practice block","space","0","{""ArrowUp,ArrowLeft"":3,""ArrowUp,ArrowRight"":36,""ArrowDown,ArrowLeft"":15,""ArrowDown,ArrowRight"":23}","true","spaceBar","true","","","","","",""
"html-keyboard-response","77","387972","0.0-3.0-11.0-2.0-1.8","spark_pilot_norest","8218","6","16","Female","","","","","","","null","<div style=""font-size:60px;"">+</div>","null","fixation","","","","","","","","","","","",""
"learning-instructions","78","407096","0.0-3.0-11.0-3.0-0.0","spark_pilot_norest","8218","6","16","Female","","","","","","","5444.200000047684","<p> Now, you will travel with a friend who will choose whether you go up or down first. </p>
            <p> On these turns, you will just see the animal that they found. You will still get to choose which chest to search for treasure.</p>","","instructions","","","","","","","","","","","",""
"revaluation","79","411121","0.0-3.0-11.0-4.0-0.0","spark_pilot_norest","8218","6","16","Female","","false","","","","","[1266.5]","./assets/img/space/animals/rabbit.jpg","[""ArrowRight""]","practice block","space","23","{""ArrowUp,ArrowLeft"":3,""ArrowUp,ArrowRight"":36,""ArrowDown,ArrowLeft"":15,""ArrowDown,ArrowRight"":23}","true","ArrowDown,ArrowRight","","","","","","",""
"html-keyboard-response","80","411636","0.0-3.0-11.0-4.0-1.0","spark_pilot_norest","8218","6","16","Female","","","","","","","null","<div style=""font-size:60px;"">+</div>","null","fixation","","","","","","","","","","","",""
"revaluation","81","415661","0.0-3.0-11.0-4.0-0.1","spark_pilot_norest","8218","6","16","Female","","false","","","","","[393.60000002384186]","./assets/img/space/animals/cat.jpg","[""ArrowLeft""]","practice block","space","3","{""ArrowUp,ArrowLeft"":3,""ArrowUp,ArrowRight"":36,""ArrowDown,ArrowLeft"":15,""ArrowDown,ArrowRight"":23}","false","ArrowUp,ArrowLeft","","","","","","",""
"html-keyboard-response","82","416176","0.0-3.0-11.0-4.0-1.1","spark_pilot_norest","8218","6","16","Female","","","","","","","null","<div style=""font-size:60px;"">+</div>","null","fixation","","","","","","","","","","","",""
"revaluation","83","420204","0.0-3.0-11.0-4.0-0.2","spark_pilot_norest","8218","6","16","Female","","false","","","","","[205.5]","./assets/img/space/animals/rabbit.jpg","[""ArrowRight""]","practice block","space","23","{""ArrowUp,ArrowLeft"":3,""ArrowUp,ArrowRight"":36,""ArrowDown,ArrowLeft"":15,""ArrowDown,ArrowRight"":23}","true","ArrowDown,ArrowRight","","","","","","",""
"html-keyboard-response","84","420720","0.0-3.0-11.0-4.0-1.2","spark_pilot_norest","8218","6","16","Female","","","","","","","null","<div style=""font-size:60px;"">+</div>","null","fixation","","","","","","","","","","","",""
"revaluation","85","424736","0.0-3.0-11.0-4.0-0.3","spark_pilot_norest","8218","6","16","Female","","false","","","","","[216.39999997615814]","./assets/img/space/animals/cat.jpg","[""ArrowRight""]","practice block","space","36","{""ArrowUp,ArrowLeft"":3,""ArrowUp,ArrowRight"":36,""ArrowDown,ArrowLeft"":15,""ArrowDown,ArrowRight"":23}","true","ArrowUp,ArrowRight","","","","","","",""
"html-keyboard-response","86","425238","0.0-3.0-11.0-4.0-1.3","spark_pilot_norest","8218","6","16","Female","","","","","","","null","<div style=""font-size:60px;"">+</div>","null","fixation","","","","","","","","","","","",""
"learning-instructions","87","433422","0.0-3.0-11.0-5.0-0.0","spark_pilot_norest","8218","6","16","Female","","","","","","","null","<p> You have almost finished this part of the game! </p>
            <p> We are going to ask you to make a few more choices. </p>","","instructions","","","","","","","","","","","",""
"learning-instructions","88","449520","0.0-3.0-11.0-5.0-0.1","spark_pilot_norest","8218","6","16","Female","","","","","","","null","<p> First, you need to decide whether to go up or down. When you see each picture, use the arrow keys to make your choice. </p>
            <p><b>You will not see which animal you found, but try to get to the one that will give you the most treasure.</b></p>","","instructions","","","","","","","","","","","",""
"html-keyboard-response","89","450540","0.0-3.0-11.0-6.0-0.0","spark_pilot_norest","8218","6","16","Female","","","","","","","null","<div style=""font-size:100px;color:red;"">Starting in...</div>","null","","","","","","","","","","","","",""
"html-keyboard-response","90","451561","0.0-3.0-11.0-6.0-1.0","spark_pilot_norest","8218","6","16","Female","","","","","","","null","<div style=""font-size:200px;color:red;"">3</div>","null","","","","","","","","","","","","",""
"html-keyboard-response","91","452576","0.0-3.0-11.0-6.0-2.0","spark_pilot_norest","8218","6","16","Female","","","","","","","null","<div style=""font-size:200px;color:red;"">2</div>","null","","","","","","","","","","","","",""
"html-keyboard-response","92","453594","0.0-3.0-11.0-6.0-3.0","spark_pilot_norest","8218","6","16","Female","","","","","","","null","<div style=""font-size:200px;color:red;"">1</div>","null","","","","","","","","","","","","",""
"revaluation","93","454208","0.0-3.0-11.0-7.0","spark_pilot_norest","8218","6","16","Female","","false","","","","","[606.8999999761581]","./assets/img/space/15.jpg","[""ArrowUp""]","practice block","space","0","{""ArrowUp,ArrowLeft"":3,""ArrowUp,ArrowRight"":36,""ArrowDown,ArrowLeft"":15,""ArrowDown,ArrowRight"":23}","true","ArrowUp","false","","","","","",""
"html-keyboard-response","94","454720","0.0-3.0-11.0-8.0","spark_pilot_norest","8218","6","16","Female","","","","","","","null","<div style=""font-size:60px;"">+</div>","null","fixation","","","","","","","","","","","",""
"learning-instructions","95","468180","0.0-3.0-11.0-9.0-0.0","spark_pilot_norest","8218","6","16","Female","","","","","","","null","<p> Now you will see the animals again and can search their chests for treasure. </p>
            <p> This time, you will not see how much treasure you earned, but you will earn more bonus money for making better choices. </p>","","instructions","","","","","","","","","","","",""
"html-keyboard-response","96","469190","0.0-3.0-11.0-10.0-0.0","spark_pilot_norest","8218","6","16","Female","","","","","","","null","<div style=""font-size:100px;color:red;"">Starting in...</div>","null","","","","","","","","","","","","",""
"html-keyboard-response","97","470200","0.0-3.0-11.0-10.0-1.0","spark_pilot_norest","8218","6","16","Female","","","","","","","null","<div style=""font-size:200px;color:red;"">3</div>","null","","","","","","","","","","","","",""
"html-keyboard-response","98","471217","0.0-3.0-11.0-10.0-2.0","spark_pilot_norest","8218","6","16","Female","","","","","","","null","<div style=""font-size:200px;color:red;"">2</div>","null","","","","","","","","","","","","",""
"html-keyboard-response","99","472232","0.0-3.0-11.0-10.0-3.0","spark_pilot_norest","8218","6","16","Female","","","","","","","null","<div style=""font-size:200px;color:red;"">1</div>","null","","","","","","","","","","","","",""
"revaluation","100","472652","0.0-3.0-11.0-11.0-0.0","spark_pilot_norest","8218","6","16","Female","","false","","","","","[408.59999990463257]","./assets/img/space/animals/cat.jpg","[""ArrowRight""]","practice block","space","0","{""ArrowUp,ArrowLeft"":3,""ArrowUp,ArrowRight"":36,""ArrowDown,ArrowLeft"":15,""ArrowDown,ArrowRight"":23}","true","ArrowUp,ArrowRight","","","","","","",""
"html-keyboard-response","101","473160","0.0-3.0-11.0-11.0-1.0","spark_pilot_norest","8218","6","16","Female","","","","","","","null","<div style=""font-size:60px;"">+</div>","null","fixation","","","","","","","","","","","",""
"revaluation","102","473604","0.0-3.0-11.0-11.0-0.1","spark_pilot_norest","8218","6","16","Female","","false","","","","","[439.5]","./assets/img/space/animals/rabbit.jpg","[""ArrowRight""]","practice block","space","0","{""ArrowUp,ArrowLeft"":3,""ArrowUp,ArrowRight"":36,""ArrowDown,ArrowLeft"":15,""ArrowDown,ArrowRight"":23}","true","ArrowDown,ArrowRight","","","","","","",""
"html-keyboard-response","103","474110","0.0-3.0-11.0-11.0-1.1","spark_pilot_norest","8218","6","16","Female","","","","","","","null","<div style=""font-size:60px;"">+</div>","null","fixation","","","","","","","","","","","",""
"learning-instructions","104","479400","0.0-3.0-12.0-0.0","spark_pilot_norest","8218","6","16","Female","","","","","","","677.4000000953674","<p> Before you start, we're going to ask you a few questions about how the game works. </p>","","instructions","","","","","","","","","","","",""
"comp-q","105","486101","0.0-3.0-13.0-0.0-0.0","spark_pilot_norest","8218","6","16","Female","","","","","","","1069","<p> <b> True or False? </b> </p>
            <p> There can be 50 pieces of treasure in a given animal's chest. </p>","1","comp_question","","","","true","","","","","","","",""
"comp-q","106","496312","0.0-3.0-13.0-0.0-1.0","spark_pilot_norest","8218","6","16","Female","","","","","","","3530","<p> <b> That's right! </b> The amount of treasure in each chest can range from 0 to 40 pieces. </p>","0","comp_answer","","","","","","","","","","","",""
"comp-q","107","504412","0.0-3.0-13.0-0.1-0.1","spark_pilot_norest","8218","6","16","Female","","","","","","","920.3000000715256","<p> <b> True or False? </b> </p><p> In this game, all animals have the same amount of treasure in their left and right chests. </p>","1","comp_question","","","","true","","","","","","","",""
"comp-q","108","511473","0.0-3.0-13.0-0.1-1.1","spark_pilot_norest","8218","6","16","Female","","","","","","","1780.5","<p> <b> That's right! </b> Animals have different amounts of treasure in their treasure chests. </p>","0","comp_answer","","","","","","","","","","","",""
"comp-q","109","518391","0.0-3.0-13.0-0.2-0.2","spark_pilot_norest","8218","6","16","Female","","","","","","","1018.2000000476837","<p> <b> True or False? </b> </p><p> The same animal will always be there if you go up in the same place. </p>","0","comp_question","","","","true","","","","","","","",""
"comp-q","110","526171","0.0-3.0-13.0-0.2-1.2","spark_pilot_norest","8218","6","16","Female","","","","","","","1277.6999999284744","<p> <b> That's right! </b> One animal lives in the upper part and one lives in the lower part of every place. </p>","0","comp_answer","","","","","","","","","","","",""
"comp-q","111","532240","0.0-3.0-13.0-0.3-0.3","spark_pilot_norest","8218","6","16","Female","","","","","","","527.5","<p> <b> True or False? </b> </p><p> If you see a different picture, it means you are in a new place. </p>","1","comp_question","","","","true","","","","","","","",""
"comp-q","112","544427","0.0-3.0-13.0-0.3-1.3","spark_pilot_norest","8218","6","16","Female","","","","","","","914.1000000238419","<p> <b> That's right! </b> Lots of different images may show the same place. For example,  you may see three different images that all remind you that you are in outer space. </p>","0","comp_answer","","","","","","","","","","","",""
"learning-instructions","113","556965","0.0-3.0-14.0-0.0","spark_pilot_norest","8218","6","16","Female","","","","","","","2652.9000000953674","<p> Good job. Remember to do your best because the amount of treasure you earn will be converted into bonus money. </p>
            <p> It’s time to start the real game! </p>","","instructions","","","","","","","","","","","",""
"learning-instructions","114","562642","0.0-4.0-0.0-0.0","spark_pilot_norest","8218","6","16","Female","","","","","","","2890.2999999523163","<p> This time you are searching for treasure in the <b>canyon</b>.</p>","","instructions","","","","","","","","","","","",""
"learning-instructions","115","580794","0.0-4.0-0.0-0.1","spark_pilot_norest","8218","6","16","Female","","","","","","","811.6000000238419","<p><b>New</b> animals with <b>new</b> treasure chests live here. You need to explore to discover where the animal with the best treasure chest is.</p>
                    <p> Like before, once you figure out which animal has the chest with the most treasure, you should try to get to that animal and select that chest! </p>","","instructions","","","","","","","","","","","",""
"learning-instructions","116","596429","0.0-4.0-1.0-0.0","spark_pilot_norest","8218","6","16","Female","","","","","","","895.7999999523163","<p> Remember, when you see a picture of the place, use the up and down keys to <b>find an animal</b>.</p>
            <p> When you encounter an animal, you should use the left and right keys to <b>select a treasure chest</b>.</p>
            <p> Don't forget to look out for the robber! </p>","","instructions","","","","","","","","","","","",""
"revaluation","117","602481","0.0-4.0-2.0-0.0","spark_pilot_norest","8218","6","16","Female","","false","","","","","[912.6000000238419,591.5999999046326]","./assets/img/canyon/memory/35.jpg","[""ArrowUp"",""ArrowRight""]","value training","canyon","10","{""ArrowUp,ArrowLeft"":23,""ArrowUp,ArrowRight"":10,""ArrowDown,ArrowLeft"":8,""ArrowDown,ArrowRight"":30}","false","ArrowUp,ArrowRight","false","revaluation","1","0","","",""
"html-keyboard-response","118","603000","0.0-4.0-2.0-1.0","spark_pilot_norest","8218","6","16","Female","","","","","","","null","<div style=""font-size:60px;"">+</div>","null","fixation","","","","","","","","","1","","",""
"revaluation","119","609041","0.0-4.0-2.0-0.1","spark_pilot_norest","8218","6","16","Female","","false","","","","","[261.5,320.6999999284744]","./assets/img/canyon/memory/2.jpg","[""ArrowUp"",""ArrowLeft""]","value training","canyon","23","{""ArrowUp,ArrowLeft"":23,""ArrowUp,ArrowRight"":10,""ArrowDown,ArrowLeft"":8,""ArrowDown,ArrowRight"":30}","false","ArrowUp,ArrowLeft","false","revaluation","1","2","","",""
"html-keyboard-response","120","609561","0.0-4.0-2.0-1.1","spark_pilot_norest","8218","6","16","Female","","","","","","","null","<div style=""font-size:60px;"">+</div>","null","fixation","","","","","","","","","3","","",""
"revaluation","121","615590","0.0-4.0-2.0-0.2","spark_pilot_norest","8218","6","16","Female","","false","","","","","[253,404.10000002384186]","./assets/img/canyon/memory/30.jpg","[""ArrowDown"",""ArrowRight""]","value training","canyon","30","{""ArrowUp,ArrowLeft"":23,""ArrowUp,ArrowRight"":10,""ArrowDown,ArrowLeft"":8,""ArrowDown,ArrowRight"":30}","true","ArrowDown,ArrowRight","false","revaluation","1","4","","",""
"html-keyboard-response","122","616109","0.0-4.0-2.0-1.2","spark_pilot_norest","8218","6","16","Female","","","","","","","null","<div style=""font-size:60px;"">+</div>","null","fixation","","","","","","","","","5","","",""
"revaluation","123","622170","0.0-4.0-2.0-0.3","spark_pilot_norest","8218","6","16","Female","","false","","","","","[277.40000009536743,352.10000002384186]","./assets/img/canyon/memory/1.jpg","[""ArrowDown"",""ArrowRight""]","value training","canyon","30","{""ArrowUp,ArrowLeft"":23,""ArrowUp,ArrowRight"":10,""ArrowDown,ArrowLeft"":8,""ArrowDown,ArrowRight"":30}","true","ArrowDown,ArrowRight","false","revaluation","1","6","","",""
"html-keyboard-response","124","622680","0.0-4.0-2.0-1.3","spark_pilot_norest","8218","6","16","Female","","","","","","","null","<div style=""font-size:60px;"">+</div>","null","fixation","","","","","","","","","7","","",""
"revaluation","125","628692","0.0-4.0-2.0-0.4","spark_pilot_norest","8218","6","16","Female","","false","","","","","[240.89999997615814,339.10000002384186]","./assets/img/canyon/memory/4.jpg","[""ArrowDown"",""ArrowRight""]","value training","canyon","30","{""ArrowUp,ArrowLeft"":23,""ArrowUp,ArrowRight"":10,""ArrowDown,ArrowLeft"":8,""ArrowDown,ArrowRight"":30}","true","ArrowDown,ArrowRight","false","revaluation","1","8","","",""
"html-keyboard-response","126","629195","0.0-4.0-2.0-1.4","spark_pilot_norest","8218","6","16","Female","","","","","","","null","<div style=""font-size:60px;"">+</div>","null","fixation","","","","","","","","","9","","",""
"revaluation","127","633201","0.0-4.0-2.0-0.5","spark_pilot_norest","8218","6","16","Female","","false","","","","","[568.8999999761581]","./assets/img/canyon/catch/3.jpg","[""spaceBar""]","value training","canyon","0","{""ArrowUp,ArrowLeft"":23,""ArrowUp,ArrowRight"":10,""ArrowDown,ArrowLeft"":8,""ArrowDown,ArrowRight"":30}","true","spaceBar","true","revaluation","1","10","","",""
"html-keyboard-response","128","633704","0.0-4.0-2.0-1.5","spark_pilot_norest","8218","6","16","Female","","","","","","","null","<div style=""font-size:60px;"">+</div>","null","fixation","","","","","","","","","11","","",""
"revaluation","129","637712","0.0-4.0-2.0-0.6","spark_pilot_norest","8218","6","16","Female","","false","","","","","[305.2999999523163]","./assets/img/canyon/catch/2.jpg","[""ArrowDown""]","value training","canyon","-10","{""ArrowUp,ArrowLeft"":23,""ArrowUp,ArrowRight"":10,""ArrowDown,ArrowLeft"":8,""ArrowDown,ArrowRight"":30}","false","ArrowDown","true","revaluation","1","12","","",""
"html-keyboard-response","130","638214","0.0-4.0-2.0-1.6","spark_pilot_norest","8218","6","16","Female","","","","","","","null","<div style=""font-size:60px;"">+</div>","null","fixation","","","","","","","","","13","","",""
"revaluation","131","644224","0.0-4.0-2.0-0.7","spark_pilot_norest","8218","6","16","Female","","false","","","","","[434.5,292]","./assets/img/canyon/memory/0.jpg","[""ArrowDown"",""ArrowRight""]","value training","canyon","30","{""ArrowUp,ArrowLeft"":23,""ArrowUp,ArrowRight"":10,""ArrowDown,ArrowLeft"":8,""ArrowDown,ArrowRight"":30}","true","ArrowDown,ArrowRight","false","revaluation","1","14","","",""
"html-keyboard-response","132","644727","0.0-4.0-2.0-1.7","spark_pilot_norest","8218","6","16","Female","","","","","","","null","<div style=""font-size:60px;"">+</div>","null","fixation","","","","","","","","","15","","",""
"revaluation","133","650736","0.0-4.0-2.0-0.8","spark_pilot_norest","8218","6","16","Female","","false","","","","","[459.09999990463257,207.80000007152557]","./assets/img/canyon/memory/24.jpg","[""ArrowDown"",""ArrowRight""]","value training","canyon","30","{""ArrowUp,ArrowLeft"":23,""ArrowUp,ArrowRight"":10,""ArrowDown,ArrowLeft"":8,""ArrowDown,ArrowRight"":30}","true","ArrowDown,ArrowRight","false","revaluation","1","16","","",""
"html-keyboard-response","134","651238","0.0-4.0-2.0-1.8","spark_pilot_norest","8218","6","16","Female","","","","","","","null","<div style=""font-size:60px;"">+</div>","null","fixation","","","","","","","","","17","","",""
"revaluation","135","657250","0.0-4.0-2.0-0.9","spark_pilot_norest","8218","6","16","Female","","false","","","","","[353.39999997615814,104.80000007152557]","./assets/img/canyon/memory/25.jpg","[""ArrowDown"",""ArrowRight""]","value training","canyon","30","{""ArrowUp,ArrowLeft"":23,""ArrowUp,ArrowRight"":10,""ArrowDown,ArrowLeft"":8,""ArrowDown,ArrowRight"":30}","true","ArrowDown,ArrowRight","false","revaluation","1","18","","",""
"html-keyboard-response","136","657753","0.0-4.0-2.0-1.9","spark_pilot_norest","8218","6","16","Female","","","","","","","null","<div style=""font-size:60px;"">+</div>","null","fixation","","","","","","","","","19","","",""
"revaluation","137","663767","0.0-4.0-2.0-0.10","spark_pilot_norest","8218","6","16","Female","","false","","","","","[379.89999997615814,261.10000002384186]","./assets/img/canyon/memory/17.jpg","[""ArrowDown"",""ArrowRight""]","value training","canyon","30","{""ArrowUp,ArrowLeft"":23,""ArrowUp,ArrowRight"":10,""ArrowDown,ArrowLeft"":8,""ArrowDown,ArrowRight"":30}","true","ArrowDown,ArrowRight","false","revaluation","1","20","","",""
"html-keyboard-response","138","664270","0.0-4.0-2.0-1.10","spark_pilot_norest","8218","6","16","Female","","","","","","","null","<div style=""font-size:60px;"">+</div>","null","fixation","","","","","","","","","21","","",""
"revaluation","139","668280","0.0-4.0-2.0-0.11","spark_pilot_norest","8218","6","16","Female","","false","","","","","[388.40000009536743]","./assets/img/canyon/catch/0.jpg","[""ArrowDown""]","value training","canyon","-10","{""ArrowUp,ArrowLeft"":23,""ArrowUp,ArrowRight"":10,""ArrowDown,ArrowLeft"":8,""ArrowDown,ArrowRight"":30}","false","ArrowDown","true","revaluation","1","22","","",""
"html-keyboard-response","140","668784","0.0-4.0-2.0-1.11","spark_pilot_norest","8218","6","16","Female","","","","","","","null","<div style=""font-size:60px;"">+</div>","null","fixation","","","","","","","","","23","","",""
"revaluation","141","674795","0.0-4.0-2.0-0.12","spark_pilot_norest","8218","6","16","Female","","false","","","","","[589.2999999523163,775.3999999761581]","./assets/img/canyon/memory/18.jpg","[""ArrowDown"",""ArrowRight""]","value training","canyon","30","{""ArrowUp,ArrowLeft"":23,""ArrowUp,ArrowRight"":10,""ArrowDown,ArrowLeft"":8,""ArrowDown,ArrowRight"":30}","true","ArrowDown,ArrowRight","false","revaluation","1","24","","",""
"html-keyboard-response","142","675298","0.0-4.0-2.0-1.12","spark_pilot_norest","8218","6","16","Female","","","","","","","null","<div style=""font-size:60px;"">+</div>","null","fixation","","","","","","","","","25","","",""
"revaluation","143","681323","0.0-4.0-2.0-0.13","spark_pilot_norest","8218","6","16","Female","","false","","","","","[441.60000002384186,304.60000002384186]","./assets/img/canyon/memory/18.jpg","[""ArrowDown"",""ArrowRight""]","value training","canyon","30","{""ArrowUp,ArrowLeft"":23,""ArrowUp,ArrowRight"":10,""ArrowDown,ArrowLeft"":8,""ArrowDown,ArrowRight"":30}","true","ArrowDown,ArrowRight","false","revaluation","1","26","","",""
"html-keyboard-response","144","681826","0.0-4.0-2.0-1.13","spark_pilot_norest","8218","6","16","Female","","","","","","","null","<div style=""font-size:60px;"">+</div>","null","fixation","","","","","","","","","27","","",""
"revaluation","145","687838","0.0-4.0-2.0-0.14","spark_pilot_norest","8218","6","16","Female","","false","","","","","[463.60000002384186,468.7000000476837]","./assets/img/canyon/memory/30.jpg","[""ArrowDown"",""ArrowRight""]","value training","canyon","30","{""ArrowUp,ArrowLeft"":23,""ArrowUp,ArrowRight"":10,""ArrowDown,ArrowLeft"":8,""ArrowDown,ArrowRight"":30}","true","ArrowDown,ArrowRight","false","revaluation","1","28","","",""
"html-keyboard-response","146","688340","0.0-4.0-2.0-1.14","spark_pilot_norest","8218","6","16","Female","","","","","","","null","<div style=""font-size:60px;"">+</div>","null","fixation","","","","","","","","","29","","",""
"revaluation","147","694351","0.0-4.0-2.0-0.15","spark_pilot_norest","8218","6","16","Female","","false","","","","","[518,237]","./assets/img/canyon/memory/31.jpg","[""ArrowDown"",""ArrowRight""]","value training","canyon","30","{""ArrowUp,ArrowLeft"":23,""ArrowUp,ArrowRight"":10,""ArrowDown,ArrowLeft"":8,""ArrowDown,ArrowRight"":30}","true","ArrowDown,ArrowRight","false","revaluation","1","30","","",""
"html-keyboard-response","148","694854","0.0-4.0-2.0-1.15","spark_pilot_norest","8218","6","16","Female","","","","","","","null","<div style=""font-size:60px;"">+</div>","null","fixation","","","","","","","","","31","","",""
"revaluation","149","700864","0.0-4.0-2.0-0.16","spark_pilot_norest","8218","6","16","Female","","false","","","","","[417.39999997615814,203.60000002384186]","./assets/img/canyon/memory/2.jpg","[""ArrowDown"",""ArrowRight""]","value training","canyon","30","{""ArrowUp,ArrowLeft"":23,""ArrowUp,ArrowRight"":10,""ArrowDown,ArrowLeft"":8,""ArrowDown,ArrowRight"":30}","true","ArrowDown,ArrowRight","false","revaluation","1","32","","",""
"html-keyboard-response","150","701367","0.0-4.0-2.0-1.16","spark_pilot_norest","8218","6","16","Female","","","","","","","null","<div style=""font-size:60px;"">+</div>","null","fixation","","","","","","","","","33","","",""
"revaluation","151","707387","0.0-4.0-2.0-0.17","spark_pilot_norest","8218","6","16","Female","","false","","","","","[432.39999997615814,272.60000002384186]","./assets/img/canyon/memory/22.jpg","[""ArrowDown"",""ArrowRight""]","value training","canyon","30","{""ArrowUp,ArrowLeft"":23,""ArrowUp,ArrowRight"":10,""ArrowDown,ArrowLeft"":8,""ArrowDown,ArrowRight"":30}","true","ArrowDown,ArrowRight","false","revaluation","1","34","","",""
"html-keyboard-response","152","707889","0.0-4.0-2.0-1.17","spark_pilot_norest","8218","6","16","Female","","","","","","","null","<div style=""font-size:60px;"">+</div>","null","fixation","","","","","","","","","35","","",""
"revaluation","153","713900","0.0-4.0-2.0-0.18","spark_pilot_norest","8218","6","16","Female","","false","","","","","[388.10000002384186,384.7999999523163]","./assets/img/canyon/memory/24.jpg","[""ArrowDown"",""ArrowRight""]","value training","canyon","30","{""ArrowUp,ArrowLeft"":23,""ArrowUp,ArrowRight"":10,""ArrowDown,ArrowLeft"":8,""ArrowDown,ArrowRight"":30}","true","ArrowDown,ArrowRight","false","revaluation","1","36","","",""
"html-keyboard-response","154","714418","0.0-4.0-2.0-1.18","spark_pilot_norest","8218","6","16","Female","","","","","","","null","<div style=""font-size:60px;"">+</div>","null","fixation","","","","","","","","","37","","",""
"revaluation","155","720429","0.0-4.0-2.0-0.19","spark_pilot_norest","8218","6","16","Female","","false","","","","","[486.5,207.89999997615814]","./assets/img/canyon/memory/14.jpg","[""ArrowDown"",""ArrowRight""]","value training","canyon","30","{""ArrowUp,ArrowLeft"":23,""ArrowUp,ArrowRight"":10,""ArrowDown,ArrowLeft"":8,""ArrowDown,ArrowRight"":30}","true","ArrowDown,ArrowRight","false","revaluation","1","38","","",""
"html-keyboard-response","156","720932","0.0-4.0-2.0-1.19","spark_pilot_norest","8218","6","16","Female","","","","","","","null","<div style=""font-size:60px;"">+</div>","null","fixation","","","","","","","","","39","","",""
"revaluation","157","724942","0.0-4.0-2.0-0.20","spark_pilot_norest","8218","6","16","Female","","false","","","","","[527.8999999761581]","./assets/img/canyon/catch/6.jpg","[""spaceBar""]","value training","canyon","0","{""ArrowUp,ArrowLeft"":23,""ArrowUp,ArrowRight"":10,""ArrowDown,ArrowLeft"":8,""ArrowDown,ArrowRight"":30}","true","spaceBar","true","revaluation","1","40","","",""
"html-keyboard-response","158","725446","0.0-4.0-2.0-1.20","spark_pilot_norest","8218","6","16","Female","","","","","","","null","<div style=""font-size:60px;"">+</div>","null","fixation","","","","","","","","","41","","",""
"revaluation","159","731457","0.0-4.0-2.0-0.21","spark_pilot_norest","8218","6","16","Female","","false","","","","","[388.7999999523163,648.7999999523163]","./assets/img/canyon/memory/8.jpg","[""ArrowDown"",""ArrowRight""]","value training","canyon","30","{""ArrowUp,ArrowLeft"":23,""ArrowUp,ArrowRight"":10,""ArrowDown,ArrowLeft"":8,""ArrowDown,ArrowRight"":30}","true","ArrowDown,ArrowRight","false","revaluation","1","42","","",""
"html-keyboard-response","160","731960","0.0-4.0-2.0-1.21","spark_pilot_norest","8218","6","16","Female","","","","","","","null","<div style=""font-size:60px;"">+</div>","null","fixation","","","","","","","","","43","","",""
"revaluation","161","737971","0.0-4.0-2.0-0.22","spark_pilot_norest","8218","6","16","Female","","false","","","","","[398.10000002384186,255.19999992847443]","./assets/img/canyon/memory/26.jpg","[""ArrowDown"",""ArrowRight""]","value training","canyon","30","{""ArrowUp,ArrowLeft"":23,""ArrowUp,ArrowRight"":10,""ArrowDown,ArrowLeft"":8,""ArrowDown,ArrowRight"":30}","true","ArrowDown,ArrowRight","false","revaluation","1","44","","",""
"html-keyboard-response","162","738475","0.0-4.0-2.0-1.22","spark_pilot_norest","8218","6","16","Female","","","","","","","null","<div style=""font-size:60px;"">+</div>","null","fixation","","","","","","","","","45","","",""
"revaluation","163","744485","0.0-4.0-2.0-0.23","spark_pilot_norest","8218","6","16","Female","","false","","","","","[381.89999997615814,578.2999999523163]","./assets/img/canyon/memory/35.jpg","[""ArrowDown"",""ArrowRight""]","value training","canyon","30","{""ArrowUp,ArrowLeft"":23,""ArrowUp,ArrowRight"":10,""ArrowDown,ArrowLeft"":8,""ArrowDown,ArrowRight"":30}","true","ArrowDown,ArrowRight","false","revaluation","1","46","","",""
"html-keyboard-response","164","744987","0.0-4.0-2.0-1.23","spark_pilot_norest","8218","6","16","Female","","","","","","","null","<div style=""font-size:60px;"">+</div>","null","fixation","","","","","","","","","47","","",""
"revaluation","165","751012","0.0-4.0-2.0-0.24","spark_pilot_norest","8218","6","16","Female","","false","","","","","[395,478.40000009536743]","./assets/img/canyon/memory/20.jpg","[""ArrowDown"",""ArrowRight""]","value training","canyon","30","{""ArrowUp,ArrowLeft"":23,""ArrowUp,ArrowRight"":10,""ArrowDown,ArrowLeft"":8,""ArrowDown,ArrowRight"":30}","true","ArrowDown,ArrowRight","false","revaluation","1","48","","",""
"html-keyboard-response","166","751515","0.0-4.0-2.0-1.24","spark_pilot_norest","8218","6","16","Female","","","","","","","null","<div style=""font-size:60px;"">+</div>","null","fixation","","","","","","","","","49","","",""
"revaluation","167","757520","0.0-4.0-2.0-0.25","spark_pilot_norest","8218","6","16","Female","","false","","","","","[422,287.7000000476837]","./assets/img/canyon/memory/34.jpg","[""ArrowDown"",""ArrowRight""]","value training","canyon","30","{""ArrowUp,ArrowLeft"":23,""ArrowUp,ArrowRight"":10,""ArrowDown,ArrowLeft"":8,""ArrowDown,ArrowRight"":30}","true","ArrowDown,ArrowRight","false","revaluation","1","50","","",""
"html-keyboard-response","168","758027","0.0-4.0-2.0-1.25","spark_pilot_norest","8218","6","16","Female","","","","","","","null","<div style=""font-size:60px;"">+</div>","null","fixation","","","","","","","","","51","","",""
"revaluation","169","764039","0.0-4.0-2.0-0.26","spark_pilot_norest","8218","6","16","Female","","false","","","","","[381.5,334.5]","./assets/img/canyon/memory/31.jpg","[""ArrowDown"",""ArrowRight""]","value training","canyon","30","{""ArrowUp,ArrowLeft"":23,""ArrowUp,ArrowRight"":10,""ArrowDown,ArrowLeft"":8,""ArrowDown,ArrowRight"":30}","true","ArrowDown,ArrowRight","false","revaluation","1","52","","",""
"html-keyboard-response","170","764551","0.0-4.0-2.0-1.26","spark_pilot_norest","8218","6","16","Female","","","","","","","null","<div style=""font-size:60px;"">+</div>","null","fixation","","","","","","","","","53","","",""
"revaluation","171","770561","0.0-4.0-2.0-0.27","spark_pilot_norest","8218","6","16","Female","","false","","","","","[370.6999999284744,424]","./assets/img/canyon/memory/41.jpg","[""ArrowDown"",""ArrowRight""]","value training","canyon","30","{""ArrowUp,ArrowLeft"":23,""ArrowUp,ArrowRight"":10,""ArrowDown,ArrowLeft"":8,""ArrowDown,ArrowRight"":30}","true","ArrowDown,ArrowRight","false","revaluation","1","54","","",""
"html-keyboard-response","172","771064","0.0-4.0-2.0-1.27","spark_pilot_norest","8218","6","16","Female","","","","","","","null","<div style=""font-size:60px;"">+</div>","null","fixation","","","","","","","","","55","","",""
"revaluation","173","777074","0.0-4.0-2.0-0.28","spark_pilot_norest","8218","6","16","Female","","false","","","","","[463.6999999284744,363.3000000715256]","./assets/img/canyon/memory/8.jpg","[""ArrowDown"",""ArrowRight""]","value training","canyon","30","{""ArrowUp,ArrowLeft"":23,""ArrowUp,ArrowRight"":10,""ArrowDown,ArrowLeft"":8,""ArrowDown,ArrowRight"":30}","true","ArrowDown,ArrowRight","false","revaluation","1","56","","",""
"html-keyboard-response","174","777576","0.0-4.0-2.0-1.28","spark_pilot_norest","8218","6","16","Female","","","","","","","null","<div style=""font-size:60px;"">+</div>","null","fixation","","","","","","","","","57","","",""
"revaluation","175","783592","0.0-4.0-2.0-0.29","spark_pilot_norest","8218","6","16","Female","","false","","","","","[400.1999999284744,293.10000002384186]","./assets/img/canyon/memory/20.jpg","[""ArrowDown"",""ArrowRight""]","value training","canyon","30","{""ArrowUp,ArrowLeft"":23,""ArrowUp,ArrowRight"":10,""ArrowDown,ArrowLeft"":8,""ArrowDown,ArrowRight"":30}","true","ArrowDown,ArrowRight","false","revaluation","1","58","","",""
"html-keyboard-response","176","784094","0.0-4.0-2.0-1.29","spark_pilot_norest","8218","6","16","Female","","","","","","","null","<div style=""font-size:60px;"">+</div>","null","fixation","","","","","","","","","59","","",""
"revaluation","177","790104","0.0-4.0-2.0-0.30","spark_pilot_norest","8218","6","16","Female","","false","","","","","[496.2999999523163,248.59999990463257]","./assets/img/canyon/memory/26.jpg","[""ArrowDown"",""ArrowLeft""]","value training","canyon","8","{""ArrowUp,ArrowLeft"":23,""ArrowUp,ArrowRight"":10,""ArrowDown,ArrowLeft"":8,""ArrowDown,ArrowRight"":30}","false","ArrowDown,ArrowLeft","false","revaluation","1","60","","",""
"html-keyboard-response","178","790607","0.0-4.0-2.0-1.30","spark_pilot_norest","8218","6","16","Female","","","","","","","null","<div style=""font-size:60px;"">+</div>","null","fixation","","","","","","","","","61","","",""
"revaluation","179","796619","0.0-4.0-2.0-0.31","spark_pilot_norest","8218","6","16","Female","","false","","","","","[370.89999997615814,270.7000000476837]","./assets/img/canyon/memory/14.jpg","[""ArrowDown"",""ArrowRight""]","value training","canyon","30","{""ArrowUp,ArrowLeft"":23,""ArrowUp,ArrowRight"":10,""ArrowDown,ArrowLeft"":8,""ArrowDown,ArrowRight"":30}","true","ArrowDown,ArrowRight","false","revaluation","1","62","","",""
"html-keyboard-response","180","797122","0.0-4.0-2.0-1.31","spark_pilot_norest","8218","6","16","Female","","","","","","","null","<div style=""font-size:60px;"">+</div>","null","fixation","","","","","","","","","63","","",""
"revaluation","181","803140","0.0-4.0-2.0-0.32","spark_pilot_norest","8218","6","16","Female","","false","","","","","[258.1999999284744,319]","./assets/img/canyon/memory/19.jpg","[""ArrowDown"",""ArrowRight""]","value training","canyon","30","{""ArrowUp,ArrowLeft"":23,""ArrowUp,ArrowRight"":10,""ArrowDown,ArrowLeft"":8,""ArrowDown,ArrowRight"":30}","true","ArrowDown,ArrowRight","false","revaluation","1","64","","",""
"html-keyboard-response","182","803643","0.0-4.0-2.0-1.32","spark_pilot_norest","8218","6","16","Female","","","","","","","null","<div style=""font-size:60px;"">+</div>","null","fixation","","","","","","","","","65","","",""
"revaluation","183","809655","0.0-4.0-2.0-0.33","spark_pilot_norest","8218","6","16","Female","","false","","","","","[436.2000000476837,502.1999999284744]","./assets/img/canyon/memory/1.jpg","[""ArrowDown"",""ArrowRight""]","value training","canyon","30","{""ArrowUp,ArrowLeft"":23,""ArrowUp,ArrowRight"":10,""ArrowDown,ArrowLeft"":8,""ArrowDown,ArrowRight"":30}","true","ArrowDown,ArrowRight","false","revaluation","1","66","","",""
"html-keyboard-response","184","810158","0.0-4.0-2.0-1.33","spark_pilot_norest","8218","6","16","Female","","","","","","","null","<div style=""font-size:60px;"">+</div>","null","fixation","","","","","","","","","67","","",""
"revaluation","185","816167","0.0-4.0-2.0-0.34","spark_pilot_norest","8218","6","16","Female","","false","","","","","[323.2000000476837,387.09999990463257]","./assets/img/canyon/memory/41.jpg","[""ArrowDown"",""ArrowRight""]","value training","canyon","30","{""ArrowUp,ArrowLeft"":23,""ArrowUp,ArrowRight"":10,""ArrowDown,ArrowLeft"":8,""ArrowDown,ArrowRight"":30}","true","ArrowDown,ArrowRight","false","revaluation","1","68","","",""
"html-keyboard-response","186","816670","0.0-4.0-2.0-1.34","spark_pilot_norest","8218","6","16","Female","","","","","","","null","<div style=""font-size:60px;"">+</div>","null","fixation","","","","","","","","","69","","",""
"revaluation","187","820681","0.0-4.0-2.0-0.35","spark_pilot_norest","8218","6","16","Female","","false","","","","","[471.7999999523163]","./assets/img/canyon/catch/4.jpg","[""spaceBar""]","value training","canyon","0","{""ArrowUp,ArrowLeft"":23,""ArrowUp,ArrowRight"":10,""ArrowDown,ArrowLeft"":8,""ArrowDown,ArrowRight"":30}","true","spaceBar","true","revaluation","1","70","","",""
"html-keyboard-response","188","821184","0.0-4.0-2.0-1.35","spark_pilot_norest","8218","6","16","Female","","","","","","","null","<div style=""font-size:60px;"">+</div>","null","fixation","","","","","","","","","71","","",""
"revaluation","189","827197","0.0-4.0-2.0-0.36","spark_pilot_norest","8218","6","16","Female","","false","","","","","[392.7999999523163,272.10000002384186]","./assets/img/canyon/memory/25.jpg","[""ArrowDown"",""ArrowRight""]","value training","canyon","30","{""ArrowUp,ArrowLeft"":23,""ArrowUp,ArrowRight"":10,""ArrowDown,ArrowLeft"":8,""ArrowDown,ArrowRight"":30}","true","ArrowDown,ArrowRight","false","revaluation","1","72","","",""
"html-keyboard-response","190","827700","0.0-4.0-2.0-1.36","spark_pilot_norest","8218","6","16","Female","","","","","","","null","<div style=""font-size:60px;"">+</div>","null","fixation","","","","","","","","","73","","",""
"revaluation","191","831709","0.0-4.0-2.0-0.37","spark_pilot_norest","8218","6","16","Female","","false","","","","","[350.39999997615814]","./assets/img/canyon/catch/1.jpg","[""ArrowDown""]","value training","canyon","-10","{""ArrowUp,ArrowLeft"":23,""ArrowUp,ArrowRight"":10,""ArrowDown,ArrowLeft"":8,""ArrowDown,ArrowRight"":30}","false","ArrowDown","true","revaluation","1","74","","",""
"html-keyboard-response","192","832212","0.0-4.0-2.0-1.37","spark_pilot_norest","8218","6","16","Female","","","","","","","null","<div style=""font-size:60px;"">+</div>","null","fixation","","","","","","","","","75","","",""
"revaluation","193","838225","0.0-4.0-2.0-0.38","spark_pilot_norest","8218","6","16","Female","","false","","","","","[554.1000000238419,369.2999999523163]","./assets/img/canyon/memory/10.jpg","[""ArrowDown"",""ArrowRight""]","value training","canyon","30","{""ArrowUp,ArrowLeft"":23,""ArrowUp,ArrowRight"":10,""ArrowDown,ArrowLeft"":8,""ArrowDown,ArrowRight"":30}","true","ArrowDown,ArrowRight","false","revaluation","1","76","","",""
"html-keyboard-response","194","838727","0.0-4.0-2.0-1.38","spark_pilot_norest","8218","6","16","Female","","","","","","","null","<div style=""font-size:60px;"">+</div>","null","fixation","","","","","","","","","77","","",""
"revaluation","195","844738","0.0-4.0-2.0-0.39","spark_pilot_norest","8218","6","16","Female","","false","","","","","[393.6999999284744,476.60000002384186]","./assets/img/canyon/memory/10.jpg","[""ArrowDown"",""ArrowRight""]","value training","canyon","30","{""ArrowUp,ArrowLeft"":23,""ArrowUp,ArrowRight"":10,""ArrowDown,ArrowLeft"":8,""ArrowDown,ArrowRight"":30}","true","ArrowDown,ArrowRight","false","revaluation","1","78","","",""
"html-keyboard-response","196","845240","0.0-4.0-2.0-1.39","spark_pilot_norest","8218","6","16","Female","","","","","","","null","<div style=""font-size:60px;"">+</div>","null","fixation","","","","","","","","","79","","",""
"revaluation","197","851259","0.0-4.0-2.0-0.40","spark_pilot_norest","8218","6","16","Female","","false","","","","","[584.9000000953674,406.60000002384186]","./assets/img/canyon/memory/34.jpg","[""ArrowDown"",""ArrowRight""]","value training","canyon","30","{""ArrowUp,ArrowLeft"":23,""ArrowUp,ArrowRight"":10,""ArrowDown,ArrowLeft"":8,""ArrowDown,ArrowRight"":30}","true","ArrowDown,ArrowRight","false","revaluation","1","80","","",""
"html-keyboard-response","198","851773","0.0-4.0-2.0-1.40","spark_pilot_norest","8218","6","16","Female","","","","","","","null","<div style=""font-size:60px;"">+</div>","null","fixation","","","","","","","","","81","","",""
"revaluation","199","857784","0.0-4.0-2.0-0.41","spark_pilot_norest","8218","6","16","Female","","false","","","","","[559.1999999284744,263.1999999284744]","./assets/img/canyon/memory/0.jpg","[""ArrowDown"",""ArrowRight""]","value training","canyon","30","{""ArrowUp,ArrowLeft"":23,""ArrowUp,ArrowRight"":10,""ArrowDown,ArrowLeft"":8,""ArrowDown,ArrowRight"":30}","true","ArrowDown,ArrowRight","false","revaluation","1","82","","",""
"html-keyboard-response","200","858287","0.0-4.0-2.0-1.41","spark_pilot_norest","8218","6","16","Female","","","","","","","null","<div style=""font-size:60px;"">+</div>","null","fixation","","","","","","","","","83","","",""
"revaluation","201","862297","0.0-4.0-2.0-0.42","spark_pilot_norest","8218","6","16","Female","","false","","","","","[383.5]","./assets/img/canyon/catch/7.jpg","[""ArrowDown""]","value training","canyon","-10","{""ArrowUp,ArrowLeft"":23,""ArrowUp,ArrowRight"":10,""ArrowDown,ArrowLeft"":8,""ArrowDown,ArrowRight"":30}","false","ArrowDown","true","revaluation","1","84","","",""
"html-keyboard-response","202","862799","0.0-4.0-2.0-1.42","spark_pilot_norest","8218","6","16","Female","","","","","","","null","<div style=""font-size:60px;"">+</div>","null","fixation","","","","","","","","","85","","",""
"revaluation","203","868811","0.0-4.0-2.0-0.43","spark_pilot_norest","8218","6","16","Female","","false","","","","","[441,446.60000002384186]","./assets/img/canyon/memory/17.jpg","[""ArrowDown"",""ArrowRight""]","value training","canyon","30","{""ArrowUp,ArrowLeft"":23,""ArrowUp,ArrowRight"":10,""ArrowDown,ArrowLeft"":8,""ArrowDown,ArrowRight"":30}","true","ArrowDown,ArrowRight","false","revaluation","1","86","","",""
"html-keyboard-response","204","869314","0.0-4.0-2.0-1.43","spark_pilot_norest","8218","6","16","Female","","","","","","","null","<div style=""font-size:60px;"">+</div>","null","fixation","","","","","","","","","87","","",""
"revaluation","205","875326","0.0-4.0-2.0-0.44","spark_pilot_norest","8218","6","16","Female","","false","","","","","[432.89999997615814,384.59999990463257]","./assets/img/canyon/memory/4.jpg","[""ArrowDown"",""ArrowRight""]","value training","canyon","30","{""ArrowUp,ArrowLeft"":23,""ArrowUp,ArrowRight"":10,""ArrowDown,ArrowLeft"":8,""ArrowDown,ArrowRight"":30}","true","ArrowDown,ArrowRight","false","revaluation","1","88","","",""
"html-keyboard-response","206","875828","0.0-4.0-2.0-1.44","spark_pilot_norest","8218","6","16","Female","","","","","","","null","<div style=""font-size:60px;"">+</div>","null","fixation","","","","","","","","","89","","",""
"revaluation","207","881840","0.0-4.0-2.0-0.45","spark_pilot_norest","8218","6","16","Female","","false","","","","","[382.10000002384186,371.39999997615814]","./assets/img/canyon/memory/22.jpg","[""ArrowDown"",""ArrowRight""]","value training","canyon","30","{""ArrowUp,ArrowLeft"":23,""ArrowUp,ArrowRight"":10,""ArrowDown,ArrowLeft"":8,""ArrowDown,ArrowRight"":30}","true","ArrowDown,ArrowRight","false","revaluation","1","90","","",""
"html-keyboard-response","208","882342","0.0-4.0-2.0-1.45","spark_pilot_norest","8218","6","16","Female","","","","","","","null","<div style=""font-size:60px;"">+</div>","null","fixation","","","","","","","","","91","","",""
"revaluation","209","888355","0.0-4.0-2.0-0.46","spark_pilot_norest","8218","6","16","Female","","false","","","","","[338.2000000476837,803.1000000238419]","./assets/img/canyon/memory/3.jpg","[""ArrowDown"",""ArrowRight""]","value training","canyon","30","{""ArrowUp,ArrowLeft"":23,""ArrowUp,ArrowRight"":10,""ArrowDown,ArrowLeft"":8,""ArrowDown,ArrowRight"":30}","true","ArrowDown,ArrowRight","false","revaluation","1","92","","",""
"html-keyboard-response","210","888858","0.0-4.0-2.0-1.46","spark_pilot_norest","8218","6","16","Female","","","","","","","null","<div style=""font-size:60px;"">+</div>","null","fixation","","","","","","","","","93","","",""
"revaluation","211","894869","0.0-4.0-2.0-0.47","spark_pilot_norest","8218","6","16","Female","","false","","","","","[505.8000000715256,614.6000000238419]","./assets/img/canyon/memory/19.jpg","[""ArrowDown"",""ArrowRight""]","value training","canyon","30","{""ArrowUp,ArrowLeft"":23,""ArrowUp,ArrowRight"":10,""ArrowDown,ArrowLeft"":8,""ArrowDown,ArrowRight"":30}","true","ArrowDown,ArrowRight","false","revaluation","1","94","","",""
"html-keyboard-response","212","895372","0.0-4.0-2.0-1.47","spark_pilot_norest","8218","6","16","Female","","","","","","","null","<div style=""font-size:60px;"">+</div>","null","fixation","","","","","","","","","95","","",""
"revaluation","213","901382","0.0-4.0-2.0-0.48","spark_pilot_norest","8218","6","16","Female","","false","","","","","[490,860.6000000238419]","./assets/img/canyon/memory/3.jpg","[""ArrowDown"",""ArrowRight""]","value training","canyon","30","{""ArrowUp,ArrowLeft"":23,""ArrowUp,ArrowRight"":10,""ArrowDown,ArrowLeft"":8,""ArrowDown,ArrowRight"":30}","true","ArrowDown,ArrowRight","false","revaluation","1","96","","",""
"html-keyboard-response","214","901885","0.0-4.0-2.0-1.48","spark_pilot_norest","8218","6","16","Female","","","","","","","null","<div style=""font-size:60px;"">+</div>","null","fixation","","","","","","","","","97","","",""
"revaluation","215","905896","0.0-4.0-2.0-0.49","spark_pilot_norest","8218","6","16","Female","","false","","","","","[530.1000000238419]","./assets/img/canyon/catch/5.jpg","[""spaceBar""]","value training","canyon","0","{""ArrowUp,ArrowLeft"":23,""ArrowUp,ArrowRight"":10,""ArrowDown,ArrowLeft"":8,""ArrowDown,ArrowRight"":30}","true","spaceBar","true","revaluation","1","98","","",""
"html-keyboard-response","216","906399","0.0-4.0-2.0-1.49","spark_pilot_norest","8218","6","16","Female","","","","","","","null","<div style=""font-size:60px;"">+</div>","null","fixation","","","","","","","","","99","","",""
"learning-instructions","217","922162","0.0-4.0-3.0-0.0","spark_pilot_norest","8218","6","16","Female","","","","","","","2134.3000000715256","<p> Now, you will travel with a friend who will choose whether you go up or down first. </p>
            <p> On these turns, you will just see the animal that they found. You will still get to choose which chest to search for treasure.</p>","","instructions","","","","","","","","","","","",""
"revaluation","218","926196","0.0-4.0-4.0-0.0","spark_pilot_norest","8218","6","16","Female","","false","","","","","[856.9000000953674]","./assets/img/canyon/animals/lion.jpg","[""ArrowRight""]","revaluation","canyon","7","{""ArrowUp,ArrowLeft"":27,""ArrowUp,ArrowRight"":15,""ArrowDown,ArrowLeft"":21,""ArrowDown,ArrowRight"":7}","false","ArrowDown,ArrowRight","","revaluation","1","0","","",""
"html-keyboard-response","219","926716","0.0-4.0-4.0-1.0","spark_pilot_norest","8218","6","16","Female","","","","","","","null","<div style=""font-size:60px;"">+</div>","null","fixation","","","","","","","","","1","","",""
"revaluation","220","930735","0.0-4.0-4.0-0.1","spark_pilot_norest","8218","6","16","Female","","false","","","","","[620.8999999761581]","./assets/img/canyon/animals/giraffe.jpg","[""ArrowRight""]","revaluation","canyon","15","{""ArrowUp,ArrowLeft"":27,""ArrowUp,ArrowRight"":15,""ArrowDown,ArrowLeft"":21,""ArrowDown,ArrowRight"":7}","false","ArrowUp,ArrowRight","","revaluation","1","2","","",""
"html-keyboard-response","221","931254","0.0-4.0-4.0-1.1","spark_pilot_norest","8218","6","16","Female","","","","","","","null","<div style=""font-size:60px;"">+</div>","null","fixation","","","","","","","","","3","","",""
"revaluation","222","935280","0.0-4.0-4.0-0.2","spark_pilot_norest","8218","6","16","Female","","false","","","","","[322.5]","./assets/img/canyon/animals/lion.jpg","[""ArrowLeft""]","revaluation","canyon","21","{""ArrowUp,ArrowLeft"":27,""ArrowUp,ArrowRight"":15,""ArrowDown,ArrowLeft"":21,""ArrowDown,ArrowRight"":7}","true","ArrowDown,ArrowLeft","","revaluation","1","4","","",""
"html-keyboard-response","223","935795","0.0-4.0-4.0-1.2","spark_pilot_norest","8218","6","16","Female","","","","","","","null","<div style=""font-size:60px;"">+</div>","null","fixation","","","","","","","","","5","","",""
"revaluation","224","939825","0.0-4.0-4.0-0.3","spark_pilot_norest","8218","6","16","Female","","false","","","","","[248.60000002384186]","./assets/img/canyon/animals/lion.jpg","[""ArrowLeft""]","revaluation","canyon","21","{""ArrowUp,ArrowLeft"":27,""ArrowUp,ArrowRight"":15,""ArrowDown,ArrowLeft"":21,""ArrowDown,ArrowRight"":7}","true","ArrowDown,ArrowLeft","","revaluation","1","6","","",""
"html-keyboard-response","225","940335","0.0-4.0-4.0-1.3","spark_pilot_norest","8218","6","16","Female","","","","","","","null","<div style=""font-size:60px;"">+</div>","null","fixation","","","","","","","","","7","","",""
"revaluation","226","944356","0.0-4.0-4.0-0.4","spark_pilot_norest","8218","6","16","Female","","false","","","","","[439.7999999523163]","./assets/img/canyon/animals/lion.jpg","[""ArrowLeft""]","revaluation","canyon","21","{""ArrowUp,ArrowLeft"":27,""ArrowUp,ArrowRight"":15,""ArrowDown,ArrowLeft"":21,""ArrowDown,ArrowRight"":7}","true","ArrowDown,ArrowLeft","","revaluation","1","8","","",""
"html-keyboard-response","227","944875","0.0-4.0-4.0-1.4","spark_pilot_norest","8218","6","16","Female","","","","","","","null","<div style=""font-size:60px;"">+</div>","null","fixation","","","","","","","","","9","","",""
"revaluation","228","948905","0.0-4.0-4.0-0.5","spark_pilot_norest","8218","6","16","Female","","false","","","","","[470.60000002384186]","./assets/img/canyon/animals/giraffe.jpg","[""ArrowLeft""]","revaluation","canyon","27","{""ArrowUp,ArrowLeft"":27,""ArrowUp,ArrowRight"":15,""ArrowDown,ArrowLeft"":21,""ArrowDown,ArrowRight"":7}","true","ArrowUp,ArrowLeft","","revaluation","1","10","","",""
"html-keyboard-response","229","949414","0.0-4.0-4.0-1.5","spark_pilot_norest","8218","6","16","Female","","","","","","","null","<div style=""font-size:60px;"">+</div>","null","fixation","","","","","","","","","11","","",""
"revaluation","230","953424","0.0-4.0-4.0-0.6","spark_pilot_norest","8218","6","16","Female","","false","","","","","[218.30000007152557]","./assets/img/canyon/animals/giraffe.jpg","[""ArrowLeft""]","revaluation","canyon","27","{""ArrowUp,ArrowLeft"":27,""ArrowUp,ArrowRight"":15,""ArrowDown,ArrowLeft"":21,""ArrowDown,ArrowRight"":7}","true","ArrowUp,ArrowLeft","","revaluation","1","12","","",""
"html-keyboard-response","231","953927","0.0-4.0-4.0-1.6","spark_pilot_norest","8218","6","16","Female","","","","","","","null","<div style=""font-size:60px;"">+</div>","null","fixation","","","","","","","","","13","","",""
"revaluation","232","957937","0.0-4.0-4.0-0.7","spark_pilot_norest","8218","6","16","Female","","false","","","","","[167.69999992847443]","./assets/img/canyon/animals/giraffe.jpg","[""ArrowLeft""]","revaluation","canyon","27","{""ArrowUp,ArrowLeft"":27,""ArrowUp,ArrowRight"":15,""ArrowDown,ArrowLeft"":21,""ArrowDown,ArrowRight"":7}","true","ArrowUp,ArrowLeft","","revaluation","1","14","","",""
"html-keyboard-response","233","958439","0.0-4.0-4.0-1.7","spark_pilot_norest","8218","6","16","Female","","","","","","","null","<div style=""font-size:60px;"">+</div>","null","fixation","","","","","","","","","15","","",""
"revaluation","234","962449","0.0-4.0-4.0-0.8","spark_pilot_norest","8218","6","16","Female","","false","","","","","[326.5]","./assets/img/canyon/animals/lion.jpg","[""ArrowLeft""]","revaluation","canyon","21","{""ArrowUp,ArrowLeft"":27,""ArrowUp,ArrowRight"":15,""ArrowDown,ArrowLeft"":21,""ArrowDown,ArrowRight"":7}","true","ArrowDown,ArrowLeft","","revaluation","1","16","","",""
"html-keyboard-response","235","962952","0.0-4.0-4.0-1.8","spark_pilot_norest","8218","6","16","Female","","","","","","","null","<div style=""font-size:60px;"">+</div>","null","fixation","","","","","","","","","17","","",""
"revaluation","236","966963","0.0-4.0-4.0-0.9","spark_pilot_norest","8218","6","16","Female","","false","","","","","[545.6000000238419]","./assets/img/canyon/animals/lion.jpg","[""ArrowLeft""]","revaluation","canyon","21","{""ArrowUp,ArrowLeft"":27,""ArrowUp,ArrowRight"":15,""ArrowDown,ArrowLeft"":21,""ArrowDown,ArrowRight"":7}","true","ArrowDown,ArrowLeft","","revaluation","1","18","","",""
"html-keyboard-response","237","967469","0.0-4.0-4.0-1.9","spark_pilot_norest","8218","6","16","Female","","","","","","","null","<div style=""font-size:60px;"">+</div>","null","fixation","","","","","","","","","19","","",""
"revaluation","238","971474","0.0-4.0-4.0-0.10","spark_pilot_norest","8218","6","16","Female","","false","","","","","[690.8999999761581]","./assets/img/canyon/animals/giraffe.jpg","[""ArrowLeft""]","revaluation","canyon","27","{""ArrowUp,ArrowLeft"":27,""ArrowUp,ArrowRight"":15,""ArrowDown,ArrowLeft"":21,""ArrowDown,ArrowRight"":7}","true","ArrowUp,ArrowLeft","","revaluation","1","20","","",""
"html-keyboard-response","239","971978","0.0-4.0-4.0-1.10","spark_pilot_norest","8218","6","16","Female","","","","","","","null","<div style=""font-size:60px;"">+</div>","null","fixation","","","","","","","","","21","","",""
"revaluation","240","975989","0.0-4.0-4.0-0.11","spark_pilot_norest","8218","6","16","Female","","false","","","","","[291.6999999284744]","./assets/img/canyon/animals/giraffe.jpg","[""ArrowLeft""]","revaluation","canyon","27","{""ArrowUp,ArrowLeft"":27,""ArrowUp,ArrowRight"":15,""ArrowDown,ArrowLeft"":21,""ArrowDown,ArrowRight"":7}","true","ArrowUp,ArrowLeft","","revaluation","1","22","","",""
"html-keyboard-response","241","976492","0.0-4.0-4.0-1.11","spark_pilot_norest","8218","6","16","Female","","","","","","","null","<div style=""font-size:60px;"">+</div>","null","fixation","","","","","","","","","23","","",""
"revaluation","242","980502","0.0-4.0-4.0-0.12","spark_pilot_norest","8218","6","16","Female","","false","","","","","[250.90000009536743]","./assets/img/canyon/animals/lion.jpg","[""ArrowLeft""]","revaluation","canyon","21","{""ArrowUp,ArrowLeft"":27,""ArrowUp,ArrowRight"":15,""ArrowDown,ArrowLeft"":21,""ArrowDown,ArrowRight"":7}","true","ArrowDown,ArrowLeft","","revaluation","1","24","","",""
"html-keyboard-response","243","981004","0.0-4.0-4.0-1.12","spark_pilot_norest","8218","6","16","Female","","","","","","","null","<div style=""font-size:60px;"">+</div>","null","fixation","","","","","","","","","25","","",""
"revaluation","244","985015","0.0-4.0-4.0-0.13","spark_pilot_norest","8218","6","16","Female","","false","","","","","[268.5]","./assets/img/canyon/animals/lion.jpg","[""ArrowLeft""]","revaluation","canyon","21","{""ArrowUp,ArrowLeft"":27,""ArrowUp,ArrowRight"":15,""ArrowDown,ArrowLeft"":21,""ArrowDown,ArrowRight"":7}","true","ArrowDown,ArrowLeft","","revaluation","1","26","","",""
"html-keyboard-response","245","985519","0.0-4.0-4.0-1.13","spark_pilot_norest","8218","6","16","Female","","","","","","","null","<div style=""font-size:60px;"">+</div>","null","fixation","","","","","","","","","27","","",""
"revaluation","246","989527","0.0-4.0-4.0-0.14","spark_pilot_norest","8218","6","16","Female","","false","","","","","[368.6999999284744]","./assets/img/canyon/animals/giraffe.jpg","[""ArrowLeft""]","revaluation","canyon","27","{""ArrowUp,ArrowLeft"":27,""ArrowUp,ArrowRight"":15,""ArrowDown,ArrowLeft"":21,""ArrowDown,ArrowRight"":7}","true","ArrowUp,ArrowLeft","","revaluation","1","28","","",""
"html-keyboard-response","247","990030","0.0-4.0-4.0-1.14","spark_pilot_norest","8218","6","16","Female","","","","","","","null","<div style=""font-size:60px;"">+</div>","null","fixation","","","","","","","","","29","","",""
"revaluation","248","994041","0.0-4.0-4.0-0.15","spark_pilot_norest","8218","6","16","Female","","false","","","","","[305.89999997615814]","./assets/img/canyon/animals/lion.jpg","[""ArrowLeft""]","revaluation","canyon","21","{""ArrowUp,ArrowLeft"":27,""ArrowUp,ArrowRight"":15,""ArrowDown,ArrowLeft"":21,""ArrowDown,ArrowRight"":7}","true","ArrowDown,ArrowLeft","","revaluation","1","30","","",""
"html-keyboard-response","249","994543","0.0-4.0-4.0-1.15","spark_pilot_norest","8218","6","16","Female","","","","","","","null","<div style=""font-size:60px;"">+</div>","null","fixation","","","","","","","","","31","","",""
"revaluation","250","998550","0.0-4.0-4.0-0.16","spark_pilot_norest","8218","6","16","Female","","false","","","","","[320.5]","./assets/img/canyon/animals/giraffe.jpg","[""ArrowLeft""]","revaluation","canyon","27","{""ArrowUp,ArrowLeft"":27,""ArrowUp,ArrowRight"":15,""ArrowDown,ArrowLeft"":21,""ArrowDown,ArrowRight"":7}","true","ArrowUp,ArrowLeft","","revaluation","1","32","","",""
"html-keyboard-response","251","999053","0.0-4.0-4.0-1.16","spark_pilot_norest","8218","6","16","Female","","","","","","","null","<div style=""font-size:60px;"">+</div>","null","fixation","","","","","","","","","33","","",""
"revaluation","252","1003063","0.0-4.0-4.0-0.17","spark_pilot_norest","8218","6","16","Female","","false","","","","","[242.39999997615814]","./assets/img/canyon/animals/giraffe.jpg","[""ArrowLeft""]","revaluation","canyon","27","{""ArrowUp,ArrowLeft"":27,""ArrowUp,ArrowRight"":15,""ArrowDown,ArrowLeft"":21,""ArrowDown,ArrowRight"":7}","true","ArrowUp,ArrowLeft","","revaluation","1","34","","",""
"html-keyboard-response","253","1003574","0.0-4.0-4.0-1.17","spark_pilot_norest","8218","6","16","Female","","","","","","","null","<div style=""font-size:60px;"">+</div>","null","fixation","","","","","","","","","35","","",""
"learning-instructions","254","1012458","0.0-4.0-5.0-0.0","spark_pilot_norest","8218","6","16","Female","","","","","","","null","<p> You have almost finished this part of the game! </p>
            <p> We are going to ask you to make a few more choices. </p>","","instructions","","","","","","","","","","","",""
"learning-instructions","255","1028431","0.0-4.0-5.0-0.1","spark_pilot_norest","8218","6","16","Female","","","","","","","null","<p> First, you need to decide whether to go up or down. When you see each picture, use the arrow keys to make your choice. </p>
            <p><b>You will not see which animal you found, but try to get to the one that will give you the most treasure.</b></p>","","instructions","","","","","","","","","","","",""
"html-keyboard-response","256","1029438","0.0-4.0-6.0-0.0","spark_pilot_norest","8218","6","16","Female","","","","","","","null","<div style=""font-size:100px;color:red;"">Starting in...</div>","null","","","","","","","","","","","","",""
"html-keyboard-response","257","1030448","0.0-4.0-6.0-1.0","spark_pilot_norest","8218","6","16","Female","","","","","","","null","<div style=""font-size:200px;color:red;"">3</div>","null","","","","","","","","","","","","",""
"html-keyboard-response","258","1031468","0.0-4.0-6.0-2.0","spark_pilot_norest","8218","6","16","Female","","","","","","","null","<div style=""font-size:200px;color:red;"">2</div>","null","","","","","","","","","","","","",""
"html-keyboard-response","259","1032488","0.0-4.0-6.0-3.0","spark_pilot_norest","8218","6","16","Female","","","","","","","null","<div style=""font-size:200px;color:red;"">1</div>","null","","","","","","","","","","","","",""
"revaluation","260","1032755","0.0-4.0-7.0-0.0","spark_pilot_norest","8218","6","16","Female","","false","","","","","[259.1999999284744]","./assets/img/canyon/test/3.jpg","[""ArrowUp""]","first stage test","canyon","0","{""ArrowUp,ArrowLeft"":27,""ArrowUp,ArrowRight"":15,""ArrowDown,ArrowLeft"":21,""ArrowDown,ArrowRight"":7}","true","ArrowUp","false","revaluation","1","","","",""
"html-keyboard-response","261","1033268","0.0-4.0-7.0-1.0","spark_pilot_norest","8218","6","16","Female","","","","","","","null","<div style=""font-size:60px;"">+</div>","null","fixation","","","","","","","","","","","",""
"revaluation","262","1034458","0.0-4.0-7.0-0.1","spark_pilot_norest","8218","6","16","Female","","false","","","","","[1181.6999999284744]","./assets/img/canyon/test/1.jpg","[""ArrowUp""]","first stage test","canyon","0","{""ArrowUp,ArrowLeft"":27,""ArrowUp,ArrowRight"":15,""ArrowDown,ArrowLeft"":21,""ArrowDown,ArrowRight"":7}","true","ArrowUp","false","revaluation","1","","","",""
"html-keyboard-response","263","1034977","0.0-4.0-7.0-1.1","spark_pilot_norest","8218","6","16","Female","","","","","","","null","<div style=""font-size:60px;"">+</div>","null","fixation","","","","","","","","","","","",""
"revaluation","264","1035565","0.0-4.0-7.0-0.2","spark_pilot_norest","8218","6","16","Female","","false","","","","","[584.1000000238419]","./assets/img/canyon/test/2.jpg","[""ArrowDown""]","first stage test","canyon","0","{""ArrowUp,ArrowLeft"":27,""ArrowUp,ArrowRight"":15,""ArrowDown,ArrowLeft"":21,""ArrowDown,ArrowRight"":7}","false","ArrowDown","false","revaluation","1","","","",""
"html-keyboard-response","265","1036078","0.0-4.0-7.0-1.2","spark_pilot_norest","8218","6","16","Female","","","","","","","null","<div style=""font-size:60px;"">+</div>","null","fixation","","","","","","","","","","","",""
"revaluation","266","1036464","0.0-4.0-7.0-0.3","spark_pilot_norest","8218","6","16","Female","","false","","","","","[379.2000000476837]","./assets/img/canyon/test/0.jpg","[""ArrowDown""]","first stage test","canyon","0","{""ArrowUp,ArrowLeft"":27,""ArrowUp,ArrowRight"":15,""ArrowDown,ArrowLeft"":21,""ArrowDown,ArrowRight"":7}","false","ArrowDown","false","revaluation","1","","","",""
"html-keyboard-response","267","1036978","0.0-4.0-7.0-1.3","spark_pilot_norest","8218","6","16","Female","","","","","","","null","<div style=""font-size:60px;"">+</div>","null","fixation","","","","","","","","","","","",""
"learning-instructions","268","1050337","0.0-4.0-8.0-0.0","spark_pilot_norest","8218","6","16","Female","","","","","","","null","<p> Now you will see the animals again and can search their chests for treasure. </p>
            <p> This time, you will not see how much treasure you earned, but you will earn more bonus money for making better choices. </p>","","instructions","","","","","","","","","","","",""
"html-keyboard-response","269","1051345","0.0-4.0-9.0-0.0","spark_pilot_norest","8218","6","16","Female","","","","","","","null","<div style=""font-size:100px;color:red;"">Starting in...</div>","null","","","","","","","","","","","","",""
"html-keyboard-response","270","1052367","0.0-4.0-9.0-1.0","spark_pilot_norest","8218","6","16","Female","","","","","","","null","<div style=""font-size:200px;color:red;"">3</div>","null","","","","","","","","","","","","",""
"html-keyboard-response","271","1053387","0.0-4.0-9.0-2.0","spark_pilot_norest","8218","6","16","Female","","","","","","","null","<div style=""font-size:200px;color:red;"">2</div>","null","","","","","","","","","","","","",""
"html-keyboard-response","272","1054392","0.0-4.0-9.0-3.0","spark_pilot_norest","8218","6","16","Female","","","","","","","null","<div style=""font-size:200px;color:red;"">1</div>","null","","","","","","","","","","","","",""
"revaluation","273","1054860","0.0-4.0-10.0-0.0","spark_pilot_norest","8218","6","16","Female","","false","","","","","[459.1999999284744]","./assets/img/canyon/animals/giraffe.jpg","[""ArrowRight""]","second stage test","canyon","0","{""ArrowUp,ArrowLeft"":27,""ArrowUp,ArrowRight"":15,""ArrowDown,ArrowLeft"":21,""ArrowDown,ArrowRight"":7}","false","ArrowUp,ArrowRight","","revaluation","1","","","",""
"html-keyboard-response","274","1055378","0.0-4.0-10.0-1.0","spark_pilot_norest","8218","6","16","Female","","","","","","","null","<div style=""font-size:60px;"">+</div>","null","fixation","","","","","","","","","","","",""
"revaluation","275","1055686","0.0-4.0-10.0-0.1","spark_pilot_norest","8218","6","16","Female","","false","","","","","[298]","./assets/img/canyon/animals/giraffe.jpg","[""ArrowLeft""]","second stage test","canyon","0","{""ArrowUp,ArrowLeft"":27,""ArrowUp,ArrowRight"":15,""ArrowDown,ArrowLeft"":21,""ArrowDown,ArrowRight"":7}","true","ArrowUp,ArrowLeft","","revaluation","1","","","",""
"html-keyboard-response","276","1056198","0.0-4.0-10.0-1.1","spark_pilot_norest","8218","6","16","Female","","","","","","","null","<div style=""font-size:60px;"">+</div>","null","fixation","","","","","","","","","","","",""
"revaluation","277","1056460","0.0-4.0-10.0-0.2","spark_pilot_norest","8218","6","16","Female","","false","","","","","[255]","./assets/img/canyon/animals/giraffe.jpg","[""ArrowRight""]","second stage test","canyon","0","{""ArrowUp,ArrowLeft"":27,""ArrowUp,ArrowRight"":15,""ArrowDown,ArrowLeft"":21,""ArrowDown,ArrowRight"":7}","false","ArrowUp,ArrowRight","","revaluation","1","","","",""
"html-keyboard-response","278","1056978","0.0-4.0-10.0-1.2","spark_pilot_norest","8218","6","16","Female","","","","","","","null","<div style=""font-size:60px;"">+</div>","null","fixation","","","","","","","","","","","",""
"revaluation","279","1057155","0.0-4.0-10.0-0.3","spark_pilot_norest","8218","6","16","Female","","false","","","","","[169]","./assets/img/canyon/animals/giraffe.jpg","[""ArrowLeft""]","second stage test","canyon","0","{""ArrowUp,ArrowLeft"":27,""ArrowUp,ArrowRight"":15,""ArrowDown,ArrowLeft"":21,""ArrowDown,ArrowRight"":7}","true","ArrowUp,ArrowLeft","","revaluation","1","","","",""
"html-keyboard-response","280","1057658","0.0-4.0-10.0-1.3","spark_pilot_norest","8218","6","16","Female","","","","","","","null","<div style=""font-size:60px;"">+</div>","null","fixation","","","","","","","","","","","",""
"revaluation","281","1057777","0.0-4.0-10.0-0.4","spark_pilot_norest","8218","6","16","Female","","false","","","","","[111.60000002384186]","./assets/img/canyon/animals/lion.jpg","[""ArrowRight""]","second stage test","canyon","0","{""ArrowUp,ArrowLeft"":27,""ArrowUp,ArrowRight"":15,""ArrowDown,ArrowLeft"":21,""ArrowDown,ArrowRight"":7}","false","ArrowDown,ArrowRight","","revaluation","1","","","",""
"html-keyboard-response","282","1058297","0.0-4.0-10.0-1.4","spark_pilot_norest","8218","6","16","Female","","","","","","","null","<div style=""font-size:60px;"">+</div>","null","fixation","","","","","","","","","","","",""
"revaluation","283","1058380","0.0-4.0-10.0-0.5","spark_pilot_norest","8218","6","16","Female","","false","","","","","[75.39999997615814]","./assets/img/canyon/animals/lion.jpg","[""ArrowLeft""]","second stage test","canyon","0","{""ArrowUp,ArrowLeft"":27,""ArrowUp,ArrowRight"":15,""ArrowDown,ArrowLeft"":21,""ArrowDown,ArrowRight"":7}","true","ArrowDown,ArrowLeft","","revaluation","1","","","",""
"html-keyboard-response","284","1058887","0.0-4.0-10.0-1.5","spark_pilot_norest","8218","6","16","Female","","","","","","","null","<div style=""font-size:60px;"">+</div>","null","fixation","","","","","","","","","","","",""
"revaluation","285","1058935","0.0-4.0-10.0-0.6","spark_pilot_norest","8218","6","16","Female","","false","","","","","[40.10000002384186]","./assets/img/canyon/animals/lion.jpg","[""ArrowRight""]","second stage test","canyon","0","{""ArrowUp,ArrowLeft"":27,""ArrowUp,ArrowRight"":15,""ArrowDown,ArrowLeft"":21,""ArrowDown,ArrowRight"":7}","false","ArrowDown,ArrowRight","","revaluation","1","","","",""
"html-keyboard-response","286","1059447","0.0-4.0-10.0-1.6","spark_pilot_norest","8218","6","16","Female","","","","","","","null","<div style=""font-size:60px;"">+</div>","null","fixation","","","","","","","","","","","",""
"revaluation","287","1059539","0.0-4.0-10.0-0.7","spark_pilot_norest","8218","6","16","Female","","false","","","","","[83.5]","./assets/img/canyon/animals/lion.jpg","[""ArrowRight""]","second stage test","canyon","0","{""ArrowUp,ArrowLeft"":27,""ArrowUp,ArrowRight"":15,""ArrowDown,ArrowLeft"":21,""ArrowDown,ArrowRight"":7}","false","ArrowDown,ArrowRight","","revaluation","1","","","",""
"html-keyboard-response","288","1060048","0.0-4.0-10.0-1.7","spark_pilot_norest","8218","6","16","Female","","","","","","","null","<div style=""font-size:60px;"">+</div>","null","fixation","","","","","","","","","","","",""
"learning-instructions","289","1064499","0.0-4.0-0.1-0.2","spark_pilot_norest","8218","6","16","Female","","","","","","","1708","<p> This time you are searching for treasure in the <b>ocean</b>.</p>","","instructions","","","","","","","","","","","",""
"learning-instructions","290","1084209","0.0-4.0-0.1-0.3","spark_pilot_norest","8218","6","16","Female","","","","","","","2459.1999999284744","<p><b>New</b> animals with <b>new</b> treasure chests live here. You need to explore to discover where the animal with the best treasure chest is.</p>
                    <p> Like before, once you figure out which animal has the chest with the most treasure, you should try to get to that animal and select that chest! </p>","","instructions","","","","","","","","","","","",""
"learning-instructions","291","1099946","0.0-4.0-1.1-0.1","spark_pilot_norest","8218","6","16","Female","","","","","","","1005.1000000238419","<p> Remember, when you see a picture of the place, use the up and down keys to <b>find an animal</b>.</p>
            <p> When you encounter an animal, you should use the left and right keys to <b>select a treasure chest</b>.</p>
            <p> Don't forget to look out for the robber! </p>","","instructions","","","","","","","","","","","",""
"revaluation","292","1105999","0.0-4.0-2.1-0.50","spark_pilot_norest","8218","6","16","Female","","false","","","","","[928.8000000715256,465.60000002384186]","./assets/img/ocean/memory/3.jpg","[""ArrowUp"",""ArrowRight""]","value training","ocean","10","{""ArrowUp,ArrowLeft"":26,""ArrowUp,ArrowRight"":10,""ArrowDown,ArrowLeft"":5,""ArrowDown,ArrowRight"":17}","false","ArrowUp,ArrowRight","false","original","2","0","","",""
"html-keyboard-response","293","1106518","0.0-4.0-2.1-1.50","spark_pilot_norest","8218","6","16","Female","","","","","","","null","<div style=""font-size:60px;"">+</div>","null","fixation","","","","","","","","","1","","",""
"revaluation","294","1112559","0.0-4.0-2.1-0.51","spark_pilot_norest","8218","6","16","Female","","false","","","","","[202.39999997615814,314.89999997615814]","./assets/img/ocean/memory/18.jpg","[""ArrowDown"",""ArrowRight""]","value training","ocean","17","{""ArrowUp,ArrowLeft"":26,""ArrowUp,ArrowRight"":10,""ArrowDown,ArrowLeft"":5,""ArrowDown,ArrowRight"":17}","false","ArrowDown,ArrowRight","false","original","2","2","","",""
"html-keyboard-response","295","1113078","0.0-4.0-2.1-1.51","spark_pilot_norest","8218","6","16","Female","","","","","","","null","<div style=""font-size:60px;"">+</div>","null","fixation","","","","","","","","","3","","",""
"revaluation","296","1119118","0.0-4.0-2.1-0.52","spark_pilot_norest","8218","6","16","Female","","false","","","","","[1101.0999999046326,340.89999997615814]","./assets/img/ocean/memory/1.jpg","[""ArrowDown"",""ArrowLeft""]","value training","ocean","5","{""ArrowUp,ArrowLeft"":26,""ArrowUp,ArrowRight"":10,""ArrowDown,ArrowLeft"":5,""ArrowDown,ArrowRight"":17}","false","ArrowDown,ArrowLeft","false","original","2","4","","",""
"html-keyboard-response","297","1119638","0.0-4.0-2.1-1.52","spark_pilot_norest","8218","6","16","Female","","","","","","","null","<div style=""font-size:60px;"">+</div>","null","fixation","","","","","","","","","5","","",""
"revaluation","298","1125688","0.0-4.0-2.1-0.53","spark_pilot_norest","8218","6","16","Female","","false","","","","","[113.69999992847443,238.59999990463257]","./assets/img/ocean/memory/4.jpg","[""ArrowUp"",""ArrowRight""]","value training","ocean","10","{""ArrowUp,ArrowLeft"":26,""ArrowUp,ArrowRight"":10,""ArrowDown,ArrowLeft"":5,""ArrowDown,ArrowRight"":17}","false","ArrowUp,ArrowRight","false","original","2","6","","",""
"html-keyboard-response","299","1126197","0.0-4.0-2.1-1.53","spark_pilot_norest","8218","6","16","Female","","","","","","","null","<div style=""font-size:60px;"">+</div>","null","fixation","","","","","","","","","7","","",""
"revaluation","300","1132221","0.0-4.0-2.1-0.54","spark_pilot_norest","8218","6","16","Female","","false","","","","","[734,315.89999997615814]","./assets/img/ocean/memory/22.jpg","[""ArrowUp"",""ArrowLeft""]","value training","ocean","26","{""ArrowUp,ArrowLeft"":26,""ArrowUp,ArrowRight"":10,""ArrowDown,ArrowLeft"":5,""ArrowDown,ArrowRight"":17}","true","ArrowUp,ArrowLeft","false","original","2","8","","",""
"html-keyboard-response","301","1132730","0.0-4.0-2.1-1.54","spark_pilot_norest","8218","6","16","Female","","","","","","","null","<div style=""font-size:60px;"">+</div>","null","fixation","","","","","","","","","9","","",""
"revaluation","302","1138745","0.0-4.0-2.1-0.55","spark_pilot_norest","8218","6","16","Female","","false","","","","","[328.6999999284744,280.89999997615814]","./assets/img/ocean/memory/18.jpg","[""ArrowUp"",""ArrowLeft""]","value training","ocean","26","{""ArrowUp,ArrowLeft"":26,""ArrowUp,ArrowRight"":10,""ArrowDown,ArrowLeft"":5,""ArrowDown,ArrowRight"":17}","true","ArrowUp,ArrowLeft","false","original","2","10","","",""
"html-keyboard-response","303","1139254","0.0-4.0-2.1-1.55","spark_pilot_norest","8218","6","16","Female","","","","","","","null","<div style=""font-size:60px;"">+</div>","null","fixation","","","","","","","","","11","","",""
"revaluation","304","1143265","0.0-4.0-2.1-0.56","spark_pilot_norest","8218","6","16","Female","","false","","","","","[266.3000000715256]","./assets/img/ocean/catch/4.jpg","[""ArrowUp""]","value training","ocean","-10","{""ArrowUp,ArrowLeft"":26,""ArrowUp,ArrowRight"":10,""ArrowDown,ArrowLeft"":5,""ArrowDown,ArrowRight"":17}","false","ArrowUp","true","original","2","12","","",""
"html-keyboard-response","305","1143768","0.0-4.0-2.1-1.56","spark_pilot_norest","8218","6","16","Female","","","","","","","null","<div style=""font-size:60px;"">+</div>","null","fixation","","","","","","","","","13","","",""
"revaluation","306","1149779","0.0-4.0-2.1-0.57","spark_pilot_norest","8218","6","16","Female","","false","","","","","[685.1000000238419,390.10000002384186]","./assets/img/ocean/memory/17.jpg","[""ArrowUp"",""ArrowLeft""]","value training","ocean","26","{""ArrowUp,ArrowLeft"":26,""ArrowUp,ArrowRight"":10,""ArrowDown,ArrowLeft"":5,""ArrowDown,ArrowRight"":17}","true","ArrowUp,ArrowLeft","false","original","2","14","","",""
"html-keyboard-response","307","1150282","0.0-4.0-2.1-1.57","spark_pilot_norest","8218","6","16","Female","","","","","","","null","<div style=""font-size:60px;"">+</div>","null","fixation","","","","","","","","","15","","",""
"revaluation","308","1156292","0.0-4.0-2.1-0.58","spark_pilot_norest","8218","6","16","Female","","false","","","","","[685.5999999046326,500.09999990463257]","./assets/img/ocean/memory/20.jpg","[""ArrowUp"",""ArrowLeft""]","value training","ocean","26","{""ArrowUp,ArrowLeft"":26,""ArrowUp,ArrowRight"":10,""ArrowDown,ArrowLeft"":5,""ArrowDown,ArrowRight"":17}","true","ArrowUp,ArrowLeft","false","original","2","16","","",""
"html-keyboard-response","309","1156795","0.0-4.0-2.1-1.58","spark_pilot_norest","8218","6","16","Female","","","","","","","null","<div style=""font-size:60px;"">+</div>","null","fixation","","","","","","","","","17","","",""
"revaluation","310","1162820","0.0-4.0-2.1-0.59","spark_pilot_norest","8218","6","16","Female","","false","","","","","[366.10000002384186,377.2999999523163]","./assets/img/ocean/memory/14.jpg","[""ArrowUp"",""ArrowLeft""]","value training","ocean","26","{""ArrowUp,ArrowLeft"":26,""ArrowUp,ArrowRight"":10,""ArrowDown,ArrowLeft"":5,""ArrowDown,ArrowRight"":17}","true","ArrowUp,ArrowLeft","false","original","2","18","","",""
