"trial_type","trial_index","time_elapsed","internal_node_id","task_version","subject_id","assigned_condition","age","gender","success","timeout","failed_images","failed_audio","failed_video","browser_interaction","rt","stimulus","response","task_part","environment","score","rewardMap","correct","fullState","isCatch","condition","order","trial_num","key_press","ground_truth","bonus"
"pavlovia","0","2014","0.0-0.0","spark_pilot_norest","8559","6","10","Male","","","","","","","","","","","","","","","","","","","","","",""
"preload","1","62663","0.0-1.0","spark_pilot_norest","8559","6","10","Male","true","false","[]","[]","[]","[{""event"":""fullscreenenter"",""trial"":2,""time"":68140}]","","","","","","","","","","","","","","","",""
"fullscreen","2","69125","0.0-2.0","spark_pilot_norest","8559","6","10","Male","true","","","","","","","","","","","","","","","","","","","","",""
"audio-button-response","3","71489","0.0-3.0-0.0-0.0","spark_pilot_norest","8559","6","10","Male","","","","","","","2208","./assets/audio/audiotest/turtle.mp3","2","audio_test","","","","","","","","","","","",""
"learning-instructions","4","82718","0.0-3.0-1.0-0.0","spark_pilot_norest","8559","6","10","Male","","","","","","","4139.600000000035","<p> Welcome! Please remember to stay in fullscreen mode and don't click away from the experiment. </p>","","instructions","","","","","","","","","","","",""
"learning-instructions","5","95575","0.0-3.0-1.0-0.1","spark_pilot_norest","8559","6","10","Male","","","","","","","4365.899999999965","<p> Today you will be playing a game to earn treasure. </p>
            <p> At the end of the experiment, you will earn a bonus based on how much treasure you find. </p>
            <img src='./assets/img/instructions/treasure.jpg' class='instructions-image'>","","instructions","","","","","","","","","","","",""
"learning-instructions","6","105247","0.0-3.0-1.0-0.2","spark_pilot_norest","8559","6","10","Male","","","","","","","1317.600000000035","<p> Animals have hidden treasure in treasure chests. </p>
            <p> You need to first find an animal and then choose which of their treasure chests to search. </p>
            <img src='./assets/img/space/animals/cat.jpg' class='instructions-image'>","","instructions","","","","","","","","","","","",""
"learning-instructions","7","121870","0.0-3.0-1.0-0.3","spark_pilot_norest","8559","6","10","Male","","","","","","","3356.100000000035","<p> In each round, you will search for treasure in a different place. In the real game, there will be two rounds. </p>
            <p> You will begin with a separate, practice round where you will search for treasure in outer space. </p>
            <img src='./assets/img/space/0.jpg' class='instructions-image'>","","instructions","","","","","","","","","","","",""
"learning-instructions","8","134501","0.0-3.0-1.0-0.4","spark_pilot_norest","8559","6","10","Male","","","","","","","1094.7999999999884","<p> On every turn, you will see a picture of the place that you are in, but the specific image may be different each time. </p>
            <p> For example, both of these images mean you are in outer space. </p>
            <img src='./assets/img/instructions/outerspace.jpg' class='instructions-image'>","","instructions","","","","","","","","","","","",""
"learning-instructions","9","145494","0.0-3.0-1.0-0.5","spark_pilot_norest","8559","6","10","Male","","","","","","","3097.5","<p> You need to decide which direction to travel in. </p>
            <p> You can choose between going <b>up or down</b> by using the arrow keys. </p>
            <img src='./assets/img/instructions/updown.jpg' class='instructions-image'>","","instructions","","","","","","","","","","","",""
"learning-instructions","10","156165","0.0-3.0-1.0-0.6","spark_pilot_norest","8559","6","10","Male","","","","","","","1775.2999999999884","<p> You will have <b>2 seconds</b> to make your choice. </p>
            <p> If you do not make a choice within 2 seconds, you will not find an animal or earn treasure. </p>
            <img src='./assets/img/instructions/2seconds.jpg' class='instructions-image'>","","instructions","","","","","","","","","","","",""
"learning-instructions","11","164791","0.0-3.0-1.0-0.7","spark_pilot_norest","8559","6","10","Male","","","","","","","1520.399999999965","<p> Let’s try practicing that now! </p>
            <p> When you see a picture of the place you are in, press the <b>up</b> key to travel up. </p>
            <img src='./assets/img/instructions/pressUp.jpg' class='instructions-image'>","","instructions","","","","","","","","","","","",""
"revaluation","12","168841","0.0-3.0-2.0-0.0","spark_pilot_norest","8559","6","10","Male","","false","","","","","[543.2999999999884]","./assets/img/space/0.jpg","[""ArrowUp""]","first stage practice","space","0","null","null","ArrowUp","false","","","","","",""
"html-keyboard-response","13","169345","0.0-3.0-2.0-1.0","spark_pilot_norest","8559","6","10","Male","","","","","","","null","<div style=""font-size:60px;"">+</div>","null","fixation","","","","","","","","","","","",""
"revaluation","14","173360","0.0-3.0-2.0-0.1","spark_pilot_norest","8559","6","10","Male","","false","","","","","[1056.7000000000116]","./assets/img/space/1.jpg","[""ArrowUp""]","first stage practice","space","0","null","null","ArrowUp","false","","","","","",""
"html-keyboard-response","15","173865","0.0-3.0-2.0-1.1","spark_pilot_norest","8559","6","10","Male","","","","","","","null","<div style=""font-size:60px;"">+</div>","null","fixation","","","","","","","","","","","",""
"revaluation","16","177883","0.0-3.0-2.0-0.2","spark_pilot_norest","8559","6","10","Male","","false","","","","","[766.9000000000233]","./assets/img/space/2.jpg","[""ArrowUp""]","first stage practice","space","0","null","null","ArrowUp","false","","","","","",""
"html-keyboard-response","17","178386","0.0-3.0-2.0-1.2","spark_pilot_norest","8559","6","10","Male","","","","","","","null","<div style=""font-size:60px;"">+</div>","null","fixation","","","","","","","","","","","",""
"learning-instructions","18","184588","0.0-3.0-3.0-0.0","spark_pilot_norest","8559","6","10","Male","","","","","","","1444.7999999999884","<p> Great job! Now try pressing the <b>down</b> key to travel down. </p>
            <img src='./assets/img/instructions/pressDown.jpg' class='instructions-image'>","","instructions","","","","","","","","","","","",""
"revaluation","19","188598","0.0-3.0-4.0-0.0","spark_pilot_norest","8559","6","10","Male","","false","","","","","[844.7999999999884]","./assets/img/space/3.jpg","[""ArrowDown""]","first stage practice","space","0","null","null","ArrowDown","false","","","","","",""
"html-keyboard-response","20","189102","0.0-3.0-4.0-1.0","spark_pilot_norest","8559","6","10","Male","","","","","","","null","<div style=""font-size:60px;"">+</div>","null","fixation","","","","","","","","","","","",""
"revaluation","21","193117","0.0-3.0-4.0-0.1","spark_pilot_norest","8559","6","10","Male","","false","","","","","[367]","./assets/img/space/4.jpg","[""ArrowDown""]","first stage practice","space","0","null","null","ArrowDown","false","","","","","",""
"html-keyboard-response","22","193623","0.0-3.0-4.0-1.1","spark_pilot_norest","8559","6","10","Male","","","","","","","null","<div style=""font-size:60px;"">+</div>","null","fixation","","","","","","","","","","","",""
"revaluation","23","197647","0.0-3.0-4.0-0.2","spark_pilot_norest","8559","6","10","Male","","true","","","","","[]","./assets/img/space/5.jpg","[]","first stage practice","space","-5","null","null","","false","","","","","",""
"html-keyboard-response","24","198152","0.0-3.0-4.0-1.2","spark_pilot_norest","8559","6","10","Male","","","","","","","null","<div style=""font-size:60px;"">+</div>","null","fixation","","","","","","","","","","","",""
"learning-instructions","25","210680","0.0-3.0-5.0-0.0","spark_pilot_norest","8559","6","10","Male","","","","","","","2592","<p> The animals don’t move, so the animal in the upper part of a place will stay in the upper part of a place, and the animal in the lower part of a place will stay in the lower part of a place. </p>","","instructions","","","","","","","","","","","",""
"learning-instructions","26","230411","0.0-3.0-5.0-0.1","spark_pilot_norest","8559","6","10","Male","","","","","","","10542.799999999988","<p> Each animal has two treasure chests for you to choose from. </p>
            <p> The amount of treasure in each chest can range from <b> 0 to 40 pieces.</b></p>","","instructions","","","","","","","","","","","",""
"learning-instructions","27","246094","0.0-3.0-5.0-0.2","spark_pilot_norest","8559","6","10","Male","","","","","","","4431.29999999993","<p> You should decide which chest to search for treasure by using the <b>left</b> and <b>right</b> arrow keys. </p>
            <p><b> Pay attention to which animal is on the screen, as the animals have different treasure chests. </b></p>
            <img src='./assets/img/instructions/leftright.jpg' class='instructions-image'>","","instructions","","","","","","","","","","","",""
"learning-instructions","28","253432","0.0-3.0-5.0-0.3","spark_pilot_norest","8559","6","10","Male","","","","","","","926.8000000000466","<p> Let’s try practicing that now. </p>
            <p> When you see an animal, choose which chest to search for treasure. </p>
            <img src='./assets/img/instructions/chooseChest.jpg' class='instructions-image'>","","instructions","","","","","","","","","","","",""
"revaluation","29","257456","0.0-3.0-6.0-0.0","spark_pilot_norest","8559","6","10","Male","","false","","","","","[792]","./assets/img/space/animals/cat.jpg","[""ArrowRight""]","second stage practice","space","36","{""ArrowUp,ArrowLeft"":3,""ArrowUp,ArrowRight"":36,""ArrowDown,ArrowLeft"":15,""ArrowDown,ArrowRight"":23}","true","ArrowUp,ArrowRight","","","","","","",""
"html-keyboard-response","30","257958","0.0-3.0-6.0-1.0","spark_pilot_norest","8559","6","10","Male","","","","","","","null","<div style=""font-size:60px;"">+</div>","null","fixation","","","","","","","","","","","",""
"revaluation","31","261977","0.0-3.0-6.0-0.1","spark_pilot_norest","8559","6","10","Male","","false","","","","","[355.29999999993015]","./assets/img/space/animals/cat.jpg","[""ArrowLeft""]","second stage practice","space","3","{""ArrowUp,ArrowLeft"":3,""ArrowUp,ArrowRight"":36,""ArrowDown,ArrowLeft"":15,""ArrowDown,ArrowRight"":23}","false","ArrowUp,ArrowLeft","","","","","","",""
"html-keyboard-response","32","262481","0.0-3.0-6.0-1.1","spark_pilot_norest","8559","6","10","Male","","","","","","","null","<div style=""font-size:60px;"">+</div>","null","fixation","","","","","","","","","","","",""
"revaluation","33","266498","0.0-3.0-6.0-0.2","spark_pilot_norest","8559","6","10","Male","","false","","","","","[325.0999999999767]","./assets/img/space/animals/rabbit.jpg","[""ArrowRight""]","second stage practice","space","23","{""ArrowUp,ArrowLeft"":3,""ArrowUp,ArrowRight"":36,""ArrowDown,ArrowLeft"":15,""ArrowDown,ArrowRight"":23}","true","ArrowDown,ArrowRight","","","","","","",""
"html-keyboard-response","34","267001","0.0-3.0-6.0-1.2","spark_pilot_norest","8559","6","10","Male","","","","","","","null","<div style=""font-size:60px;"">+</div>","null","fixation","","","","","","","","","","","",""
"revaluation","35","271018","0.0-3.0-6.0-0.3","spark_pilot_norest","8559","6","10","Male","","false","","","","","[593]","./assets/img/space/animals/rabbit.jpg","[""ArrowLeft""]","second stage practice","space","15","{""ArrowUp,ArrowLeft"":3,""ArrowUp,ArrowRight"":36,""ArrowDown,ArrowLeft"":15,""ArrowDown,ArrowRight"":23}","false","ArrowDown,ArrowLeft","","","","","","",""
"html-keyboard-response","36","271522","0.0-3.0-6.0-1.3","spark_pilot_norest","8559","6","10","Male","","","","","","","null","<div style=""font-size:60px;"">+</div>","null","fixation","","","","","","","","","","","",""
"learning-instructions","37","289867","0.0-3.0-7.0-0.0","spark_pilot_norest","8559","6","10","Male","","","","","","","1392.9000000000233","<p> Great job. Now let’s try putting it together. </p>
            <p> On each turn, you will first see a picture to remind you of the place you are in, and you need to choose whether to go up or down. </p>
            <p> Then you will see an animal and choose which of its chests to search for treasure. </p>","","instructions","","","","","","","","","","","",""
"learning-instructions","38","301225","0.0-3.0-7.0-0.1","spark_pilot_norest","8559","6","10","Male","","","","","","","3018.5999999999767","<p> When you choose whether to go up or down, try to go to the animal with the chest with the most treasure. </p>
            <p> Try practicing that now! </p>","","instructions","","","","","","","","","","","",""
"revaluation","39","305236","0.0-3.0-8.0-0.0","spark_pilot_norest","8559","6","10","Male","","true","","","","","[]","./assets/img/space/6.jpg","[]","full practice","space","-5","{""ArrowUp,ArrowLeft"":3,""ArrowUp,ArrowRight"":36,""ArrowDown,ArrowLeft"":15,""ArrowDown,ArrowRight"":23}","false","","false","","","","","",""
"html-keyboard-response","40","305741","0.0-3.0-8.0-1.0","spark_pilot_norest","8559","6","10","Male","","","","","","","null","<div style=""font-size:60px;"">+</div>","null","fixation","","","","","","","","","","","",""
"revaluation","41","311761","0.0-3.0-8.0-0.1","spark_pilot_norest","8559","6","10","Male","","false","","","","","[469.5,424.4000000000233]","./assets/img/space/7.jpg","[""ArrowUp"",""ArrowRight""]","full practice","space","36","{""ArrowUp,ArrowLeft"":3,""ArrowUp,ArrowRight"":36,""ArrowDown,ArrowLeft"":15,""ArrowDown,ArrowRight"":23}","true","ArrowUp,ArrowRight","false","","","","","",""
"html-keyboard-response","42","312266","0.0-3.0-8.0-1.1","spark_pilot_norest","8559","6","10","Male","","","","","","","null","<div style=""font-size:60px;"">+</div>","null","fixation","","","","","","","","","","","",""
"revaluation","43","318280","0.0-3.0-8.0-0.2","spark_pilot_norest","8559","6","10","Male","","false","","","","","[1633.3000000000466,810.9000000000233]","./assets/img/space/8.jpg","[""ArrowDown"",""ArrowLeft""]","full practice","space","15","{""ArrowUp,ArrowLeft"":3,""ArrowUp,ArrowRight"":36,""ArrowDown,ArrowLeft"":15,""ArrowDown,ArrowRight"":23}","false","ArrowDown,ArrowLeft","false","","","","","",""
"html-keyboard-response","44","318786","0.0-3.0-8.0-1.2","spark_pilot_norest","8559","6","10","Male","","","","","","","null","<div style=""font-size:60px;"">+</div>","null","fixation","","","","","","","","","","","",""
"revaluation","45","324805","0.0-3.0-8.0-0.3","spark_pilot_norest","8559","6","10","Male","","false","","","","","[786.1999999999534,921.1999999999534]","./assets/img/space/9.jpg","[""ArrowUp"",""ArrowRight""]","full practice","space","36","{""ArrowUp,ArrowLeft"":3,""ArrowUp,ArrowRight"":36,""ArrowDown,ArrowLeft"":15,""ArrowDown,ArrowRight"":23}","true","ArrowUp,ArrowRight","false","","","","","",""
"html-keyboard-response","46","325309","0.0-3.0-8.0-1.3","spark_pilot_norest","8559","6","10","Male","","","","","","","null","<div style=""font-size:60px;"">+</div>","null","fixation","","","","","","","","","","","",""
"revaluation","47","331325","0.0-3.0-8.0-0.4","spark_pilot_norest","8559","6","10","Male","","false","","","","","[393.70000000006985,420.9000000000233]","./assets/img/space/10.jpg","[""ArrowDown"",""ArrowLeft""]","full practice","space","15","{""ArrowUp,ArrowLeft"":3,""ArrowUp,ArrowRight"":36,""ArrowDown,ArrowLeft"":15,""ArrowDown,ArrowRight"":23}","false","ArrowDown,ArrowLeft","false","","","","","",""
"html-keyboard-response","48","331831","0.0-3.0-8.0-1.4","spark_pilot_norest","8559","6","10","Male","","","","","","","null","<div style=""font-size:60px;"">+</div>","null","fixation","","","","","","","","","","","",""
"learning-instructions","49","345158","0.0-3.0-9.0-0.0","spark_pilot_norest","8559","6","10","Male","","","","","","","2915.20000000007","<p> One last thing: sometimes, you will see a robber. The robber can be anywhere in the picture. </p>
            <p> If you do not stop them, you will lose treasure. </p>
            <img src='./assets/img/instructions/robber.jpg' class='instructions-image'>","","instructions","","","","","","","","","","","",""
"learning-instructions","50","353942","0.0-3.0-9.0-0.1","spark_pilot_norest","8559","6","10","Male","","","","","","","1530.2999999999302","<p> If you see the robber, you should <b>press the space bar</b> rather than using the arrow keys. </p>
            <p> Try practicing that now! </p>","","instructions","","","","","","","","","","","",""
"revaluation","51","357953","0.0-3.0-10.0-0.0","spark_pilot_norest","8559","6","10","Male","","false","","","","","[582.4000000000233]","./assets/img/space/catch/0.jpg","[""spaceBar""]","catch practice","space","0","{""ArrowUp,ArrowLeft"":3,""ArrowUp,ArrowRight"":36,""ArrowDown,ArrowLeft"":15,""ArrowDown,ArrowRight"":23}","true","spaceBar","true","","","","","",""
"html-keyboard-response","52","358458","0.0-3.0-10.0-1.0","spark_pilot_norest","8559","6","10","Male","","","","","","","null","<div style=""font-size:60px;"">+</div>","null","fixation","","","","","","","","","","","",""
"revaluation","53","362472","0.0-3.0-10.0-0.1","spark_pilot_norest","8559","6","10","Male","","false","","","","","[619.3000000000466]","./assets/img/space/catch/1.jpg","[""spaceBar""]","catch practice","space","0","{""ArrowUp,ArrowLeft"":3,""ArrowUp,ArrowRight"":36,""ArrowDown,ArrowLeft"":15,""ArrowDown,ArrowRight"":23}","true","spaceBar","true","","","","","",""
"html-keyboard-response","54","362977","0.0-3.0-10.0-1.1","spark_pilot_norest","8559","6","10","Male","","","","","","","null","<div style=""font-size:60px;"">+</div>","null","fixation","","","","","","","","","","","",""
"revaluation","55","366991","0.0-3.0-10.0-0.2","spark_pilot_norest","8559","6","10","Male","","false","","","","","[344.5999999999767]","./assets/img/space/catch/2.jpg","[""spaceBar""]","catch practice","space","0","{""ArrowUp,ArrowLeft"":3,""ArrowUp,ArrowRight"":36,""ArrowDown,ArrowLeft"":15,""ArrowDown,ArrowRight"":23}","true","spaceBar","true","","","","","",""
"html-keyboard-response","56","367495","0.0-3.0-10.0-1.2","spark_pilot_norest","8559","6","10","Male","","","","","","","null","<div style=""font-size:60px;"">+</div>","null","fixation","","","","","","","","","","","",""
"learning-instructions","57","385394","0.0-3.0-11.0-0.0-0.0","spark_pilot_norest","8559","6","10","Male","","","","","","","12554.900000000023","<p> Now, you will practice a shortened version of the game to get a sense of how it all fits together. </p>","","instructions","","","","","","","","","","","",""
"learning-instructions","58","389191","0.0-3.0-11.0-0.0-0.1","spark_pilot_norest","8559","6","10","Male","","","","","","","560.6999999999534","<p>This time you are searching for treasure in outer space.</p>","","instructions","","","","","","","","","","","",""
"learning-instructions","59","405913","0.0-3.0-11.0-1.0-0.0","spark_pilot_norest","8559","6","10","Male","","","","","","","1866.2000000000698","<p> Remember, when you see a picture of the place, use the up and down keys to <b>find an animal</b>.</p>
            <p> When you encounter an animal, you should use the left and right keys to <b>select a treasure chest</b>.</p>
            <p> Don't forget to look out for the robber! </p>","","instructions","","","","","","","","","","","",""
"revaluation","60","411926","0.0-3.0-11.0-2.0-0.0","spark_pilot_norest","8559","6","10","Male","","false","","","","","[755.7999999999302,511.9000000000233]","./assets/img/space/11.jpg","[""ArrowUp"",""ArrowLeft""]","practice block","space","3","{""ArrowUp,ArrowLeft"":3,""ArrowUp,ArrowRight"":36,""ArrowDown,ArrowLeft"":15,""ArrowDown,ArrowRight"":23}","false","ArrowUp,ArrowLeft","false","","","","","",""
"html-keyboard-response","61","412433","0.0-3.0-11.0-2.0-1.0","spark_pilot_norest","8559","6","10","Male","","","","","","","null","<div style=""font-size:60px;"">+</div>","null","fixation","","","","","","","","","","","",""
"revaluation","62","418452","0.0-3.0-11.0-2.0-0.1","spark_pilot_norest","8559","6","10","Male","","false","","","","","[501,379.10000000009313]","./assets/img/space/12.jpg","[""ArrowUp"",""ArrowRight""]","practice block","space","36","{""ArrowUp,ArrowLeft"":3,""ArrowUp,ArrowRight"":36,""ArrowDown,ArrowLeft"":15,""ArrowDown,ArrowRight"":23}","true","ArrowUp,ArrowRight","false","","","","","",""
"html-keyboard-response","63","418957","0.0-3.0-11.0-2.0-1.1","spark_pilot_norest","8559","6","10","Male","","","","","","","null","<div style=""font-size:60px;"">+</div>","null","fixation","","","","","","","","","","","",""
"revaluation","64","424975","0.0-3.0-11.0-2.0-0.2","spark_pilot_norest","8559","6","10","Male","","false","","","","","[406.79999999993015,535.2999999999302]","./assets/img/space/13.jpg","[""ArrowDown"",""ArrowRight""]","practice block","space","23","{""ArrowUp,ArrowLeft"":3,""ArrowUp,ArrowRight"":36,""ArrowDown,ArrowLeft"":15,""ArrowDown,ArrowRight"":23}","false","ArrowDown,ArrowRight","false","","","","","",""
"html-keyboard-response","65","425482","0.0-3.0-11.0-2.0-1.2","spark_pilot_norest","8559","6","10","Male","","","","","","","null","<div style=""font-size:60px;"">+</div>","null","fixation","","","","","","","","","","","",""
"revaluation","66","431502","0.0-3.0-11.0-2.0-0.3","spark_pilot_norest","8559","6","10","Male","","false","","","","","[1553.6999999999534,1323.5999999999767]","./assets/img/space/14.jpg","[""ArrowDown"",""ArrowRight""]","practice block","space","23","{""ArrowUp,ArrowLeft"":3,""ArrowUp,ArrowRight"":36,""ArrowDown,ArrowLeft"":15,""ArrowDown,ArrowRight"":23}","false","ArrowDown,ArrowRight","false","","","","","",""
"html-keyboard-response","67","432006","0.0-3.0-11.0-2.0-1.3","spark_pilot_norest","8559","6","10","Male","","","","","","","null","<div style=""font-size:60px;"">+</div>","null","fixation","","","","","","","","","","","",""
"revaluation","68","438023","0.0-3.0-11.0-2.0-0.4","spark_pilot_norest","8559","6","10","Male","","false","","","","","[1047.5999999999767,727.2000000000698]","./assets/img/space/11.jpg","[""ArrowDown"",""ArrowRight""]","practice block","space","23","{""ArrowUp,ArrowLeft"":3,""ArrowUp,ArrowRight"":36,""ArrowDown,ArrowLeft"":15,""ArrowDown,ArrowRight"":23}","false","ArrowDown,ArrowRight","false","","","","","",""
"html-keyboard-response","69","438529","0.0-3.0-11.0-2.0-1.4","spark_pilot_norest","8559","6","10","Male","","","","","","","null","<div style=""font-size:60px;"">+</div>","null","fixation","","","","","","","","","","","",""
"revaluation","70","444546","0.0-3.0-11.0-2.0-0.5","spark_pilot_norest","8559","6","10","Male","","false","","","","","[617.7999999999302,967.9000000000233]","./assets/img/space/12.jpg","[""ArrowUp"",""ArrowLeft""]","practice block","space","3","{""ArrowUp,ArrowLeft"":3,""ArrowUp,ArrowRight"":36,""ArrowDown,ArrowLeft"":15,""ArrowDown,ArrowRight"":23}","false","ArrowUp,ArrowLeft","false","","","","","",""
"html-keyboard-response","71","445052","0.0-3.0-11.0-2.0-1.5","spark_pilot_norest","8559","6","10","Male","","","","","","","null","<div style=""font-size:60px;"">+</div>","null","fixation","","","","","","","","","","","",""
"revaluation","72","451070","0.0-3.0-11.0-2.0-0.6","spark_pilot_norest","8559","6","10","Male","","false","","","","","[712.5,478.29999999993015]","./assets/img/space/13.jpg","[""ArrowUp"",""ArrowRight""]","practice block","space","36","{""ArrowUp,ArrowLeft"":3,""ArrowUp,ArrowRight"":36,""ArrowDown,ArrowLeft"":15,""ArrowDown,ArrowRight"":23}","true","ArrowUp,ArrowRight","false","","","","","",""
"html-keyboard-response","73","451574","0.0-3.0-11.0-2.0-1.6","spark_pilot_norest","8559","6","10","Male","","","","","","","null","<div style=""font-size:60px;"">+</div>","null","fixation","","","","","","","","","","","",""
"revaluation","74","457593","0.0-3.0-11.0-2.0-0.7","spark_pilot_norest","8559","6","10","Male","","false","","","","","[541.5999999999767,407.79999999993015]","./assets/img/space/14.jpg","[""ArrowUp"",""ArrowRight""]","practice block","space","36","{""ArrowUp,ArrowLeft"":3,""ArrowUp,ArrowRight"":36,""ArrowDown,ArrowLeft"":15,""ArrowDown,ArrowRight"":23}","true","ArrowUp,ArrowRight","false","","","","","",""
"html-keyboard-response","75","458099","0.0-3.0-11.0-2.0-1.7","spark_pilot_norest","8559","6","10","Male","","","","","","","null","<div style=""font-size:60px;"">+</div>","null","fixation","","","","","","","","","","","",""
"revaluation","76","462116","0.0-3.0-11.0-2.0-0.8","spark_pilot_norest","8559","6","10","Male","","false","","","","","[963.7000000000698]","./assets/img/space/catch/3.jpg","[""spaceBar""]","practice block","space","0","{""ArrowUp,ArrowLeft"":3,""ArrowUp,ArrowRight"":36,""ArrowDown,ArrowLeft"":15,""ArrowDown,ArrowRight"":23}","true","spaceBar","true","","","","","",""
"html-keyboard-response","77","462622","0.0-3.0-11.0-2.0-1.8","spark_pilot_norest","8559","6","10","Male","","","","","","","null","<div style=""font-size:60px;"">+</div>","null","fixation","","","","","","","","","","","",""
"learning-instructions","78","477129","0.0-3.0-11.0-3.0-0.0","spark_pilot_norest","8559","6","10","Male","","","","","","","1418.0999999999767","<p> Now, you will travel with a friend who will choose whether you go up or down first. </p>
            <p> On these turns, you will just see the animal that they found. You will still get to choose which chest to search for treasure.</p>","","instructions","","","","","","","","","","","",""
"revaluation","79","481139","0.0-3.0-11.0-4.0-0.0","spark_pilot_norest","8559","6","10","Male","","false","","","","","[1131.7999999999302]","./assets/img/space/animals/rabbit.jpg","[""ArrowRight""]","practice block","space","23","{""ArrowUp,ArrowLeft"":3,""ArrowUp,ArrowRight"":36,""ArrowDown,ArrowLeft"":15,""ArrowDown,ArrowRight"":23}","true","ArrowDown,ArrowRight","","","","","","",""
"html-keyboard-response","80","481645","0.0-3.0-11.0-4.0-1.0","spark_pilot_norest","8559","6","10","Male","","","","","","","null","<div style=""font-size:60px;"">+</div>","null","fixation","","","","","","","","","","","",""
"revaluation","81","485663","0.0-3.0-11.0-4.0-0.1","spark_pilot_norest","8559","6","10","Male","","false","","","","","[436.60000000009313]","./assets/img/space/animals/cat.jpg","[""ArrowRight""]","practice block","space","36","{""ArrowUp,ArrowLeft"":3,""ArrowUp,ArrowRight"":36,""ArrowDown,ArrowLeft"":15,""ArrowDown,ArrowRight"":23}","true","ArrowUp,ArrowRight","","","","","","",""
"html-keyboard-response","82","486168","0.0-3.0-11.0-4.0-1.1","spark_pilot_norest","8559","6","10","Male","","","","","","","null","<div style=""font-size:60px;"">+</div>","null","fixation","","","","","","","","","","","",""
"revaluation","83","490185","0.0-3.0-11.0-4.0-0.2","spark_pilot_norest","8559","6","10","Male","","false","","","","","[473.4000000000233]","./assets/img/space/animals/cat.jpg","[""ArrowRight""]","practice block","space","36","{""ArrowUp,ArrowLeft"":3,""ArrowUp,ArrowRight"":36,""ArrowDown,ArrowLeft"":15,""ArrowDown,ArrowRight"":23}","true","ArrowUp,ArrowRight","","","","","","",""
"html-keyboard-response","84","490690","0.0-3.0-11.0-4.0-1.2","spark_pilot_norest","8559","6","10","Male","","","","","","","null","<div style=""font-size:60px;"">+</div>","null","fixation","","","","","","","","","","","",""
"revaluation","85","494704","0.0-3.0-11.0-4.0-0.3","spark_pilot_norest","8559","6","10","Male","","false","","","","","[824]","./assets/img/space/animals/rabbit.jpg","[""ArrowRight""]","practice block","space","23","{""ArrowUp,ArrowLeft"":3,""ArrowUp,ArrowRight"":36,""ArrowDown,ArrowLeft"":15,""ArrowDown,ArrowRight"":23}","true","ArrowDown,ArrowRight","","","","","","",""
"html-keyboard-response","86","495208","0.0-3.0-11.0-4.0-1.3","spark_pilot_norest","8559","6","10","Male","","","","","","","null","<div style=""font-size:60px;"">+</div>","null","fixation","","","","","","","","","","","",""
"learning-instructions","87","503403","0.0-3.0-11.0-5.0-0.0","spark_pilot_norest","8559","6","10","Male","","","","","","","null","<p> You have almost finished this part of the game! </p>
            <p> We are going to ask you to make a few more choices. </p>","","instructions","","","","","","","","","","","",""
"learning-instructions","88","519567","0.0-3.0-11.0-5.0-0.1","spark_pilot_norest","8559","6","10","Male","","","","","","","null","<p> First, you need to decide whether to go up or down. When you see each picture, use the arrow keys to make your choice. </p>
            <p><b>You will not see which animal you found, but try to get to the one that will give you the most treasure.</b></p>","","instructions","","","","","","","","","","","",""
"html-keyboard-response","89","520573","0.0-3.0-11.0-6.0-0.0","spark_pilot_norest","8559","6","10","Male","","","","","","","null","<div style=""font-size:100px;color:red;"">Starting in...</div>","null","","","","","","","","","","","","",""
"html-keyboard-response","90","521577","0.0-3.0-11.0-6.0-1.0","spark_pilot_norest","8559","6","10","Male","","","","","","","null","<div style=""font-size:200px;color:red;"">3</div>","null","","","","","","","","","","","","",""
"html-keyboard-response","91","522581","0.0-3.0-11.0-6.0-2.0","spark_pilot_norest","8559","6","10","Male","","","","","","","null","<div style=""font-size:200px;color:red;"">2</div>","null","","","","","","","","","","","","",""
"html-keyboard-response","92","523586","0.0-3.0-11.0-6.0-3.0","spark_pilot_norest","8559","6","10","Male","","","","","","","null","<div style=""font-size:200px;color:red;"">1</div>","null","","","","","","","","","","","","",""
"revaluation","93","525345","0.0-3.0-11.0-7.0","spark_pilot_norest","8559","6","10","Male","","false","","","","","[1746.2000000000698]","./assets/img/space/15.jpg","[""ArrowUp""]","practice block","space","0","{""ArrowUp,ArrowLeft"":3,""ArrowUp,ArrowRight"":36,""ArrowDown,ArrowLeft"":15,""ArrowDown,ArrowRight"":23}","true","ArrowUp","false","","","","","",""
"html-keyboard-response","94","525849","0.0-3.0-11.0-8.0","spark_pilot_norest","8559","6","10","Male","","","","","","","null","<div style=""font-size:60px;"">+</div>","null","fixation","","","","","","","","","","","",""
"learning-instructions","95","539301","0.0-3.0-11.0-9.0-0.0","spark_pilot_norest","8559","6","10","Male","","","","","","","null","<p> Now you will see the animals again and can search their chests for treasure. </p>
            <p> This time, you will not see how much treasure you earned, but you will earn more bonus money for making better choices. </p>","","instructions","","","","","","","","","","","",""
"html-keyboard-response","96","540306","0.0-3.0-11.0-10.0-0.0","spark_pilot_norest","8559","6","10","Male","","","","","","","null","<div style=""font-size:100px;color:red;"">Starting in...</div>","null","","","","","","","","","","","","",""
"html-keyboard-response","97","541310","0.0-3.0-11.0-10.0-1.0","spark_pilot_norest","8559","6","10","Male","","","","","","","null","<div style=""font-size:200px;color:red;"">3</div>","null","","","","","","","","","","","","",""
"html-keyboard-response","98","542315","0.0-3.0-11.0-10.0-2.0","spark_pilot_norest","8559","6","10","Male","","","","","","","null","<div style=""font-size:200px;color:red;"">2</div>","null","","","","","","","","","","","","",""
"html-keyboard-response","99","543319","0.0-3.0-11.0-10.0-3.0","spark_pilot_norest","8559","6","10","Male","","","","","","","null","<div style=""font-size:200px;color:red;"">1</div>","null","","","","","","","","","","","","",""
"revaluation","100","544070","0.0-3.0-11.0-11.0-0.0","spark_pilot_norest","8559","6","10","Male","","false","","","","","[734]","./assets/img/space/animals/cat.jpg","[""ArrowRight""]","practice block","space","0","{""ArrowUp,ArrowLeft"":3,""ArrowUp,ArrowRight"":36,""ArrowDown,ArrowLeft"":15,""ArrowDown,ArrowRight"":23}","true","ArrowUp,ArrowRight","","","","","","",""
"html-keyboard-response","101","544576","0.0-3.0-11.0-11.0-1.0","spark_pilot_norest","8559","6","10","Male","","","","","","","null","<div style=""font-size:60px;"">+</div>","null","fixation","","","","","","","","","","","",""
"revaluation","102","545559","0.0-3.0-11.0-11.0-0.1","spark_pilot_norest","8559","6","10","Male","","false","","","","","[971.5]","./assets/img/space/animals/rabbit.jpg","[""ArrowRight""]","practice block","space","0","{""ArrowUp,ArrowLeft"":3,""ArrowUp,ArrowRight"":36,""ArrowDown,ArrowLeft"":15,""ArrowDown,ArrowRight"":23}","true","ArrowDown,ArrowRight","","","","","","",""
"html-keyboard-response","103","546063","0.0-3.0-11.0-11.0-1.1","spark_pilot_norest","8559","6","10","Male","","","","","","","null","<div style=""font-size:60px;"">+</div>","null","fixation","","","","","","","","","","","",""
"learning-instructions","104","553335","0.0-3.0-12.0-0.0","spark_pilot_norest","8559","6","10","Male","","","","","","","2640.20000000007","<p> Before you start, we're going to ask you a few questions about how the game works. </p>","","instructions","","","","","","","","","","","",""
"comp-q","105","560418","0.0-3.0-13.0-0.0-0.0","spark_pilot_norest","8559","6","10","Male","","","","","","","1416.8000000000466","<p> <b> True or False? </b> </p>
            <p> There can be 50 pieces of treasure in a given animal's chest. </p>","1","comp_question","","","","true","","","","","","","",""
"comp-q","106","569132","0.0-3.0-13.0-0.0-1.0","spark_pilot_norest","8559","6","10","Male","","","","","","","1997","<p> <b> That's right! </b> The amount of treasure in each chest can range from 0 to 40 pieces. </p>","0","comp_answer","","","","","","","","","","","",""
"comp-q","107","577261","0.0-3.0-13.0-0.1-0.1","spark_pilot_norest","8559","6","10","Male","","","","","","","947.4000000000233","<p> <b> True or False? </b> </p><p> In this game, all animals have the same amount of treasure in their left and right chests. </p>","1","comp_question","","","","true","","","","","","","",""
"comp-q","108","584358","0.0-3.0-13.0-0.1-1.1","spark_pilot_norest","8559","6","10","Male","","","","","","","1798.7999999999302","<p> <b> That's right! </b> Animals have different amounts of treasure in their treasure chests. </p>","0","comp_answer","","","","","","","","","","","",""
"comp-q","109","591697","0.0-3.0-13.0-0.2-0.2","spark_pilot_norest","8559","6","10","Male","","","","","","","1438.6999999999534","<p> <b> True or False? </b> </p><p> The same animal will always be there if you go up in the same place. </p>","0","comp_question","","","","true","","","","","","","",""
"comp-q","110","599428","0.0-3.0-13.0-0.2-1.2","spark_pilot_norest","8559","6","10","Male","","","","","","","1226.8999999999069","<p> <b> That's right! </b> One animal lives in the upper part and one lives in the lower part of every place. </p>","0","comp_answer","","","","","","","","","","","",""
"comp-q","111","606856","0.0-3.0-13.0-0.3-0.3","spark_pilot_norest","8559","6","10","Male","","","","","","","1851.5999999999767","<p> <b> True or False? </b> </p><p> If you see a different picture, it means you are in a new place. </p>","1","comp_question","","","","true","","","","","","","",""
"comp-q","112","619018","0.0-3.0-13.0-0.3-1.3","spark_pilot_norest","8559","6","10","Male","","","","","","","867.3999999999069","<p> <b> That's right! </b> Lots of different images may show the same place. For example,  you may see three different images that all remind you that you are in outer space. </p>","0","comp_answer","","","","","","","","","","","",""
"learning-instructions","113","632759","0.0-3.0-14.0-0.0","spark_pilot_norest","8559","6","10","Male","","","","","","","3819.6999999999534","<p> Good job. Remember to do your best because the amount of treasure you earn will be converted into bonus money. </p>
            <p> It’s time to start the real game! </p>","","instructions","","","","","","","","","","","",""
"learning-instructions","114","636663","0.0-4.0-0.0-0.0","spark_pilot_norest","8559","6","10","Male","","","","","","","1091.8999999999069","<p> This time you are searching for treasure in the <b>canyon</b>.</p>","","instructions","","","","","","","","","","","",""
"learning-instructions","115","655311","0.0-4.0-0.0-0.1","spark_pilot_norest","8559","6","10","Male","","","","","","","1254.4000000000233","<p><b>New</b> animals with <b>new</b> treasure chests live here. You need to explore to discover where the animal with the best treasure chest is.</p>
                    <p> Like before, once you figure out which animal has the chest with the most treasure, you should try to get to that animal and select that chest! </p>","","instructions","","","","","","","","","","","",""
"learning-instructions","116","672584","0.0-4.0-1.0-0.0","spark_pilot_norest","8559","6","10","Male","","","","","","","2545.20000000007","<p> Remember, when you see a picture of the place, use the up and down keys to <b>find an animal</b>.</p>
            <p> When you encounter an animal, you should use the left and right keys to <b>select a treasure chest</b>.</p>
            <p> Don't forget to look out for the robber! </p>","","instructions","","","","","","","","","","","",""
"revaluation","117","678599","0.0-4.0-2.0-0.0","spark_pilot_norest","8559","6","10","Male","","false","","","","","[1255.3000000000466,1101.5]","./assets/img/canyon/memory/34.jpg","[""ArrowDown"",""ArrowRight""]","value training","canyon","30","{""ArrowUp,ArrowLeft"":23,""ArrowUp,ArrowRight"":10,""ArrowDown,ArrowLeft"":8,""ArrowDown,ArrowRight"":30}","true","ArrowDown,ArrowRight","false","revaluation","1","0","","",""
"html-keyboard-response","118","679115","0.0-4.0-2.0-1.0","spark_pilot_norest","8559","6","10","Male","","","","","","","null","<div style=""font-size:60px;"">+</div>","null","fixation","","","","","","","","","1","","",""
"revaluation","119","685131","0.0-4.0-2.0-0.1","spark_pilot_norest","8559","6","10","Male","","false","","","","","[744.4000000000233,447]","./assets/img/canyon/memory/8.jpg","[""ArrowDown"",""ArrowLeft""]","value training","canyon","8","{""ArrowUp,ArrowLeft"":23,""ArrowUp,ArrowRight"":10,""ArrowDown,ArrowLeft"":8,""ArrowDown,ArrowRight"":30}","false","ArrowDown,ArrowLeft","false","revaluation","1","2","","",""
"html-keyboard-response","120","685637","0.0-4.0-2.0-1.1","spark_pilot_norest","8559","6","10","Male","","","","","","","null","<div style=""font-size:60px;"">+</div>","null","fixation","","","","","","","","","3","","",""
"revaluation","121","691660","0.0-4.0-2.0-0.2","spark_pilot_norest","8559","6","10","Male","","false","","","","","[778.0999999999767,701.7999999999302]","./assets/img/canyon/memory/16.jpg","[""ArrowUp"",""ArrowLeft""]","value training","canyon","23","{""ArrowUp,ArrowLeft"":23,""ArrowUp,ArrowRight"":10,""ArrowDown,ArrowLeft"":8,""ArrowDown,ArrowRight"":30}","false","ArrowUp,ArrowLeft","false","revaluation","1","4","","",""
"html-keyboard-response","122","692166","0.0-4.0-2.0-1.2","spark_pilot_norest","8559","6","10","Male","","","","","","","null","<div style=""font-size:60px;"">+</div>","null","fixation","","","","","","","","","5","","",""
"revaluation","123","698181","0.0-4.0-2.0-0.3","spark_pilot_norest","8559","6","10","Male","","false","","","","","[1449.2000000000698,608]","./assets/img/canyon/memory/13.jpg","[""ArrowUp"",""ArrowRight""]","value training","canyon","10","{""ArrowUp,ArrowLeft"":23,""ArrowUp,ArrowRight"":10,""ArrowDown,ArrowLeft"":8,""ArrowDown,ArrowRight"":30}","false","ArrowUp,ArrowRight","false","revaluation","1","6","","",""
"html-keyboard-response","124","698686","0.0-4.0-2.0-1.3","spark_pilot_norest","8559","6","10","Male","","","","","","","null","<div style=""font-size:60px;"">+</div>","null","fixation","","","","","","","","","7","","",""
"revaluation","125","704698","0.0-4.0-2.0-0.4","spark_pilot_norest","8559","6","10","Male","","false","","","","","[788,576.0999999999767]","./assets/img/canyon/memory/3.jpg","[""ArrowDown"",""ArrowRight""]","value training","canyon","30","{""ArrowUp,ArrowLeft"":23,""ArrowUp,ArrowRight"":10,""ArrowDown,ArrowLeft"":8,""ArrowDown,ArrowRight"":30}","true","ArrowDown,ArrowRight","false","revaluation","1","8","","",""
"html-keyboard-response","126","705202","0.0-4.0-2.0-1.4","spark_pilot_norest","8559","6","10","Male","","","","","","","null","<div style=""font-size:60px;"">+</div>","null","fixation","","","","","","","","","9","","",""
"revaluation","127","711221","0.0-4.0-2.0-0.5","spark_pilot_norest","8559","6","10","Male","","false","","","","","[374.5,335.80000000004657]","./assets/img/canyon/memory/14.jpg","[""ArrowDown"",""ArrowRight""]","value training","canyon","30","{""ArrowUp,ArrowLeft"":23,""ArrowUp,ArrowRight"":10,""ArrowDown,ArrowLeft"":8,""ArrowDown,ArrowRight"":30}","true","ArrowDown,ArrowRight","false","revaluation","1","10","","",""
"html-keyboard-response","128","711726","0.0-4.0-2.0-1.5","spark_pilot_norest","8559","6","10","Male","","","","","","","null","<div style=""font-size:60px;"">+</div>","null","fixation","","","","","","","","","11","","",""
"revaluation","129","717748","0.0-4.0-2.0-0.6","spark_pilot_norest","8559","6","10","Male","","false","","","","","[630.1000000000931,412.5999999999767]","./assets/img/canyon/memory/8.jpg","[""ArrowDown"",""ArrowRight""]","value training","canyon","30","{""ArrowUp,ArrowLeft"":23,""ArrowUp,ArrowRight"":10,""ArrowDown,ArrowLeft"":8,""ArrowDown,ArrowRight"":30}","true","ArrowDown,ArrowRight","false","revaluation","1","12","","",""
"html-keyboard-response","130","718253","0.0-4.0-2.0-1.6","spark_pilot_norest","8559","6","10","Male","","","","","","","null","<div style=""font-size:60px;"">+</div>","null","fixation","","","","","","","","","13","","",""
"revaluation","131","724268","0.0-4.0-2.0-0.7","spark_pilot_norest","8559","6","10","Male","","false","","","","","[816.5,392.5999999999767]","./assets/img/canyon/memory/37.jpg","[""ArrowDown"",""ArrowRight""]","value training","canyon","30","{""ArrowUp,ArrowLeft"":23,""ArrowUp,ArrowRight"":10,""ArrowDown,ArrowLeft"":8,""ArrowDown,ArrowRight"":30}","true","ArrowDown,ArrowRight","false","revaluation","1","14","","",""
"html-keyboard-response","132","724774","0.0-4.0-2.0-1.7","spark_pilot_norest","8559","6","10","Male","","","","","","","null","<div style=""font-size:60px;"">+</div>","null","fixation","","","","","","","","","15","","",""
"revaluation","133","730792","0.0-4.0-2.0-0.8","spark_pilot_norest","8559","6","10","Male","","false","","","","","[743.3999999999069,355.9000000000233]","./assets/img/canyon/memory/13.jpg","[""ArrowDown"",""ArrowRight""]","value training","canyon","30","{""ArrowUp,ArrowLeft"":23,""ArrowUp,ArrowRight"":10,""ArrowDown,ArrowLeft"":8,""ArrowDown,ArrowRight"":30}","true","ArrowDown,ArrowRight","false","revaluation","1","16","","",""
"html-keyboard-response","134","731297","0.0-4.0-2.0-1.8","spark_pilot_norest","8559","6","10","Male","","","","","","","null","<div style=""font-size:60px;"">+</div>","null","fixation","","","","","","","","","17","","",""
"revaluation","135","737315","0.0-4.0-2.0-0.9","spark_pilot_norest","8559","6","10","Male","","false","","","","","[359.5,599.9000000000233]","./assets/img/canyon/memory/6.jpg","[""ArrowDown"",""ArrowRight""]","value training","canyon","30","{""ArrowUp,ArrowLeft"":23,""ArrowUp,ArrowRight"":10,""ArrowDown,ArrowLeft"":8,""ArrowDown,ArrowRight"":30}","true","ArrowDown,ArrowRight","false","revaluation","1","18","","",""
"html-keyboard-response","136","737820","0.0-4.0-2.0-1.9","spark_pilot_norest","8559","6","10","Male","","","","","","","null","<div style=""font-size:60px;"">+</div>","null","fixation","","","","","","","","","19","","",""
"revaluation","137","743835","0.0-4.0-2.0-0.10","spark_pilot_norest","8559","6","10","Male","","false","","","","","[306,534.7000000000698]","./assets/img/canyon/memory/10.jpg","[""ArrowDown"",""ArrowRight""]","value training","canyon","30","{""ArrowUp,ArrowLeft"":23,""ArrowUp,ArrowRight"":10,""ArrowDown,ArrowLeft"":8,""ArrowDown,ArrowRight"":30}","true","ArrowDown,ArrowRight","false","revaluation","1","20","","",""
"html-keyboard-response","138","744340","0.0-4.0-2.0-1.10","spark_pilot_norest","8559","6","10","Male","","","","","","","null","<div style=""font-size:60px;"">+</div>","null","fixation","","","","","","","","","21","","",""
"revaluation","139","750361","0.0-4.0-2.0-0.11","spark_pilot_norest","8559","6","10","Male","","false","","","","","[421.5999999999767,424.5]","./assets/img/canyon/memory/22.jpg","[""ArrowDown"",""ArrowRight""]","value training","canyon","30","{""ArrowUp,ArrowLeft"":23,""ArrowUp,ArrowRight"":10,""ArrowDown,ArrowLeft"":8,""ArrowDown,ArrowRight"":30}","true","ArrowDown,ArrowRight","false","revaluation","1","22","","",""
"html-keyboard-response","140","750864","0.0-4.0-2.0-1.11","spark_pilot_norest","8559","6","10","Male","","","","","","","null","<div style=""font-size:60px;"">+</div>","null","fixation","","","","","","","","","23","","",""
"revaluation","141","756883","0.0-4.0-2.0-0.12","spark_pilot_norest","8559","6","10","Male","","false","","","","","[1453.7000000001863,339.9000000001397]","./assets/img/canyon/memory/39.jpg","[""ArrowDown"",""ArrowRight""]","value training","canyon","30","{""ArrowUp,ArrowLeft"":23,""ArrowUp,ArrowRight"":10,""ArrowDown,ArrowLeft"":8,""ArrowDown,ArrowRight"":30}","true","ArrowDown,ArrowRight","false","revaluation","1","24","","",""
"html-keyboard-response","142","757389","0.0-4.0-2.0-1.12","spark_pilot_norest","8559","6","10","Male","","","","","","","null","<div style=""font-size:60px;"">+</div>","null","fixation","","","","","","","","","25","","",""
"revaluation","143","761409","0.0-4.0-2.0-0.13","spark_pilot_norest","8559","6","10","Male","","false","","","","","[419.69999999995343]","./assets/img/canyon/catch/7.jpg","[""ArrowDown""]","value training","canyon","-10","{""ArrowUp,ArrowLeft"":23,""ArrowUp,ArrowRight"":10,""ArrowDown,ArrowLeft"":8,""ArrowDown,ArrowRight"":30}","false","ArrowDown","true","revaluation","1","26","","",""
"html-keyboard-response","144","761916","0.0-4.0-2.0-1.13","spark_pilot_norest","8559","6","10","Male","","","","","","","null","<div style=""font-size:60px;"">+</div>","null","fixation","","","","","","","","","27","","",""
"revaluation","145","767932","0.0-4.0-2.0-0.14","spark_pilot_norest","8559","6","10","Male","","false","","","","","[1446.9000000001397,501.70000000018626]","./assets/img/canyon/memory/39.jpg","[""ArrowDown"",""ArrowRight""]","value training","canyon","30","{""ArrowUp,ArrowLeft"":23,""ArrowUp,ArrowRight"":10,""ArrowDown,ArrowLeft"":8,""ArrowDown,ArrowRight"":30}","true","ArrowDown,ArrowRight","false","revaluation","1","28","","",""
"html-keyboard-response","146","768436","0.0-4.0-2.0-1.14","spark_pilot_norest","8559","6","10","Male","","","","","","","null","<div style=""font-size:60px;"">+</div>","null","fixation","","","","","","","","","29","","",""
"revaluation","147","774452","0.0-4.0-2.0-0.15","spark_pilot_norest","8559","6","10","Male","","false","","","","","[746.6999999999534,524.6999999999534]","./assets/img/canyon/memory/26.jpg","[""ArrowDown"",""ArrowRight""]","value training","canyon","30","{""ArrowUp,ArrowLeft"":23,""ArrowUp,ArrowRight"":10,""ArrowDown,ArrowLeft"":8,""ArrowDown,ArrowRight"":30}","true","ArrowDown,ArrowRight","false","revaluation","1","30","","",""
"html-keyboard-response","148","774958","0.0-4.0-2.0-1.15","spark_pilot_norest","8559","6","10","Male","","","","","","","null","<div style=""font-size:60px;"">+</div>","null","fixation","","","","","","","","","31","","",""
"revaluation","149","780976","0.0-4.0-2.0-0.16","spark_pilot_norest","8559","6","10","Male","","false","","","","","[1395.3999999999069,506]","./assets/img/canyon/memory/30.jpg","[""ArrowDown"",""ArrowRight""]","value training","canyon","30","{""ArrowUp,ArrowLeft"":23,""ArrowUp,ArrowRight"":10,""ArrowDown,ArrowLeft"":8,""ArrowDown,ArrowRight"":30}","true","ArrowDown,ArrowRight","false","revaluation","1","32","","",""
"html-keyboard-response","150","781481","0.0-4.0-2.0-1.16","spark_pilot_norest","8559","6","10","Male","","","","","","","null","<div style=""font-size:60px;"">+</div>","null","fixation","","","","","","","","","33","","",""
"revaluation","151","787497","0.0-4.0-2.0-0.17","spark_pilot_norest","8559","6","10","Male","","false","","","","","[635.3999999999069,697.1000000000931]","./assets/img/canyon/memory/9.jpg","[""ArrowDown"",""ArrowRight""]","value training","canyon","30","{""ArrowUp,ArrowLeft"":23,""ArrowUp,ArrowRight"":10,""ArrowDown,ArrowLeft"":8,""ArrowDown,ArrowRight"":30}","true","ArrowDown,ArrowRight","false","revaluation","1","34","","",""
"html-keyboard-response","152","788003","0.0-4.0-2.0-1.17","spark_pilot_norest","8559","6","10","Male","","","","","","","null","<div style=""font-size:60px;"">+</div>","null","fixation","","","","","","","","","35","","",""
"revaluation","153","794019","0.0-4.0-2.0-0.18","spark_pilot_norest","8559","6","10","Male","","false","","","","","[525.3000000000466,412.5]","./assets/img/canyon/memory/41.jpg","[""ArrowDown"",""ArrowRight""]","value training","canyon","30","{""ArrowUp,ArrowLeft"":23,""ArrowUp,ArrowRight"":10,""ArrowDown,ArrowLeft"":8,""ArrowDown,ArrowRight"":30}","true","ArrowDown,ArrowRight","false","revaluation","1","36","","",""
"html-keyboard-response","154","794525","0.0-4.0-2.0-1.18","spark_pilot_norest","8559","6","10","Male","","","","","","","null","<div style=""font-size:60px;"">+</div>","null","fixation","","","","","","","","","37","","",""
"revaluation","155","800551","0.0-4.0-2.0-0.19","spark_pilot_norest","8559","6","10","Male","","false","","","","","[669.5,407.5999999998603]","./assets/img/canyon/memory/31.jpg","[""ArrowDown"",""ArrowRight""]","value training","canyon","30","{""ArrowUp,ArrowLeft"":23,""ArrowUp,ArrowRight"":10,""ArrowDown,ArrowLeft"":8,""ArrowDown,ArrowRight"":30}","true","ArrowDown,ArrowRight","false","revaluation","1","38","","",""
"html-keyboard-response","156","801057","0.0-4.0-2.0-1.19","spark_pilot_norest","8559","6","10","Male","","","","","","","null","<div style=""font-size:60px;"">+</div>","null","fixation","","","","","","","","","39","","",""
"revaluation","157","807075","0.0-4.0-2.0-0.20","spark_pilot_norest","8559","6","10","Male","","false","","","","","[141.69999999995343,295.39999999990687]","./assets/img/canyon/memory/34.jpg","[""ArrowDown"",""ArrowRight""]","value training","canyon","30","{""ArrowUp,ArrowLeft"":23,""ArrowUp,ArrowRight"":10,""ArrowDown,ArrowLeft"":8,""ArrowDown,ArrowRight"":30}","true","ArrowDown,ArrowRight","false","revaluation","1","40","","",""
"html-keyboard-response","158","807580","0.0-4.0-2.0-1.20","spark_pilot_norest","8559","6","10","Male","","","","","","","null","<div style=""font-size:60px;"">+</div>","null","fixation","","","","","","","","","41","","",""
"revaluation","159","811596","0.0-4.0-2.0-0.21","spark_pilot_norest","8559","6","10","Male","","false","","","","","[491.0999999998603]","./assets/img/canyon/catch/3.jpg","[""ArrowDown""]","value training","canyon","-10","{""ArrowUp,ArrowLeft"":23,""ArrowUp,ArrowRight"":10,""ArrowDown,ArrowLeft"":8,""ArrowDown,ArrowRight"":30}","false","ArrowDown","true","revaluation","1","42","","",""
"html-keyboard-response","160","812108","0.0-4.0-2.0-1.21","spark_pilot_norest","8559","6","10","Male","","","","","","","null","<div style=""font-size:60px;"">+</div>","null","fixation","","","","","","","","","43","","",""
"revaluation","161","816122","0.0-4.0-2.0-0.22","spark_pilot_norest","8559","6","10","Male","","false","","","","","[691.0999999998603]","./assets/img/canyon/catch/5.jpg","[""spaceBar""]","value training","canyon","0","{""ArrowUp,ArrowLeft"":23,""ArrowUp,ArrowRight"":10,""ArrowDown,ArrowLeft"":8,""ArrowDown,ArrowRight"":30}","true","spaceBar","true","revaluation","1","44","","",""
"html-keyboard-response","162","816629","0.0-4.0-2.0-1.22","spark_pilot_norest","8559","6","10","Male","","","","","","","null","<div style=""font-size:60px;"">+</div>","null","fixation","","","","","","","","","45","","",""
"revaluation","163","820645","0.0-4.0-2.0-0.23","spark_pilot_norest","8559","6","10","Male","","false","","","","","[951.7999999998137]","./assets/img/canyon/catch/2.jpg","[""spaceBar""]","value training","canyon","0","{""ArrowUp,ArrowLeft"":23,""ArrowUp,ArrowRight"":10,""ArrowDown,ArrowLeft"":8,""ArrowDown,ArrowRight"":30}","true","spaceBar","true","revaluation","1","46","","",""
"html-keyboard-response","164","821150","0.0-4.0-2.0-1.23","spark_pilot_norest","8559","6","10","Male","","","","","","","null","<div style=""font-size:60px;"">+</div>","null","fixation","","","","","","","","","47","","",""
"revaluation","165","827165","0.0-4.0-2.0-0.24","spark_pilot_norest","8559","6","10","Male","","false","","","","","[714.6999999999534,965]","./assets/img/canyon/memory/37.jpg","[""ArrowDown"",""ArrowRight""]","value training","canyon","30","{""ArrowUp,ArrowLeft"":23,""ArrowUp,ArrowRight"":10,""ArrowDown,ArrowLeft"":8,""ArrowDown,ArrowRight"":30}","true","ArrowDown,ArrowRight","false","revaluation","1","48","","",""
"html-keyboard-response","166","827672","0.0-4.0-2.0-1.24","spark_pilot_norest","8559","6","10","Male","","","","","","","null","<div style=""font-size:60px;"">+</div>","null","fixation","","","","","","","","","49","","",""
"revaluation","167","833690","0.0-4.0-2.0-0.25","spark_pilot_norest","8559","6","10","Male","","false","","","","","[1142,678]","./assets/img/canyon/memory/16.jpg","[""ArrowDown"",""ArrowRight""]","value training","canyon","30","{""ArrowUp,ArrowLeft"":23,""ArrowUp,ArrowRight"":10,""ArrowDown,ArrowLeft"":8,""ArrowDown,ArrowRight"":30}","true","ArrowDown,ArrowRight","false","revaluation","1","50","","",""
"html-keyboard-response","168","834195","0.0-4.0-2.0-1.25","spark_pilot_norest","8559","6","10","Male","","","","","","","null","<div style=""font-size:60px;"">+</div>","null","fixation","","","","","","","","","51","","",""
"revaluation","169","840210","0.0-4.0-2.0-0.26","spark_pilot_norest","8559","6","10","Male","","false","","","","","[827.6999999999534,1115.5]","./assets/img/canyon/memory/10.jpg","[""ArrowDown"",""ArrowRight""]","value training","canyon","30","{""ArrowUp,ArrowLeft"":23,""ArrowUp,ArrowRight"":10,""ArrowDown,ArrowLeft"":8,""ArrowDown,ArrowRight"":30}","true","ArrowDown,ArrowRight","false","revaluation","1","52","","",""
"html-keyboard-response","170","840717","0.0-4.0-2.0-1.26","spark_pilot_norest","8559","6","10","Male","","","","","","","null","<div style=""font-size:60px;"">+</div>","null","fixation","","","","","","","","","53","","",""
"revaluation","171","844731","0.0-4.0-2.0-0.27","spark_pilot_norest","8559","6","10","Male","","false","","","","","[683.0999999998603]","./assets/img/canyon/catch/4.jpg","[""spaceBar""]","value training","canyon","0","{""ArrowUp,ArrowLeft"":23,""ArrowUp,ArrowRight"":10,""ArrowDown,ArrowLeft"":8,""ArrowDown,ArrowRight"":30}","true","spaceBar","true","revaluation","1","54","","",""
"html-keyboard-response","172","845238","0.0-4.0-2.0-1.27","spark_pilot_norest","8559","6","10","Male","","","","","","","null","<div style=""font-size:60px;"">+</div>","null","fixation","","","","","","","","","55","","",""
"revaluation","173","851259","0.0-4.0-2.0-0.28","spark_pilot_norest","8559","6","10","Male","","false","","","","","[793.5,879.5]","./assets/img/canyon/memory/23.jpg","[""ArrowDown"",""ArrowRight""]","value training","canyon","30","{""ArrowUp,ArrowLeft"":23,""ArrowUp,ArrowRight"":10,""ArrowDown,ArrowLeft"":8,""ArrowDown,ArrowRight"":30}","true","ArrowDown,ArrowRight","false","revaluation","1","56","","",""
"html-keyboard-response","174","851764","0.0-4.0-2.0-1.28","spark_pilot_norest","8559","6","10","Male","","","","","","","null","<div style=""font-size:60px;"">+</div>","null","fixation","","","","","","","","","57","","",""
"revaluation","175","857782","0.0-4.0-2.0-0.29","spark_pilot_norest","8559","6","10","Male","","false","","","","","[555.1999999999534,603.1999999999534]","./assets/img/canyon/memory/5.jpg","[""ArrowDown"",""ArrowRight""]","value training","canyon","30","{""ArrowUp,ArrowLeft"":23,""ArrowUp,ArrowRight"":10,""ArrowDown,ArrowLeft"":8,""ArrowDown,ArrowRight"":30}","true","ArrowDown,ArrowRight","false","revaluation","1","58","","",""
"html-keyboard-response","176","858288","0.0-4.0-2.0-1.29","spark_pilot_norest","8559","6","10","Male","","","","","","","null","<div style=""font-size:60px;"">+</div>","null","fixation","","","","","","","","","59","","",""
"revaluation","177","864304","0.0-4.0-2.0-0.30","spark_pilot_norest","8559","6","10","Male","","false","","","","","[1030.1999999999534,1892.6000000000931]","./assets/img/canyon/memory/9.jpg","[""ArrowDown"",""ArrowRight""]","value training","canyon","30","{""ArrowUp,ArrowLeft"":23,""ArrowUp,ArrowRight"":10,""ArrowDown,ArrowLeft"":8,""ArrowDown,ArrowRight"":30}","true","ArrowDown,ArrowRight","false","revaluation","1","60","","",""
"html-keyboard-response","178","864808","0.0-4.0-2.0-1.30","spark_pilot_norest","8559","6","10","Male","","","","","","","null","<div style=""font-size:60px;"">+</div>","null","fixation","","","","","","","","","61","","",""
"revaluation","179","870825","0.0-4.0-2.0-0.31","spark_pilot_norest","8559","6","10","Male","","false","","","","","[451.89999999990687,820.6999999999534]","./assets/img/canyon/memory/6.jpg","[""ArrowDown"",""ArrowRight""]","value training","canyon","30","{""ArrowUp,ArrowLeft"":23,""ArrowUp,ArrowRight"":10,""ArrowDown,ArrowLeft"":8,""ArrowDown,ArrowRight"":30}","true","ArrowDown,ArrowRight","false","revaluation","1","62","","",""
"html-keyboard-response","180","871331","0.0-4.0-2.0-1.31","spark_pilot_norest","8559","6","10","Male","","","","","","","null","<div style=""font-size:60px;"">+</div>","null","fixation","","","","","","","","","63","","",""
"revaluation","181","877351","0.0-4.0-2.0-0.32","spark_pilot_norest","8559","6","10","Male","","false","","","","","[416.69999999995343,540.1000000000931]","./assets/img/canyon/memory/30.jpg","[""ArrowDown"",""ArrowRight""]","value training","canyon","30","{""ArrowUp,ArrowLeft"":23,""ArrowUp,ArrowRight"":10,""ArrowDown,ArrowLeft"":8,""ArrowDown,ArrowRight"":30}","true","ArrowDown,ArrowRight","false","revaluation","1","64","","",""
"html-keyboard-response","182","877858","0.0-4.0-2.0-1.32","spark_pilot_norest","8559","6","10","Male","","","","","","","null","<div style=""font-size:60px;"">+</div>","null","fixation","","","","","","","","","65","","",""
"revaluation","183","883877","0.0-4.0-2.0-0.33","spark_pilot_norest","8559","6","10","Male","","false","","","","","[922.1999999999534,583.9000000001397]","./assets/img/canyon/memory/31.jpg","[""ArrowDown"",""ArrowRight""]","value training","canyon","30","{""ArrowUp,ArrowLeft"":23,""ArrowUp,ArrowRight"":10,""ArrowDown,ArrowLeft"":8,""ArrowDown,ArrowRight"":30}","true","ArrowDown,ArrowRight","false","revaluation","1","66","","",""
"html-keyboard-response","184","884381","0.0-4.0-2.0-1.33","spark_pilot_norest","8559","6","10","Male","","","","","","","null","<div style=""font-size:60px;"">+</div>","null","fixation","","","","","","","","","67","","",""
"revaluation","185","890399","0.0-4.0-2.0-0.34","spark_pilot_norest","8559","6","10","Male","","false","","","","","[724.4000000001397,501.10000000009313]","./assets/img/canyon/memory/0.jpg","[""ArrowDown"",""ArrowRight""]","value training","canyon","30","{""ArrowUp,ArrowLeft"":23,""ArrowUp,ArrowRight"":10,""ArrowDown,ArrowLeft"":8,""ArrowDown,ArrowRight"":30}","true","ArrowDown,ArrowRight","false","revaluation","1","68","","",""
"html-keyboard-response","186","890904","0.0-4.0-2.0-1.34","spark_pilot_norest","8559","6","10","Male","","","","","","","null","<div style=""font-size:60px;"">+</div>","null","fixation","","","","","","","","","69","","",""
"revaluation","187","894922","0.0-4.0-2.0-0.35","spark_pilot_norest","8559","6","10","Male","","false","","","","","[735.3000000000466]","./assets/img/canyon/catch/6.jpg","[""spaceBar""]","value training","canyon","0","{""ArrowUp,ArrowLeft"":23,""ArrowUp,ArrowRight"":10,""ArrowDown,ArrowLeft"":8,""ArrowDown,ArrowRight"":30}","true","spaceBar","true","revaluation","1","70","","",""
"html-keyboard-response","188","895428","0.0-4.0-2.0-1.35","spark_pilot_norest","8559","6","10","Male","","","","","","","null","<div style=""font-size:60px;"">+</div>","null","fixation","","","","","","","","","71","","",""
"revaluation","189","899449","0.0-4.0-2.0-0.36","spark_pilot_norest","8559","6","10","Male","","false","","","","","[836]","./assets/img/canyon/catch/1.jpg","[""spaceBar""]","value training","canyon","0","{""ArrowUp,ArrowLeft"":23,""ArrowUp,ArrowRight"":10,""ArrowDown,ArrowLeft"":8,""ArrowDown,ArrowRight"":30}","true","spaceBar","true","revaluation","1","72","","",""
"html-keyboard-response","190","899953","0.0-4.0-2.0-1.36","spark_pilot_norest","8559","6","10","Male","","","","","","","null","<div style=""font-size:60px;"">+</div>","null","fixation","","","","","","","","","73","","",""
"revaluation","191","905974","0.0-4.0-2.0-0.37","spark_pilot_norest","8559","6","10","Male","","false","","","","","[846.9000000001397,460]","./assets/img/canyon/memory/12.jpg","[""ArrowDown"",""ArrowRight""]","value training","canyon","30","{""ArrowUp,ArrowLeft"":23,""ArrowUp,ArrowRight"":10,""ArrowDown,ArrowLeft"":8,""ArrowDown,ArrowRight"":30}","true","ArrowDown,ArrowRight","false","revaluation","1","74","","",""
"html-keyboard-response","192","906482","0.0-4.0-2.0-1.37","spark_pilot_norest","8559","6","10","Male","","","","","","","null","<div style=""font-size:60px;"">+</div>","null","fixation","","","","","","","","","75","","",""
"revaluation","193","910503","0.0-4.0-2.0-0.38","spark_pilot_norest","8559","6","10","Male","","false","","","","","[628.1000000000931]","./assets/img/canyon/catch/0.jpg","[""ArrowDown""]","value training","canyon","-10","{""ArrowUp,ArrowLeft"":23,""ArrowUp,ArrowRight"":10,""ArrowDown,ArrowLeft"":8,""ArrowDown,ArrowRight"":30}","false","ArrowDown","true","revaluation","1","76","","",""
"html-keyboard-response","194","911011","0.0-4.0-2.0-1.38","spark_pilot_norest","8559","6","10","Male","","","","","","","null","<div style=""font-size:60px;"">+</div>","null","fixation","","","","","","","","","77","","",""
"revaluation","195","917025","0.0-4.0-2.0-0.39","spark_pilot_norest","8559","6","10","Male","","false","","","","","[1231.3000000000466,926]","./assets/img/canyon/memory/12.jpg","[""ArrowDown"",""ArrowRight""]","value training","canyon","30","{""ArrowUp,ArrowLeft"":23,""ArrowUp,ArrowRight"":10,""ArrowDown,ArrowLeft"":8,""ArrowDown,ArrowRight"":30}","true","ArrowDown,ArrowRight","false","revaluation","1","78","","",""
"html-keyboard-response","196","917530","0.0-4.0-2.0-1.39","spark_pilot_norest","8559","6","10","Male","","","","","","","null","<div style=""font-size:60px;"">+</div>","null","fixation","","","","","","","","","79","","",""
"revaluation","197","923548","0.0-4.0-2.0-0.40","spark_pilot_norest","8559","6","10","Male","","false","","","","","[572.5,556.7000000001863]","./assets/img/canyon/memory/22.jpg","[""ArrowDown"",""ArrowRight""]","value training","canyon","30","{""ArrowUp,ArrowLeft"":23,""ArrowUp,ArrowRight"":10,""ArrowDown,ArrowLeft"":8,""ArrowDown,ArrowRight"":30}","true","ArrowDown,ArrowRight","false","revaluation","1","80","","",""
"html-keyboard-response","198","924055","0.0-4.0-2.0-1.40","spark_pilot_norest","8559","6","10","Male","","","","","","","null","<div style=""font-size:60px;"">+</div>","null","fixation","","","","","","","","","81","","",""
"revaluation","199","930077","0.0-4.0-2.0-0.41","spark_pilot_norest","8559","6","10","Male","","false","","","","","[754.5,850]","./assets/img/canyon/memory/23.jpg","[""ArrowDown"",""ArrowRight""]","value training","canyon","30","{""ArrowUp,ArrowLeft"":23,""ArrowUp,ArrowRight"":10,""ArrowDown,ArrowLeft"":8,""ArrowDown,ArrowRight"":30}","true","ArrowDown,ArrowRight","false","revaluation","1","82","","",""
"html-keyboard-response","200","930585","0.0-4.0-2.0-1.41","spark_pilot_norest","8559","6","10","Male","","","","","","","null","<div style=""font-size:60px;"">+</div>","null","fixation","","","","","","","","","83","","",""
"revaluation","201","936604","0.0-4.0-2.0-0.42","spark_pilot_norest","8559","6","10","Male","","false","","","","","[931.3000000000466,98.5]","./assets/img/canyon/memory/14.jpg","[""ArrowDown"",""ArrowRight""]","value training","canyon","30","{""ArrowUp,ArrowLeft"":23,""ArrowUp,ArrowRight"":10,""ArrowDown,ArrowLeft"":8,""ArrowDown,ArrowRight"":30}","true","ArrowDown,ArrowRight","false","revaluation","1","84","","",""
"html-keyboard-response","202","937111","0.0-4.0-2.0-1.42","spark_pilot_norest","8559","6","10","Male","","","","","","","null","<div style=""font-size:60px;"">+</div>","null","fixation","","","","","","","","","85","","",""
"revaluation","203","943130","0.0-4.0-2.0-0.43","spark_pilot_norest","8559","6","10","Male","","false","","","","","[1554.6000000000931,623.5]","./assets/img/canyon/memory/20.jpg","[""ArrowDown"",""ArrowRight""]","value training","canyon","30","{""ArrowUp,ArrowLeft"":23,""ArrowUp,ArrowRight"":10,""ArrowDown,ArrowLeft"":8,""ArrowDown,ArrowRight"":30}","true","ArrowDown,ArrowRight","false","revaluation","1","86","","",""
"html-keyboard-response","204","943636","0.0-4.0-2.0-1.43","spark_pilot_norest","8559","6","10","Male","","","","","","","null","<div style=""font-size:60px;"">+</div>","null","fixation","","","","","","","","","87","","",""
"revaluation","205","949654","0.0-4.0-2.0-0.44","spark_pilot_norest","8559","6","10","Male","","false","","","","","[1385.2999999998137,494.69999999995343]","./assets/img/canyon/memory/20.jpg","[""ArrowDown"",""ArrowRight""]","value training","canyon","30","{""ArrowUp,ArrowLeft"":23,""ArrowUp,ArrowRight"":10,""ArrowDown,ArrowLeft"":8,""ArrowDown,ArrowRight"":30}","true","ArrowDown,ArrowRight","false","revaluation","1","88","","",""
"html-keyboard-response","206","950160","0.0-4.0-2.0-1.44","spark_pilot_norest","8559","6","10","Male","","","","","","","null","<div style=""font-size:60px;"">+</div>","null","fixation","","","","","","","","","89","","",""
"revaluation","207","956185","0.0-4.0-2.0-0.45","spark_pilot_norest","8559","6","10","Male","","false","","","","","[891.6999999999534,213.20000000018626]","./assets/img/canyon/memory/0.jpg","[""ArrowDown"",""ArrowRight""]","value training","canyon","30","{""ArrowUp,ArrowLeft"":23,""ArrowUp,ArrowRight"":10,""ArrowDown,ArrowLeft"":8,""ArrowDown,ArrowRight"":30}","true","ArrowDown,ArrowRight","false","revaluation","1","90","","",""
"html-keyboard-response","208","956689","0.0-4.0-2.0-1.45","spark_pilot_norest","8559","6","10","Male","","","","","","","null","<div style=""font-size:60px;"">+</div>","null","fixation","","","","","","","","","91","","",""
"revaluation","209","962711","0.0-4.0-2.0-0.46","spark_pilot_norest","8559","6","10","Male","","false","","","","","[973.1000000000931,904.1000000000931]","./assets/img/canyon/memory/41.jpg","[""ArrowDown"",""ArrowRight""]","value training","canyon","30","{""ArrowUp,ArrowLeft"":23,""ArrowUp,ArrowRight"":10,""ArrowDown,ArrowLeft"":8,""ArrowDown,ArrowRight"":30}","true","ArrowDown,ArrowRight","false","revaluation","1","92","","",""
"html-keyboard-response","210","963218","0.0-4.0-2.0-1.46","spark_pilot_norest","8559","6","10","Male","","","","","","","null","<div style=""font-size:60px;"">+</div>","null","fixation","","","","","","","","","93","","",""
"revaluation","211","969242","0.0-4.0-2.0-0.47","spark_pilot_norest","8559","6","10","Male","","false","","","","","[1058.1999999999534,451.79999999981374]","./assets/img/canyon/memory/5.jpg","[""ArrowDown"",""ArrowRight""]","value training","canyon","30","{""ArrowUp,ArrowLeft"":23,""ArrowUp,ArrowRight"":10,""ArrowDown,ArrowLeft"":8,""ArrowDown,ArrowRight"":30}","true","ArrowDown,ArrowRight","false","revaluation","1","94","","",""
"html-keyboard-response","212","969745","0.0-4.0-2.0-1.47","spark_pilot_norest","8559","6","10","Male","","","","","","","null","<div style=""font-size:60px;"">+</div>","null","fixation","","","","","","","","","95","","",""
"revaluation","213","975758","0.0-4.0-2.0-0.48","spark_pilot_norest","8559","6","10","Male","","false","","","","","[629.8000000000466,870.8000000000466]","./assets/img/canyon/memory/3.jpg","[""ArrowDown"",""ArrowRight""]","value training","canyon","30","{""ArrowUp,ArrowLeft"":23,""ArrowUp,ArrowRight"":10,""ArrowDown,ArrowLeft"":8,""ArrowDown,ArrowRight"":30}","true","ArrowDown,ArrowRight","false","revaluation","1","96","","",""
"html-keyboard-response","214","976265","0.0-4.0-2.0-1.48","spark_pilot_norest","8559","6","10","Male","","","","","","","null","<div style=""font-size:60px;"">+</div>","null","fixation","","","","","","","","","97","","",""
"revaluation","215","982285","0.0-4.0-2.0-0.49","spark_pilot_norest","8559","6","10","Male","","false","","","","","[805.5,406.39999999990687]","./assets/img/canyon/memory/26.jpg","[""ArrowDown"",""ArrowRight""]","value training","canyon","30","{""ArrowUp,ArrowLeft"":23,""ArrowUp,ArrowRight"":10,""ArrowDown,ArrowLeft"":8,""ArrowDown,ArrowRight"":30}","true","ArrowDown,ArrowRight","false","revaluation","1","98","","",""
"html-keyboard-response","216","982792","0.0-4.0-2.0-1.49","spark_pilot_norest","8559","6","10","Male","","","","","","","null","<div style=""font-size:60px;"">+</div>","null","fixation","","","","","","","","","99","","",""
"learning-instructions","217","998686","0.0-4.0-3.0-0.0","spark_pilot_norest","8559","6","10","Male","","","","","","","2912.7999999998137","<p> Now, you will travel with a friend who will choose whether you go up or down first. </p>
            <p> On these turns, you will just see the animal that they found. You will still get to choose which chest to search for treasure.</p>","","instructions","","","","","","","","","","","",""
"revaluation","218","1002698","0.0-4.0-4.0-0.0","spark_pilot_norest","8559","6","10","Male","","false","","","","","[910.9000000001397]","./assets/img/canyon/animals/giraffe.jpg","[""ArrowRight""]","revaluation","canyon","15","{""ArrowUp,ArrowLeft"":27,""ArrowUp,ArrowRight"":15,""ArrowDown,ArrowLeft"":21,""ArrowDown,ArrowRight"":7}","false","ArrowUp,ArrowRight","","revaluation","1","0","","",""
"html-keyboard-response","219","1003213","0.0-4.0-4.0-1.0","spark_pilot_norest","8559","6","10","Male","","","","","","","null","<div style=""font-size:60px;"">+</div>","null","fixation","","","","","","","","","1","","",""
"revaluation","220","1007228","0.0-4.0-4.0-0.1","spark_pilot_norest","8559","6","10","Male","","false","","","","","[925.4000000001397]","./assets/img/canyon/animals/giraffe.jpg","[""ArrowLeft""]","revaluation","canyon","27","{""ArrowUp,ArrowLeft"":27,""ArrowUp,ArrowRight"":15,""ArrowDown,ArrowLeft"":21,""ArrowDown,ArrowRight"":7}","true","ArrowUp,ArrowLeft","","revaluation","1","2","","",""
"html-keyboard-response","221","1007732","0.0-4.0-4.0-1.1","spark_pilot_norest","8559","6","10","Male","","","","","","","null","<div style=""font-size:60px;"">+</div>","null","fixation","","","","","","","","","3","","",""
"revaluation","222","1011754","0.0-4.0-4.0-0.2","spark_pilot_norest","8559","6","10","Male","","false","","","","","[612.6999999999534]","./assets/img/canyon/animals/lion.jpg","[""ArrowLeft""]","revaluation","canyon","21","{""ArrowUp,ArrowLeft"":27,""ArrowUp,ArrowRight"":15,""ArrowDown,ArrowLeft"":21,""ArrowDown,ArrowRight"":7}","true","ArrowDown,ArrowLeft","","revaluation","1","4","","",""
"html-keyboard-response","223","1012260","0.0-4.0-4.0-1.2","spark_pilot_norest","8559","6","10","Male","","","","","","","null","<div style=""font-size:60px;"">+</div>","null","fixation","","","","","","","","","5","","",""
"revaluation","224","1016279","0.0-4.0-4.0-0.3","spark_pilot_norest","8559","6","10","Male","","false","","","","","[536.8000000000466]","./assets/img/canyon/animals/lion.jpg","[""ArrowRight""]","revaluation","canyon","7","{""ArrowUp,ArrowLeft"":27,""ArrowUp,ArrowRight"":15,""ArrowDown,ArrowLeft"":21,""ArrowDown,ArrowRight"":7}","false","ArrowDown,ArrowRight","","revaluation","1","6","","",""
"html-keyboard-response","225","1016786","0.0-4.0-4.0-1.3","spark_pilot_norest","8559","6","10","Male","","","","","","","null","<div style=""font-size:60px;"">+</div>","null","fixation","","","","","","","","","7","","",""
"revaluation","226","1020799","0.0-4.0-4.0-0.4","spark_pilot_norest","8559","6","10","Male","","false","","","","","[817.6999999999534]","./assets/img/canyon/animals/lion.jpg","[""ArrowLeft""]","revaluation","canyon","21","{""ArrowUp,ArrowLeft"":27,""ArrowUp,ArrowRight"":15,""ArrowDown,ArrowLeft"":21,""ArrowDown,ArrowRight"":7}","true","ArrowDown,ArrowLeft","","revaluation","1","8","","",""
"html-keyboard-response","227","1021304","0.0-4.0-4.0-1.4","spark_pilot_norest","8559","6","10","Male","","","","","","","null","<div style=""font-size:60px;"">+</div>","null","fixation","","","","","","","","","9","","",""
"revaluation","228","1025319","0.0-4.0-4.0-0.5","spark_pilot_norest","8559","6","10","Male","","false","","","","","[480.60000000009313]","./assets/img/canyon/animals/giraffe.jpg","[""ArrowLeft""]","revaluation","canyon","27","{""ArrowUp,ArrowLeft"":27,""ArrowUp,ArrowRight"":15,""ArrowDown,ArrowLeft"":21,""ArrowDown,ArrowRight"":7}","true","ArrowUp,ArrowLeft","","revaluation","1","10","","",""
"html-keyboard-response","229","1025825","0.0-4.0-4.0-1.5","spark_pilot_norest","8559","6","10","Male","","","","","","","null","<div style=""font-size:60px;"">+</div>","null","fixation","","","","","","","","","11","","",""
"revaluation","230","1029841","0.0-4.0-4.0-0.6","spark_pilot_norest","8559","6","10","Male","","false","","","","","[515.8999999999069]","./assets/img/canyon/animals/giraffe.jpg","[""ArrowLeft""]","revaluation","canyon","27","{""ArrowUp,ArrowLeft"":27,""ArrowUp,ArrowRight"":15,""ArrowDown,ArrowLeft"":21,""ArrowDown,ArrowRight"":7}","true","ArrowUp,ArrowLeft","","revaluation","1","12","","",""
"html-keyboard-response","231","1030347","0.0-4.0-4.0-1.6","spark_pilot_norest","8559","6","10","Male","","","","","","","null","<div style=""font-size:60px;"">+</div>","null","fixation","","","","","","","","","13","","",""
"revaluation","232","1034368","0.0-4.0-4.0-0.7","spark_pilot_norest","8559","6","10","Male","","false","","","","","[571]","./assets/img/canyon/animals/lion.jpg","[""ArrowLeft""]","revaluation","canyon","21","{""ArrowUp,ArrowLeft"":27,""ArrowUp,ArrowRight"":15,""ArrowDown,ArrowLeft"":21,""ArrowDown,ArrowRight"":7}","true","ArrowDown,ArrowLeft","","revaluation","1","14","","",""
"html-keyboard-response","233","1034874","0.0-4.0-4.0-1.7","spark_pilot_norest","8559","6","10","Male","","","","","","","null","<div style=""font-size:60px;"">+</div>","null","fixation","","","","","","","","","15","","",""
"revaluation","234","1038895","0.0-4.0-4.0-0.8","spark_pilot_norest","8559","6","10","Male","","false","","","","","[450.19999999995343]","./assets/img/canyon/animals/lion.jpg","[""ArrowLeft""]","revaluation","canyon","21","{""ArrowUp,ArrowLeft"":27,""ArrowUp,ArrowRight"":15,""ArrowDown,ArrowLeft"":21,""ArrowDown,ArrowRight"":7}","true","ArrowDown,ArrowLeft","","revaluation","1","16","","",""
"html-keyboard-response","235","1039401","0.0-4.0-4.0-1.8","spark_pilot_norest","8559","6","10","Male","","","","","","","null","<div style=""font-size:60px;"">+</div>","null","fixation","","","","","","","","","17","","",""
"revaluation","236","1043421","0.0-4.0-4.0-0.9","spark_pilot_norest","8559","6","10","Male","","false","","","","","[662.4000000001397]","./assets/img/canyon/animals/giraffe.jpg","[""ArrowLeft""]","revaluation","canyon","27","{""ArrowUp,ArrowLeft"":27,""ArrowUp,ArrowRight"":15,""ArrowDown,ArrowLeft"":21,""ArrowDown,ArrowRight"":7}","true","ArrowUp,ArrowLeft","","revaluation","1","18","","",""
"html-keyboard-response","237","1043926","0.0-4.0-4.0-1.9","spark_pilot_norest","8559","6","10","Male","","","","","","","null","<div style=""font-size:60px;"">+</div>","null","fixation","","","","","","","","","19","","",""
"revaluation","238","1047955","0.0-4.0-4.0-0.10","spark_pilot_norest","8559","6","10","Male","","false","","","","","[461]","./assets/img/canyon/animals/lion.jpg","[""ArrowLeft""]","revaluation","canyon","21","{""ArrowUp,ArrowLeft"":27,""ArrowUp,ArrowRight"":15,""ArrowDown,ArrowLeft"":21,""ArrowDown,ArrowRight"":7}","true","ArrowDown,ArrowLeft","","revaluation","1","20","","",""
"html-keyboard-response","239","1048462","0.0-4.0-4.0-1.10","spark_pilot_norest","8559","6","10","Male","","","","","","","null","<div style=""font-size:60px;"">+</div>","null","fixation","","","","","","","","","21","","",""
"revaluation","240","1052479","0.0-4.0-4.0-0.11","spark_pilot_norest","8559","6","10","Male","","false","","","","","[780.8999999999069]","./assets/img/canyon/animals/giraffe.jpg","[""ArrowLeft""]","revaluation","canyon","27","{""ArrowUp,ArrowLeft"":27,""ArrowUp,ArrowRight"":15,""ArrowDown,ArrowLeft"":21,""ArrowDown,ArrowRight"":7}","true","ArrowUp,ArrowLeft","","revaluation","1","22","","",""
"html-keyboard-response","241","1052987","0.0-4.0-4.0-1.11","spark_pilot_norest","8559","6","10","Male","","","","","","","null","<div style=""font-size:60px;"">+</div>","null","fixation","","","","","","","","","23","","",""
"revaluation","242","1057005","0.0-4.0-4.0-0.12","spark_pilot_norest","8559","6","10","Male","","false","","","","","[771.3000000002794]","./assets/img/canyon/animals/giraffe.jpg","[""ArrowLeft""]","revaluation","canyon","27","{""ArrowUp,ArrowLeft"":27,""ArrowUp,ArrowRight"":15,""ArrowDown,ArrowLeft"":21,""ArrowDown,ArrowRight"":7}","true","ArrowUp,ArrowLeft","","revaluation","1","24","","",""
"html-keyboard-response","243","1057511","0.0-4.0-4.0-1.12","spark_pilot_norest","8559","6","10","Male","","","","","","","null","<div style=""font-size:60px;"">+</div>","null","fixation","","","","","","","","","25","","",""
"revaluation","244","1061528","0.0-4.0-4.0-0.13","spark_pilot_norest","8559","6","10","Male","","false","","","","","[1172.5]","./assets/img/canyon/animals/lion.jpg","[""ArrowLeft""]","revaluation","canyon","21","{""ArrowUp,ArrowLeft"":27,""ArrowUp,ArrowRight"":15,""ArrowDown,ArrowLeft"":21,""ArrowDown,ArrowRight"":7}","true","ArrowDown,ArrowLeft","","revaluation","1","26","","",""
"html-keyboard-response","245","1062032","0.0-4.0-4.0-1.13","spark_pilot_norest","8559","6","10","Male","","","","","","","null","<div style=""font-size:60px;"">+</div>","null","fixation","","","","","","","","","27","","",""
"revaluation","246","1066045","0.0-4.0-4.0-0.14","spark_pilot_norest","8559","6","10","Male","","false","","","","","[697.5999999996275]","./assets/img/canyon/animals/lion.jpg","[""ArrowLeft""]","revaluation","canyon","21","{""ArrowUp,ArrowLeft"":27,""ArrowUp,ArrowRight"":15,""ArrowDown,ArrowLeft"":21,""ArrowDown,ArrowRight"":7}","true","ArrowDown,ArrowLeft","","revaluation","1","28","","",""
"html-keyboard-response","247","1066553","0.0-4.0-4.0-1.14","spark_pilot_norest","8559","6","10","Male","","","","","","","null","<div style=""font-size:60px;"">+</div>","null","fixation","","","","","","","","","29","","",""
"revaluation","248","1070571","0.0-4.0-4.0-0.15","spark_pilot_norest","8559","6","10","Male","","false","","","","","[772.2999999998137]","./assets/img/canyon/animals/lion.jpg","[""ArrowLeft""]","revaluation","canyon","21","{""ArrowUp,ArrowLeft"":27,""ArrowUp,ArrowRight"":15,""ArrowDown,ArrowLeft"":21,""ArrowDown,ArrowRight"":7}","true","ArrowDown,ArrowLeft","","revaluation","1","30","","",""
"html-keyboard-response","249","1071077","0.0-4.0-4.0-1.15","spark_pilot_norest","8559","6","10","Male","","","","","","","null","<div style=""font-size:60px;"">+</div>","null","fixation","","","","","","","","","31","","",""
"revaluation","250","1075100","0.0-4.0-4.0-0.16","spark_pilot_norest","8559","6","10","Male","","false","","","","","[1245.4000000003725]","./assets/img/canyon/animals/giraffe.jpg","[""ArrowLeft""]","revaluation","canyon","27","{""ArrowUp,ArrowLeft"":27,""ArrowUp,ArrowRight"":15,""ArrowDown,ArrowLeft"":21,""ArrowDown,ArrowRight"":7}","true","ArrowUp,ArrowLeft","","revaluation","1","32","","",""
"html-keyboard-response","251","1075607","0.0-4.0-4.0-1.16","spark_pilot_norest","8559","6","10","Male","","","","","","","null","<div style=""font-size:60px;"">+</div>","null","fixation","","","","","","","","","33","","",""
"revaluation","252","1079626","0.0-4.0-4.0-0.17","spark_pilot_norest","8559","6","10","Male","","false","","","","","[820.1999999997206]","./assets/img/canyon/animals/giraffe.jpg","[""ArrowLeft""]","revaluation","canyon","27","{""ArrowUp,ArrowLeft"":27,""ArrowUp,ArrowRight"":15,""ArrowDown,ArrowLeft"":21,""ArrowDown,ArrowRight"":7}","true","ArrowUp,ArrowLeft","","revaluation","1","34","","",""
"html-keyboard-response","253","1080132","0.0-4.0-4.0-1.17","spark_pilot_norest","8559","6","10","Male","","","","","","","null","<div style=""font-size:60px;"">+</div>","null","fixation","","","","","","","","","35","","",""
"learning-instructions","254","1088328","0.0-4.0-5.0-0.0","spark_pilot_norest","8559","6","10","Male","","","","","","","null","<p> You have almost finished this part of the game! </p>
            <p> We are going to ask you to make a few more choices. </p>","","instructions","","","","","","","","","","","",""
"learning-instructions","255","1104299","0.0-4.0-5.0-0.1","spark_pilot_norest","8559","6","10","Male","","","","","","","null","<p> First, you need to decide whether to go up or down. When you see each picture, use the arrow keys to make your choice. </p>
            <p><b>You will not see which animal you found, but try to get to the one that will give you the most treasure.</b></p>","","instructions","","","","","","","","","","","",""
"html-keyboard-response","256","1105304","0.0-4.0-6.0-0.0","spark_pilot_norest","8559","6","10","Male","","","","","","","null","<div style=""font-size:100px;color:red;"">Starting in...</div>","null","","","","","","","","","","","","",""
"html-keyboard-response","257","1106309","0.0-4.0-6.0-1.0","spark_pilot_norest","8559","6","10","Male","","","","","","","null","<div style=""font-size:200px;color:red;"">3</div>","null","","","","","","","","","","","","",""
"html-keyboard-response","258","1107315","0.0-4.0-6.0-2.0","spark_pilot_norest","8559","6","10","Male","","","","","","","null","<div style=""font-size:200px;color:red;"">2</div>","null","","","","","","","","","","","","",""
"html-keyboard-response","259","1108320","0.0-4.0-6.0-3.0","spark_pilot_norest","8559","6","10","Male","","","","","","","null","<div style=""font-size:200px;color:red;"">1</div>","null","","","","","","","","","","","","",""
"revaluation","260","1109019","0.0-4.0-7.0-0.0","spark_pilot_norest","8559","6","10","Male","","false","","","","","[683.9000000003725]","./assets/img/canyon/test/0.jpg","[""ArrowDown""]","first stage test","canyon","0","{""ArrowUp,ArrowLeft"":27,""ArrowUp,ArrowRight"":15,""ArrowDown,ArrowLeft"":21,""ArrowDown,ArrowRight"":7}","false","ArrowDown","false","revaluation","1","","","",""
"html-keyboard-response","261","1109525","0.0-4.0-7.0-1.0","spark_pilot_norest","8559","6","10","Male","","","","","","","null","<div style=""font-size:60px;"">+</div>","null","fixation","","","","","","","","","","","",""
"revaluation","262","1111625","0.0-4.0-7.0-0.1","spark_pilot_norest","8559","6","10","Male","","false","","","","","[2084.7000000001863]","./assets/img/canyon/test/2.jpg","[""ArrowUp""]","first stage test","canyon","0","{""ArrowUp,ArrowLeft"":27,""ArrowUp,ArrowRight"":15,""ArrowDown,ArrowLeft"":21,""ArrowDown,ArrowRight"":7}","true","ArrowUp","false","revaluation","1","","","",""
"html-keyboard-response","263","1112132","0.0-4.0-7.0-1.1","spark_pilot_norest","8559","6","10","Male","","","","","","","null","<div style=""font-size:60px;"">+</div>","null","fixation","","","","","","","","","","","",""
"revaluation","264","1113085","0.0-4.0-7.0-0.2","spark_pilot_norest","8559","6","10","Male","","false","","","","","[942.2999999998137]","./assets/img/canyon/test/3.jpg","[""ArrowDown""]","first stage test","canyon","0","{""ArrowUp,ArrowLeft"":27,""ArrowUp,ArrowRight"":15,""ArrowDown,ArrowLeft"":21,""ArrowDown,ArrowRight"":7}","false","ArrowDown","false","revaluation","1","","","",""
"html-keyboard-response","265","1113589","0.0-4.0-7.0-1.2","spark_pilot_norest","8559","6","10","Male","","","","","","","null","<div style=""font-size:60px;"">+</div>","null","fixation","","","","","","","","","","","",""
"revaluation","266","1114580","0.0-4.0-7.0-0.3","spark_pilot_norest","8559","6","10","Male","","false","","","","","[969]","./assets/img/canyon/test/1.jpg","[""ArrowDown""]","first stage test","canyon","0","{""ArrowUp,ArrowLeft"":27,""ArrowUp,ArrowRight"":15,""ArrowDown,ArrowLeft"":21,""ArrowDown,ArrowRight"":7}","false","ArrowDown","false","revaluation","1","","","",""
"html-keyboard-response","267","1115088","0.0-4.0-7.0-1.3","spark_pilot_norest","8559","6","10","Male","","","","","","","null","<div style=""font-size:60px;"">+</div>","null","fixation","","","","","","","","","","","",""
"learning-instructions","268","1128435","0.0-4.0-8.0-0.0","spark_pilot_norest","8559","6","10","Male","","","","","","","null","<p> Now you will see the animals again and can search their chests for treasure. </p>
            <p> This time, you will not see how much treasure you earned, but you will earn more bonus money for making better choices. </p>","","instructions","","","","","","","","","","","",""
"html-keyboard-response","269","1129444","0.0-4.0-9.0-0.0","spark_pilot_norest","8559","6","10","Male","","","","","","","null","<div style=""font-size:100px;color:red;"">Starting in...</div>","null","","","","","","","","","","","","",""
"html-keyboard-response","270","1130450","0.0-4.0-9.0-1.0","spark_pilot_norest","8559","6","10","Male","","","","","","","null","<div style=""font-size:200px;color:red;"">3</div>","null","","","","","","","","","","","","",""
"html-keyboard-response","271","1131455","0.0-4.0-9.0-2.0","spark_pilot_norest","8559","6","10","Male","","","","","","","null","<div style=""font-size:200px;color:red;"">2</div>","null","","","","","","","","","","","","",""
"html-keyboard-response","272","1132462","0.0-4.0-9.0-3.0","spark_pilot_norest","8559","6","10","Male","","","","","","","null","<div style=""font-size:200px;color:red;"">1</div>","null","","","","","","","","","","","","",""
"revaluation","273","1133672","0.0-4.0-10.0-0.0","spark_pilot_norest","8559","6","10","Male","","false","","","","","[1191.5]","./assets/img/canyon/animals/giraffe.jpg","[""ArrowLeft""]","second stage test","canyon","0","{""ArrowUp,ArrowLeft"":27,""ArrowUp,ArrowRight"":15,""ArrowDown,ArrowLeft"":21,""ArrowDown,ArrowRight"":7}","true","ArrowUp,ArrowLeft","","revaluation","1","","","",""
"html-keyboard-response","274","1134177","0.0-4.0-10.0-1.0","spark_pilot_norest","8559","6","10","Male","","","","","","","null","<div style=""font-size:60px;"">+</div>","null","fixation","","","","","","","","","","","",""
"revaluation","275","1134745","0.0-4.0-10.0-0.1","spark_pilot_norest","8559","6","10","Male","","false","","","","","[554.5]","./assets/img/canyon/animals/giraffe.jpg","[""ArrowLeft""]","second stage test","canyon","0","{""ArrowUp,ArrowLeft"":27,""ArrowUp,ArrowRight"":15,""ArrowDown,ArrowLeft"":21,""ArrowDown,ArrowRight"":7}","true","ArrowUp,ArrowLeft","","revaluation","1","","","",""
"html-keyboard-response","276","1135252","0.0-4.0-10.0-1.1","spark_pilot_norest","8559","6","10","Male","","","","","","","null","<div style=""font-size:60px;"">+</div>","null","fixation","","","","","","","","","","","",""
"revaluation","277","1136301","0.0-4.0-10.0-0.2","spark_pilot_norest","8559","6","10","Male","","false","","","","","[1035.6999999997206]","./assets/img/canyon/animals/giraffe.jpg","[""ArrowLeft""]","second stage test","canyon","0","{""ArrowUp,ArrowLeft"":27,""ArrowUp,ArrowRight"":15,""ArrowDown,ArrowLeft"":21,""ArrowDown,ArrowRight"":7}","true","ArrowUp,ArrowLeft","","revaluation","1","","","",""
"html-keyboard-response","278","1136808","0.0-4.0-10.0-1.2","spark_pilot_norest","8559","6","10","Male","","","","","","","null","<div style=""font-size:60px;"">+</div>","null","fixation","","","","","","","","","","","",""
"revaluation","279","1137178","0.0-4.0-10.0-0.3","spark_pilot_norest","8559","6","10","Male","","false","","","","","[353.79999999981374]","./assets/img/canyon/animals/giraffe.jpg","[""ArrowRight""]","second stage test","canyon","0","{""ArrowUp,ArrowLeft"":27,""ArrowUp,ArrowRight"":15,""ArrowDown,ArrowLeft"":21,""ArrowDown,ArrowRight"":7}","false","ArrowUp,ArrowRight","","revaluation","1","","","",""
"html-keyboard-response","280","1137684","0.0-4.0-10.0-1.3","spark_pilot_norest","8559","6","10","Male","","","","","","","null","<div style=""font-size:60px;"">+</div>","null","fixation","","","","","","","","","","","",""
"revaluation","281","1138205","0.0-4.0-10.0-0.4","spark_pilot_norest","8559","6","10","Male","","false","","","","","[499.70000000018626]","./assets/img/canyon/animals/lion.jpg","[""ArrowLeft""]","second stage test","canyon","0","{""ArrowUp,ArrowLeft"":27,""ArrowUp,ArrowRight"":15,""ArrowDown,ArrowLeft"":21,""ArrowDown,ArrowRight"":7}","true","ArrowDown,ArrowLeft","","revaluation","1","","","",""
"html-keyboard-response","282","1138711","0.0-4.0-10.0-1.4","spark_pilot_norest","8559","6","10","Male","","","","","","","null","<div style=""font-size:60px;"">+</div>","null","fixation","","","","","","","","","","","",""
"revaluation","283","1139247","0.0-4.0-10.0-0.5","spark_pilot_norest","8559","6","10","Male","","false","","","","","[523]","./assets/img/canyon/animals/lion.jpg","[""ArrowLeft""]","second stage test","canyon","0","{""ArrowUp,ArrowLeft"":27,""ArrowUp,ArrowRight"":15,""ArrowDown,ArrowLeft"":21,""ArrowDown,ArrowRight"":7}","true","ArrowDown,ArrowLeft","","revaluation","1","","","",""
"html-keyboard-response","284","1139751","0.0-4.0-10.0-1.5","spark_pilot_norest","8559","6","10","Male","","","","","","","null","<div style=""font-size:60px;"">+</div>","null","fixation","","","","","","","","","","","",""
"revaluation","285","1140159","0.0-4.0-10.0-0.6","spark_pilot_norest","8559","6","10","Male","","false","","","","","[395.10000000009313]","./assets/img/canyon/animals/lion.jpg","[""ArrowRight""]","second stage test","canyon","0","{""ArrowUp,ArrowLeft"":27,""ArrowUp,ArrowRight"":15,""ArrowDown,ArrowLeft"":21,""ArrowDown,ArrowRight"":7}","false","ArrowDown,ArrowRight","","revaluation","1","","","",""
"html-keyboard-response","286","1140667","0.0-4.0-10.0-1.6","spark_pilot_norest","8559","6","10","Male","","","","","","","null","<div style=""font-size:60px;"">+</div>","null","fixation","","","","","","","","","","","",""
"revaluation","287","1141089","0.0-4.0-10.0-0.7","spark_pilot_norest","8559","6","10","Male","","false","","","","","[405.8000000002794]","./assets/img/canyon/animals/lion.jpg","[""ArrowRight""]","second stage test","canyon","0","{""ArrowUp,ArrowLeft"":27,""ArrowUp,ArrowRight"":15,""ArrowDown,ArrowLeft"":21,""ArrowDown,ArrowRight"":7}","false","ArrowDown,ArrowRight","","revaluation","1","","","",""
"html-keyboard-response","288","1141603","0.0-4.0-10.0-1.7","spark_pilot_norest","8559","6","10","Male","","","","","","","null","<div style=""font-size:60px;"">+</div>","null","fixation","","","","","","","","","","","",""
"learning-instructions","289","1146857","0.0-4.0-0.1-0.2","spark_pilot_norest","8559","6","10","Male","","","","","","","2486.2999999998137","<p> This time you are searching for treasure in the <b>ocean</b>.</p>","","instructions","","","","","","","","","","","",""
"learning-instructions","290","1166132","0.0-4.0-0.1-0.3","spark_pilot_norest","8559","6","10","Male","","","","","","","2016.3000000002794","<p><b>New</b> animals with <b>new</b> treasure chests live here. You need to explore to discover where the animal with the best treasure chest is.</p>
                    <p> Like before, once you figure out which animal has the chest with the most treasure, you should try to get to that animal and select that chest! </p>","","instructions","","","","","","","","","","","",""
"learning-instructions","291","1183237","0.0-4.0-1.1-0.1","spark_pilot_norest","8559","6","10","Male","","","","","","","2371.7000000001863","<p> Remember, when you see a picture of the place, use the up and down keys to <b>find an animal</b>.</p>
            <p> When you encounter an animal, you should use the left and right keys to <b>select a treasure chest</b>.</p>
            <p> Don't forget to look out for the robber! </p>","","instructions","","","","","","","","","","","",""
"revaluation","292","1189250","0.0-4.0-2.1-0.50","spark_pilot_norest","8559","6","10","Male","","false","","","","","[1269,544.5]","./assets/img/ocean/memory/9.jpg","[""ArrowDown"",""ArrowRight""]","value training","ocean","17","{""ArrowUp,ArrowLeft"":26,""ArrowUp,ArrowRight"":10,""ArrowDown,ArrowLeft"":5,""ArrowDown,ArrowRight"":17}","false","ArrowDown,ArrowRight","false","original","2","0","","",""
"html-keyboard-response","293","1189755","0.0-4.0-2.1-1.50","spark_pilot_norest","8559","6","10","Male","","","","","","","null","<div style=""font-size:60px;"">+</div>","null","fixation","","","","","","","","","1","","",""
"revaluation","294","1195771","0.0-4.0-2.1-0.51","spark_pilot_norest","8559","6","10","Male","","false","","","","","[570.3000000002794,345.20000000018626]","./assets/img/ocean/memory/31.jpg","[""ArrowDown"",""ArrowLeft""]","value training","ocean","5","{""ArrowUp,ArrowLeft"":26,""ArrowUp,ArrowRight"":10,""ArrowDown,ArrowLeft"":5,""ArrowDown,ArrowRight"":17}","false","ArrowDown,ArrowLeft","false","original","2","2","","",""
"html-keyboard-response","295","1196278","0.0-4.0-2.1-1.51","spark_pilot_norest","8559","6","10","Male","","","","","","","null","<div style=""font-size:60px;"">+</div>","null","fixation","","","","","","","","","3","","",""
"revaluation","296","1202295","0.0-4.0-2.1-0.52","spark_pilot_norest","8559","6","10","Male","","false","","","","","[393.10000000009313,829.8999999999069]","./assets/img/ocean/memory/34.jpg","[""ArrowUp"",""ArrowRight""]","value training","ocean","10","{""ArrowUp,ArrowLeft"":26,""ArrowUp,ArrowRight"":10,""ArrowDown,ArrowLeft"":5,""ArrowDown,ArrowRight"":17}","false","ArrowUp,ArrowRight","false","original","2","4","","",""
"html-keyboard-response","297","1202802","0.0-4.0-2.1-1.52","spark_pilot_norest","8559","6","10","Male","","","","","","","null","<div style=""font-size:60px;"">+</div>","null","fixation","","","","","","","","","5","","",""
"revaluation","298","1208819","0.0-4.0-2.1-0.53","spark_pilot_norest","8559","6","10","Male","","false","","","","","[545.3999999999069,441.1999999997206]","./assets/img/ocean/memory/16.jpg","[""ArrowUp"",""ArrowLeft""]","value training","ocean","26","{""ArrowUp,ArrowLeft"":26,""ArrowUp,ArrowRight"":10,""ArrowDown,ArrowLeft"":5,""ArrowDown,ArrowRight"":17}","true","ArrowUp,ArrowLeft","false","original","2","6","","",""
"html-keyboard-response","299","1209325","0.0-4.0-2.1-1.53","spark_pilot_norest","8559","6","10","Male","","","","","","","null","<div style=""font-size:60px;"">+</div>","null","fixation","","","","","","","","","7","","",""
"revaluation","300","1213344","0.0-4.0-2.1-0.54","spark_pilot_norest","8559","6","10","Male","","false","","","","","[530.1999999997206]","./assets/img/ocean/catch/6.jpg","[""ArrowUp""]","value training","ocean","-10","{""ArrowUp,ArrowLeft"":26,""ArrowUp,ArrowRight"":10,""ArrowDown,ArrowLeft"":5,""ArrowDown,ArrowRight"":17}","false","ArrowUp","true","original","2","8","","",""
"html-keyboard-response","301","1213852","0.0-4.0-2.1-1.54","spark_pilot_norest","8559","6","10","Male","","","","","","","null","<div style=""font-size:60px;"">+</div>","null","fixation","","","","","","","","","9","","",""
"revaluation","302","1219871","0.0-4.0-2.1-0.55","spark_pilot_norest","8559","6","10","Male","","false","","","","","[480.89999999990687,450.89999999990687]","./assets/img/ocean/memory/37.jpg","[""ArrowUp"",""ArrowLeft""]","value training","ocean","26","{""ArrowUp,ArrowLeft"":26,""ArrowUp,ArrowRight"":10,""ArrowDown,ArrowLeft"":5,""ArrowDown,ArrowRight"":17}","true","ArrowUp,ArrowLeft","false","original","2","10","","",""
"html-keyboard-response","303","1220378","0.0-4.0-2.1-1.55","spark_pilot_norest","8559","6","10","Male","","","","","","","null","<div style=""font-size:60px;"">+</div>","null","fixation","","","","","","","","","11","","",""
"revaluation","304","1226397","0.0-4.0-2.1-0.56","spark_pilot_norest","8559","6","10","Male","","false","","","","","[489.39999999990687,523]","./assets/img/ocean/memory/22.jpg","[""ArrowUp"",""ArrowLeft""]","value training","ocean","26","{""ArrowUp,ArrowLeft"":26,""ArrowUp,ArrowRight"":10,""ArrowDown,ArrowLeft"":5,""ArrowDown,ArrowRight"":17}","true","ArrowUp,ArrowLeft","false","original","2","12","","",""
"html-keyboard-response","305","1226905","0.0-4.0-2.1-1.56","spark_pilot_norest","8559","6","10","Male","","","","","","","null","<div style=""font-size:60px;"">+</div>","null","fixation","","","","","","","","","13","","",""
"revaluation","306","1232924","0.0-4.0-2.1-0.57","spark_pilot_norest","8559","6","10","Male","","false","","","","","[662.2999999998137,376.79999999981374]","./assets/img/ocean/memory/20.jpg","[""ArrowUp"",""ArrowLeft""]","value training","ocean","26","{""ArrowUp,ArrowLeft"":26,""ArrowUp,ArrowRight"":10,""ArrowDown,ArrowLeft"":5,""ArrowDown,ArrowRight"":17}","true","ArrowUp,ArrowLeft","false","original","2","14","","",""
"html-keyboard-response","307","1233432","0.0-4.0-2.1-1.57","spark_pilot_norest","8559","6","10","Male","","","","","","","null","<div style=""font-size:60px;"">+</div>","null","fixation","","","","","","","","","15","","",""
"revaluation","308","1239450","0.0-4.0-2.1-0.58","spark_pilot_norest","8559","6","10","Male","","false","","","","","[442.59999999962747,560.7999999998137]","./assets/img/ocean/memory/14.jpg","[""ArrowUp"",""ArrowLeft""]","value training","ocean","26","{""ArrowUp,ArrowLeft"":26,""ArrowUp,ArrowRight"":10,""ArrowDown,ArrowLeft"":5,""ArrowDown,ArrowRight"":17}","true","ArrowUp,ArrowLeft","false","original","2","16","","",""
"html-keyboard-response","309","1239956","0.0-4.0-2.1-1.58","spark_pilot_norest","8559","6","10","Male","","","","","","","null","<div style=""font-size:60px;"">+</div>","null","fixation","","","","","","","","","17","","",""
"revaluation","310","1245979","0.0-4.0-2.1-0.59","spark_pilot_norest","8559","6","10","Male","","false","","","","","[732.3999999999069,476.60000000009313]","./assets/img/ocean/memory/10.jpg","[""ArrowUp"",""ArrowLeft""]","value training","ocean","26","{""ArrowUp,ArrowLeft"":26,""ArrowUp,ArrowRight"":10,""ArrowDown,ArrowLeft"":5,""ArrowDown,ArrowRight"":17}","true","ArrowUp,ArrowLeft","false","original","2","18","","",""
"html-keyboard-response","311","1246486","0.0-4.0-2.1-1.59","spark_pilot_norest","8559","6","10","Male","","","","","","","null","<div style=""font-size:60px;"">+</div>","null","fixation","","","","","","","","","19","","",""
"revaluation","312","1250501","0.0-4.0-2.1-0.60","spark_pilot_norest","8559","6","10","Male","","false","","","","","[809.7000000001863]","./assets/img/ocean/catch/1.jpg","[""spaceBar""]","value training","ocean","0","{""ArrowUp,ArrowLeft"":26,""ArrowUp,ArrowRight"":10,""ArrowDown,ArrowLeft"":5,""ArrowDown,ArrowRight"":17}","true","spaceBar","true","original","2","20","","",""
