"trial_type","trial_index","time_elapsed","internal_node_id","task_version","subject_id","assigned_condition","age","gender","success","timeout","failed_images","failed_audio","failed_video","browser_interaction","rt","stimulus","response","task_part","environment","score","rewardMap","correct","fullState","isCatch","condition","order","trial_num","key_press","ground_truth","bonus"
"pavlovia","0","1460","0.0-0.0","spark_pilot_norest","11405","8","7","Female","","","","","","","","","","","","","","","","","","","","","",""
"preload","1","39127","0.0-1.0","spark_pilot_norest","11405","8","7","Female","true","false","[]","[]","[]","[{""event"":""fullscreenenter"",""trial"":2,""time"":41832},{""event"":""blur"",""trial"":25,""time"":176504},{""event"":""focus"",""trial"":25,""time"":190801}]","","","","","","","","","","","","","","","",""
"fullscreen","2","42828","0.0-2.0","spark_pilot_norest","11405","8","7","Female","true","","","","","","","","","","","","","","","","","","","","",""
"audio-button-response","3","47089","0.0-3.0-0.0-0.0","spark_pilot_norest","11405","8","7","Female","","","","","","","3915","./assets/audio/audiotest/turtle.mp3","2","audio_test","","","","","","","","","","","",""
"learning-instructions","4","56351","0.0-3.0-1.0-0.0","spark_pilot_norest","11405","8","7","Female","","","","","","","2291.6999999999534","<p> Welcome! Please remember to stay in fullscreen mode and don't click away from the experiment. </p>","","instructions","","","","","","","","","","","",""
"learning-instructions","5","66164","0.0-3.0-1.0-0.1","spark_pilot_norest","11405","8","7","Female","","","","","","","1406","<p> Today you will be playing a game to earn treasure. </p>
            <p> At the end of the experiment, you will earn a bonus based on how much treasure you find. </p>
            <img src='./assets/img/instructions/treasure.jpg' class='instructions-image'>","","instructions","","","","","","","","","","","",""
"learning-instructions","6","77205","0.0-3.0-1.0-0.2","spark_pilot_norest","11405","8","7","Female","","","","","","","2783.5","<p> Animals have hidden treasure in treasure chests. </p>
            <p> You need to first find an animal and then choose which of their treasure chests to search. </p>
            <img src='./assets/img/space/animals/cat.jpg' class='instructions-image'>","","instructions","","","","","","","","","","","",""
"learning-instructions","7","92624","0.0-3.0-1.0-0.3","spark_pilot_norest","11405","8","7","Female","","","","","","","2276.399999999907","<p> In each round, you will search for treasure in a different place. In the real game, there will be two rounds. </p>
            <p> You will begin with a separate, practice round where you will search for treasure in outer space. </p>
            <img src='./assets/img/space/0.jpg' class='instructions-image'>","","instructions","","","","","","","","","","","",""
"learning-instructions","8","106083","0.0-3.0-1.0-0.4","spark_pilot_norest","11405","8","7","Female","","","","","","","2050.7000000001863","<p> On every turn, you will see a picture of the place that you are in, but the specific image may be different each time. </p>
            <p> For example, both of these images mean you are in outer space. </p>
            <img src='./assets/img/instructions/outerspace.jpg' class='instructions-image'>","","instructions","","","","","","","","","","","",""
"learning-instructions","9","116052","0.0-3.0-1.0-0.5","spark_pilot_norest","11405","8","7","Female","","","","","","","2142.100000000093","<p> You need to decide which direction to travel in. </p>
            <p> You can choose between going <b>up or down</b> by using the arrow keys. </p>
            <img src='./assets/img/instructions/updown.jpg' class='instructions-image'>","","instructions","","","","","","","","","","","",""
"learning-instructions","10","126742","0.0-3.0-1.0-0.6","spark_pilot_norest","11405","8","7","Female","","","","","","","1877.2000000001863","<p> You will have <b>2 seconds</b> to make your choice. </p>
            <p> If you do not make a choice within 2 seconds, you will not find an animal or earn treasure. </p>
            <img src='./assets/img/instructions/2seconds.jpg' class='instructions-image'>","","instructions","","","","","","","","","","","",""
"learning-instructions","11","135190","0.0-3.0-1.0-0.7","spark_pilot_norest","11405","8","7","Female","","","","","","","1408.3999999999069","<p> Let’s try practicing that now! </p>
            <p> When you see a picture of the place you are in, press the <b>up</b> key to travel up. </p>
            <img src='./assets/img/instructions/pressUp.jpg' class='instructions-image'>","","instructions","","","","","","","","","","","",""
"revaluation","12","139201","0.0-3.0-2.0-0.0","spark_pilot_norest","11405","8","7","Female","","false","","","","","[1217.4000000003725]","./assets/img/space/0.jpg","[""ArrowUp""]","first stage practice","space","0","null","null","ArrowUp","false","","","","","",""
"html-keyboard-response","13","139703","0.0-3.0-2.0-1.0","spark_pilot_norest","11405","8","7","Female","","","","","","","null","<div style=""font-size:60px;"">+</div>","null","fixation","","","","","","","","","","","",""
"revaluation","14","143708","0.0-3.0-2.0-0.1","spark_pilot_norest","11405","8","7","Female","","false","","","","","[1142.2000000001863]","./assets/img/space/1.jpg","[""ArrowUp""]","first stage practice","space","0","null","null","ArrowUp","false","","","","","",""
"html-keyboard-response","15","144210","0.0-3.0-2.0-1.1","spark_pilot_norest","11405","8","7","Female","","","","","","","null","<div style=""font-size:60px;"">+</div>","null","fixation","","","","","","","","","","","",""
"revaluation","16","148214","0.0-3.0-2.0-0.2","spark_pilot_norest","11405","8","7","Female","","false","","","","","[799]","./assets/img/space/2.jpg","[""ArrowUp""]","first stage practice","space","0","null","null","ArrowUp","false","","","","","",""
"html-keyboard-response","17","148716","0.0-3.0-2.0-1.2","spark_pilot_norest","11405","8","7","Female","","","","","","","null","<div style=""font-size:60px;"">+</div>","null","fixation","","","","","","","","","","","",""
"learning-instructions","18","155106","0.0-3.0-3.0-0.0","spark_pilot_norest","11405","8","7","Female","","","","","","","1697","<p> Great job! Now try pressing the <b>down</b> key to travel down. </p>
            <img src='./assets/img/instructions/pressDown.jpg' class='instructions-image'>","","instructions","","","","","","","","","","","",""
"revaluation","19","159110","0.0-3.0-4.0-0.0","spark_pilot_norest","11405","8","7","Female","","false","","","","","[854.1000000000931]","./assets/img/space/3.jpg","[""ArrowDown""]","first stage practice","space","0","null","null","ArrowDown","false","","","","","",""
"html-keyboard-response","20","159611","0.0-3.0-4.0-1.0","spark_pilot_norest","11405","8","7","Female","","","","","","","null","<div style=""font-size:60px;"">+</div>","null","fixation","","","","","","","","","","","",""
"revaluation","21","163616","0.0-3.0-4.0-0.1","spark_pilot_norest","11405","8","7","Female","","false","","","","","[708.5]","./assets/img/space/4.jpg","[""ArrowDown""]","first stage practice","space","0","null","null","ArrowDown","false","","","","","",""
"html-keyboard-response","22","164117","0.0-3.0-4.0-1.1","spark_pilot_norest","11405","8","7","Female","","","","","","","null","<div style=""font-size:60px;"">+</div>","null","fixation","","","","","","","","","","","",""
"revaluation","23","168121","0.0-3.0-4.0-0.2","spark_pilot_norest","11405","8","7","Female","","false","","","","","[695.5999999996275]","./assets/img/space/5.jpg","[""ArrowDown""]","first stage practice","space","0","null","null","ArrowDown","false","","","","","",""
"html-keyboard-response","24","168622","0.0-3.0-4.0-1.2","spark_pilot_norest","11405","8","7","Female","","","","","","[{""event"":""fullscreenenter"",""trial"":2,""time"":41832},{""event"":""blur"",""trial"":25,""time"":176504},{""event"":""focus"",""trial"":25,""time"":190801}]","null","<div style=""font-size:60px;"">+</div>","null","fixation","","","","","","","","","","","",""
"learning-instructions","25","193582","0.0-3.0-5.0-0.0","spark_pilot_norest","11405","8","7","Female","","","","","","","15117.900000000373","<p> The animals don’t move, so the animal in the upper part of a place will stay in the upper part of a place, and the animal in the lower part of a place will stay in the lower part of a place. </p>","","instructions","","","","","","","","","","","",""
"learning-instructions","26","204363","0.0-3.0-5.0-0.1","spark_pilot_norest","11405","8","7","Female","","","","","","","1653.8999999999069","<p> Each animal has two treasure chests for you to choose from. </p>
            <p> The amount of treasure in each chest can range from <b> 0 to 40 pieces.</b></p>","","instructions","","","","","","","","","","","",""
"learning-instructions","27","217024","0.0-3.0-5.0-0.2","spark_pilot_norest","11405","8","7","Female","","","","","","","1481.7000000001863","<p> You should decide which chest to search for treasure by using the <b>left</b> and <b>right</b> arrow keys. </p>
            <p><b> Pay attention to which animal is on the screen, as the animals have different treasure chests. </b></p>
            <img src='./assets/img/instructions/leftright.jpg' class='instructions-image'>","","instructions","","","","","","","","","","","",""
"learning-instructions","28","226491","0.0-3.0-5.0-0.3","spark_pilot_norest","11405","8","7","Female","","","","","","","3109.399999999907","<p> Let’s try practicing that now. </p>
            <p> When you see an animal, choose which chest to search for treasure. </p>
            <img src='./assets/img/instructions/chooseChest.jpg' class='instructions-image'>","","instructions","","","","","","","","","","","",""
"revaluation","29","230495","0.0-3.0-6.0-0.0","spark_pilot_norest","11405","8","7","Female","","false","","","","","[728.5999999996275]","./assets/img/space/animals/rabbit.jpg","[""ArrowLeft""]","second stage practice","space","15","{""ArrowUp,ArrowLeft"":3,""ArrowUp,ArrowRight"":36,""ArrowDown,ArrowLeft"":15,""ArrowDown,ArrowRight"":23}","false","ArrowDown,ArrowLeft","","","","","","",""
"html-keyboard-response","30","230996","0.0-3.0-6.0-1.0","spark_pilot_norest","11405","8","7","Female","","","","","","","null","<div style=""font-size:60px;"">+</div>","null","fixation","","","","","","","","","","","",""
"revaluation","31","235001","0.0-3.0-6.0-0.1","spark_pilot_norest","11405","8","7","Female","","false","","","","","[866.6999999997206]","./assets/img/space/animals/cat.jpg","[""ArrowRight""]","second stage practice","space","36","{""ArrowUp,ArrowLeft"":3,""ArrowUp,ArrowRight"":36,""ArrowDown,ArrowLeft"":15,""ArrowDown,ArrowRight"":23}","true","ArrowUp,ArrowRight","","","","","","",""
"html-keyboard-response","32","235502","0.0-3.0-6.0-1.1","spark_pilot_norest","11405","8","7","Female","","","","","","","null","<div style=""font-size:60px;"">+</div>","null","fixation","","","","","","","","","","","",""
"revaluation","33","239506","0.0-3.0-6.0-0.2","spark_pilot_norest","11405","8","7","Female","","false","","","","","[505.3000000002794]","./assets/img/space/animals/cat.jpg","[""ArrowLeft""]","second stage practice","space","3","{""ArrowUp,ArrowLeft"":3,""ArrowUp,ArrowRight"":36,""ArrowDown,ArrowLeft"":15,""ArrowDown,ArrowRight"":23}","false","ArrowUp,ArrowLeft","","","","","","",""
"html-keyboard-response","34","240008","0.0-3.0-6.0-1.2","spark_pilot_norest","11405","8","7","Female","","","","","","","null","<div style=""font-size:60px;"">+</div>","null","fixation","","","","","","","","","","","",""
"revaluation","35","244012","0.0-3.0-6.0-0.3","spark_pilot_norest","11405","8","7","Female","","false","","","","","[583.8999999999069]","./assets/img/space/animals/rabbit.jpg","[""ArrowRight""]","second stage practice","space","23","{""ArrowUp,ArrowLeft"":3,""ArrowUp,ArrowRight"":36,""ArrowDown,ArrowLeft"":15,""ArrowDown,ArrowRight"":23}","true","ArrowDown,ArrowRight","","","","","","",""
"html-keyboard-response","36","244513","0.0-3.0-6.0-1.3","spark_pilot_norest","11405","8","7","Female","","","","","","","null","<div style=""font-size:60px;"">+</div>","null","fixation","","","","","","","","","","","",""
"learning-instructions","37","262866","0.0-3.0-7.0-0.0","spark_pilot_norest","11405","8","7","Female","","","","","","","1543","<p> Great job. Now let’s try putting it together. </p>
            <p> On each turn, you will first see a picture to remind you of the place you are in, and you need to choose whether to go up or down. </p>
            <p> Then you will see an animal and choose which of its chests to search for treasure. </p>","","instructions","","","","","","","","","","","",""
"learning-instructions","38","272459","0.0-3.0-7.0-0.1","spark_pilot_norest","11405","8","7","Female","","","","","","","1354.6000000000931","<p> When you choose whether to go up or down, try to go to the animal with the chest with the most treasure. </p>
            <p> Try practicing that now! </p>","","instructions","","","","","","","","","","","",""
"revaluation","39","278462","0.0-3.0-8.0-0.0","spark_pilot_norest","11405","8","7","Female","","false","","","","","[455.79999999981374,488.39999999990687]","./assets/img/space/6.jpg","[""ArrowUp"",""ArrowRight""]","full practice","space","36","{""ArrowUp,ArrowLeft"":3,""ArrowUp,ArrowRight"":36,""ArrowDown,ArrowLeft"":15,""ArrowDown,ArrowRight"":23}","true","ArrowUp,ArrowRight","false","","","","","",""
"html-keyboard-response","40","278963","0.0-3.0-8.0-1.0","spark_pilot_norest","11405","8","7","Female","","","","","","","null","<div style=""font-size:60px;"">+</div>","null","fixation","","","","","","","","","","","",""
"revaluation","41","284967","0.0-3.0-8.0-0.1","spark_pilot_norest","11405","8","7","Female","","false","","","","","[672.6000000000931,484.09999999962747]","./assets/img/space/7.jpg","[""ArrowUp"",""ArrowLeft""]","full practice","space","3","{""ArrowUp,ArrowLeft"":3,""ArrowUp,ArrowRight"":36,""ArrowDown,ArrowLeft"":15,""ArrowDown,ArrowRight"":23}","false","ArrowUp,ArrowLeft","false","","","","","",""
"html-keyboard-response","42","285468","0.0-3.0-8.0-1.1","spark_pilot_norest","11405","8","7","Female","","","","","","","null","<div style=""font-size:60px;"">+</div>","null","fixation","","","","","","","","","","","",""
"revaluation","43","291473","0.0-3.0-8.0-0.2","spark_pilot_norest","11405","8","7","Female","","false","","","","","[532.8000000002794,407.90000000037253]","./assets/img/space/8.jpg","[""ArrowDown"",""ArrowRight""]","full practice","space","23","{""ArrowUp,ArrowLeft"":3,""ArrowUp,ArrowRight"":36,""ArrowDown,ArrowLeft"":15,""ArrowDown,ArrowRight"":23}","false","ArrowDown,ArrowRight","false","","","","","",""
"html-keyboard-response","44","291974","0.0-3.0-8.0-1.2","spark_pilot_norest","11405","8","7","Female","","","","","","","null","<div style=""font-size:60px;"">+</div>","null","fixation","","","","","","","","","","","",""
"revaluation","45","297978","0.0-3.0-8.0-0.3","spark_pilot_norest","11405","8","7","Female","","false","","","","","[473.70000000018626,399.60000000009313]","./assets/img/space/9.jpg","[""ArrowDown"",""ArrowLeft""]","full practice","space","15","{""ArrowUp,ArrowLeft"":3,""ArrowUp,ArrowRight"":36,""ArrowDown,ArrowLeft"":15,""ArrowDown,ArrowRight"":23}","false","ArrowDown,ArrowLeft","false","","","","","",""
"html-keyboard-response","46","298480","0.0-3.0-8.0-1.3","spark_pilot_norest","11405","8","7","Female","","","","","","","null","<div style=""font-size:60px;"">+</div>","null","fixation","","","","","","","","","","","",""
"revaluation","47","304484","0.0-3.0-8.0-0.4","spark_pilot_norest","11405","8","7","Female","","false","","","","","[1767.5,651]","./assets/img/space/10.jpg","[""ArrowDown"",""ArrowRight""]","full practice","space","23","{""ArrowUp,ArrowLeft"":3,""ArrowUp,ArrowRight"":36,""ArrowDown,ArrowLeft"":15,""ArrowDown,ArrowRight"":23}","false","ArrowDown,ArrowRight","false","","","","","",""
"html-keyboard-response","48","304985","0.0-3.0-8.0-1.4","spark_pilot_norest","11405","8","7","Female","","","","","","","null","<div style=""font-size:60px;"">+</div>","null","fixation","","","","","","","","","","","",""
"learning-instructions","49","317167","0.0-3.0-9.0-0.0","spark_pilot_norest","11405","8","7","Female","","","","","","","1890.1999999997206","<p> One last thing: sometimes, you will see a robber. The robber can be anywhere in the picture. </p>
            <p> If you do not stop them, you will lose treasure. </p>
            <img src='./assets/img/instructions/robber.jpg' class='instructions-image'>","","instructions","","","","","","","","","","","",""
"learning-instructions","50","325765","0.0-3.0-9.0-0.1","spark_pilot_norest","11405","8","7","Female","","","","","","","1442.5","<p> If you see the robber, you should <b>press the space bar</b> rather than using the arrow keys. </p>
            <p> Try practicing that now! </p>","","instructions","","","","","","","","","","","",""
"revaluation","51","329768","0.0-3.0-10.0-0.0","spark_pilot_norest","11405","8","7","Female","","false","","","","","[555.4000000003725]","./assets/img/space/catch/0.jpg","[""spaceBar""]","catch practice","space","0","{""ArrowUp,ArrowLeft"":3,""ArrowUp,ArrowRight"":36,""ArrowDown,ArrowLeft"":15,""ArrowDown,ArrowRight"":23}","true","spaceBar","true","","","","","",""
"html-keyboard-response","52","330269","0.0-3.0-10.0-1.0","spark_pilot_norest","11405","8","7","Female","","","","","","","null","<div style=""font-size:60px;"">+</div>","null","fixation","","","","","","","","","","","",""
"revaluation","53","334273","0.0-3.0-10.0-0.1","spark_pilot_norest","11405","8","7","Female","","false","","","","","[557.7000000001863]","./assets/img/space/catch/1.jpg","[""spaceBar""]","catch practice","space","0","{""ArrowUp,ArrowLeft"":3,""ArrowUp,ArrowRight"":36,""ArrowDown,ArrowLeft"":15,""ArrowDown,ArrowRight"":23}","true","spaceBar","true","","","","","",""
"html-keyboard-response","54","334774","0.0-3.0-10.0-1.1","spark_pilot_norest","11405","8","7","Female","","","","","","","null","<div style=""font-size:60px;"">+</div>","null","fixation","","","","","","","","","","","",""
"revaluation","55","338778","0.0-3.0-10.0-0.2","spark_pilot_norest","11405","8","7","Female","","false","","","","","[489.60000000009313]","./assets/img/space/catch/2.jpg","[""spaceBar""]","catch practice","space","0","{""ArrowUp,ArrowLeft"":3,""ArrowUp,ArrowRight"":36,""ArrowDown,ArrowLeft"":15,""ArrowDown,ArrowRight"":23}","true","spaceBar","true","","","","","",""
"html-keyboard-response","56","339279","0.0-3.0-10.0-1.2","spark_pilot_norest","11405","8","7","Female","","","","","","","null","<div style=""font-size:60px;"">+</div>","null","fixation","","","","","","","","","","","",""
"learning-instructions","57","345781","0.0-3.0-11.0-0.0-0.0","spark_pilot_norest","11405","8","7","Female","","","","","","","1256.5","<p> Now, you will practice a shortened version of the game to get a sense of how it all fits together. </p>","","instructions","","","","","","","","","","","",""
"learning-instructions","58","349893","0.0-3.0-11.0-0.0-0.1","spark_pilot_norest","11405","8","7","Female","","","","","","","920.9000000003725","<p>This time you are searching for treasure in outer space.</p>","","instructions","","","","","","","","","","","",""
"learning-instructions","59","366808","0.0-3.0-11.0-1.0-0.0","spark_pilot_norest","11405","8","7","Female","","","","","","","2166.2000000001863","<p> Remember, when you see a picture of the place, use the up and down keys to <b>find an animal</b>.</p>
            <p> When you encounter an animal, you should use the left and right keys to <b>select a treasure chest</b>.</p>
            <p> Don't forget to look out for the robber! </p>","","instructions","","","","","","","","","","","",""
"revaluation","60","372812","0.0-3.0-11.0-2.0-0.0","spark_pilot_norest","11405","8","7","Female","","false","","","","","[1318.3999999999069,968.1000000000931]","./assets/img/space/11.jpg","[""ArrowDown"",""ArrowRight""]","practice block","space","23","{""ArrowUp,ArrowLeft"":3,""ArrowUp,ArrowRight"":36,""ArrowDown,ArrowLeft"":15,""ArrowDown,ArrowRight"":23}","false","ArrowDown,ArrowRight","false","","","","","",""
"html-keyboard-response","61","373313","0.0-3.0-11.0-2.0-1.0","spark_pilot_norest","11405","8","7","Female","","","","","","","null","<div style=""font-size:60px;"">+</div>","null","fixation","","","","","","","","","","","",""
"revaluation","62","379318","0.0-3.0-11.0-2.0-0.1","spark_pilot_norest","11405","8","7","Female","","false","","","","","[548.1999999997206,501.79999999981374]","./assets/img/space/12.jpg","[""ArrowUp"",""ArrowRight""]","practice block","space","36","{""ArrowUp,ArrowLeft"":3,""ArrowUp,ArrowRight"":36,""ArrowDown,ArrowLeft"":15,""ArrowDown,ArrowRight"":23}","true","ArrowUp,ArrowRight","false","","","","","",""
"html-keyboard-response","63","379819","0.0-3.0-11.0-2.0-1.1","spark_pilot_norest","11405","8","7","Female","","","","","","","null","<div style=""font-size:60px;"">+</div>","null","fixation","","","","","","","","","","","",""
"revaluation","64","385824","0.0-3.0-11.0-2.0-0.2","spark_pilot_norest","11405","8","7","Female","","false","","","","","[1886.5,820.1000000000931]","./assets/img/space/13.jpg","[""ArrowDown"",""ArrowRight""]","practice block","space","23","{""ArrowUp,ArrowLeft"":3,""ArrowUp,ArrowRight"":36,""ArrowDown,ArrowLeft"":15,""ArrowDown,ArrowRight"":23}","false","ArrowDown,ArrowRight","false","","","","","",""
"html-keyboard-response","65","386325","0.0-3.0-11.0-2.0-1.2","spark_pilot_norest","11405","8","7","Female","","","","","","","null","<div style=""font-size:60px;"">+</div>","null","fixation","","","","","","","","","","","",""
"revaluation","66","390329","0.0-3.0-11.0-2.0-0.3","spark_pilot_norest","11405","8","7","Female","","true","","","","","[]","./assets/img/space/14.jpg","[]","practice block","space","-5","{""ArrowUp,ArrowLeft"":3,""ArrowUp,ArrowRight"":36,""ArrowDown,ArrowLeft"":15,""ArrowDown,ArrowRight"":23}","false","","false","","","","","",""
"html-keyboard-response","67","390830","0.0-3.0-11.0-2.0-1.3","spark_pilot_norest","11405","8","7","Female","","","","","","","null","<div style=""font-size:60px;"">+</div>","null","fixation","","","","","","","","","","","",""
"revaluation","68","396834","0.0-3.0-11.0-2.0-0.4","spark_pilot_norest","11405","8","7","Female","","false","","","","","[648.0999999996275,425.89999999990687]","./assets/img/space/11.jpg","[""ArrowDown"",""ArrowLeft""]","practice block","space","15","{""ArrowUp,ArrowLeft"":3,""ArrowUp,ArrowRight"":36,""ArrowDown,ArrowLeft"":15,""ArrowDown,ArrowRight"":23}","false","ArrowDown,ArrowLeft","false","","","","","",""
"html-keyboard-response","69","397336","0.0-3.0-11.0-2.0-1.4","spark_pilot_norest","11405","8","7","Female","","","","","","","null","<div style=""font-size:60px;"">+</div>","null","fixation","","","","","","","","","","","",""
"revaluation","70","403340","0.0-3.0-11.0-2.0-0.5","spark_pilot_norest","11405","8","7","Female","","false","","","","","[474.10000000009313,491.90000000037253]","./assets/img/space/12.jpg","[""ArrowUp"",""ArrowRight""]","practice block","space","36","{""ArrowUp,ArrowLeft"":3,""ArrowUp,ArrowRight"":36,""ArrowDown,ArrowLeft"":15,""ArrowDown,ArrowRight"":23}","true","ArrowUp,ArrowRight","false","","","","","",""
"html-keyboard-response","71","403842","0.0-3.0-11.0-2.0-1.5","spark_pilot_norest","11405","8","7","Female","","","","","","","null","<div style=""font-size:60px;"">+</div>","null","fixation","","","","","","","","","","","",""
"revaluation","72","409847","0.0-3.0-11.0-2.0-0.6","spark_pilot_norest","11405","8","7","Female","","false","","","","","[1658.3000000002794,689.1999999997206]","./assets/img/space/13.jpg","[""ArrowDown"",""ArrowLeft""]","practice block","space","15","{""ArrowUp,ArrowLeft"":3,""ArrowUp,ArrowRight"":36,""ArrowDown,ArrowLeft"":15,""ArrowDown,ArrowRight"":23}","false","ArrowDown,ArrowLeft","false","","","","","",""
"html-keyboard-response","73","410348","0.0-3.0-11.0-2.0-1.6","spark_pilot_norest","11405","8","7","Female","","","","","","","null","<div style=""font-size:60px;"">+</div>","null","fixation","","","","","","","","","","","",""
"revaluation","74","416353","0.0-3.0-11.0-2.0-0.7","spark_pilot_norest","11405","8","7","Female","","false","","","","","[588.6000000000931,414]","./assets/img/space/14.jpg","[""ArrowUp"",""ArrowRight""]","practice block","space","36","{""ArrowUp,ArrowLeft"":3,""ArrowUp,ArrowRight"":36,""ArrowDown,ArrowLeft"":15,""ArrowDown,ArrowRight"":23}","true","ArrowUp,ArrowRight","false","","","","","",""
"html-keyboard-response","75","416854","0.0-3.0-11.0-2.0-1.7","spark_pilot_norest","11405","8","7","Female","","","","","","","null","<div style=""font-size:60px;"">+</div>","null","fixation","","","","","","","","","","","",""
"revaluation","76","420858","0.0-3.0-11.0-2.0-0.8","spark_pilot_norest","11405","8","7","Female","","false","","","","","[614.5]","./assets/img/space/catch/3.jpg","[""spaceBar""]","practice block","space","0","{""ArrowUp,ArrowLeft"":3,""ArrowUp,ArrowRight"":36,""ArrowDown,ArrowLeft"":15,""ArrowDown,ArrowRight"":23}","true","spaceBar","true","","","","","",""
"html-keyboard-response","77","421359","0.0-3.0-11.0-2.0-1.8","spark_pilot_norest","11405","8","7","Female","","","","","","","null","<div style=""font-size:60px;"">+</div>","null","fixation","","","","","","","","","","","",""
"learning-instructions","78","435920","0.0-3.0-11.0-3.0-0.0","spark_pilot_norest","11405","8","7","Female","","","","","","","1352.1999999997206","<p> Now, you will travel with a friend who will choose whether you go up or down first. </p>
            <p> On these turns, you will just see the animal that they found. You will still get to choose which chest to search for treasure.</p>","","instructions","","","","","","","","","","","",""
"revaluation","79","439924","0.0-3.0-11.0-4.0-0.0","spark_pilot_norest","11405","8","7","Female","","false","","","","","[713.6000000000931]","./assets/img/space/animals/rabbit.jpg","[""ArrowRight""]","practice block","space","23","{""ArrowUp,ArrowLeft"":3,""ArrowUp,ArrowRight"":36,""ArrowDown,ArrowLeft"":15,""ArrowDown,ArrowRight"":23}","true","ArrowDown,ArrowRight","","","","","","",""
"html-keyboard-response","80","440426","0.0-3.0-11.0-4.0-1.0","spark_pilot_norest","11405","8","7","Female","","","","","","","null","<div style=""font-size:60px;"">+</div>","null","fixation","","","","","","","","","","","",""
"revaluation","81","444429","0.0-3.0-11.0-4.0-0.1","spark_pilot_norest","11405","8","7","Female","","false","","","","","[614.3000000002794]","./assets/img/space/animals/cat.jpg","[""ArrowLeft""]","practice block","space","3","{""ArrowUp,ArrowLeft"":3,""ArrowUp,ArrowRight"":36,""ArrowDown,ArrowLeft"":15,""ArrowDown,ArrowRight"":23}","false","ArrowUp,ArrowLeft","","","","","","",""
"html-keyboard-response","82","444931","0.0-3.0-11.0-4.0-1.1","spark_pilot_norest","11405","8","7","Female","","","","","","","null","<div style=""font-size:60px;"">+</div>","null","fixation","","","","","","","","","","","",""
"revaluation","83","448937","0.0-3.0-11.0-4.0-0.2","spark_pilot_norest","11405","8","7","Female","","false","","","","","[757.6000000000931]","./assets/img/space/animals/cat.jpg","[""ArrowLeft""]","practice block","space","3","{""ArrowUp,ArrowLeft"":3,""ArrowUp,ArrowRight"":36,""ArrowDown,ArrowLeft"":15,""ArrowDown,ArrowRight"":23}","false","ArrowUp,ArrowLeft","","","","","","",""
"html-keyboard-response","84","449438","0.0-3.0-11.0-4.0-1.2","spark_pilot_norest","11405","8","7","Female","","","","","","","null","<div style=""font-size:60px;"">+</div>","null","fixation","","","","","","","","","","","",""
"revaluation","85","453442","0.0-3.0-11.0-4.0-0.3","spark_pilot_norest","11405","8","7","Female","","false","","","","","[420.89999999990687]","./assets/img/space/animals/rabbit.jpg","[""ArrowRight""]","practice block","space","23","{""ArrowUp,ArrowLeft"":3,""ArrowUp,ArrowRight"":36,""ArrowDown,ArrowLeft"":15,""ArrowDown,ArrowRight"":23}","true","ArrowDown,ArrowRight","","","","","","",""
"html-keyboard-response","86","453943","0.0-3.0-11.0-4.0-1.3","spark_pilot_norest","11405","8","7","Female","","","","","","","null","<div style=""font-size:60px;"">+</div>","null","fixation","","","","","","","","","","","",""
"learning-instructions","87","462061","0.0-3.0-11.0-5.0-0.0","spark_pilot_norest","11405","8","7","Female","","","","","","","null","<p> You have almost finished this part of the game! </p>
            <p> We are going to ask you to make a few more choices. </p>","","instructions","","","","","","","","","","","",""
"learning-instructions","88","478061","0.0-3.0-11.0-5.0-0.1","spark_pilot_norest","11405","8","7","Female","","","","","","","null","<p> First, you need to decide whether to go up or down. When you see each picture, use the arrow keys to make your choice. </p>
            <p><b>You will not see which animal you found, but try to get to the one that will give you the most treasure.</b></p>","","instructions","","","","","","","","","","","",""
"html-keyboard-response","89","479062","0.0-3.0-11.0-6.0-0.0","spark_pilot_norest","11405","8","7","Female","","","","","","","null","<div style=""font-size:100px;color:red;"">Starting in...</div>","null","","","","","","","","","","","","",""
"html-keyboard-response","90","480063","0.0-3.0-11.0-6.0-1.0","spark_pilot_norest","11405","8","7","Female","","","","","","","null","<div style=""font-size:200px;color:red;"">3</div>","null","","","","","","","","","","","","",""
"html-keyboard-response","91","481064","0.0-3.0-11.0-6.0-2.0","spark_pilot_norest","11405","8","7","Female","","","","","","","null","<div style=""font-size:200px;color:red;"">2</div>","null","","","","","","","","","","","","",""
"html-keyboard-response","92","482065","0.0-3.0-11.0-6.0-3.0","spark_pilot_norest","11405","8","7","Female","","","","","","","null","<div style=""font-size:200px;color:red;"">1</div>","null","","","","","","","","","","","","",""
"revaluation","93","482643","0.0-3.0-11.0-7.0","spark_pilot_norest","11405","8","7","Female","","false","","","","","[574.3999999999069]","./assets/img/space/15.jpg","[""ArrowDown""]","practice block","space","0","{""ArrowUp,ArrowLeft"":3,""ArrowUp,ArrowRight"":36,""ArrowDown,ArrowLeft"":15,""ArrowDown,ArrowRight"":23}","false","ArrowDown","false","","","","","",""
"html-keyboard-response","94","483145","0.0-3.0-11.0-8.0","spark_pilot_norest","11405","8","7","Female","","","","","","","null","<div style=""font-size:60px;"">+</div>","null","fixation","","","","","","","","","","","",""
"learning-instructions","95","496504","0.0-3.0-11.0-9.0-0.0","spark_pilot_norest","11405","8","7","Female","","","","","","","null","<p> Now you will see the animals again and can search their chests for treasure. </p>
            <p> This time, you will not see how much treasure you earned, but you will earn more bonus money for making better choices. </p>","","instructions","","","","","","","","","","","",""
"html-keyboard-response","96","497505","0.0-3.0-11.0-10.0-0.0","spark_pilot_norest","11405","8","7","Female","","","","","","","null","<div style=""font-size:100px;color:red;"">Starting in...</div>","null","","","","","","","","","","","","",""
"html-keyboard-response","97","498506","0.0-3.0-11.0-10.0-1.0","spark_pilot_norest","11405","8","7","Female","","","","","","","null","<div style=""font-size:200px;color:red;"">3</div>","null","","","","","","","","","","","","",""
"html-keyboard-response","98","499507","0.0-3.0-11.0-10.0-2.0","spark_pilot_norest","11405","8","7","Female","","","","","","","null","<div style=""font-size:200px;color:red;"">2</div>","null","","","","","","","","","","","","",""
"html-keyboard-response","99","500508","0.0-3.0-11.0-10.0-3.0","spark_pilot_norest","11405","8","7","Female","","","","","","","null","<div style=""font-size:200px;color:red;"">1</div>","null","","","","","","","","","","","","",""
"revaluation","100","501587","0.0-3.0-11.0-11.0-0.0","spark_pilot_norest","11405","8","7","Female","","false","","","","","[1074.7999999998137]","./assets/img/space/animals/cat.jpg","[""ArrowRight""]","practice block","space","0","{""ArrowUp,ArrowLeft"":3,""ArrowUp,ArrowRight"":36,""ArrowDown,ArrowLeft"":15,""ArrowDown,ArrowRight"":23}","true","ArrowUp,ArrowRight","","","","","","",""
"html-keyboard-response","101","502088","0.0-3.0-11.0-11.0-1.0","spark_pilot_norest","11405","8","7","Female","","","","","","","null","<div style=""font-size:60px;"">+</div>","null","fixation","","","","","","","","","","","",""
"revaluation","102","502669","0.0-3.0-11.0-11.0-0.1","spark_pilot_norest","11405","8","7","Female","","false","","","","","[577.8000000002794]","./assets/img/space/animals/rabbit.jpg","[""ArrowRight""]","practice block","space","0","{""ArrowUp,ArrowLeft"":3,""ArrowUp,ArrowRight"":36,""ArrowDown,ArrowLeft"":15,""ArrowDown,ArrowRight"":23}","true","ArrowDown,ArrowRight","","","","","","",""
"html-keyboard-response","103","503170","0.0-3.0-11.0-11.0-1.1","spark_pilot_norest","11405","8","7","Female","","","","","","","null","<div style=""font-size:60px;"">+</div>","null","fixation","","","","","","","","","","","",""
"learning-instructions","104","509065","0.0-3.0-12.0-0.0","spark_pilot_norest","11405","8","7","Female","","","","","","","1313.6000000000931","<p> Before you start, we're going to ask you a few questions about how the game works. </p>","","instructions","","","","","","","","","","","",""
"comp-q","105","516301","0.0-3.0-13.0-0.0-0.0","spark_pilot_norest","11405","8","7","Female","","","","","","","1643.2000000001863","<p> <b> True or False? </b> </p>
            <p> There can be 50 pieces of treasure in a given animal's chest. </p>","1","comp_question","","","","true","","","","","","","",""
"comp-q","106","525273","0.0-3.0-13.0-0.0-1.0","spark_pilot_norest","11405","8","7","Female","","","","","","","2320.5","<p> <b> That's right! </b> The amount of treasure in each chest can range from 0 to 40 pieces. </p>","0","comp_answer","","","","","","","","","","","",""
"comp-q","107","533689","0.0-3.0-13.0-0.1-0.1","spark_pilot_norest","11405","8","7","Female","","","","","","","1308","<p> <b> True or False? </b> </p><p> In this game, all animals have the same amount of treasure in their left and right chests. </p>","1","comp_question","","","","true","","","","","","","",""
"comp-q","108","540863","0.0-3.0-13.0-0.1-1.1","spark_pilot_norest","11405","8","7","Female","","","","","","","1943.3999999999069","<p> <b> That's right! </b> Animals have different amounts of treasure in their treasure chests. </p>","0","comp_answer","","","","","","","","","","","",""
"comp-q","109","548482","0.0-3.0-13.0-0.2-0.2","spark_pilot_norest","11405","8","7","Female","","","","","","","1785.3000000002794","<p> <b> True or False? </b> </p><p> The same animal will always be there if you go up in the same place. </p>","1","comp_question","","","","false","","","","","","","",""
"comp-q","110","555999","0.0-3.0-13.0-0.2-1.2","spark_pilot_norest","11405","8","7","Female","","","","","","","1217.7999999998137","<p> <b>Incorrect.</b> One animal lives in the upper part and one lives in the lower part of every place. </p>","0","comp_answer","","","","","","","","","","","",""
"comp-q","111","563001","0.0-3.0-13.0-0.3-0.3","spark_pilot_norest","11405","8","7","Female","","","","","","","1179.7999999998137","<p> <b> True or False? </b> </p><p> The same animal will always be there if you go up in the same place. </p>","0","comp_question","","","","true","","","","","","","",""
"comp-q","112","570752","0.0-3.0-13.0-0.3-1.3","spark_pilot_norest","11405","8","7","Female","","","","","","","1314.5","<p> <b> That's right! </b> One animal lives in the upper part and one lives in the lower part of every place. </p>","0","comp_answer","","","","","","","","","","","",""
"comp-q","113","577936","0.0-3.0-13.0-0.4-0.4","spark_pilot_norest","11405","8","7","Female","","","","","","","1671.7999999998137","<p> <b> True or False? </b> </p><p> If you see a different picture, it means you are in a new place. </p>","1","comp_question","","","","true","","","","","","","",""
"comp-q","114","590515","0.0-3.0-13.0-0.4-1.4","spark_pilot_norest","11405","8","7","Female","","","","","","","1366.1000000000931","<p> <b> That's right! </b> Lots of different images may show the same place. For example,  you may see three different images that all remind you that you are in outer space. </p>","0","comp_answer","","","","","","","","","","","",""
"learning-instructions","115","601164","0.0-3.0-14.0-0.0","spark_pilot_norest","11405","8","7","Female","","","","","","","804.6999999997206","<p> Good job. Remember to do your best because the amount of treasure you earn will be converted into bonus money. </p>
            <p> It’s time to start the real game! </p>","","instructions","","","","","","","","","","","",""
"learning-instructions","116","604933","0.0-4.0-0.0-0.0","spark_pilot_norest","11405","8","7","Female","","","","","","","1010.5","<p> This time you are searching for treasure in the <b>canyon</b>.</p>","","instructions","","","","","","","","","","","",""
"learning-instructions","117","623455","0.0-4.0-0.0-0.1","spark_pilot_norest","11405","8","7","Female","","","","","","","1238.7999999998137","<p><b>New</b> animals with <b>new</b> treasure chests live here. You need to explore to discover where the animal with the best treasure chest is.</p>
                    <p> Like before, once you figure out which animal has the chest with the most treasure, you should try to get to that animal and select that chest! </p>","","instructions","","","","","","","","","","","",""
"learning-instructions","118","639308","0.0-4.0-1.0-0.0","spark_pilot_norest","11405","8","7","Female","","","","","","","1124","<p> Remember, when you see a picture of the place, use the up and down keys to <b>find an animal</b>.</p>
            <p> When you encounter an animal, you should use the left and right keys to <b>select a treasure chest</b>.</p>
            <p> Don't forget to look out for the robber! </p>","","instructions","","","","","","","","","","","",""
"revaluation","119","645312","0.0-4.0-2.0-0.0","spark_pilot_norest","11405","8","7","Female","","false","","","","","[1134.8000000002794,657.1000000000931]","./assets/img/canyon/memory/32.jpg","[""ArrowDown"",""ArrowRight""]","value training","canyon","17","{""ArrowUp,ArrowLeft"":26,""ArrowUp,ArrowRight"":10,""ArrowDown,ArrowLeft"":5,""ArrowDown,ArrowRight"":17}","false","ArrowDown,ArrowRight","false","revaluation","1","0","","",""
"html-keyboard-response","120","645816","0.0-4.0-2.0-1.0","spark_pilot_norest","11405","8","7","Female","","","","","","","null","<div style=""font-size:60px;"">+</div>","null","fixation","","","","","","","","","1","","",""
"revaluation","121","651820","0.0-4.0-2.0-0.1","spark_pilot_norest","11405","8","7","Female","","false","","","","","[506.29999999981374,558.8000000002794]","./assets/img/canyon/memory/21.jpg","[""ArrowUp"",""ArrowLeft""]","value training","canyon","26","{""ArrowUp,ArrowLeft"":26,""ArrowUp,ArrowRight"":10,""ArrowDown,ArrowLeft"":5,""ArrowDown,ArrowRight"":17}","true","ArrowUp,ArrowLeft","false","revaluation","1","2","","",""
"html-keyboard-response","122","652322","0.0-4.0-2.0-1.1","spark_pilot_norest","11405","8","7","Female","","","","","","","null","<div style=""font-size:60px;"">+</div>","null","fixation","","","","","","","","","3","","",""
"revaluation","123","658325","0.0-4.0-2.0-0.2","spark_pilot_norest","11405","8","7","Female","","false","","","","","[472.29999999981374,387.20000000018626]","./assets/img/canyon/memory/3.jpg","[""ArrowUp"",""ArrowRight""]","value training","canyon","10","{""ArrowUp,ArrowLeft"":26,""ArrowUp,ArrowRight"":10,""ArrowDown,ArrowLeft"":5,""ArrowDown,ArrowRight"":17}","false","ArrowUp,ArrowRight","false","revaluation","1","4","","",""
"html-keyboard-response","124","658827","0.0-4.0-2.0-1.2","spark_pilot_norest","11405","8","7","Female","","","","","","","null","<div style=""font-size:60px;"">+</div>","null","fixation","","","","","","","","","5","","",""
"revaluation","125","664832","0.0-4.0-2.0-0.3","spark_pilot_norest","11405","8","7","Female","","false","","","","","[377.70000000018626,365.70000000018626]","./assets/img/canyon/memory/34.jpg","[""ArrowUp"",""ArrowLeft""]","value training","canyon","26","{""ArrowUp,ArrowLeft"":26,""ArrowUp,ArrowRight"":10,""ArrowDown,ArrowLeft"":5,""ArrowDown,ArrowRight"":17}","true","ArrowUp,ArrowLeft","false","revaluation","1","6","","",""
"html-keyboard-response","126","665333","0.0-4.0-2.0-1.3","spark_pilot_norest","11405","8","7","Female","","","","","","","null","<div style=""font-size:60px;"">+</div>","null","fixation","","","","","","","","","7","","",""
"revaluation","127","671337","0.0-4.0-2.0-0.4","spark_pilot_norest","11405","8","7","Female","","false","","","","","[492.10000000009313,517.7000000001863]","./assets/img/canyon/memory/28.jpg","[""ArrowUp"",""ArrowLeft""]","value training","canyon","26","{""ArrowUp,ArrowLeft"":26,""ArrowUp,ArrowRight"":10,""ArrowDown,ArrowLeft"":5,""ArrowDown,ArrowRight"":17}","true","ArrowUp,ArrowLeft","false","revaluation","1","8","","",""
"html-keyboard-response","128","671838","0.0-4.0-2.0-1.4","spark_pilot_norest","11405","8","7","Female","","","","","","","null","<div style=""font-size:60px;"">+</div>","null","fixation","","","","","","","","","9","","",""
"revaluation","129","677843","0.0-4.0-2.0-0.5","spark_pilot_norest","11405","8","7","Female","","false","","","","","[696.1000000000931,874.1000000000931]","./assets/img/canyon/memory/40.jpg","[""ArrowDown"",""ArrowLeft""]","value training","canyon","5","{""ArrowUp,ArrowLeft"":26,""ArrowUp,ArrowRight"":10,""ArrowDown,ArrowLeft"":5,""ArrowDown,ArrowRight"":17}","false","ArrowDown,ArrowLeft","false","revaluation","1","10","","",""
"html-keyboard-response","130","678344","0.0-4.0-2.0-1.5","spark_pilot_norest","11405","8","7","Female","","","","","","","null","<div style=""font-size:60px;"">+</div>","null","fixation","","","","","","","","","11","","",""
"revaluation","131","684349","0.0-4.0-2.0-0.6","spark_pilot_norest","11405","8","7","Female","","false","","","","","[630.6999999997206,494.39999999990687]","./assets/img/canyon/memory/10.jpg","[""ArrowDown"",""ArrowRight""]","value training","canyon","17","{""ArrowUp,ArrowLeft"":26,""ArrowUp,ArrowRight"":10,""ArrowDown,ArrowLeft"":5,""ArrowDown,ArrowRight"":17}","false","ArrowDown,ArrowRight","false","revaluation","1","12","","",""
"html-keyboard-response","132","684850","0.0-4.0-2.0-1.6","spark_pilot_norest","11405","8","7","Female","","","","","","","null","<div style=""font-size:60px;"">+</div>","null","fixation","","","","","","","","","13","","",""
"revaluation","133","690854","0.0-4.0-2.0-0.7","spark_pilot_norest","11405","8","7","Female","","false","","","","","[522.6999999997206,601.2999999998137]","./assets/img/canyon/memory/36.jpg","[""ArrowUp"",""ArrowLeft""]","value training","canyon","26","{""ArrowUp,ArrowLeft"":26,""ArrowUp,ArrowRight"":10,""ArrowDown,ArrowLeft"":5,""ArrowDown,ArrowRight"":17}","true","ArrowUp,ArrowLeft","false","revaluation","1","14","","",""
"html-keyboard-response","134","691355","0.0-4.0-2.0-1.7","spark_pilot_norest","11405","8","7","Female","","","","","","","null","<div style=""font-size:60px;"">+</div>","null","fixation","","","","","","","","","15","","",""
"revaluation","135","697359","0.0-4.0-2.0-0.8","spark_pilot_norest","11405","8","7","Female","","false","","","","","[377.6999999997206,580]","./assets/img/canyon/memory/11.jpg","[""ArrowUp"",""ArrowRight""]","value training","canyon","10","{""ArrowUp,ArrowLeft"":26,""ArrowUp,ArrowRight"":10,""ArrowDown,ArrowLeft"":5,""ArrowDown,ArrowRight"":17}","false","ArrowUp,ArrowRight","false","revaluation","1","16","","",""
"html-keyboard-response","136","697861","0.0-4.0-2.0-1.8","spark_pilot_norest","11405","8","7","Female","","","","","","","null","<div style=""font-size:60px;"">+</div>","null","fixation","","","","","","","","","17","","",""
"revaluation","137","703865","0.0-4.0-2.0-0.9","spark_pilot_norest","11405","8","7","Female","","false","","","","","[685.2999999998137,949.9000000003725]","./assets/img/canyon/memory/40.jpg","[""ArrowUp"",""ArrowRight""]","value training","canyon","10","{""ArrowUp,ArrowLeft"":26,""ArrowUp,ArrowRight"":10,""ArrowDown,ArrowLeft"":5,""ArrowDown,ArrowRight"":17}","false","ArrowUp,ArrowRight","false","revaluation","1","18","","",""
"html-keyboard-response","138","704366","0.0-4.0-2.0-1.9","spark_pilot_norest","11405","8","7","Female","","","","","","","null","<div style=""font-size:60px;"">+</div>","null","fixation","","","","","","","","","19","","",""
"revaluation","139","710371","0.0-4.0-2.0-0.10","spark_pilot_norest","11405","8","7","Female","","false","","","","","[969.3999999999069,618.5]","./assets/img/canyon/memory/19.jpg","[""ArrowUp"",""ArrowLeft""]","value training","canyon","26","{""ArrowUp,ArrowLeft"":26,""ArrowUp,ArrowRight"":10,""ArrowDown,ArrowLeft"":5,""ArrowDown,ArrowRight"":17}","true","ArrowUp,ArrowLeft","false","revaluation","1","20","","",""
"html-keyboard-response","140","710872","0.0-4.0-2.0-1.10","spark_pilot_norest","11405","8","7","Female","","","","","","","null","<div style=""font-size:60px;"">+</div>","null","fixation","","","","","","","","","21","","",""
"revaluation","141","714876","0.0-4.0-2.0-0.11","spark_pilot_norest","11405","8","7","Female","","false","","","","","[617.2999999998137]","./assets/img/canyon/catch/0.jpg","[""spaceBar""]","value training","canyon","0","{""ArrowUp,ArrowLeft"":26,""ArrowUp,ArrowRight"":10,""ArrowDown,ArrowLeft"":5,""ArrowDown,ArrowRight"":17}","true","spaceBar","true","revaluation","1","22","","",""
"html-keyboard-response","142","715377","0.0-4.0-2.0-1.11","spark_pilot_norest","11405","8","7","Female","","","","","","","null","<div style=""font-size:60px;"">+</div>","null","fixation","","","","","","","","","23","","",""
"revaluation","143","721382","0.0-4.0-2.0-0.12","spark_pilot_norest","11405","8","7","Female","","false","","","","","[1294.6999999997206,773.9000000003725]","./assets/img/canyon/memory/21.jpg","[""ArrowDown"",""ArrowLeft""]","value training","canyon","5","{""ArrowUp,ArrowLeft"":26,""ArrowUp,ArrowRight"":10,""ArrowDown,ArrowLeft"":5,""ArrowDown,ArrowRight"":17}","false","ArrowDown,ArrowLeft","false","revaluation","1","24","","",""
"html-keyboard-response","144","721883","0.0-4.0-2.0-1.12","spark_pilot_norest","11405","8","7","Female","","","","","","","null","<div style=""font-size:60px;"">+</div>","null","fixation","","","","","","","","","25","","",""
"revaluation","145","725887","0.0-4.0-2.0-0.13","spark_pilot_norest","11405","8","7","Female","","false","","","","","[1055.6999999997206]","./assets/img/canyon/catch/3.jpg","[""spaceBar""]","value training","canyon","0","{""ArrowUp,ArrowLeft"":26,""ArrowUp,ArrowRight"":10,""ArrowDown,ArrowLeft"":5,""ArrowDown,ArrowRight"":17}","true","spaceBar","true","revaluation","1","26","","",""
"html-keyboard-response","146","726388","0.0-4.0-2.0-1.13","spark_pilot_norest","11405","8","7","Female","","","","","","","null","<div style=""font-size:60px;"">+</div>","null","fixation","","","","","","","","","27","","",""
"revaluation","147","730391","0.0-4.0-2.0-0.14","spark_pilot_norest","11405","8","7","Female","","false","","","","","[680.7999999998137]","./assets/img/canyon/catch/5.jpg","[""spaceBar""]","value training","canyon","0","{""ArrowUp,ArrowLeft"":26,""ArrowUp,ArrowRight"":10,""ArrowDown,ArrowLeft"":5,""ArrowDown,ArrowRight"":17}","true","spaceBar","true","revaluation","1","28","","",""
"html-keyboard-response","148","730892","0.0-4.0-2.0-1.14","spark_pilot_norest","11405","8","7","Female","","","","","","","null","<div style=""font-size:60px;"">+</div>","null","fixation","","","","","","","","","29","","",""
"revaluation","149","736897","0.0-4.0-2.0-0.15","spark_pilot_norest","11405","8","7","Female","","false","","","","","[788.8999999999069,558.6999999997206]","./assets/img/canyon/memory/11.jpg","[""ArrowUp"",""ArrowLeft""]","value training","canyon","26","{""ArrowUp,ArrowLeft"":26,""ArrowUp,ArrowRight"":10,""ArrowDown,ArrowLeft"":5,""ArrowDown,ArrowRight"":17}","true","ArrowUp,ArrowLeft","false","revaluation","1","30","","",""
"html-keyboard-response","150","737398","0.0-4.0-2.0-1.15","spark_pilot_norest","11405","8","7","Female","","","","","","","null","<div style=""font-size:60px;"">+</div>","null","fixation","","","","","","","","","31","","",""
"revaluation","151","743402","0.0-4.0-2.0-0.16","spark_pilot_norest","11405","8","7","Female","","false","","","","","[501,615.2999999998137]","./assets/img/canyon/memory/34.jpg","[""ArrowUp"",""ArrowLeft""]","value training","canyon","26","{""ArrowUp,ArrowLeft"":26,""ArrowUp,ArrowRight"":10,""ArrowDown,ArrowLeft"":5,""ArrowDown,ArrowRight"":17}","true","ArrowUp,ArrowLeft","false","revaluation","1","32","","",""
"html-keyboard-response","152","743903","0.0-4.0-2.0-1.16","spark_pilot_norest","11405","8","7","Female","","","","","","","null","<div style=""font-size:60px;"">+</div>","null","fixation","","","","","","","","","33","","",""
"revaluation","153","747907","0.0-4.0-2.0-0.17","spark_pilot_norest","11405","8","7","Female","","false","","","","","[741.7000000001863]","./assets/img/canyon/catch/1.jpg","[""spaceBar""]","value training","canyon","0","{""ArrowUp,ArrowLeft"":26,""ArrowUp,ArrowRight"":10,""ArrowDown,ArrowLeft"":5,""ArrowDown,ArrowRight"":17}","true","spaceBar","true","revaluation","1","34","","",""
"html-keyboard-response","154","748409","0.0-4.0-2.0-1.17","spark_pilot_norest","11405","8","7","Female","","","","","","","null","<div style=""font-size:60px;"">+</div>","null","fixation","","","","","","","","","35","","",""
"revaluation","155","754413","0.0-4.0-2.0-0.18","spark_pilot_norest","11405","8","7","Female","","false","","","","","[1687.2999999998137,1096.5999999996275]","./assets/img/canyon/memory/4.jpg","[""ArrowUp"",""ArrowLeft""]","value training","canyon","26","{""ArrowUp,ArrowLeft"":26,""ArrowUp,ArrowRight"":10,""ArrowDown,ArrowLeft"":5,""ArrowDown,ArrowRight"":17}","true","ArrowUp,ArrowLeft","false","revaluation","1","36","","",""
"html-keyboard-response","156","754914","0.0-4.0-2.0-1.18","spark_pilot_norest","11405","8","7","Female","","","","","","","null","<div style=""font-size:60px;"">+</div>","null","fixation","","","","","","","","","37","","",""
"revaluation","157","760918","0.0-4.0-2.0-0.19","spark_pilot_norest","11405","8","7","Female","","false","","","","","[701.3999999999069,480]","./assets/img/canyon/memory/14.jpg","[""ArrowUp"",""ArrowLeft""]","value training","canyon","26","{""ArrowUp,ArrowLeft"":26,""ArrowUp,ArrowRight"":10,""ArrowDown,ArrowLeft"":5,""ArrowDown,ArrowRight"":17}","true","ArrowUp,ArrowLeft","false","revaluation","1","38","","",""
"html-keyboard-response","158","761419","0.0-4.0-2.0-1.19","spark_pilot_norest","11405","8","7","Female","","","","","","","null","<div style=""font-size:60px;"">+</div>","null","fixation","","","","","","","","","39","","",""
"revaluation","159","767423","0.0-4.0-2.0-0.20","spark_pilot_norest","11405","8","7","Female","","false","","","","","[712.7000000001863,500.79999999981374]","./assets/img/canyon/memory/39.jpg","[""ArrowUp"",""ArrowLeft""]","value training","canyon","26","{""ArrowUp,ArrowLeft"":26,""ArrowUp,ArrowRight"":10,""ArrowDown,ArrowLeft"":5,""ArrowDown,ArrowRight"":17}","true","ArrowUp,ArrowLeft","false","revaluation","1","40","","",""
"html-keyboard-response","160","767924","0.0-4.0-2.0-1.20","spark_pilot_norest","11405","8","7","Female","","","","","","","null","<div style=""font-size:60px;"">+</div>","null","fixation","","","","","","","","","41","","",""
"revaluation","161","773928","0.0-4.0-2.0-0.21","spark_pilot_norest","11405","8","7","Female","","false","","","","","[652.8999999999069,496.09999999962747]","./assets/img/canyon/memory/13.jpg","[""ArrowUp"",""ArrowLeft""]","value training","canyon","26","{""ArrowUp,ArrowLeft"":26,""ArrowUp,ArrowRight"":10,""ArrowDown,ArrowLeft"":5,""ArrowDown,ArrowRight"":17}","true","ArrowUp,ArrowLeft","false","revaluation","1","42","","",""
"html-keyboard-response","162","774429","0.0-4.0-2.0-1.21","spark_pilot_norest","11405","8","7","Female","","","","","","","null","<div style=""font-size:60px;"">+</div>","null","fixation","","","","","","","","","43","","",""
"revaluation","163","778433","0.0-4.0-2.0-0.22","spark_pilot_norest","11405","8","7","Female","","false","","","","","[527.7000000001863]","./assets/img/canyon/catch/7.jpg","[""spaceBar""]","value training","canyon","0","{""ArrowUp,ArrowLeft"":26,""ArrowUp,ArrowRight"":10,""ArrowDown,ArrowLeft"":5,""ArrowDown,ArrowRight"":17}","true","spaceBar","true","revaluation","1","44","","",""
"html-keyboard-response","164","778935","0.0-4.0-2.0-1.22","spark_pilot_norest","11405","8","7","Female","","","","","","","null","<div style=""font-size:60px;"">+</div>","null","fixation","","","","","","","","","45","","",""
"revaluation","165","784941","0.0-4.0-2.0-0.23","spark_pilot_norest","11405","8","7","Female","","false","","","","","[859.2999999998137,695.4000000003725]","./assets/img/canyon/memory/19.jpg","[""ArrowUp"",""ArrowLeft""]","value training","canyon","26","{""ArrowUp,ArrowLeft"":26,""ArrowUp,ArrowRight"":10,""ArrowDown,ArrowLeft"":5,""ArrowDown,ArrowRight"":17}","true","ArrowUp,ArrowLeft","false","revaluation","1","46","","",""
"html-keyboard-response","166","785442","0.0-4.0-2.0-1.23","spark_pilot_norest","11405","8","7","Female","","","","","","","null","<div style=""font-size:60px;"">+</div>","null","fixation","","","","","","","","","47","","",""
"revaluation","167","791447","0.0-4.0-2.0-0.24","spark_pilot_norest","11405","8","7","Female","","false","","","","","[761.8999999999069,621.1000000000931]","./assets/img/canyon/memory/15.jpg","[""ArrowUp"",""ArrowLeft""]","value training","canyon","26","{""ArrowUp,ArrowLeft"":26,""ArrowUp,ArrowRight"":10,""ArrowDown,ArrowLeft"":5,""ArrowDown,ArrowRight"":17}","true","ArrowUp,ArrowLeft","false","revaluation","1","48","","",""
"html-keyboard-response","168","791948","0.0-4.0-2.0-1.24","spark_pilot_norest","11405","8","7","Female","","","","","","","null","<div style=""font-size:60px;"">+</div>","null","fixation","","","","","","","","","49","","",""
"revaluation","169","795952","0.0-4.0-2.0-0.25","spark_pilot_norest","11405","8","7","Female","","false","","","","","[585.3999999999069]","./assets/img/canyon/catch/6.jpg","[""spaceBar""]","value training","canyon","0","{""ArrowUp,ArrowLeft"":26,""ArrowUp,ArrowRight"":10,""ArrowDown,ArrowLeft"":5,""ArrowDown,ArrowRight"":17}","true","spaceBar","true","revaluation","1","50","","",""
"html-keyboard-response","170","796453","0.0-4.0-2.0-1.25","spark_pilot_norest","11405","8","7","Female","","","","","","","null","<div style=""font-size:60px;"">+</div>","null","fixation","","","","","","","","","51","","",""
"revaluation","171","802457","0.0-4.0-2.0-0.26","spark_pilot_norest","11405","8","7","Female","","false","","","","","[1218.7999999998137,472.39999999990687]","./assets/img/canyon/memory/9.jpg","[""ArrowUp"",""ArrowLeft""]","value training","canyon","26","{""ArrowUp,ArrowLeft"":26,""ArrowUp,ArrowRight"":10,""ArrowDown,ArrowLeft"":5,""ArrowDown,ArrowRight"":17}","true","ArrowUp,ArrowLeft","false","revaluation","1","52","","",""
"html-keyboard-response","172","802958","0.0-4.0-2.0-1.26","spark_pilot_norest","11405","8","7","Female","","","","","","","null","<div style=""font-size:60px;"">+</div>","null","fixation","","","","","","","","","53","","",""
"revaluation","173","808963","0.0-4.0-2.0-0.27","spark_pilot_norest","11405","8","7","Female","","false","","","","","[771.8999999999069,501.3000000002794]","./assets/img/canyon/memory/4.jpg","[""ArrowUp"",""ArrowLeft""]","value training","canyon","26","{""ArrowUp,ArrowLeft"":26,""ArrowUp,ArrowRight"":10,""ArrowDown,ArrowLeft"":5,""ArrowDown,ArrowRight"":17}","true","ArrowUp,ArrowLeft","false","revaluation","1","54","","",""
"html-keyboard-response","174","809464","0.0-4.0-2.0-1.27","spark_pilot_norest","11405","8","7","Female","","","","","","","null","<div style=""font-size:60px;"">+</div>","null","fixation","","","","","","","","","55","","",""
"revaluation","175","815469","0.0-4.0-2.0-0.28","spark_pilot_norest","11405","8","7","Female","","false","","","","","[874.8999999999069,456.3000000002794]","./assets/img/canyon/memory/14.jpg","[""ArrowUp"",""ArrowLeft""]","value training","canyon","26","{""ArrowUp,ArrowLeft"":26,""ArrowUp,ArrowRight"":10,""ArrowDown,ArrowLeft"":5,""ArrowDown,ArrowRight"":17}","true","ArrowUp,ArrowLeft","false","revaluation","1","56","","",""
"html-keyboard-response","176","815970","0.0-4.0-2.0-1.28","spark_pilot_norest","11405","8","7","Female","","","","","","","null","<div style=""font-size:60px;"">+</div>","null","fixation","","","","","","","","","57","","",""
"revaluation","177","821974","0.0-4.0-2.0-0.29","spark_pilot_norest","11405","8","7","Female","","false","","","","","[767.8000000002794,452.09999999962747]","./assets/img/canyon/memory/6.jpg","[""ArrowUp"",""ArrowLeft""]","value training","canyon","26","{""ArrowUp,ArrowLeft"":26,""ArrowUp,ArrowRight"":10,""ArrowDown,ArrowLeft"":5,""ArrowDown,ArrowRight"":17}","true","ArrowUp,ArrowLeft","false","revaluation","1","58","","",""
"html-keyboard-response","178","822476","0.0-4.0-2.0-1.29","spark_pilot_norest","11405","8","7","Female","","","","","","","null","<div style=""font-size:60px;"">+</div>","null","fixation","","","","","","","","","59","","",""
"revaluation","179","828480","0.0-4.0-2.0-0.30","spark_pilot_norest","11405","8","7","Female","","false","","","","","[587.1000000000931,498.70000000018626]","./assets/img/canyon/memory/27.jpg","[""ArrowUp"",""ArrowLeft""]","value training","canyon","26","{""ArrowUp,ArrowLeft"":26,""ArrowUp,ArrowRight"":10,""ArrowDown,ArrowLeft"":5,""ArrowDown,ArrowRight"":17}","true","ArrowUp,ArrowLeft","false","revaluation","1","60","","",""
"html-keyboard-response","180","828981","0.0-4.0-2.0-1.30","spark_pilot_norest","11405","8","7","Female","","","","","","","null","<div style=""font-size:60px;"">+</div>","null","fixation","","","","","","","","","61","","",""
"revaluation","181","834986","0.0-4.0-2.0-0.31","spark_pilot_norest","11405","8","7","Female","","false","","","","","[637.9000000003725,562.3999999999069]","./assets/img/canyon/memory/15.jpg","[""ArrowUp"",""ArrowLeft""]","value training","canyon","26","{""ArrowUp,ArrowLeft"":26,""ArrowUp,ArrowRight"":10,""ArrowDown,ArrowLeft"":5,""ArrowDown,ArrowRight"":17}","true","ArrowUp,ArrowLeft","false","revaluation","1","62","","",""
"html-keyboard-response","182","835487","0.0-4.0-2.0-1.31","spark_pilot_norest","11405","8","7","Female","","","","","","","null","<div style=""font-size:60px;"">+</div>","null","fixation","","","","","","","","","63","","",""
"revaluation","183","841491","0.0-4.0-2.0-0.32","spark_pilot_norest","11405","8","7","Female","","false","","","","","[946.7000000001863,530.9000000003725]","./assets/img/canyon/memory/3.jpg","[""ArrowUp"",""ArrowLeft""]","value training","canyon","26","{""ArrowUp,ArrowLeft"":26,""ArrowUp,ArrowRight"":10,""ArrowDown,ArrowLeft"":5,""ArrowDown,ArrowRight"":17}","true","ArrowUp,ArrowLeft","false","revaluation","1","64","","",""
"html-keyboard-response","184","841992","0.0-4.0-2.0-1.32","spark_pilot_norest","11405","8","7","Female","","","","","","","null","<div style=""font-size:60px;"">+</div>","null","fixation","","","","","","","","","65","","",""
"revaluation","185","847997","0.0-4.0-2.0-0.33","spark_pilot_norest","11405","8","7","Female","","false","","","","","[766,556.7999999998137]","./assets/img/canyon/memory/9.jpg","[""ArrowUp"",""ArrowLeft""]","value training","canyon","26","{""ArrowUp,ArrowLeft"":26,""ArrowUp,ArrowRight"":10,""ArrowDown,ArrowLeft"":5,""ArrowDown,ArrowRight"":17}","true","ArrowUp,ArrowLeft","false","revaluation","1","66","","",""
"html-keyboard-response","186","848498","0.0-4.0-2.0-1.33","spark_pilot_norest","11405","8","7","Female","","","","","","","null","<div style=""font-size:60px;"">+</div>","null","fixation","","","","","","","","","67","","",""
"revaluation","187","854503","0.0-4.0-2.0-0.34","spark_pilot_norest","11405","8","7","Female","","false","","","","","[957.8999999999069,655.2000000001863]","./assets/img/canyon/memory/0.jpg","[""ArrowUp"",""ArrowLeft""]","value training","canyon","26","{""ArrowUp,ArrowLeft"":26,""ArrowUp,ArrowRight"":10,""ArrowDown,ArrowLeft"":5,""ArrowDown,ArrowRight"":17}","true","ArrowUp,ArrowLeft","false","revaluation","1","68","","",""
"html-keyboard-response","188","855004","0.0-4.0-2.0-1.34","spark_pilot_norest","11405","8","7","Female","","","","","","","null","<div style=""font-size:60px;"">+</div>","null","fixation","","","","","","","","","69","","",""
"revaluation","189","861008","0.0-4.0-2.0-0.35","spark_pilot_norest","11405","8","7","Female","","false","","","","","[889.0999999996275,443.70000000018626]","./assets/img/canyon/memory/32.jpg","[""ArrowUp"",""ArrowLeft""]","value training","canyon","26","{""ArrowUp,ArrowLeft"":26,""ArrowUp,ArrowRight"":10,""ArrowDown,ArrowLeft"":5,""ArrowDown,ArrowRight"":17}","true","ArrowUp,ArrowLeft","false","revaluation","1","70","","",""
"html-keyboard-response","190","861509","0.0-4.0-2.0-1.35","spark_pilot_norest","11405","8","7","Female","","","","","","","null","<div style=""font-size:60px;"">+</div>","null","fixation","","","","","","","","","71","","",""
"revaluation","191","867513","0.0-4.0-2.0-0.36","spark_pilot_norest","11405","8","7","Female","","false","","","","","[764.3999999999069,505.70000000018626]","./assets/img/canyon/memory/12.jpg","[""ArrowUp"",""ArrowLeft""]","value training","canyon","26","{""ArrowUp,ArrowLeft"":26,""ArrowUp,ArrowRight"":10,""ArrowDown,ArrowLeft"":5,""ArrowDown,ArrowRight"":17}","true","ArrowUp,ArrowLeft","false","revaluation","1","72","","",""
"html-keyboard-response","192","868014","0.0-4.0-2.0-1.36","spark_pilot_norest","11405","8","7","Female","","","","","","","null","<div style=""font-size:60px;"">+</div>","null","fixation","","","","","","","","","73","","",""
"revaluation","193","874019","0.0-4.0-2.0-0.37","spark_pilot_norest","11405","8","7","Female","","false","","","","","[1083.2000000001863,465.79999999981374]","./assets/img/canyon/memory/39.jpg","[""ArrowUp"",""ArrowLeft""]","value training","canyon","26","{""ArrowUp,ArrowLeft"":26,""ArrowUp,ArrowRight"":10,""ArrowDown,ArrowLeft"":5,""ArrowDown,ArrowRight"":17}","true","ArrowUp,ArrowLeft","false","revaluation","1","74","","",""
"html-keyboard-response","194","874520","0.0-4.0-2.0-1.37","spark_pilot_norest","11405","8","7","Female","","","","","","","null","<div style=""font-size:60px;"">+</div>","null","fixation","","","","","","","","","75","","",""
"revaluation","195","880525","0.0-4.0-2.0-0.38","spark_pilot_norest","11405","8","7","Female","","false","","","","","[728.1000000000931,381]","./assets/img/canyon/memory/12.jpg","[""ArrowUp"",""ArrowLeft""]","value training","canyon","26","{""ArrowUp,ArrowLeft"":26,""ArrowUp,ArrowRight"":10,""ArrowDown,ArrowLeft"":5,""ArrowDown,ArrowRight"":17}","true","ArrowUp,ArrowLeft","false","revaluation","1","76","","",""
"html-keyboard-response","196","881026","0.0-4.0-2.0-1.38","spark_pilot_norest","11405","8","7","Female","","","","","","","null","<div style=""font-size:60px;"">+</div>","null","fixation","","","","","","","","","77","","",""
"revaluation","197","887029","0.0-4.0-2.0-0.39","spark_pilot_norest","11405","8","7","Female","","false","","","","","[731.1000000000931,446.60000000009313]","./assets/img/canyon/memory/10.jpg","[""ArrowUp"",""ArrowLeft""]","value training","canyon","26","{""ArrowUp,ArrowLeft"":26,""ArrowUp,ArrowRight"":10,""ArrowDown,ArrowLeft"":5,""ArrowDown,ArrowRight"":17}","true","ArrowUp,ArrowLeft","false","revaluation","1","78","","",""
"html-keyboard-response","198","887530","0.0-4.0-2.0-1.39","spark_pilot_norest","11405","8","7","Female","","","","","","","null","<div style=""font-size:60px;"">+</div>","null","fixation","","","","","","","","","79","","",""
"revaluation","199","891534","0.0-4.0-2.0-0.40","spark_pilot_norest","11405","8","7","Female","","false","","","","","[1447.7000000001863]","./assets/img/canyon/catch/2.jpg","[""spaceBar""]","value training","canyon","0","{""ArrowUp,ArrowLeft"":26,""ArrowUp,ArrowRight"":10,""ArrowDown,ArrowLeft"":5,""ArrowDown,ArrowRight"":17}","true","spaceBar","true","revaluation","1","80","","",""
"html-keyboard-response","200","892035","0.0-4.0-2.0-1.40","spark_pilot_norest","11405","8","7","Female","","","","","","","null","<div style=""font-size:60px;"">+</div>","null","fixation","","","","","","","","","81","","",""
"revaluation","201","898040","0.0-4.0-2.0-0.41","spark_pilot_norest","11405","8","7","Female","","false","","","","","[1263.8000000002794,444.29999999981374]","./assets/img/canyon/memory/27.jpg","[""ArrowUp"",""ArrowLeft""]","value training","canyon","26","{""ArrowUp,ArrowLeft"":26,""ArrowUp,ArrowRight"":10,""ArrowDown,ArrowLeft"":5,""ArrowDown,ArrowRight"":17}","true","ArrowUp,ArrowLeft","false","revaluation","1","82","","",""
"html-keyboard-response","202","898541","0.0-4.0-2.0-1.41","spark_pilot_norest","11405","8","7","Female","","","","","","","null","<div style=""font-size:60px;"">+</div>","null","fixation","","","","","","","","","83","","",""
"revaluation","203","904545","0.0-4.0-2.0-0.42","spark_pilot_norest","11405","8","7","Female","","false","","","","","[532.7999999998137,369.39999999990687]","./assets/img/canyon/memory/13.jpg","[""ArrowUp"",""ArrowLeft""]","value training","canyon","26","{""ArrowUp,ArrowLeft"":26,""ArrowUp,ArrowRight"":10,""ArrowDown,ArrowLeft"":5,""ArrowDown,ArrowRight"":17}","true","ArrowUp,ArrowLeft","false","revaluation","1","84","","",""
"html-keyboard-response","204","905046","0.0-4.0-2.0-1.42","spark_pilot_norest","11405","8","7","Female","","","","","","","null","<div style=""font-size:60px;"">+</div>","null","fixation","","","","","","","","","85","","",""
"revaluation","205","909050","0.0-4.0-2.0-0.43","spark_pilot_norest","11405","8","7","Female","","false","","","","","[598.8000000002794]","./assets/img/canyon/catch/4.jpg","[""spaceBar""]","value training","canyon","0","{""ArrowUp,ArrowLeft"":26,""ArrowUp,ArrowRight"":10,""ArrowDown,ArrowLeft"":5,""ArrowDown,ArrowRight"":17}","true","spaceBar","true","revaluation","1","86","","",""
"html-keyboard-response","206","909552","0.0-4.0-2.0-1.43","spark_pilot_norest","11405","8","7","Female","","","","","","","null","<div style=""font-size:60px;"">+</div>","null","fixation","","","","","","","","","87","","",""
"revaluation","207","915556","0.0-4.0-2.0-0.44","spark_pilot_norest","11405","8","7","Female","","false","","","","","[888.8000000002794,424.5]","./assets/img/canyon/memory/36.jpg","[""ArrowUp"",""ArrowLeft""]","value training","canyon","26","{""ArrowUp,ArrowLeft"":26,""ArrowUp,ArrowRight"":10,""ArrowDown,ArrowLeft"":5,""ArrowDown,ArrowRight"":17}","true","ArrowUp,ArrowLeft","false","revaluation","1","88","","",""
"html-keyboard-response","208","916058","0.0-4.0-2.0-1.44","spark_pilot_norest","11405","8","7","Female","","","","","","","null","<div style=""font-size:60px;"">+</div>","null","fixation","","","","","","","","","89","","",""
"revaluation","209","922062","0.0-4.0-2.0-0.45","spark_pilot_norest","11405","8","7","Female","","false","","","","","[511.60000000009313,443.10000000009313]","./assets/img/canyon/memory/6.jpg","[""ArrowUp"",""ArrowLeft""]","value training","canyon","26","{""ArrowUp,ArrowLeft"":26,""ArrowUp,ArrowRight"":10,""ArrowDown,ArrowLeft"":5,""ArrowDown,ArrowRight"":17}","true","ArrowUp,ArrowLeft","false","revaluation","1","90","","",""
"html-keyboard-response","210","922563","0.0-4.0-2.0-1.45","spark_pilot_norest","11405","8","7","Female","","","","","","","null","<div style=""font-size:60px;"">+</div>","null","fixation","","","","","","","","","91","","",""
"revaluation","211","928567","0.0-4.0-2.0-0.46","spark_pilot_norest","11405","8","7","Female","","false","","","","","[924.8000000002794,464.1999999997206]","./assets/img/canyon/memory/33.jpg","[""ArrowUp"",""ArrowLeft""]","value training","canyon","26","{""ArrowUp,ArrowLeft"":26,""ArrowUp,ArrowRight"":10,""ArrowDown,ArrowLeft"":5,""ArrowDown,ArrowRight"":17}","true","ArrowUp,ArrowLeft","false","revaluation","1","92","","",""
"html-keyboard-response","212","929068","0.0-4.0-2.0-1.46","spark_pilot_norest","11405","8","7","Female","","","","","","","null","<div style=""font-size:60px;"">+</div>","null","fixation","","","","","","","","","93","","",""
"revaluation","213","935073","0.0-4.0-2.0-0.47","spark_pilot_norest","11405","8","7","Female","","false","","","","","[660.8999999999069,543.5]","./assets/img/canyon/memory/0.jpg","[""ArrowUp"",""ArrowLeft""]","value training","canyon","26","{""ArrowUp,ArrowLeft"":26,""ArrowUp,ArrowRight"":10,""ArrowDown,ArrowLeft"":5,""ArrowDown,ArrowRight"":17}","true","ArrowUp,ArrowLeft","false","revaluation","1","94","","",""
"html-keyboard-response","214","935574","0.0-4.0-2.0-1.47","spark_pilot_norest","11405","8","7","Female","","","","","","","null","<div style=""font-size:60px;"">+</div>","null","fixation","","","","","","","","","95","","",""
"revaluation","215","941578","0.0-4.0-2.0-0.48","spark_pilot_norest","11405","8","7","Female","","false","","","","","[878.8000000002794,940.1000000000931]","./assets/img/canyon/memory/33.jpg","[""ArrowUp"",""ArrowLeft""]","value training","canyon","26","{""ArrowUp,ArrowLeft"":26,""ArrowUp,ArrowRight"":10,""ArrowDown,ArrowLeft"":5,""ArrowDown,ArrowRight"":17}","true","ArrowUp,ArrowLeft","false","revaluation","1","96","","",""
"html-keyboard-response","216","942079","0.0-4.0-2.0-1.48","spark_pilot_norest","11405","8","7","Female","","","","","","","null","<div style=""font-size:60px;"">+</div>","null","fixation","","","","","","","","","97","","",""
"revaluation","217","948084","0.0-4.0-2.0-0.49","spark_pilot_norest","11405","8","7","Female","","false","","","","","[779.7999999998137,388.60000000009313]","./assets/img/canyon/memory/28.jpg","[""ArrowUp"",""ArrowLeft""]","value training","canyon","26","{""ArrowUp,ArrowLeft"":26,""ArrowUp,ArrowRight"":10,""ArrowDown,ArrowLeft"":5,""ArrowDown,ArrowRight"":17}","true","ArrowUp,ArrowLeft","false","revaluation","1","98","","",""
"html-keyboard-response","218","948585","0.0-4.0-2.0-1.49","spark_pilot_norest","11405","8","7","Female","","","","","","","null","<div style=""font-size:60px;"">+</div>","null","fixation","","","","","","","","","99","","",""
"learning-instructions","219","964198","0.0-4.0-3.0-0.0","spark_pilot_norest","11405","8","7","Female","","","","","","","2398.600000000093","<p> Now, you will travel with a friend who will choose whether you go up or down first. </p>
            <p> On these turns, you will just see the animal that they found. You will still get to choose which chest to search for treasure.</p>","","instructions","","","","","","","","","","","",""
"revaluation","220","968202","0.0-4.0-4.0-0.0","spark_pilot_norest","11405","8","7","Female","","false","","","","","[945.6999999997206]","./assets/img/canyon/animals/giraffe.jpg","[""ArrowLeft""]","revaluation","canyon","2","{""ArrowUp,ArrowLeft"":2,""ArrowUp,ArrowRight"":11,""ArrowDown,ArrowLeft"":8,""ArrowDown,ArrowRight"":27}","false","ArrowUp,ArrowLeft","","revaluation","1","0","","",""
"html-keyboard-response","221","968707","0.0-4.0-4.0-1.0","spark_pilot_norest","11405","8","7","Female","","","","","","","null","<div style=""font-size:60px;"">+</div>","null","fixation","","","","","","","","","1","","",""
"revaluation","222","972711","0.0-4.0-4.0-0.1","spark_pilot_norest","11405","8","7","Female","","false","","","","","[407.89999999990687]","./assets/img/canyon/animals/giraffe.jpg","[""ArrowRight""]","revaluation","canyon","11","{""ArrowUp,ArrowLeft"":2,""ArrowUp,ArrowRight"":11,""ArrowDown,ArrowLeft"":8,""ArrowDown,ArrowRight"":27}","true","ArrowUp,ArrowRight","","revaluation","1","2","","",""
"html-keyboard-response","223","973212","0.0-4.0-4.0-1.1","spark_pilot_norest","11405","8","7","Female","","","","","","","null","<div style=""font-size:60px;"">+</div>","null","fixation","","","","","","","","","3","","",""
"revaluation","224","977216","0.0-4.0-4.0-0.2","spark_pilot_norest","11405","8","7","Female","","false","","","","","[1047.9000000003725]","./assets/img/canyon/animals/lion.jpg","[""ArrowRight""]","revaluation","canyon","27","{""ArrowUp,ArrowLeft"":2,""ArrowUp,ArrowRight"":11,""ArrowDown,ArrowLeft"":8,""ArrowDown,ArrowRight"":27}","true","ArrowDown,ArrowRight","","revaluation","1","4","","",""
"html-keyboard-response","225","977717","0.0-4.0-4.0-1.2","spark_pilot_norest","11405","8","7","Female","","","","","","","null","<div style=""font-size:60px;"">+</div>","null","fixation","","","","","","","","","5","","",""
"revaluation","226","981721","0.0-4.0-4.0-0.3","spark_pilot_norest","11405","8","7","Female","","false","","","","","[615.6999999997206]","./assets/img/canyon/animals/lion.jpg","[""ArrowRight""]","revaluation","canyon","27","{""ArrowUp,ArrowLeft"":2,""ArrowUp,ArrowRight"":11,""ArrowDown,ArrowLeft"":8,""ArrowDown,ArrowRight"":27}","true","ArrowDown,ArrowRight","","revaluation","1","6","","",""
"html-keyboard-response","227","982222","0.0-4.0-4.0-1.3","spark_pilot_norest","11405","8","7","Female","","","","","","","null","<div style=""font-size:60px;"">+</div>","null","fixation","","","","","","","","","7","","",""
"revaluation","228","986226","0.0-4.0-4.0-0.4","spark_pilot_norest","11405","8","7","Female","","false","","","","","[544.2999999998137]","./assets/img/canyon/animals/giraffe.jpg","[""ArrowLeft""]","revaluation","canyon","2","{""ArrowUp,ArrowLeft"":2,""ArrowUp,ArrowRight"":11,""ArrowDown,ArrowLeft"":8,""ArrowDown,ArrowRight"":27}","false","ArrowUp,ArrowLeft","","revaluation","1","8","","",""
"html-keyboard-response","229","986727","0.0-4.0-4.0-1.4","spark_pilot_norest","11405","8","7","Female","","","","","","","null","<div style=""font-size:60px;"">+</div>","null","fixation","","","","","","","","","9","","",""
"revaluation","230","990731","0.0-4.0-4.0-0.5","spark_pilot_norest","11405","8","7","Female","","false","","","","","[635.2000000001863]","./assets/img/canyon/animals/lion.jpg","[""ArrowLeft""]","revaluation","canyon","8","{""ArrowUp,ArrowLeft"":2,""ArrowUp,ArrowRight"":11,""ArrowDown,ArrowLeft"":8,""ArrowDown,ArrowRight"":27}","false","ArrowDown,ArrowLeft","","revaluation","1","10","","",""
"html-keyboard-response","231","991232","0.0-4.0-4.0-1.5","spark_pilot_norest","11405","8","7","Female","","","","","","","null","<div style=""font-size:60px;"">+</div>","null","fixation","","","","","","","","","11","","",""
"revaluation","232","995236","0.0-4.0-4.0-0.6","spark_pilot_norest","11405","8","7","Female","","false","","","","","[1468.8999999999069]","./assets/img/canyon/animals/giraffe.jpg","[""ArrowRight""]","revaluation","canyon","11","{""ArrowUp,ArrowLeft"":2,""ArrowUp,ArrowRight"":11,""ArrowDown,ArrowLeft"":8,""ArrowDown,ArrowRight"":27}","true","ArrowUp,ArrowRight","","revaluation","1","12","","",""
"html-keyboard-response","233","995737","0.0-4.0-4.0-1.6","spark_pilot_norest","11405","8","7","Female","","","","","","","null","<div style=""font-size:60px;"">+</div>","null","fixation","","","","","","","","","13","","",""
"revaluation","234","999741","0.0-4.0-4.0-0.7","spark_pilot_norest","11405","8","7","Female","","false","","","","","[806.2000000001863]","./assets/img/canyon/animals/lion.jpg","[""ArrowRight""]","revaluation","canyon","27","{""ArrowUp,ArrowLeft"":2,""ArrowUp,ArrowRight"":11,""ArrowDown,ArrowLeft"":8,""ArrowDown,ArrowRight"":27}","true","ArrowDown,ArrowRight","","revaluation","1","14","","",""
"html-keyboard-response","235","1000242","0.0-4.0-4.0-1.7","spark_pilot_norest","11405","8","7","Female","","","","","","","null","<div style=""font-size:60px;"">+</div>","null","fixation","","","","","","","","","15","","",""
"revaluation","236","1004246","0.0-4.0-4.0-0.8","spark_pilot_norest","11405","8","7","Female","","false","","","","","[459]","./assets/img/canyon/animals/lion.jpg","[""ArrowRight""]","revaluation","canyon","27","{""ArrowUp,ArrowLeft"":2,""ArrowUp,ArrowRight"":11,""ArrowDown,ArrowLeft"":8,""ArrowDown,ArrowRight"":27}","true","ArrowDown,ArrowRight","","revaluation","1","16","","",""
"html-keyboard-response","237","1004748","0.0-4.0-4.0-1.8","spark_pilot_norest","11405","8","7","Female","","","","","","","null","<div style=""font-size:60px;"">+</div>","null","fixation","","","","","","","","","17","","",""
"revaluation","238","1008751","0.0-4.0-4.0-0.9","spark_pilot_norest","11405","8","7","Female","","false","","","","","[715.9000000003725]","./assets/img/canyon/animals/giraffe.jpg","[""ArrowRight""]","revaluation","canyon","11","{""ArrowUp,ArrowLeft"":2,""ArrowUp,ArrowRight"":11,""ArrowDown,ArrowLeft"":8,""ArrowDown,ArrowRight"":27}","true","ArrowUp,ArrowRight","","revaluation","1","18","","",""
"html-keyboard-response","239","1009252","0.0-4.0-4.0-1.9","spark_pilot_norest","11405","8","7","Female","","","","","","","null","<div style=""font-size:60px;"">+</div>","null","fixation","","","","","","","","","19","","",""
"revaluation","240","1013255","0.0-4.0-4.0-0.10","spark_pilot_norest","11405","8","7","Female","","false","","","","","[661.2999999998137]","./assets/img/canyon/animals/giraffe.jpg","[""ArrowRight""]","revaluation","canyon","11","{""ArrowUp,ArrowLeft"":2,""ArrowUp,ArrowRight"":11,""ArrowDown,ArrowLeft"":8,""ArrowDown,ArrowRight"":27}","true","ArrowUp,ArrowRight","","revaluation","1","20","","",""
"html-keyboard-response","241","1013756","0.0-4.0-4.0-1.10","spark_pilot_norest","11405","8","7","Female","","","","","","","null","<div style=""font-size:60px;"">+</div>","null","fixation","","","","","","","","","21","","",""
"revaluation","242","1017760","0.0-4.0-4.0-0.11","spark_pilot_norest","11405","8","7","Female","","false","","","","","[899.0999999996275]","./assets/img/canyon/animals/giraffe.jpg","[""ArrowRight""]","revaluation","canyon","11","{""ArrowUp,ArrowLeft"":2,""ArrowUp,ArrowRight"":11,""ArrowDown,ArrowLeft"":8,""ArrowDown,ArrowRight"":27}","true","ArrowUp,ArrowRight","","revaluation","1","22","","",""
"html-keyboard-response","243","1018261","0.0-4.0-4.0-1.11","spark_pilot_norest","11405","8","7","Female","","","","","","","null","<div style=""font-size:60px;"">+</div>","null","fixation","","","","","","","","","23","","",""
"revaluation","244","1022266","0.0-4.0-4.0-0.12","spark_pilot_norest","11405","8","7","Female","","false","","","","","[513.7999999998137]","./assets/img/canyon/animals/giraffe.jpg","[""ArrowRight""]","revaluation","canyon","11","{""ArrowUp,ArrowLeft"":2,""ArrowUp,ArrowRight"":11,""ArrowDown,ArrowLeft"":8,""ArrowDown,ArrowRight"":27}","true","ArrowUp,ArrowRight","","revaluation","1","24","","",""
"html-keyboard-response","245","1022767","0.0-4.0-4.0-1.12","spark_pilot_norest","11405","8","7","Female","","","","","","","null","<div style=""font-size:60px;"">+</div>","null","fixation","","","","","","","","","25","","",""
"revaluation","246","1026771","0.0-4.0-4.0-0.13","spark_pilot_norest","11405","8","7","Female","","false","","","","","[501.60000000009313]","./assets/img/canyon/animals/lion.jpg","[""ArrowRight""]","revaluation","canyon","27","{""ArrowUp,ArrowLeft"":2,""ArrowUp,ArrowRight"":11,""ArrowDown,ArrowLeft"":8,""ArrowDown,ArrowRight"":27}","true","ArrowDown,ArrowRight","","revaluation","1","26","","",""
"html-keyboard-response","247","1027273","0.0-4.0-4.0-1.13","spark_pilot_norest","11405","8","7","Female","","","","","","","null","<div style=""font-size:60px;"">+</div>","null","fixation","","","","","","","","","27","","",""
"revaluation","248","1031277","0.0-4.0-4.0-0.14","spark_pilot_norest","11405","8","7","Female","","false","","","","","[486.5]","./assets/img/canyon/animals/lion.jpg","[""ArrowRight""]","revaluation","canyon","27","{""ArrowUp,ArrowLeft"":2,""ArrowUp,ArrowRight"":11,""ArrowDown,ArrowLeft"":8,""ArrowDown,ArrowRight"":27}","true","ArrowDown,ArrowRight","","revaluation","1","28","","",""
"html-keyboard-response","249","1031778","0.0-4.0-4.0-1.14","spark_pilot_norest","11405","8","7","Female","","","","","","","null","<div style=""font-size:60px;"">+</div>","null","fixation","","","","","","","","","29","","",""
"revaluation","250","1035781","0.0-4.0-4.0-0.15","spark_pilot_norest","11405","8","7","Female","","false","","","","","[616.8000000002794]","./assets/img/canyon/animals/lion.jpg","[""ArrowRight""]","revaluation","canyon","27","{""ArrowUp,ArrowLeft"":2,""ArrowUp,ArrowRight"":11,""ArrowDown,ArrowLeft"":8,""ArrowDown,ArrowRight"":27}","true","ArrowDown,ArrowRight","","revaluation","1","30","","",""
"html-keyboard-response","251","1036282","0.0-4.0-4.0-1.15","spark_pilot_norest","11405","8","7","Female","","","","","","","null","<div style=""font-size:60px;"">+</div>","null","fixation","","","","","","","","","31","","",""
"revaluation","252","1040286","0.0-4.0-4.0-0.16","spark_pilot_norest","11405","8","7","Female","","false","","","","","[501.39999999990687]","./assets/img/canyon/animals/giraffe.jpg","[""ArrowRight""]","revaluation","canyon","11","{""ArrowUp,ArrowLeft"":2,""ArrowUp,ArrowRight"":11,""ArrowDown,ArrowLeft"":8,""ArrowDown,ArrowRight"":27}","true","ArrowUp,ArrowRight","","revaluation","1","32","","",""
"html-keyboard-response","253","1040788","0.0-4.0-4.0-1.16","spark_pilot_norest","11405","8","7","Female","","","","","","","null","<div style=""font-size:60px;"">+</div>","null","fixation","","","","","","","","","33","","",""
"revaluation","254","1044791","0.0-4.0-4.0-0.17","spark_pilot_norest","11405","8","7","Female","","false","","","","","[1122.8999999999069]","./assets/img/canyon/animals/lion.jpg","[""ArrowRight""]","revaluation","canyon","27","{""ArrowUp,ArrowLeft"":2,""ArrowUp,ArrowRight"":11,""ArrowDown,ArrowLeft"":8,""ArrowDown,ArrowRight"":27}","true","ArrowDown,ArrowRight","","revaluation","1","34","","",""
"html-keyboard-response","255","1045293","0.0-4.0-4.0-1.17","spark_pilot_norest","11405","8","7","Female","","","","","","","null","<div style=""font-size:60px;"">+</div>","null","fixation","","","","","","","","","35","","",""
"learning-instructions","256","1053734","0.0-4.0-5.0-0.0","spark_pilot_norest","11405","8","7","Female","","","","","","","null","<p> You have almost finished this part of the game! </p>
            <p> We are going to ask you to make a few more choices. </p>","","instructions","","","","","","","","","","","",""
"learning-instructions","257","1069702","0.0-4.0-5.0-0.1","spark_pilot_norest","11405","8","7","Female","","","","","","","null","<p> First, you need to decide whether to go up or down. When you see each picture, use the arrow keys to make your choice. </p>
            <p><b>You will not see which animal you found, but try to get to the one that will give you the most treasure.</b></p>","","instructions","","","","","","","","","","","",""
"html-keyboard-response","258","1070703","0.0-4.0-6.0-0.0","spark_pilot_norest","11405","8","7","Female","","","","","","","null","<div style=""font-size:100px;color:red;"">Starting in...</div>","null","","","","","","","","","","","","",""
"html-keyboard-response","259","1071704","0.0-4.0-6.0-1.0","spark_pilot_norest","11405","8","7","Female","","","","","","","null","<div style=""font-size:200px;color:red;"">3</div>","null","","","","","","","","","","","","",""
"html-keyboard-response","260","1072705","0.0-4.0-6.0-2.0","spark_pilot_norest","11405","8","7","Female","","","","","","","null","<div style=""font-size:200px;color:red;"">2</div>","null","","","","","","","","","","","","",""
"html-keyboard-response","261","1073706","0.0-4.0-6.0-3.0","spark_pilot_norest","11405","8","7","Female","","","","","","","null","<div style=""font-size:200px;color:red;"">1</div>","null","","","","","","","","","","","","",""
"revaluation","262","1074577","0.0-4.0-7.0-0.0","spark_pilot_norest","11405","8","7","Female","","false","","","","","[867]","./assets/img/canyon/test/2.jpg","[""ArrowUp""]","first stage test","canyon","0","{""ArrowUp,ArrowLeft"":2,""ArrowUp,ArrowRight"":11,""ArrowDown,ArrowLeft"":8,""ArrowDown,ArrowRight"":27}","false","ArrowUp","false","revaluation","1","","","",""
"html-keyboard-response","263","1075079","0.0-4.0-7.0-1.0","spark_pilot_norest","11405","8","7","Female","","","","","","","null","<div style=""font-size:60px;"">+</div>","null","fixation","","","","","","","","","","","",""
"revaluation","264","1076189","0.0-4.0-7.0-0.1","spark_pilot_norest","11405","8","7","Female","","false","","","","","[1107.8999999999069]","./assets/img/canyon/test/0.jpg","[""ArrowUp""]","first stage test","canyon","0","{""ArrowUp,ArrowLeft"":2,""ArrowUp,ArrowRight"":11,""ArrowDown,ArrowLeft"":8,""ArrowDown,ArrowRight"":27}","false","ArrowUp","false","revaluation","1","","","",""
"html-keyboard-response","265","1076690","0.0-4.0-7.0-1.1","spark_pilot_norest","11405","8","7","Female","","","","","","","null","<div style=""font-size:60px;"">+</div>","null","fixation","","","","","","","","","","","",""
"revaluation","266","1077481","0.0-4.0-7.0-0.2","spark_pilot_norest","11405","8","7","Female","","false","","","","","[787.5999999996275]","./assets/img/canyon/test/3.jpg","[""ArrowUp""]","first stage test","canyon","0","{""ArrowUp,ArrowLeft"":2,""ArrowUp,ArrowRight"":11,""ArrowDown,ArrowLeft"":8,""ArrowDown,ArrowRight"":27}","false","ArrowUp","false","revaluation","1","","","",""
"html-keyboard-response","267","1077983","0.0-4.0-7.0-1.2","spark_pilot_norest","11405","8","7","Female","","","","","","","null","<div style=""font-size:60px;"">+</div>","null","fixation","","","","","","","","","","","",""
"revaluation","268","1078556","0.0-4.0-7.0-0.3","spark_pilot_norest","11405","8","7","Female","","false","","","","","[570.5999999996275]","./assets/img/canyon/test/1.jpg","[""ArrowUp""]","first stage test","canyon","0","{""ArrowUp,ArrowLeft"":2,""ArrowUp,ArrowRight"":11,""ArrowDown,ArrowLeft"":8,""ArrowDown,ArrowRight"":27}","false","ArrowUp","false","revaluation","1","","","",""
"html-keyboard-response","269","1079057","0.0-4.0-7.0-1.3","spark_pilot_norest","11405","8","7","Female","","","","","","","null","<div style=""font-size:60px;"">+</div>","null","fixation","","","","","","","","","","","",""
"learning-instructions","270","1092400","0.0-4.0-8.0-0.0","spark_pilot_norest","11405","8","7","Female","","","","","","","null","<p> Now you will see the animals again and can search their chests for treasure. </p>
            <p> This time, you will not see how much treasure you earned, but you will earn more bonus money for making better choices. </p>","","instructions","","","","","","","","","","","",""
"html-keyboard-response","271","1093401","0.0-4.0-9.0-0.0","spark_pilot_norest","11405","8","7","Female","","","","","","","null","<div style=""font-size:100px;color:red;"">Starting in...</div>","null","","","","","","","","","","","","",""
"html-keyboard-response","272","1094402","0.0-4.0-9.0-1.0","spark_pilot_norest","11405","8","7","Female","","","","","","","null","<div style=""font-size:200px;color:red;"">3</div>","null","","","","","","","","","","","","",""
"html-keyboard-response","273","1095403","0.0-4.0-9.0-2.0","spark_pilot_norest","11405","8","7","Female","","","","","","","null","<div style=""font-size:200px;color:red;"">2</div>","null","","","","","","","","","","","","",""
"html-keyboard-response","274","1096404","0.0-4.0-9.0-3.0","spark_pilot_norest","11405","8","7","Female","","","","","","","null","<div style=""font-size:200px;color:red;"">1</div>","null","","","","","","","","","","","","",""
"revaluation","275","1097569","0.0-4.0-10.0-0.0","spark_pilot_norest","11405","8","7","Female","","false","","","","","[1161.2999999998137]","./assets/img/canyon/animals/giraffe.jpg","[""ArrowRight""]","second stage test","canyon","0","{""ArrowUp,ArrowLeft"":2,""ArrowUp,ArrowRight"":11,""ArrowDown,ArrowLeft"":8,""ArrowDown,ArrowRight"":27}","true","ArrowUp,ArrowRight","","revaluation","1","","","",""
"html-keyboard-response","276","1098070","0.0-4.0-10.0-1.0","spark_pilot_norest","11405","8","7","Female","","","","","","","null","<div style=""font-size:60px;"">+</div>","null","fixation","","","","","","","","","","","",""
"revaluation","277","1098520","0.0-4.0-10.0-0.1","spark_pilot_norest","11405","8","7","Female","","false","","","","","[447]","./assets/img/canyon/animals/giraffe.jpg","[""ArrowLeft""]","second stage test","canyon","0","{""ArrowUp,ArrowLeft"":2,""ArrowUp,ArrowRight"":11,""ArrowDown,ArrowLeft"":8,""ArrowDown,ArrowRight"":27}","false","ArrowUp,ArrowLeft","","revaluation","1","","","",""
"html-keyboard-response","278","1099022","0.0-4.0-10.0-1.1","spark_pilot_norest","11405","8","7","Female","","","","","","","null","<div style=""font-size:60px;"">+</div>","null","fixation","","","","","","","","","","","",""
"revaluation","279","1099688","0.0-4.0-10.0-0.2","spark_pilot_norest","11405","8","7","Female","","false","","","","","[663.1000000000931]","./assets/img/canyon/animals/giraffe.jpg","[""ArrowRight""]","second stage test","canyon","0","{""ArrowUp,ArrowLeft"":2,""ArrowUp,ArrowRight"":11,""ArrowDown,ArrowLeft"":8,""ArrowDown,ArrowRight"":27}","true","ArrowUp,ArrowRight","","revaluation","1","","","",""
"html-keyboard-response","280","1100189","0.0-4.0-10.0-1.2","spark_pilot_norest","11405","8","7","Female","","","","","","","null","<div style=""font-size:60px;"">+</div>","null","fixation","","","","","","","","","","","",""
"revaluation","281","1100531","0.0-4.0-10.0-0.3","spark_pilot_norest","11405","8","7","Female","","false","","","","","[338.3000000002794]","./assets/img/canyon/animals/giraffe.jpg","[""ArrowLeft""]","second stage test","canyon","0","{""ArrowUp,ArrowLeft"":2,""ArrowUp,ArrowRight"":11,""ArrowDown,ArrowLeft"":8,""ArrowDown,ArrowRight"":27}","false","ArrowUp,ArrowLeft","","revaluation","1","","","",""
"html-keyboard-response","282","1101032","0.0-4.0-10.0-1.3","spark_pilot_norest","11405","8","7","Female","","","","","","","null","<div style=""font-size:60px;"">+</div>","null","fixation","","","","","","","","","","","",""
"revaluation","283","1101511","0.0-4.0-10.0-0.4","spark_pilot_norest","11405","8","7","Female","","false","","","","","[476.09999999962747]","./assets/img/canyon/animals/lion.jpg","[""ArrowRight""]","second stage test","canyon","0","{""ArrowUp,ArrowLeft"":2,""ArrowUp,ArrowRight"":11,""ArrowDown,ArrowLeft"":8,""ArrowDown,ArrowRight"":27}","true","ArrowDown,ArrowRight","","revaluation","1","","","",""
"html-keyboard-response","284","1102012","0.0-4.0-10.0-1.4","spark_pilot_norest","11405","8","7","Female","","","","","","","null","<div style=""font-size:60px;"">+</div>","null","fixation","","","","","","","","","","","",""
"revaluation","285","1102360","0.0-4.0-10.0-0.5","spark_pilot_norest","11405","8","7","Female","","false","","","","","[344.59999999962747]","./assets/img/canyon/animals/lion.jpg","[""ArrowLeft""]","second stage test","canyon","0","{""ArrowUp,ArrowLeft"":2,""ArrowUp,ArrowRight"":11,""ArrowDown,ArrowLeft"":8,""ArrowDown,ArrowRight"":27}","false","ArrowDown,ArrowLeft","","revaluation","1","","","",""
"html-keyboard-response","286","1102861","0.0-4.0-10.0-1.5","spark_pilot_norest","11405","8","7","Female","","","","","","","null","<div style=""font-size:60px;"">+</div>","null","fixation","","","","","","","","","","","",""
"revaluation","287","1103262","0.0-4.0-10.0-0.6","spark_pilot_norest","11405","8","7","Female","","false","","","","","[398]","./assets/img/canyon/animals/lion.jpg","[""ArrowRight""]","second stage test","canyon","0","{""ArrowUp,ArrowLeft"":2,""ArrowUp,ArrowRight"":11,""ArrowDown,ArrowLeft"":8,""ArrowDown,ArrowRight"":27}","true","ArrowDown,ArrowRight","","revaluation","1","","","",""
"html-keyboard-response","288","1103763","0.0-4.0-10.0-1.6","spark_pilot_norest","11405","8","7","Female","","","","","","","null","<div style=""font-size:60px;"">+</div>","null","fixation","","","","","","","","","","","",""
"revaluation","289","1104137","0.0-4.0-10.0-0.7","spark_pilot_norest","11405","8","7","Female","","false","","","","","[370.59999999962747]","./assets/img/canyon/animals/lion.jpg","[""ArrowLeft""]","second stage test","canyon","0","{""ArrowUp,ArrowLeft"":2,""ArrowUp,ArrowRight"":11,""ArrowDown,ArrowLeft"":8,""ArrowDown,ArrowRight"":27}","false","ArrowDown,ArrowLeft","","revaluation","1","","","",""
"html-keyboard-response","290","1104638","0.0-4.0-10.0-1.7","spark_pilot_norest","11405","8","7","Female","","","","","","","null","<div style=""font-size:60px;"">+</div>","null","fixation","","","","","","","","","","","",""
"learning-instructions","291","1109557","0.0-4.0-0.1-0.2","spark_pilot_norest","11405","8","7","Female","","","","","","","2207.399999999907","<p> This time you are searching for treasure in the <b>ocean</b>.</p>","","instructions","","","","","","","","","","","",""
"learning-instructions","292","1129270","0.0-4.0-0.1-0.3","spark_pilot_norest","11405","8","7","Female","","","","","","","2453.600000000093","<p><b>New</b> animals with <b>new</b> treasure chests live here. You need to explore to discover where the animal with the best treasure chest is.</p>
                    <p> Like before, once you figure out which animal has the chest with the most treasure, you should try to get to that animal and select that chest! </p>","","instructions","","","","","","","","","","","",""
"learning-instructions","293","1145690","0.0-4.0-1.1-0.1","spark_pilot_norest","11405","8","7","Female","","","","","","","1689.3999999999069","<p> Remember, when you see a picture of the place, use the up and down keys to <b>find an animal</b>.</p>
            <p> When you encounter an animal, you should use the left and right keys to <b>select a treasure chest</b>.</p>
            <p> Don't forget to look out for the robber! </p>","","instructions","","","","","","","","","","","",""
"revaluation","294","1151695","0.0-4.0-2.1-0.50","spark_pilot_norest","11405","8","7","Female","","false","","","","","[1271.2999999998137,731.2000000001863]","./assets/img/ocean/memory/11.jpg","[""ArrowUp"",""ArrowRight""]","value training","ocean","10","{""ArrowUp,ArrowLeft"":23,""ArrowUp,ArrowRight"":10,""ArrowDown,ArrowLeft"":8,""ArrowDown,ArrowRight"":30}","false","ArrowUp,ArrowRight","false","original","2","0","","",""
"html-keyboard-response","295","1152196","0.0-4.0-2.1-1.50","spark_pilot_norest","11405","8","7","Female","","","","","","","null","<div style=""font-size:60px;"">+</div>","null","fixation","","","","","","","","","1","","",""
"revaluation","296","1156200","0.0-4.0-2.1-0.51","spark_pilot_norest","11405","8","7","Female","","false","","","","","[664.5]","./assets/img/ocean/catch/6.jpg","[""spaceBar""]","value training","ocean","0","{""ArrowUp,ArrowLeft"":23,""ArrowUp,ArrowRight"":10,""ArrowDown,ArrowLeft"":8,""ArrowDown,ArrowRight"":30}","true","spaceBar","true","original","2","2","","",""
"html-keyboard-response","297","1156701","0.0-4.0-2.1-1.51","spark_pilot_norest","11405","8","7","Female","","","","","","","null","<div style=""font-size:60px;"">+</div>","null","fixation","","","","","","","","","3","","",""
"revaluation","298","1162705","0.0-4.0-2.1-0.52","spark_pilot_norest","11405","8","7","Female","","false","","","","","[540.1000000000931,437.60000000009313]","./assets/img/ocean/memory/19.jpg","[""ArrowUp"",""ArrowLeft""]","value training","ocean","23","{""ArrowUp,ArrowLeft"":23,""ArrowUp,ArrowRight"":10,""ArrowDown,ArrowLeft"":8,""ArrowDown,ArrowRight"":30}","false","ArrowUp,ArrowLeft","false","original","2","4","","",""
"html-keyboard-response","299","1163206","0.0-4.0-2.1-1.52","spark_pilot_norest","11405","8","7","Female","","","","","","","null","<div style=""font-size:60px;"">+</div>","null","fixation","","","","","","","","","5","","",""
"revaluation","300","1169210","0.0-4.0-2.1-0.53","spark_pilot_norest","11405","8","7","Female","","false","","","","","[654.6000000000931,711.9000000003725]","./assets/img/ocean/memory/10.jpg","[""ArrowDown"",""ArrowLeft""]","value training","ocean","8","{""ArrowUp,ArrowLeft"":23,""ArrowUp,ArrowRight"":10,""ArrowDown,ArrowLeft"":8,""ArrowDown,ArrowRight"":30}","false","ArrowDown,ArrowLeft","false","original","2","6","","",""
"html-keyboard-response","301","1169711","0.0-4.0-2.1-1.53","spark_pilot_norest","11405","8","7","Female","","","","","","","null","<div style=""font-size:60px;"">+</div>","null","fixation","","","","","","","","","7","","",""
"revaluation","302","1175715","0.0-4.0-2.1-0.54","spark_pilot_norest","11405","8","7","Female","","false","","","","","[407.3000000002794,429.70000000018626]","./assets/img/ocean/memory/11.jpg","[""ArrowDown"",""ArrowRight""]","value training","ocean","30","{""ArrowUp,ArrowLeft"":23,""ArrowUp,ArrowRight"":10,""ArrowDown,ArrowLeft"":8,""ArrowDown,ArrowRight"":30}","true","ArrowDown,ArrowRight","false","original","2","8","","",""
"html-keyboard-response","303","1176216","0.0-4.0-2.1-1.54","spark_pilot_norest","11405","8","7","Female","","","","","","","null","<div style=""font-size:60px;"">+</div>","null","fixation","","","","","","","","","9","","",""
"revaluation","304","1182220","0.0-4.0-2.1-0.55","spark_pilot_norest","11405","8","7","Female","","false","","","","","[654.3999999999069,641.6999999997206]","./assets/img/ocean/memory/6.jpg","[""ArrowDown"",""ArrowRight""]","value training","ocean","30","{""ArrowUp,ArrowLeft"":23,""ArrowUp,ArrowRight"":10,""ArrowDown,ArrowLeft"":8,""ArrowDown,ArrowRight"":30}","true","ArrowDown,ArrowRight","false","original","2","10","","",""
"html-keyboard-response","305","1182722","0.0-4.0-2.1-1.55","spark_pilot_norest","11405","8","7","Female","","","","","","","null","<div style=""font-size:60px;"">+</div>","null","fixation","","","","","","","","","11","","",""
"revaluation","306","1188726","0.0-4.0-2.1-0.56","spark_pilot_norest","11405","8","7","Female","","false","","","","","[508.70000000018626,421.5]","./assets/img/ocean/memory/0.jpg","[""ArrowDown"",""ArrowRight""]","value training","ocean","30","{""ArrowUp,ArrowLeft"":23,""ArrowUp,ArrowRight"":10,""ArrowDown,ArrowLeft"":8,""ArrowDown,ArrowRight"":30}","true","ArrowDown,ArrowRight","false","original","2","12","","",""
"html-keyboard-response","307","1189227","0.0-4.0-2.1-1.56","spark_pilot_norest","11405","8","7","Female","","","","","","","null","<div style=""font-size:60px;"">+</div>","null","fixation","","","","","","","","","13","","",""
"revaluation","308","1195232","0.0-4.0-2.1-0.57","spark_pilot_norest","11405","8","7","Female","","false","","","","","[508.39999999990687,359.20000000018626]","./assets/img/ocean/memory/40.jpg","[""ArrowDown"",""ArrowRight""]","value training","ocean","30","{""ArrowUp,ArrowLeft"":23,""ArrowUp,ArrowRight"":10,""ArrowDown,ArrowLeft"":8,""ArrowDown,ArrowRight"":30}","true","ArrowDown,ArrowRight","false","original","2","14","","",""
"html-keyboard-response","309","1195733","0.0-4.0-2.1-1.57","spark_pilot_norest","11405","8","7","Female","","","","","","","null","<div style=""font-size:60px;"">+</div>","null","fixation","","","","","","","","","15","","",""
