"trial_type","trial_index","time_elapsed","internal_node_id","task_version","subject_id","assigned_condition","age","gender","success","timeout","failed_images","failed_audio","failed_video","browser_interaction","rt","stimulus","response","task_part","environment","score","rewardMap","correct","fullState","isCatch","condition","order","trial_num","key_press","ground_truth","bonus"
"pavlovia","0","1924","0.0-0.0","spark_pilot_norest","8175","4","11","Female","","","","","","","","","","","","","","","","","","","","","",""
"preload","1","23701","0.0-1.0","spark_pilot_norest","8175","4","11","Female","true","false","[]","[]","[]","[{""event"":""fullscreenenter"",""trial"":2,""time"":80670}]","","","","","","","","","","","","","","","",""
"fullscreen","2","81636","0.0-2.0","spark_pilot_norest","8175","4","11","Female","true","","","","","","","","","","","","","","","","","","","","",""
"audio-button-response","3","84991","0.0-3.0-0.0-0.0","spark_pilot_norest","8175","4","11","Female","","","","","","","3296","./assets/audio/audiotest/turtle.mp3","2","audio_test","","","","","","","","","","","",""
"learning-instructions","4","93860","0.0-3.0-1.0-0.0","spark_pilot_norest","8175","4","11","Female","","","","","","","1832.7999999988824","<p> Welcome! Please remember to stay in fullscreen mode and don't click away from the experiment. </p>","","instructions","","","","","","","","","","","",""
"learning-instructions","5","103993","0.0-3.0-1.0-0.1","spark_pilot_norest","8175","4","11","Female","","","","","","","1661.0999999996275","<p> Today you will be playing a game to earn treasure. </p>
            <p> At the end of the experiment, you will earn a bonus based on how much treasure you find. </p>
            <img src='./assets/img/instructions/treasure.jpg' class='instructions-image'>","","instructions","","","","","","","","","","","",""
"learning-instructions","6","113326","0.0-3.0-1.0-0.2","spark_pilot_norest","8175","4","11","Female","","","","","","","1008.2000000011176","<p> Animals have hidden treasure in treasure chests. </p>
            <p> You need to first find an animal and then choose which of their treasure chests to search. </p>
            <img src='./assets/img/space/animals/cat.jpg' class='instructions-image'>","","instructions","","","","","","","","","","","",""
"learning-instructions","7","127944","0.0-3.0-1.0-0.3","spark_pilot_norest","8175","4","11","Female","","","","","","","1356.5999999996275","<p> In each round, you will search for treasure in a different place. In the real game, there will be two rounds. </p>
            <p> You will begin with a separate, practice round where you will search for treasure in outer space. </p>
            <img src='./assets/img/space/0.jpg' class='instructions-image'>","","instructions","","","","","","","","","","","",""
"learning-instructions","8","140081","0.0-3.0-1.0-0.4","spark_pilot_norest","8175","4","11","Female","","","","","","","608.1000000014901","<p> On every turn, you will see a picture of the place that you are in, but the specific image may be different each time. </p>
            <p> For example, both of these images mean you are in outer space. </p>
            <img src='./assets/img/instructions/outerspace.jpg' class='instructions-image'>","","instructions","","","","","","","","","","","",""
"learning-instructions","9","149161","0.0-3.0-1.0-0.5","spark_pilot_norest","8175","4","11","Female","","","","","","","1176","<p> You need to decide which direction to travel in. </p>
            <p> You can choose between going <b>up or down</b> by using the arrow keys. </p>
            <img src='./assets/img/instructions/updown.jpg' class='instructions-image'>","","instructions","","","","","","","","","","","",""
"learning-instructions","10","159478","0.0-3.0-1.0-0.6","spark_pilot_norest","8175","4","11","Female","","","","","","","1422.9000000003725","<p> You will have <b>2 seconds</b> to make your choice. </p>
            <p> If you do not make a choice within 2 seconds, you will not find an animal or earn treasure. </p>
            <img src='./assets/img/instructions/2seconds.jpg' class='instructions-image'>","","instructions","","","","","","","","","","","",""
"learning-instructions","11","168205","0.0-3.0-1.0-0.7","spark_pilot_norest","8175","4","11","Female","","","","","","","1628.8999999985099","<p> Let’s try practicing that now! </p>
            <p> When you see a picture of the place you are in, press the <b>up</b> key to travel up. </p>
            <img src='./assets/img/instructions/pressUp.jpg' class='instructions-image'>","","instructions","","","","","","","","","","","",""
"revaluation","12","172253","0.0-3.0-2.0-0.0","spark_pilot_norest","8175","4","11","Female","","false","","","","","[743.7999999988824]","./assets/img/space/0.jpg","[""ArrowUp""]","first stage practice","space","0","null","null","ArrowUp","false","","","","","",""
"html-keyboard-response","13","172758","0.0-3.0-2.0-1.0","spark_pilot_norest","8175","4","11","Female","","","","","","","null","<div style=""font-size:60px;"">+</div>","null","fixation","","","","","","","","","","","",""
"revaluation","14","176776","0.0-3.0-2.0-0.1","spark_pilot_norest","8175","4","11","Female","","true","","","","","[]","./assets/img/space/1.jpg","[]","first stage practice","space","-5","null","null","","false","","","","","",""
"html-keyboard-response","15","177278","0.0-3.0-2.0-1.1","spark_pilot_norest","8175","4","11","Female","","","","","","","null","<div style=""font-size:60px;"">+</div>","null","fixation","","","","","","","","","","","",""
"revaluation","16","181293","0.0-3.0-2.0-0.2","spark_pilot_norest","8175","4","11","Female","","true","","","","","[]","./assets/img/space/2.jpg","[]","first stage practice","space","-5","null","null","","false","","","","","",""
"html-keyboard-response","17","181796","0.0-3.0-2.0-1.2","spark_pilot_norest","8175","4","11","Female","","","","","","","null","<div style=""font-size:60px;"">+</div>","null","fixation","","","","","","","","","","","",""
"learning-instructions","18","188284","0.0-3.0-3.0-0.0","spark_pilot_norest","8175","4","11","Female","","","","","","","1736.9000000003725","<p> Great job! Now try pressing the <b>down</b> key to travel down. </p>
            <img src='./assets/img/instructions/pressDown.jpg' class='instructions-image'>","","instructions","","","","","","","","","","","",""
"revaluation","19","192301","0.0-3.0-4.0-0.0","spark_pilot_norest","8175","4","11","Female","","true","","","","","[]","./assets/img/space/3.jpg","[]","first stage practice","space","-5","null","null","","false","","","","","",""
"html-keyboard-response","20","192804","0.0-3.0-4.0-1.0","spark_pilot_norest","8175","4","11","Female","","","","","","","null","<div style=""font-size:60px;"">+</div>","null","fixation","","","","","","","","","","","",""
"revaluation","21","196817","0.0-3.0-4.0-0.1","spark_pilot_norest","8175","4","11","Female","","false","","","","","[369.19999999925494]","./assets/img/space/4.jpg","[""ArrowDown""]","first stage practice","space","0","null","null","ArrowDown","false","","","","","",""
"html-keyboard-response","22","197320","0.0-3.0-4.0-1.1","spark_pilot_norest","8175","4","11","Female","","","","","","","null","<div style=""font-size:60px;"">+</div>","null","fixation","","","","","","","","","","","",""
"revaluation","23","201334","0.0-3.0-4.0-0.2","spark_pilot_norest","8175","4","11","Female","","false","","","","","[325.59999999962747]","./assets/img/space/5.jpg","[""ArrowDown""]","first stage practice","space","0","null","null","ArrowDown","false","","","","","",""
"html-keyboard-response","24","201838","0.0-3.0-4.0-1.2","spark_pilot_norest","8175","4","11","Female","","","","","","","null","<div style=""font-size:60px;"">+</div>","null","fixation","","","","","","","","","","","",""
"learning-instructions","25","212936","0.0-3.0-5.0-0.0","spark_pilot_norest","8175","4","11","Female","","","","","","","1165.2000000011176","<p> The animals don’t move, so the animal in the upper part of a place will stay in the upper part of a place, and the animal in the lower part of a place will stay in the lower part of a place. </p>","","instructions","","","","","","","","","","","",""
"learning-instructions","26","223094","0.0-3.0-5.0-0.1","spark_pilot_norest","8175","4","11","Female","","","","","","","944.7999999988824","<p> Each animal has two treasure chests for you to choose from. </p>
            <p> The amount of treasure in each chest can range from <b> 0 to 40 pieces.</b></p>","","instructions","","","","","","","","","","","",""
"learning-instructions","27","235436","0.0-3.0-5.0-0.2","spark_pilot_norest","8175","4","11","Female","","","","","","","1051.0999999996275","<p> You should decide which chest to search for treasure by using the <b>left</b> and <b>right</b> arrow keys. </p>
            <p><b> Pay attention to which animal is on the screen, as the animals have different treasure chests. </b></p>
            <img src='./assets/img/instructions/leftright.jpg' class='instructions-image'>","","instructions","","","","","","","","","","","",""
"learning-instructions","28","243054","0.0-3.0-5.0-0.3","spark_pilot_norest","8175","4","11","Female","","","","","","","1169.1000000014901","<p> Let’s try practicing that now. </p>
            <p> When you see an animal, choose which chest to search for treasure. </p>
            <img src='./assets/img/instructions/chooseChest.jpg' class='instructions-image'>","","instructions","","","","","","","","","","","",""
"revaluation","29","247075","0.0-3.0-6.0-0.0","spark_pilot_norest","8175","4","11","Female","","false","","","","","[1023.4000000003725]","./assets/img/space/animals/rabbit.jpg","[""ArrowRight""]","second stage practice","space","23","{""ArrowUp,ArrowLeft"":3,""ArrowUp,ArrowRight"":36,""ArrowDown,ArrowLeft"":15,""ArrowDown,ArrowRight"":23}","true","ArrowDown,ArrowRight","","","","","","",""
"html-keyboard-response","30","247578","0.0-3.0-6.0-1.0","spark_pilot_norest","8175","4","11","Female","","","","","","","null","<div style=""font-size:60px;"">+</div>","null","fixation","","","","","","","","","","","",""
"revaluation","31","251595","0.0-3.0-6.0-0.1","spark_pilot_norest","8175","4","11","Female","","false","","","","","[909.0999999996275]","./assets/img/space/animals/rabbit.jpg","[""ArrowLeft""]","second stage practice","space","15","{""ArrowUp,ArrowLeft"":3,""ArrowUp,ArrowRight"":36,""ArrowDown,ArrowLeft"":15,""ArrowDown,ArrowRight"":23}","false","ArrowDown,ArrowLeft","","","","","","",""
"html-keyboard-response","32","252100","0.0-3.0-6.0-1.1","spark_pilot_norest","8175","4","11","Female","","","","","","","null","<div style=""font-size:60px;"">+</div>","null","fixation","","","","","","","","","","","",""
"revaluation","33","256115","0.0-3.0-6.0-0.2","spark_pilot_norest","8175","4","11","Female","","false","","","","","[1192.5]","./assets/img/space/animals/cat.jpg","[""ArrowRight""]","second stage practice","space","36","{""ArrowUp,ArrowLeft"":3,""ArrowUp,ArrowRight"":36,""ArrowDown,ArrowLeft"":15,""ArrowDown,ArrowRight"":23}","true","ArrowUp,ArrowRight","","","","","","",""
"html-keyboard-response","34","256617","0.0-3.0-6.0-1.2","spark_pilot_norest","8175","4","11","Female","","","","","","","null","<div style=""font-size:60px;"">+</div>","null","fixation","","","","","","","","","","","",""
"revaluation","35","260635","0.0-3.0-6.0-0.3","spark_pilot_norest","8175","4","11","Female","","false","","","","","[348.30000000074506]","./assets/img/space/animals/cat.jpg","[""ArrowLeft""]","second stage practice","space","3","{""ArrowUp,ArrowLeft"":3,""ArrowUp,ArrowRight"":36,""ArrowDown,ArrowLeft"":15,""ArrowDown,ArrowRight"":23}","false","ArrowUp,ArrowLeft","","","","","","",""
"html-keyboard-response","36","261139","0.0-3.0-6.0-1.3","spark_pilot_norest","8175","4","11","Female","","","","","","","null","<div style=""font-size:60px;"">+</div>","null","fixation","","","","","","","","","","","",""
"learning-instructions","37","279124","0.0-3.0-7.0-0.0","spark_pilot_norest","8175","4","11","Female","","","","","","","1027.5","<p> Great job. Now let’s try putting it together. </p>
            <p> On each turn, you will first see a picture to remind you of the place you are in, and you need to choose whether to go up or down. </p>
            <p> Then you will see an animal and choose which of its chests to search for treasure. </p>","","instructions","","","","","","","","","","","",""
"learning-instructions","38","288217","0.0-3.0-7.0-0.1","spark_pilot_norest","8175","4","11","Female","","","","","","","764.8000000007451","<p> When you choose whether to go up or down, try to go to the animal with the chest with the most treasure. </p>
            <p> Try practicing that now! </p>","","instructions","","","","","","","","","","","",""
"revaluation","39","294228","0.0-3.0-8.0-0.0","spark_pilot_norest","8175","4","11","Female","","false","","","","","[625.5,539.1000000014901]","./assets/img/space/6.jpg","[""ArrowUp"",""ArrowRight""]","full practice","space","36","{""ArrowUp,ArrowLeft"":3,""ArrowUp,ArrowRight"":36,""ArrowDown,ArrowLeft"":15,""ArrowDown,ArrowRight"":23}","true","ArrowUp,ArrowRight","false","","","","","",""
"html-keyboard-response","40","294735","0.0-3.0-8.0-1.0","spark_pilot_norest","8175","4","11","Female","","","","","","","null","<div style=""font-size:60px;"">+</div>","null","fixation","","","","","","","","","","","",""
"revaluation","41","300752","0.0-3.0-8.0-0.1","spark_pilot_norest","8175","4","11","Female","","false","","","","","[431,515]","./assets/img/space/7.jpg","[""ArrowDown"",""ArrowRight""]","full practice","space","23","{""ArrowUp,ArrowLeft"":3,""ArrowUp,ArrowRight"":36,""ArrowDown,ArrowLeft"":15,""ArrowDown,ArrowRight"":23}","false","ArrowDown,ArrowRight","false","","","","","",""
"html-keyboard-response","42","301255","0.0-3.0-8.0-1.1","spark_pilot_norest","8175","4","11","Female","","","","","","","null","<div style=""font-size:60px;"">+</div>","null","fixation","","","","","","","","","","","",""
"revaluation","43","307275","0.0-3.0-8.0-0.2","spark_pilot_norest","8175","4","11","Female","","false","","","","","[1340.0999999996275,610.2999999988824]","./assets/img/space/8.jpg","[""ArrowDown"",""ArrowRight""]","full practice","space","23","{""ArrowUp,ArrowLeft"":3,""ArrowUp,ArrowRight"":36,""ArrowDown,ArrowLeft"":15,""ArrowDown,ArrowRight"":23}","false","ArrowDown,ArrowRight","false","","","","","",""
"html-keyboard-response","44","307779","0.0-3.0-8.0-1.2","spark_pilot_norest","8175","4","11","Female","","","","","","","null","<div style=""font-size:60px;"">+</div>","null","fixation","","","","","","","","","","","",""
"revaluation","45","313789","0.0-3.0-8.0-0.3","spark_pilot_norest","8175","4","11","Female","","false","","","","","[554.8000000007451,278.80000000074506]","./assets/img/space/9.jpg","[""ArrowUp"",""ArrowLeft""]","full practice","space","3","{""ArrowUp,ArrowLeft"":3,""ArrowUp,ArrowRight"":36,""ArrowDown,ArrowLeft"":15,""ArrowDown,ArrowRight"":23}","false","ArrowUp,ArrowLeft","false","","","","","",""
"html-keyboard-response","46","314293","0.0-3.0-8.0-1.3","spark_pilot_norest","8175","4","11","Female","","","","","","","null","<div style=""font-size:60px;"">+</div>","null","fixation","","","","","","","","","","","",""
"revaluation","47","320307","0.0-3.0-8.0-0.4","spark_pilot_norest","8175","4","11","Female","","false","","","","","[852,364.7999999988824]","./assets/img/space/10.jpg","[""ArrowDown"",""ArrowRight""]","full practice","space","23","{""ArrowUp,ArrowLeft"":3,""ArrowUp,ArrowRight"":36,""ArrowDown,ArrowLeft"":15,""ArrowDown,ArrowRight"":23}","false","ArrowDown,ArrowRight","false","","","","","",""
"html-keyboard-response","48","320811","0.0-3.0-8.0-1.4","spark_pilot_norest","8175","4","11","Female","","","","","","","null","<div style=""font-size:60px;"">+</div>","null","fixation","","","","","","","","","","","",""
"learning-instructions","49","332375","0.0-3.0-9.0-0.0","spark_pilot_norest","8175","4","11","Female","","","","","","","1178.6000000014901","<p> One last thing: sometimes, you will see a robber. The robber can be anywhere in the picture. </p>
            <p> If you do not stop them, you will lose treasure. </p>
            <img src='./assets/img/instructions/robber.jpg' class='instructions-image'>","","instructions","","","","","","","","","","","",""
"learning-instructions","50","340898","0.0-3.0-9.0-0.1","spark_pilot_norest","8175","4","11","Female","","","","","","","1278.4000000003725","<p> If you see the robber, you should <b>press the space bar</b> rather than using the arrow keys. </p>
            <p> Try practicing that now! </p>","","instructions","","","","","","","","","","","",""
"revaluation","51","344908","0.0-3.0-10.0-0.0","spark_pilot_norest","8175","4","11","Female","","false","","","","","[517]","./assets/img/space/catch/0.jpg","[""spaceBar""]","catch practice","space","0","{""ArrowUp,ArrowLeft"":3,""ArrowUp,ArrowRight"":36,""ArrowDown,ArrowLeft"":15,""ArrowDown,ArrowRight"":23}","true","spaceBar","true","","","","","",""
"html-keyboard-response","52","345411","0.0-3.0-10.0-1.0","spark_pilot_norest","8175","4","11","Female","","","","","","","null","<div style=""font-size:60px;"">+</div>","null","fixation","","","","","","","","","","","",""
"revaluation","53","349431","0.0-3.0-10.0-0.1","spark_pilot_norest","8175","4","11","Female","","false","","","","","[345.40000000037253]","./assets/img/space/catch/1.jpg","[""spaceBar""]","catch practice","space","0","{""ArrowUp,ArrowLeft"":3,""ArrowUp,ArrowRight"":36,""ArrowDown,ArrowLeft"":15,""ArrowDown,ArrowRight"":23}","true","spaceBar","true","","","","","",""
"html-keyboard-response","54","349934","0.0-3.0-10.0-1.1","spark_pilot_norest","8175","4","11","Female","","","","","","","null","<div style=""font-size:60px;"">+</div>","null","fixation","","","","","","","","","","","",""
"revaluation","55","353951","0.0-3.0-10.0-0.2","spark_pilot_norest","8175","4","11","Female","","false","","","","","[1124.8999999985099]","./assets/img/space/catch/2.jpg","[""spaceBar""]","catch practice","space","0","{""ArrowUp,ArrowLeft"":3,""ArrowUp,ArrowRight"":36,""ArrowDown,ArrowLeft"":15,""ArrowDown,ArrowRight"":23}","true","spaceBar","true","","","","","",""
"html-keyboard-response","56","354456","0.0-3.0-10.0-1.2","spark_pilot_norest","8175","4","11","Female","","","","","","","null","<div style=""font-size:60px;"">+</div>","null","fixation","","","","","","","","","","","",""
"learning-instructions","57","360755","0.0-3.0-11.0-0.0-0.0","spark_pilot_norest","8175","4","11","Female","","","","","","","944.4000000003725","<p> Now, you will practice a shortened version of the game to get a sense of how it all fits together. </p>","","instructions","","","","","","","","","","","",""
"learning-instructions","58","366428","0.0-3.0-11.0-0.0-0.1","spark_pilot_norest","8175","4","11","Female","","","","","","","2403.300000000745","<p>This time you are searching for treasure in outer space.</p>","","instructions","","","","","","","","","","","",""
"learning-instructions","59","386326","0.0-3.0-11.0-1.0-0.0","spark_pilot_norest","8175","4","11","Female","","","","","","","5020.699999999255","<p> Remember, when you see a picture of the place, use the up and down keys to <b>find an animal</b>.</p>
            <p> When you encounter an animal, you should use the left and right keys to <b>select a treasure chest</b>.</p>
            <p> Don't forget to look out for the robber! </p>","","instructions","","","","","","","","","","","",""
"revaluation","60","392337","0.0-3.0-11.0-2.0-0.0","spark_pilot_norest","8175","4","11","Female","","false","","","","","[1204.5,1664.699999999255]","./assets/img/space/11.jpg","[""ArrowUp"",""ArrowRight""]","practice block","space","36","{""ArrowUp,ArrowLeft"":3,""ArrowUp,ArrowRight"":36,""ArrowDown,ArrowLeft"":15,""ArrowDown,ArrowRight"":23}","true","ArrowUp,ArrowRight","false","","","","","",""
"html-keyboard-response","61","392840","0.0-3.0-11.0-2.0-1.0","spark_pilot_norest","8175","4","11","Female","","","","","","","null","<div style=""font-size:60px;"">+</div>","null","fixation","","","","","","","","","","","",""
"revaluation","62","396857","0.0-3.0-11.0-2.0-0.1","spark_pilot_norest","8175","4","11","Female","","true","","","","","[]","./assets/img/space/12.jpg","[]","practice block","space","-5","{""ArrowUp,ArrowLeft"":3,""ArrowUp,ArrowRight"":36,""ArrowDown,ArrowLeft"":15,""ArrowDown,ArrowRight"":23}","false","","false","","","","","",""
"html-keyboard-response","63","397361","0.0-3.0-11.0-2.0-1.1","spark_pilot_norest","8175","4","11","Female","","","","","","","null","<div style=""font-size:60px;"">+</div>","null","fixation","","","","","","","","","","","",""
"revaluation","64","403378","0.0-3.0-11.0-2.0-0.2","spark_pilot_norest","8175","4","11","Female","","false","","","","","[684.8000000007451,588.0999999996275]","./assets/img/space/13.jpg","[""ArrowDown"",""ArrowRight""]","practice block","space","23","{""ArrowUp,ArrowLeft"":3,""ArrowUp,ArrowRight"":36,""ArrowDown,ArrowLeft"":15,""ArrowDown,ArrowRight"":23}","false","ArrowDown,ArrowRight","false","","","","","",""
"html-keyboard-response","65","403881","0.0-3.0-11.0-2.0-1.2","spark_pilot_norest","8175","4","11","Female","","","","","","","null","<div style=""font-size:60px;"">+</div>","null","fixation","","","","","","","","","","","",""
"revaluation","66","409892","0.0-3.0-11.0-2.0-0.3","spark_pilot_norest","8175","4","11","Female","","false","","","","","[1383.0999999996275,688.0999999996275]","./assets/img/space/14.jpg","[""ArrowDown"",""ArrowRight""]","practice block","space","23","{""ArrowUp,ArrowLeft"":3,""ArrowUp,ArrowRight"":36,""ArrowDown,ArrowLeft"":15,""ArrowDown,ArrowRight"":23}","false","ArrowDown,ArrowRight","false","","","","","",""
"html-keyboard-response","67","410396","0.0-3.0-11.0-2.0-1.3","spark_pilot_norest","8175","4","11","Female","","","","","","","null","<div style=""font-size:60px;"">+</div>","null","fixation","","","","","","","","","","","",""
"revaluation","68","416417","0.0-3.0-11.0-2.0-0.4","spark_pilot_norest","8175","4","11","Female","","false","","","","","[882,706.7999999988824]","./assets/img/space/11.jpg","[""ArrowUp"",""ArrowRight""]","practice block","space","36","{""ArrowUp,ArrowLeft"":3,""ArrowUp,ArrowRight"":36,""ArrowDown,ArrowLeft"":15,""ArrowDown,ArrowRight"":23}","true","ArrowUp,ArrowRight","false","","","","","",""
"html-keyboard-response","69","416920","0.0-3.0-11.0-2.0-1.4","spark_pilot_norest","8175","4","11","Female","","","","","","","null","<div style=""font-size:60px;"">+</div>","null","fixation","","","","","","","","","","","",""
"revaluation","70","422935","0.0-3.0-11.0-2.0-0.5","spark_pilot_norest","8175","4","11","Female","","false","","","","","[704.0999999996275,394]","./assets/img/space/12.jpg","[""ArrowDown"",""ArrowLeft""]","practice block","space","15","{""ArrowUp,ArrowLeft"":3,""ArrowUp,ArrowRight"":36,""ArrowDown,ArrowLeft"":15,""ArrowDown,ArrowRight"":23}","false","ArrowDown,ArrowLeft","false","","","","","",""
"html-keyboard-response","71","423437","0.0-3.0-11.0-2.0-1.5","spark_pilot_norest","8175","4","11","Female","","","","","","","null","<div style=""font-size:60px;"">+</div>","null","fixation","","","","","","","","","","","",""
"revaluation","72","429447","0.0-3.0-11.0-2.0-0.6","spark_pilot_norest","8175","4","11","Female","","false","","","","","[763.6000000014901,1066.0999999996275]","./assets/img/space/13.jpg","[""ArrowUp"",""ArrowLeft""]","practice block","space","3","{""ArrowUp,ArrowLeft"":3,""ArrowUp,ArrowRight"":36,""ArrowDown,ArrowLeft"":15,""ArrowDown,ArrowRight"":23}","false","ArrowUp,ArrowLeft","false","","","","","",""
"html-keyboard-response","73","429950","0.0-3.0-11.0-2.0-1.6","spark_pilot_norest","8175","4","11","Female","","","","","","","null","<div style=""font-size:60px;"">+</div>","null","fixation","","","","","","","","","","","",""
"revaluation","74","435965","0.0-3.0-11.0-2.0-0.7","spark_pilot_norest","8175","4","11","Female","","false","","","","","[978,340.59999999962747]","./assets/img/space/14.jpg","[""ArrowDown"",""ArrowRight""]","practice block","space","23","{""ArrowUp,ArrowLeft"":3,""ArrowUp,ArrowRight"":36,""ArrowDown,ArrowLeft"":15,""ArrowDown,ArrowRight"":23}","false","ArrowDown,ArrowRight","false","","","","","",""
"html-keyboard-response","75","436469","0.0-3.0-11.0-2.0-1.7","spark_pilot_norest","8175","4","11","Female","","","","","","","null","<div style=""font-size:60px;"">+</div>","null","fixation","","","","","","","","","","","",""
"revaluation","76","440480","0.0-3.0-11.0-2.0-0.8","spark_pilot_norest","8175","4","11","Female","","false","","","","","[783.8000000007451]","./assets/img/space/catch/3.jpg","[""spaceBar""]","practice block","space","0","{""ArrowUp,ArrowLeft"":3,""ArrowUp,ArrowRight"":36,""ArrowDown,ArrowLeft"":15,""ArrowDown,ArrowRight"":23}","true","spaceBar","true","","","","","",""
"html-keyboard-response","77","440983","0.0-3.0-11.0-2.0-1.8","spark_pilot_norest","8175","4","11","Female","","","","","","","null","<div style=""font-size:60px;"">+</div>","null","fixation","","","","","","","","","","","",""
"learning-instructions","78","456513","0.0-3.0-11.0-3.0-0.0","spark_pilot_norest","8175","4","11","Female","","","","","","","2494.4000000003725","<p> Now, you will travel with a friend who will choose whether you go up or down first. </p>
            <p> On these turns, you will just see the animal that they found. You will still get to choose which chest to search for treasure.</p>","","instructions","","","","","","","","","","","",""
"revaluation","79","460529","0.0-3.0-11.0-4.0-0.0","spark_pilot_norest","8175","4","11","Female","","false","","","","","[645.1999999992549]","./assets/img/space/animals/cat.jpg","[""ArrowRight""]","practice block","space","36","{""ArrowUp,ArrowLeft"":3,""ArrowUp,ArrowRight"":36,""ArrowDown,ArrowLeft"":15,""ArrowDown,ArrowRight"":23}","true","ArrowUp,ArrowRight","","","","","","",""
"html-keyboard-response","80","461037","0.0-3.0-11.0-4.0-1.0","spark_pilot_norest","8175","4","11","Female","","","","","","","null","<div style=""font-size:60px;"">+</div>","null","fixation","","","","","","","","","","","",""
"revaluation","81","465056","0.0-3.0-11.0-4.0-0.1","spark_pilot_norest","8175","4","11","Female","","false","","","","","[466.5]","./assets/img/space/animals/cat.jpg","[""ArrowRight""]","practice block","space","36","{""ArrowUp,ArrowLeft"":3,""ArrowUp,ArrowRight"":36,""ArrowDown,ArrowLeft"":15,""ArrowDown,ArrowRight"":23}","true","ArrowUp,ArrowRight","","","","","","",""
"html-keyboard-response","82","465559","0.0-3.0-11.0-4.0-1.1","spark_pilot_norest","8175","4","11","Female","","","","","","","null","<div style=""font-size:60px;"">+</div>","null","fixation","","","","","","","","","","","",""
"revaluation","83","469577","0.0-3.0-11.0-4.0-0.2","spark_pilot_norest","8175","4","11","Female","","false","","","","","[380.80000000074506]","./assets/img/space/animals/rabbit.jpg","[""ArrowRight""]","practice block","space","23","{""ArrowUp,ArrowLeft"":3,""ArrowUp,ArrowRight"":36,""ArrowDown,ArrowLeft"":15,""ArrowDown,ArrowRight"":23}","true","ArrowDown,ArrowRight","","","","","","",""
"html-keyboard-response","84","470082","0.0-3.0-11.0-4.0-1.2","spark_pilot_norest","8175","4","11","Female","","","","","","","null","<div style=""font-size:60px;"">+</div>","null","fixation","","","","","","","","","","","",""
"revaluation","85","474102","0.0-3.0-11.0-4.0-0.3","spark_pilot_norest","8175","4","11","Female","","false","","","","","[1333.5999999996275]","./assets/img/space/animals/rabbit.jpg","[""ArrowLeft""]","practice block","space","15","{""ArrowUp,ArrowLeft"":3,""ArrowUp,ArrowRight"":36,""ArrowDown,ArrowLeft"":15,""ArrowDown,ArrowRight"":23}","false","ArrowDown,ArrowLeft","","","","","","",""
"html-keyboard-response","86","474606","0.0-3.0-11.0-4.0-1.3","spark_pilot_norest","8175","4","11","Female","","","","","","","null","<div style=""font-size:60px;"">+</div>","null","fixation","","","","","","","","","","","",""
"learning-instructions","87","482808","0.0-3.0-11.0-5.0-0.0","spark_pilot_norest","8175","4","11","Female","","","","","","","null","<p> You have almost finished this part of the game! </p>
            <p> We are going to ask you to make a few more choices. </p>","","instructions","","","","","","","","","","","",""
"learning-instructions","88","498937","0.0-3.0-11.0-5.0-0.1","spark_pilot_norest","8175","4","11","Female","","","","","","","null","<p> First, you need to decide whether to go up or down. When you see each picture, use the arrow keys to make your choice. </p>
            <p><b>You will not see which animal you found, but try to get to the one that will give you the most treasure.</b></p>","","instructions","","","","","","","","","","","",""
"html-keyboard-response","89","499943","0.0-3.0-11.0-6.0-0.0","spark_pilot_norest","8175","4","11","Female","","","","","","","null","<div style=""font-size:100px;color:red;"">Starting in...</div>","null","","","","","","","","","","","","",""
"html-keyboard-response","90","500947","0.0-3.0-11.0-6.0-1.0","spark_pilot_norest","8175","4","11","Female","","","","","","","null","<div style=""font-size:200px;color:red;"">3</div>","null","","","","","","","","","","","","",""
"html-keyboard-response","91","501949","0.0-3.0-11.0-6.0-2.0","spark_pilot_norest","8175","4","11","Female","","","","","","","null","<div style=""font-size:200px;color:red;"">2</div>","null","","","","","","","","","","","","",""
"html-keyboard-response","92","502952","0.0-3.0-11.0-6.0-3.0","spark_pilot_norest","8175","4","11","Female","","","","","","","null","<div style=""font-size:200px;color:red;"">1</div>","null","","","","","","","","","","","","",""
"revaluation","93","503586","0.0-3.0-11.0-7.0","spark_pilot_norest","8175","4","11","Female","","false","","","","","[619.4000000003725]","./assets/img/space/15.jpg","[""ArrowUp""]","practice block","space","0","{""ArrowUp,ArrowLeft"":3,""ArrowUp,ArrowRight"":36,""ArrowDown,ArrowLeft"":15,""ArrowDown,ArrowRight"":23}","true","ArrowUp","false","","","","","",""
"html-keyboard-response","94","504091","0.0-3.0-11.0-8.0","spark_pilot_norest","8175","4","11","Female","","","","","","","null","<div style=""font-size:60px;"">+</div>","null","fixation","","","","","","","","","","","",""
"learning-instructions","95","517572","0.0-3.0-11.0-9.0-0.0","spark_pilot_norest","8175","4","11","Female","","","","","","","null","<p> Now you will see the animals again and can search their chests for treasure. </p>
            <p> This time, you will not see how much treasure you earned, but you will earn more bonus money for making better choices. </p>","","instructions","","","","","","","","","","","",""
"html-keyboard-response","96","518575","0.0-3.0-11.0-10.0-0.0","spark_pilot_norest","8175","4","11","Female","","","","","","","null","<div style=""font-size:100px;color:red;"">Starting in...</div>","null","","","","","","","","","","","","",""
"html-keyboard-response","97","519578","0.0-3.0-11.0-10.0-1.0","spark_pilot_norest","8175","4","11","Female","","","","","","","null","<div style=""font-size:200px;color:red;"">3</div>","null","","","","","","","","","","","","",""
"html-keyboard-response","98","520580","0.0-3.0-11.0-10.0-2.0","spark_pilot_norest","8175","4","11","Female","","","","","","","null","<div style=""font-size:200px;color:red;"">2</div>","null","","","","","","","","","","","","",""
"html-keyboard-response","99","521583","0.0-3.0-11.0-10.0-3.0","spark_pilot_norest","8175","4","11","Female","","","","","","","null","<div style=""font-size:200px;color:red;"">1</div>","null","","","","","","","","","","","","",""
"revaluation","100","522397","0.0-3.0-11.0-11.0-0.0","spark_pilot_norest","8175","4","11","Female","","false","","","","","[797.1000000014901]","./assets/img/space/animals/cat.jpg","[""ArrowRight""]","practice block","space","0","{""ArrowUp,ArrowLeft"":3,""ArrowUp,ArrowRight"":36,""ArrowDown,ArrowLeft"":15,""ArrowDown,ArrowRight"":23}","true","ArrowUp,ArrowRight","","","","","","",""
"html-keyboard-response","101","522900","0.0-3.0-11.0-11.0-1.0","spark_pilot_norest","8175","4","11","Female","","","","","","","null","<div style=""font-size:60px;"">+</div>","null","fixation","","","","","","","","","","","",""
"revaluation","102","523499","0.0-3.0-11.0-11.0-0.1","spark_pilot_norest","8175","4","11","Female","","false","","","","","[583.1999999992549]","./assets/img/space/animals/rabbit.jpg","[""ArrowRight""]","practice block","space","0","{""ArrowUp,ArrowLeft"":3,""ArrowUp,ArrowRight"":36,""ArrowDown,ArrowLeft"":15,""ArrowDown,ArrowRight"":23}","true","ArrowDown,ArrowRight","","","","","","",""
"html-keyboard-response","103","524003","0.0-3.0-11.0-11.0-1.1","spark_pilot_norest","8175","4","11","Female","","","","","","","null","<div style=""font-size:60px;"">+</div>","null","fixation","","","","","","","","","","","",""
"learning-instructions","104","531978","0.0-3.0-12.0-0.0","spark_pilot_norest","8175","4","11","Female","","","","","","","3316.5","<p> Before you start, we're going to ask you a few questions about how the game works. </p>","","instructions","","","","","","","","","","","",""
"comp-q","105","538632","0.0-3.0-13.0-0.0-0.0","spark_pilot_norest","8175","4","11","Female","","","","","","","977.7000000011176","<p> <b> True or False? </b> </p>
            <p> There can be 50 pieces of treasure in a given animal's chest. </p>","1","comp_question","","","","true","","","","","","","",""
"comp-q","106","546160","0.0-3.0-13.0-0.0-1.0","spark_pilot_norest","8175","4","11","Female","","","","","","","783.7000000011176","<p> <b> That's right! </b> The amount of treasure in each chest can range from 0 to 40 pieces. </p>","0","comp_answer","","","","","","","","","","","",""
"comp-q","107","554952","0.0-3.0-13.0-0.1-0.1","spark_pilot_norest","8175","4","11","Female","","","","","","","1583.2999999988824","<p> <b> True or False? </b> </p><p> In this game, all animals have the same amount of treasure in their left and right chests. </p>","1","comp_question","","","","true","","","","","","","",""
"comp-q","108","561230","0.0-3.0-13.0-0.1-1.1","spark_pilot_norest","8175","4","11","Female","","","","","","","972.6999999992549","<p> <b> That's right! </b> Animals have different amounts of treasure in their treasure chests. </p>","0","comp_answer","","","","","","","","","","","",""
"comp-q","109","569547","0.0-3.0-13.0-0.2-0.2","spark_pilot_norest","8175","4","11","Female","","","","","","","2399.60000000149","<p> <b> True or False? </b> </p><p> The same animal will always be there if you go up in the same place. </p>","0","comp_question","","","","true","","","","","","","",""
"comp-q","110","576972","0.0-3.0-13.0-0.2-1.2","spark_pilot_norest","8175","4","11","Female","","","","","","","896.5","<p> <b> That's right! </b> One animal lives in the upper part and one lives in the lower part of every place. </p>","0","comp_answer","","","","","","","","","","","",""
"comp-q","111","583200","0.0-3.0-13.0-0.3-0.3","spark_pilot_norest","8175","4","11","Female","","","","","","","624","<p> <b> True or False? </b> </p><p> If you see a different picture, it means you are in a new place. </p>","0","comp_question","","","","false","","","","","","","",""
"comp-q","112","595188","0.0-3.0-13.0-0.3-1.3","spark_pilot_norest","8175","4","11","Female","","","","","","","787.5999999996275","<p> <b>Incorrect.</b> Lots of different images may show the same place. For example,  you may see three different images that all remind you that you are in outer space. </p>","0","comp_answer","","","","","","","","","","","",""
"comp-q","113","601522","0.0-3.0-13.0-0.4-0.4","spark_pilot_norest","8175","4","11","Female","","","","","","","826.9000000003725","<p> <b> True or False? </b> </p><p> If you see a different picture, it means you are in a new place. </p>","1","comp_question","","","","true","","","","","","","",""
"comp-q","114","613901","0.0-3.0-13.0-0.4-1.4","spark_pilot_norest","8175","4","11","Female","","","","","","","1033","<p> <b> That's right! </b> Lots of different images may show the same place. For example,  you may see three different images that all remind you that you are in outer space. </p>","0","comp_answer","","","","","","","","","","","",""
"learning-instructions","115","626660","0.0-3.0-14.0-0.0","spark_pilot_norest","8175","4","11","Female","","","","","","","2809.800000000745","<p> Good job. Remember to do your best because the amount of treasure you earn will be converted into bonus money. </p>
            <p> It’s time to start the real game! </p>","","instructions","","","","","","","","","","","",""
"learning-instructions","116","630888","0.0-4.0-0.0-0.0","spark_pilot_norest","8175","4","11","Female","","","","","","","1445.699999999255","<p> This time you are searching for treasure in the <b>ocean</b>.</p>","","instructions","","","","","","","","","","","",""
"learning-instructions","117","649657","0.0-4.0-0.0-0.1","spark_pilot_norest","8175","4","11","Female","","","","","","","1315.0999999996275","<p><b>New</b> animals with <b>new</b> treasure chests live here. You need to explore to discover where the animal with the best treasure chest is.</p>
                    <p> Like before, once you figure out which animal has the chest with the most treasure, you should try to get to that animal and select that chest! </p>","","instructions","","","","","","","","","","","",""
"learning-instructions","118","665239","0.0-4.0-1.0-0.0","spark_pilot_norest","8175","4","11","Female","","","","","","","841.1999999992549","<p> Remember, when you see a picture of the place, use the up and down keys to <b>find an animal</b>.</p>
            <p> When you encounter an animal, you should use the left and right keys to <b>select a treasure chest</b>.</p>
            <p> Don't forget to look out for the robber! </p>","","instructions","","","","","","","","","","","",""
"revaluation","119","671253","0.0-4.0-2.0-0.0","spark_pilot_norest","8175","4","11","Female","","false","","","","","[836.5,713.2999999988824]","./assets/img/ocean/memory/14.jpg","[""ArrowUp"",""ArrowRight""]","value training","ocean","10","{""ArrowUp,ArrowLeft"":26,""ArrowUp,ArrowRight"":10,""ArrowDown,ArrowLeft"":5,""ArrowDown,ArrowRight"":17}","false","ArrowUp,ArrowRight","false","revaluation","1","0","","",""
"html-keyboard-response","120","671769","0.0-4.0-2.0-1.0","spark_pilot_norest","8175","4","11","Female","","","","","","","null","<div style=""font-size:60px;"">+</div>","null","fixation","","","","","","","","","1","","",""
"revaluation","121","675781","0.0-4.0-2.0-0.1","spark_pilot_norest","8175","4","11","Female","","false","","","","","[358.7999999988824]","./assets/img/ocean/catch/1.jpg","[""ArrowUp""]","value training","ocean","-10","{""ArrowUp,ArrowLeft"":26,""ArrowUp,ArrowRight"":10,""ArrowDown,ArrowLeft"":5,""ArrowDown,ArrowRight"":17}","false","ArrowUp","true","revaluation","1","2","","",""
"html-keyboard-response","122","676285","0.0-4.0-2.0-1.1","spark_pilot_norest","8175","4","11","Female","","","","","","","null","<div style=""font-size:60px;"">+</div>","null","fixation","","","","","","","","","3","","",""
"revaluation","123","682294","0.0-4.0-2.0-0.2","spark_pilot_norest","8175","4","11","Female","","false","","","","","[834.8999999985099,1129.6000000014901]","./assets/img/ocean/memory/3.jpg","[""ArrowDown"",""ArrowLeft""]","value training","ocean","5","{""ArrowUp,ArrowLeft"":26,""ArrowUp,ArrowRight"":10,""ArrowDown,ArrowLeft"":5,""ArrowDown,ArrowRight"":17}","false","ArrowDown,ArrowLeft","false","revaluation","1","4","","",""
"html-keyboard-response","124","682800","0.0-4.0-2.0-1.2","spark_pilot_norest","8175","4","11","Female","","","","","","","null","<div style=""font-size:60px;"">+</div>","null","fixation","","","","","","","","","5","","",""
"revaluation","125","686816","0.0-4.0-2.0-0.3","spark_pilot_norest","8175","4","11","Female","","true","","","","","[]","./assets/img/ocean/memory/20.jpg","[]","value training","ocean","-5","{""ArrowUp,ArrowLeft"":26,""ArrowUp,ArrowRight"":10,""ArrowDown,ArrowLeft"":5,""ArrowDown,ArrowRight"":17}","false","","false","revaluation","1","6","","",""
"html-keyboard-response","126","687323","0.0-4.0-2.0-1.3","spark_pilot_norest","8175","4","11","Female","","","","","","","null","<div style=""font-size:60px;"">+</div>","null","fixation","","","","","","","","","7","","",""
"revaluation","127","693341","0.0-4.0-2.0-0.4","spark_pilot_norest","8175","4","11","Female","","false","","","","","[1000.0999999996275,560.1999999992549]","./assets/img/ocean/memory/23.jpg","[""ArrowDown"",""ArrowRight""]","value training","ocean","17","{""ArrowUp,ArrowLeft"":26,""ArrowUp,ArrowRight"":10,""ArrowDown,ArrowLeft"":5,""ArrowDown,ArrowRight"":17}","false","ArrowDown,ArrowRight","false","revaluation","1","8","","",""
"html-keyboard-response","128","693851","0.0-4.0-2.0-1.4","spark_pilot_norest","8175","4","11","Female","","","","","","","null","<div style=""font-size:60px;"">+</div>","null","fixation","","","","","","","","","9","","",""
"revaluation","129","699872","0.0-4.0-2.0-0.5","spark_pilot_norest","8175","4","11","Female","","false","","","","","[705.3000000007451,522.8000000007451]","./assets/img/ocean/memory/28.jpg","[""ArrowUp"",""ArrowRight""]","value training","ocean","10","{""ArrowUp,ArrowLeft"":26,""ArrowUp,ArrowRight"":10,""ArrowDown,ArrowLeft"":5,""ArrowDown,ArrowRight"":17}","false","ArrowUp,ArrowRight","false","revaluation","1","10","","",""
"html-keyboard-response","130","700380","0.0-4.0-2.0-1.5","spark_pilot_norest","8175","4","11","Female","","","","","","","null","<div style=""font-size:60px;"">+</div>","null","fixation","","","","","","","","","11","","",""
"revaluation","131","704405","0.0-4.0-2.0-0.6","spark_pilot_norest","8175","4","11","Female","","false","","","","","[579.6000000014901]","./assets/img/ocean/catch/6.jpg","[""spaceBar""]","value training","ocean","0","{""ArrowUp,ArrowLeft"":26,""ArrowUp,ArrowRight"":10,""ArrowDown,ArrowLeft"":5,""ArrowDown,ArrowRight"":17}","true","spaceBar","true","revaluation","1","12","","",""
"html-keyboard-response","132","704912","0.0-4.0-2.0-1.6","spark_pilot_norest","8175","4","11","Female","","","","","","","null","<div style=""font-size:60px;"">+</div>","null","fixation","","","","","","","","","13","","",""
"revaluation","133","710930","0.0-4.0-2.0-0.7","spark_pilot_norest","8175","4","11","Female","","false","","","","","[444.80000000074506,566.4000000003725]","./assets/img/ocean/memory/6.jpg","[""ArrowDown"",""ArrowRight""]","value training","ocean","17","{""ArrowUp,ArrowLeft"":26,""ArrowUp,ArrowRight"":10,""ArrowDown,ArrowLeft"":5,""ArrowDown,ArrowRight"":17}","false","ArrowDown,ArrowRight","false","revaluation","1","14","","",""
"html-keyboard-response","134","711433","0.0-4.0-2.0-1.7","spark_pilot_norest","8175","4","11","Female","","","","","","","null","<div style=""font-size:60px;"">+</div>","null","fixation","","","","","","","","","15","","",""
"revaluation","135","715445","0.0-4.0-2.0-0.8","spark_pilot_norest","8175","4","11","Female","","true","","","","","[]","./assets/img/ocean/memory/13.jpg","[]","value training","ocean","-5","{""ArrowUp,ArrowLeft"":26,""ArrowUp,ArrowRight"":10,""ArrowDown,ArrowLeft"":5,""ArrowDown,ArrowRight"":17}","false","","false","revaluation","1","16","","",""
"html-keyboard-response","136","715953","0.0-4.0-2.0-1.8","spark_pilot_norest","8175","4","11","Female","","","","","","","null","<div style=""font-size:60px;"">+</div>","null","fixation","","","","","","","","","17","","",""
"revaluation","137","719973","0.0-4.0-2.0-0.9","spark_pilot_norest","8175","4","11","Female","","false","","","","","[658.1000000014901]","./assets/img/ocean/catch/2.jpg","[""spaceBar""]","value training","ocean","0","{""ArrowUp,ArrowLeft"":26,""ArrowUp,ArrowRight"":10,""ArrowDown,ArrowLeft"":5,""ArrowDown,ArrowRight"":17}","true","spaceBar","true","revaluation","1","18","","",""
"html-keyboard-response","138","720479","0.0-4.0-2.0-1.9","spark_pilot_norest","8175","4","11","Female","","","","","","","null","<div style=""font-size:60px;"">+</div>","null","fixation","","","","","","","","","19","","",""
"revaluation","139","726502","0.0-4.0-2.0-0.10","spark_pilot_norest","8175","4","11","Female","","false","","","","","[462,363.5]","./assets/img/ocean/memory/2.jpg","[""ArrowUp"",""ArrowRight""]","value training","ocean","10","{""ArrowUp,ArrowLeft"":26,""ArrowUp,ArrowRight"":10,""ArrowDown,ArrowLeft"":5,""ArrowDown,ArrowRight"":17}","false","ArrowUp,ArrowRight","false","revaluation","1","20","","",""
"html-keyboard-response","140","727010","0.0-4.0-2.0-1.10","spark_pilot_norest","8175","4","11","Female","","","","","","","null","<div style=""font-size:60px;"">+</div>","null","fixation","","","","","","","","","21","","",""
"revaluation","141","733033","0.0-4.0-2.0-0.11","spark_pilot_norest","8175","4","11","Female","","false","","","","","[594.4000000003725,642.6000000014901]","./assets/img/ocean/memory/21.jpg","[""ArrowUp"",""ArrowLeft""]","value training","ocean","26","{""ArrowUp,ArrowLeft"":26,""ArrowUp,ArrowRight"":10,""ArrowDown,ArrowLeft"":5,""ArrowDown,ArrowRight"":17}","true","ArrowUp,ArrowLeft","false","revaluation","1","22","","",""
"html-keyboard-response","142","733539","0.0-4.0-2.0-1.11","spark_pilot_norest","8175","4","11","Female","","","","","","","null","<div style=""font-size:60px;"">+</div>","null","fixation","","","","","","","","","23","","",""
"revaluation","143","739560","0.0-4.0-2.0-0.12","spark_pilot_norest","8175","4","11","Female","","false","","","","","[642.8000000007451,386.59999999962747]","./assets/img/ocean/memory/16.jpg","[""ArrowDown"",""ArrowLeft""]","value training","ocean","5","{""ArrowUp,ArrowLeft"":26,""ArrowUp,ArrowRight"":10,""ArrowDown,ArrowLeft"":5,""ArrowDown,ArrowRight"":17}","false","ArrowDown,ArrowLeft","false","revaluation","1","24","","",""
"html-keyboard-response","144","740063","0.0-4.0-2.0-1.12","spark_pilot_norest","8175","4","11","Female","","","","","","","null","<div style=""font-size:60px;"">+</div>","null","fixation","","","","","","","","","25","","",""
"revaluation","145","746077","0.0-4.0-2.0-0.13","spark_pilot_norest","8175","4","11","Female","","false","","","","","[445.2000000011176,728.0999999996275]","./assets/img/ocean/memory/6.jpg","[""ArrowUp"",""ArrowLeft""]","value training","ocean","26","{""ArrowUp,ArrowLeft"":26,""ArrowUp,ArrowRight"":10,""ArrowDown,ArrowLeft"":5,""ArrowDown,ArrowRight"":17}","true","ArrowUp,ArrowLeft","false","revaluation","1","26","","",""
"html-keyboard-response","146","746582","0.0-4.0-2.0-1.13","spark_pilot_norest","8175","4","11","Female","","","","","","","null","<div style=""font-size:60px;"">+</div>","null","fixation","","","","","","","","","27","","",""
"revaluation","147","752601","0.0-4.0-2.0-0.14","spark_pilot_norest","8175","4","11","Female","","false","","","","","[389.7999999988824,1116.699999999255]","./assets/img/ocean/memory/11.jpg","[""ArrowDown"",""ArrowRight""]","value training","ocean","17","{""ArrowUp,ArrowLeft"":26,""ArrowUp,ArrowRight"":10,""ArrowDown,ArrowLeft"":5,""ArrowDown,ArrowRight"":17}","false","ArrowDown,ArrowRight","false","revaluation","1","28","","",""
"html-keyboard-response","148","753106","0.0-4.0-2.0-1.14","spark_pilot_norest","8175","4","11","Female","","","","","","","null","<div style=""font-size:60px;"">+</div>","null","fixation","","","","","","","","","29","","",""
"revaluation","149","757125","0.0-4.0-2.0-0.15","spark_pilot_norest","8175","4","11","Female","","false","","","","","[721.4000000003725]","./assets/img/ocean/catch/5.jpg","[""spaceBar""]","value training","ocean","0","{""ArrowUp,ArrowLeft"":26,""ArrowUp,ArrowRight"":10,""ArrowDown,ArrowLeft"":5,""ArrowDown,ArrowRight"":17}","true","spaceBar","true","revaluation","1","30","","",""
"html-keyboard-response","150","757633","0.0-4.0-2.0-1.15","spark_pilot_norest","8175","4","11","Female","","","","","","","null","<div style=""font-size:60px;"">+</div>","null","fixation","","","","","","","","","31","","",""
"revaluation","151","761647","0.0-4.0-2.0-0.16","spark_pilot_norest","8175","4","11","Female","","true","","","","","[]","./assets/img/ocean/memory/15.jpg","[]","value training","ocean","-5","{""ArrowUp,ArrowLeft"":26,""ArrowUp,ArrowRight"":10,""ArrowDown,ArrowLeft"":5,""ArrowDown,ArrowRight"":17}","false","","false","revaluation","1","32","","",""
"html-keyboard-response","152","762151","0.0-4.0-2.0-1.16","spark_pilot_norest","8175","4","11","Female","","","","","","","null","<div style=""font-size:60px;"">+</div>","null","fixation","","","","","","","","","33","","",""
"revaluation","153","766171","0.0-4.0-2.0-0.17","spark_pilot_norest","8175","4","11","Female","","false","","","","","[765]","./assets/img/ocean/catch/7.jpg","[""spaceBar""]","value training","ocean","0","{""ArrowUp,ArrowLeft"":26,""ArrowUp,ArrowRight"":10,""ArrowDown,ArrowLeft"":5,""ArrowDown,ArrowRight"":17}","true","spaceBar","true","revaluation","1","34","","",""
"html-keyboard-response","154","766679","0.0-4.0-2.0-1.17","spark_pilot_norest","8175","4","11","Female","","","","","","","null","<div style=""font-size:60px;"">+</div>","null","fixation","","","","","","","","","35","","",""
"revaluation","155","772696","0.0-4.0-2.0-0.18","spark_pilot_norest","8175","4","11","Female","","false","","","","","[519,411.40000000037253]","./assets/img/ocean/memory/26.jpg","[""ArrowUp"",""ArrowLeft""]","value training","ocean","26","{""ArrowUp,ArrowLeft"":26,""ArrowUp,ArrowRight"":10,""ArrowDown,ArrowLeft"":5,""ArrowDown,ArrowRight"":17}","true","ArrowUp,ArrowLeft","false","revaluation","1","36","","",""
"html-keyboard-response","156","773202","0.0-4.0-2.0-1.18","spark_pilot_norest","8175","4","11","Female","","","","","","","null","<div style=""font-size:60px;"">+</div>","null","fixation","","","","","","","","","37","","",""
"revaluation","157","779218","0.0-4.0-2.0-0.19","spark_pilot_norest","8175","4","11","Female","","false","","","","","[527,371.7999999988824]","./assets/img/ocean/memory/16.jpg","[""ArrowUp"",""ArrowLeft""]","value training","ocean","26","{""ArrowUp,ArrowLeft"":26,""ArrowUp,ArrowRight"":10,""ArrowDown,ArrowLeft"":5,""ArrowDown,ArrowRight"":17}","true","ArrowUp,ArrowLeft","false","revaluation","1","38","","",""
"html-keyboard-response","158","779724","0.0-4.0-2.0-1.19","spark_pilot_norest","8175","4","11","Female","","","","","","","null","<div style=""font-size:60px;"">+</div>","null","fixation","","","","","","","","","39","","",""
"revaluation","159","785742","0.0-4.0-2.0-0.20","spark_pilot_norest","8175","4","11","Female","","false","","","","","[581.6999999992549,336.80000000074506]","./assets/img/ocean/memory/18.jpg","[""ArrowUp"",""ArrowLeft""]","value training","ocean","26","{""ArrowUp,ArrowLeft"":26,""ArrowUp,ArrowRight"":10,""ArrowDown,ArrowLeft"":5,""ArrowDown,ArrowRight"":17}","true","ArrowUp,ArrowLeft","false","revaluation","1","40","","",""
"html-keyboard-response","160","786249","0.0-4.0-2.0-1.20","spark_pilot_norest","8175","4","11","Female","","","","","","","null","<div style=""font-size:60px;"">+</div>","null","fixation","","","","","","","","","41","","",""
"revaluation","161","792274","0.0-4.0-2.0-0.21","spark_pilot_norest","8175","4","11","Female","","false","","","","","[344.19999999925494,448.19999999925494]","./assets/img/ocean/memory/15.jpg","[""ArrowUp"",""ArrowLeft""]","value training","ocean","26","{""ArrowUp,ArrowLeft"":26,""ArrowUp,ArrowRight"":10,""ArrowDown,ArrowLeft"":5,""ArrowDown,ArrowRight"":17}","true","ArrowUp,ArrowLeft","false","revaluation","1","42","","",""
"html-keyboard-response","162","792780","0.0-4.0-2.0-1.21","spark_pilot_norest","8175","4","11","Female","","","","","","","null","<div style=""font-size:60px;"">+</div>","null","fixation","","","","","","","","","43","","",""
"revaluation","163","798800","0.0-4.0-2.0-0.22","spark_pilot_norest","8175","4","11","Female","","false","","","","","[567.2999999988824,659.6000000014901]","./assets/img/ocean/memory/2.jpg","[""ArrowUp"",""ArrowLeft""]","value training","ocean","26","{""ArrowUp,ArrowLeft"":26,""ArrowUp,ArrowRight"":10,""ArrowDown,ArrowLeft"":5,""ArrowDown,ArrowRight"":17}","true","ArrowUp,ArrowLeft","false","revaluation","1","44","","",""
"html-keyboard-response","164","799309","0.0-4.0-2.0-1.22","spark_pilot_norest","8175","4","11","Female","","","","","","","null","<div style=""font-size:60px;"">+</div>","null","fixation","","","","","","","","","45","","",""
"revaluation","165","803324","0.0-4.0-2.0-0.23","spark_pilot_norest","8175","4","11","Female","","false","","","","","[904.7000000011176]","./assets/img/ocean/catch/3.jpg","[""spaceBar""]","value training","ocean","0","{""ArrowUp,ArrowLeft"":26,""ArrowUp,ArrowRight"":10,""ArrowDown,ArrowLeft"":5,""ArrowDown,ArrowRight"":17}","true","spaceBar","true","revaluation","1","46","","",""
"html-keyboard-response","166","803832","0.0-4.0-2.0-1.23","spark_pilot_norest","8175","4","11","Female","","","","","","","null","<div style=""font-size:60px;"">+</div>","null","fixation","","","","","","","","","47","","",""
"revaluation","167","809850","0.0-4.0-2.0-0.24","spark_pilot_norest","8175","4","11","Female","","false","","","","","[741.2000000011176,394.09999999962747]","./assets/img/ocean/memory/1.jpg","[""ArrowUp"",""ArrowLeft""]","value training","ocean","26","{""ArrowUp,ArrowLeft"":26,""ArrowUp,ArrowRight"":10,""ArrowDown,ArrowLeft"":5,""ArrowDown,ArrowRight"":17}","true","ArrowUp,ArrowLeft","false","revaluation","1","48","","",""
"html-keyboard-response","168","810356","0.0-4.0-2.0-1.24","spark_pilot_norest","8175","4","11","Female","","","","","","","null","<div style=""font-size:60px;"">+</div>","null","fixation","","","","","","","","","49","","",""
"revaluation","169","816376","0.0-4.0-2.0-0.25","spark_pilot_norest","8175","4","11","Female","","false","","","","","[958.1999999992549,421.69999999925494]","./assets/img/ocean/memory/18.jpg","[""ArrowDown"",""ArrowRight""]","value training","ocean","17","{""ArrowUp,ArrowLeft"":26,""ArrowUp,ArrowRight"":10,""ArrowDown,ArrowLeft"":5,""ArrowDown,ArrowRight"":17}","false","ArrowDown,ArrowRight","false","revaluation","1","50","","",""
"html-keyboard-response","170","816880","0.0-4.0-2.0-1.25","spark_pilot_norest","8175","4","11","Female","","","","","","","null","<div style=""font-size:60px;"">+</div>","null","fixation","","","","","","","","","51","","",""
"revaluation","171","822898","0.0-4.0-2.0-0.26","spark_pilot_norest","8175","4","11","Female","","false","","","","","[519.4000000003725,374.5]","./assets/img/ocean/memory/22.jpg","[""ArrowUp"",""ArrowLeft""]","value training","ocean","26","{""ArrowUp,ArrowLeft"":26,""ArrowUp,ArrowRight"":10,""ArrowDown,ArrowLeft"":5,""ArrowDown,ArrowRight"":17}","true","ArrowUp,ArrowLeft","false","revaluation","1","52","","",""
"html-keyboard-response","172","823402","0.0-4.0-2.0-1.26","spark_pilot_norest","8175","4","11","Female","","","","","","","null","<div style=""font-size:60px;"">+</div>","null","fixation","","","","","","","","","53","","",""
"revaluation","173","829418","0.0-4.0-2.0-0.27","spark_pilot_norest","8175","4","11","Female","","false","","","","","[618.7000000011176,549.2000000011176]","./assets/img/ocean/memory/40.jpg","[""ArrowUp"",""ArrowLeft""]","value training","ocean","26","{""ArrowUp,ArrowLeft"":26,""ArrowUp,ArrowRight"":10,""ArrowDown,ArrowLeft"":5,""ArrowDown,ArrowRight"":17}","true","ArrowUp,ArrowLeft","false","revaluation","1","54","","",""
"html-keyboard-response","174","829922","0.0-4.0-2.0-1.27","spark_pilot_norest","8175","4","11","Female","","","","","","","null","<div style=""font-size:60px;"">+</div>","null","fixation","","","","","","","","","55","","",""
"revaluation","175","835940","0.0-4.0-2.0-0.28","spark_pilot_norest","8175","4","11","Female","","false","","","","","[524.6999999992549,452.69999999925494]","./assets/img/ocean/memory/30.jpg","[""ArrowUp"",""ArrowLeft""]","value training","ocean","26","{""ArrowUp,ArrowLeft"":26,""ArrowUp,ArrowRight"":10,""ArrowDown,ArrowLeft"":5,""ArrowDown,ArrowRight"":17}","true","ArrowUp,ArrowLeft","false","revaluation","1","56","","",""
"html-keyboard-response","176","836446","0.0-4.0-2.0-1.28","spark_pilot_norest","8175","4","11","Female","","","","","","","null","<div style=""font-size:60px;"">+</div>","null","fixation","","","","","","","","","57","","",""
"revaluation","177","842470","0.0-4.0-2.0-0.29","spark_pilot_norest","8175","4","11","Female","","false","","","","","[552.8000000007451,332.59999999962747]","./assets/img/ocean/memory/3.jpg","[""ArrowUp"",""ArrowLeft""]","value training","ocean","26","{""ArrowUp,ArrowLeft"":26,""ArrowUp,ArrowRight"":10,""ArrowDown,ArrowLeft"":5,""ArrowDown,ArrowRight"":17}","true","ArrowUp,ArrowLeft","false","revaluation","1","58","","",""
"html-keyboard-response","178","842975","0.0-4.0-2.0-1.29","spark_pilot_norest","8175","4","11","Female","","","","","","","null","<div style=""font-size:60px;"">+</div>","null","fixation","","","","","","","","","59","","",""
"revaluation","179","848990","0.0-4.0-2.0-0.30","spark_pilot_norest","8175","4","11","Female","","false","","","","","[400,426.2000000011176]","./assets/img/ocean/memory/30.jpg","[""ArrowUp"",""ArrowLeft""]","value training","ocean","26","{""ArrowUp,ArrowLeft"":26,""ArrowUp,ArrowRight"":10,""ArrowDown,ArrowLeft"":5,""ArrowDown,ArrowRight"":17}","true","ArrowUp,ArrowLeft","false","revaluation","1","60","","",""
"html-keyboard-response","180","849496","0.0-4.0-2.0-1.30","spark_pilot_norest","8175","4","11","Female","","","","","","","null","<div style=""font-size:60px;"">+</div>","null","fixation","","","","","","","","","61","","",""
"revaluation","181","855517","0.0-4.0-2.0-0.31","spark_pilot_norest","8175","4","11","Female","","false","","","","","[479.19999999925494,544.3000000007451]","./assets/img/ocean/memory/21.jpg","[""ArrowUp"",""ArrowLeft""]","value training","ocean","26","{""ArrowUp,ArrowLeft"":26,""ArrowUp,ArrowRight"":10,""ArrowDown,ArrowLeft"":5,""ArrowDown,ArrowRight"":17}","true","ArrowUp,ArrowLeft","false","revaluation","1","62","","",""
"html-keyboard-response","182","856022","0.0-4.0-2.0-1.31","spark_pilot_norest","8175","4","11","Female","","","","","","","null","<div style=""font-size:60px;"">+</div>","null","fixation","","","","","","","","","63","","",""
"revaluation","183","862039","0.0-4.0-2.0-0.32","spark_pilot_norest","8175","4","11","Female","","false","","","","","[495.69999999925494,587.8000000007451]","./assets/img/ocean/memory/8.jpg","[""ArrowUp"",""ArrowLeft""]","value training","ocean","26","{""ArrowUp,ArrowLeft"":26,""ArrowUp,ArrowRight"":10,""ArrowDown,ArrowLeft"":5,""ArrowDown,ArrowRight"":17}","true","ArrowUp,ArrowLeft","false","revaluation","1","64","","",""
"html-keyboard-response","184","862546","0.0-4.0-2.0-1.32","spark_pilot_norest","8175","4","11","Female","","","","","","","null","<div style=""font-size:60px;"">+</div>","null","fixation","","","","","","","","","65","","",""
"revaluation","185","868564","0.0-4.0-2.0-0.33","spark_pilot_norest","8175","4","11","Female","","false","","","","","[987.1000000014901,492.59999999962747]","./assets/img/ocean/memory/11.jpg","[""ArrowUp"",""ArrowLeft""]","value training","ocean","26","{""ArrowUp,ArrowLeft"":26,""ArrowUp,ArrowRight"":10,""ArrowDown,ArrowLeft"":5,""ArrowDown,ArrowRight"":17}","true","ArrowUp,ArrowLeft","false","revaluation","1","66","","",""
"html-keyboard-response","186","869069","0.0-4.0-2.0-1.33","spark_pilot_norest","8175","4","11","Female","","","","","","","null","<div style=""font-size:60px;"">+</div>","null","fixation","","","","","","","","","67","","",""
"revaluation","187","875083","0.0-4.0-2.0-0.34","spark_pilot_norest","8175","4","11","Female","","false","","","","","[405.5,399.59999999962747]","./assets/img/ocean/memory/28.jpg","[""ArrowUp"",""ArrowLeft""]","value training","ocean","26","{""ArrowUp,ArrowLeft"":26,""ArrowUp,ArrowRight"":10,""ArrowDown,ArrowLeft"":5,""ArrowDown,ArrowRight"":17}","true","ArrowUp,ArrowLeft","false","revaluation","1","68","","",""
"html-keyboard-response","188","875588","0.0-4.0-2.0-1.34","spark_pilot_norest","8175","4","11","Female","","","","","","","null","<div style=""font-size:60px;"">+</div>","null","fixation","","","","","","","","","69","","",""
"revaluation","189","881604","0.0-4.0-2.0-0.35","spark_pilot_norest","8175","4","11","Female","","false","","","","","[1227.699999999255,885.9000000003725]","./assets/img/ocean/memory/20.jpg","[""ArrowUp"",""ArrowLeft""]","value training","ocean","26","{""ArrowUp,ArrowLeft"":26,""ArrowUp,ArrowRight"":10,""ArrowDown,ArrowLeft"":5,""ArrowDown,ArrowRight"":17}","true","ArrowUp,ArrowLeft","false","revaluation","1","70","","",""
"html-keyboard-response","190","882109","0.0-4.0-2.0-1.35","spark_pilot_norest","8175","4","11","Female","","","","","","","null","<div style=""font-size:60px;"">+</div>","null","fixation","","","","","","","","","71","","",""
"revaluation","191","888125","0.0-4.0-2.0-0.36","spark_pilot_norest","8175","4","11","Female","","false","","","","","[542.0999999996275,529.6000000014901]","./assets/img/ocean/memory/23.jpg","[""ArrowUp"",""ArrowLeft""]","value training","ocean","26","{""ArrowUp,ArrowLeft"":26,""ArrowUp,ArrowRight"":10,""ArrowDown,ArrowLeft"":5,""ArrowDown,ArrowRight"":17}","true","ArrowUp,ArrowLeft","false","revaluation","1","72","","",""
"html-keyboard-response","192","888630","0.0-4.0-2.0-1.36","spark_pilot_norest","8175","4","11","Female","","","","","","","null","<div style=""font-size:60px;"">+</div>","null","fixation","","","","","","","","","73","","",""
"revaluation","193","894647","0.0-4.0-2.0-0.37","spark_pilot_norest","8175","4","11","Female","","false","","","","","[443.7000000011176,425]","./assets/img/ocean/memory/13.jpg","[""ArrowUp"",""ArrowLeft""]","value training","ocean","26","{""ArrowUp,ArrowLeft"":26,""ArrowUp,ArrowRight"":10,""ArrowDown,ArrowLeft"":5,""ArrowDown,ArrowRight"":17}","true","ArrowUp,ArrowLeft","false","revaluation","1","74","","",""
"html-keyboard-response","194","895154","0.0-4.0-2.0-1.37","spark_pilot_norest","8175","4","11","Female","","","","","","","null","<div style=""font-size:60px;"">+</div>","null","fixation","","","","","","","","","75","","",""
"revaluation","195","901174","0.0-4.0-2.0-0.38","spark_pilot_norest","8175","4","11","Female","","false","","","","","[528.1999999992549,916.5]","./assets/img/ocean/memory/14.jpg","[""ArrowUp"",""ArrowLeft""]","value training","ocean","26","{""ArrowUp,ArrowLeft"":26,""ArrowUp,ArrowRight"":10,""ArrowDown,ArrowLeft"":5,""ArrowDown,ArrowRight"":17}","true","ArrowUp,ArrowLeft","false","revaluation","1","76","","",""
"html-keyboard-response","196","901680","0.0-4.0-2.0-1.38","spark_pilot_norest","8175","4","11","Female","","","","","","","null","<div style=""font-size:60px;"">+</div>","null","fixation","","","","","","","","","77","","",""
"revaluation","197","907696","0.0-4.0-2.0-0.39","spark_pilot_norest","8175","4","11","Female","","false","","","","","[606.5,353.90000000037253]","./assets/img/ocean/memory/41.jpg","[""ArrowUp"",""ArrowLeft""]","value training","ocean","26","{""ArrowUp,ArrowLeft"":26,""ArrowUp,ArrowRight"":10,""ArrowDown,ArrowLeft"":5,""ArrowDown,ArrowRight"":17}","true","ArrowUp,ArrowLeft","false","revaluation","1","78","","",""
"html-keyboard-response","198","908200","0.0-4.0-2.0-1.39","spark_pilot_norest","8175","4","11","Female","","","","","","","null","<div style=""font-size:60px;"">+</div>","null","fixation","","","","","","","","","79","","",""
"revaluation","199","914212","0.0-4.0-2.0-0.40","spark_pilot_norest","8175","4","11","Female","","false","","","","","[767.2000000011176,503]","./assets/img/ocean/memory/0.jpg","[""ArrowUp"",""ArrowLeft""]","value training","ocean","26","{""ArrowUp,ArrowLeft"":26,""ArrowUp,ArrowRight"":10,""ArrowDown,ArrowLeft"":5,""ArrowDown,ArrowRight"":17}","true","ArrowUp,ArrowLeft","false","revaluation","1","80","","",""
"html-keyboard-response","200","914719","0.0-4.0-2.0-1.40","spark_pilot_norest","8175","4","11","Female","","","","","","","null","<div style=""font-size:60px;"">+</div>","null","fixation","","","","","","","","","81","","",""
"revaluation","201","920738","0.0-4.0-2.0-0.41","spark_pilot_norest","8175","4","11","Female","","false","","","","","[420.7999999988824,616.6000000014901]","./assets/img/ocean/memory/0.jpg","[""ArrowUp"",""ArrowLeft""]","value training","ocean","26","{""ArrowUp,ArrowLeft"":26,""ArrowUp,ArrowRight"":10,""ArrowDown,ArrowLeft"":5,""ArrowDown,ArrowRight"":17}","true","ArrowUp,ArrowLeft","false","revaluation","1","82","","",""
"html-keyboard-response","202","921243","0.0-4.0-2.0-1.41","spark_pilot_norest","8175","4","11","Female","","","","","","","null","<div style=""font-size:60px;"">+</div>","null","fixation","","","","","","","","","83","","",""
"revaluation","203","927260","0.0-4.0-2.0-0.42","spark_pilot_norest","8175","4","11","Female","","false","","","","","[499.7999999988824,992.5]","./assets/img/ocean/memory/8.jpg","[""ArrowUp"",""ArrowLeft""]","value training","ocean","26","{""ArrowUp,ArrowLeft"":26,""ArrowUp,ArrowRight"":10,""ArrowDown,ArrowLeft"":5,""ArrowDown,ArrowRight"":17}","true","ArrowUp,ArrowLeft","false","revaluation","1","84","","",""
"html-keyboard-response","204","927766","0.0-4.0-2.0-1.42","spark_pilot_norest","8175","4","11","Female","","","","","","","null","<div style=""font-size:60px;"">+</div>","null","fixation","","","","","","","","","85","","",""
"revaluation","205","931784","0.0-4.0-2.0-0.43","spark_pilot_norest","8175","4","11","Female","","false","","","","","[984.2999999988824]","./assets/img/ocean/catch/4.jpg","[""spaceBar""]","value training","ocean","0","{""ArrowUp,ArrowLeft"":26,""ArrowUp,ArrowRight"":10,""ArrowDown,ArrowLeft"":5,""ArrowDown,ArrowRight"":17}","true","spaceBar","true","revaluation","1","86","","",""
"html-keyboard-response","206","932291","0.0-4.0-2.0-1.43","spark_pilot_norest","8175","4","11","Female","","","","","","","null","<div style=""font-size:60px;"">+</div>","null","fixation","","","","","","","","","87","","",""
"revaluation","207","938308","0.0-4.0-2.0-0.44","spark_pilot_norest","8175","4","11","Female","","false","","","","","[620.5,326.6000000014901]","./assets/img/ocean/memory/41.jpg","[""ArrowUp"",""ArrowLeft""]","value training","ocean","26","{""ArrowUp,ArrowLeft"":26,""ArrowUp,ArrowRight"":10,""ArrowDown,ArrowLeft"":5,""ArrowDown,ArrowRight"":17}","true","ArrowUp,ArrowLeft","false","revaluation","1","88","","",""
"html-keyboard-response","208","938814","0.0-4.0-2.0-1.44","spark_pilot_norest","8175","4","11","Female","","","","","","","null","<div style=""font-size:60px;"">+</div>","null","fixation","","","","","","","","","89","","",""
"revaluation","209","944844","0.0-4.0-2.0-0.45","spark_pilot_norest","8175","4","11","Female","","false","","","","","[528.6999999992549,227.30000000074506]","./assets/img/ocean/memory/40.jpg","[""ArrowUp"",""ArrowLeft""]","value training","ocean","26","{""ArrowUp,ArrowLeft"":26,""ArrowUp,ArrowRight"":10,""ArrowDown,ArrowLeft"":5,""ArrowDown,ArrowRight"":17}","true","ArrowUp,ArrowLeft","false","revaluation","1","90","","",""
"html-keyboard-response","210","945351","0.0-4.0-2.0-1.45","spark_pilot_norest","8175","4","11","Female","","","","","","","null","<div style=""font-size:60px;"">+</div>","null","fixation","","","","","","","","","91","","",""
"revaluation","211","949362","0.0-4.0-2.0-0.46","spark_pilot_norest","8175","4","11","Female","","false","","","","","[534.6999999992549]","./assets/img/ocean/catch/0.jpg","[""spaceBar""]","value training","ocean","0","{""ArrowUp,ArrowLeft"":26,""ArrowUp,ArrowRight"":10,""ArrowDown,ArrowLeft"":5,""ArrowDown,ArrowRight"":17}","true","spaceBar","true","revaluation","1","92","","",""
"html-keyboard-response","212","949866","0.0-4.0-2.0-1.46","spark_pilot_norest","8175","4","11","Female","","","","","","","null","<div style=""font-size:60px;"">+</div>","null","fixation","","","","","","","","","93","","",""
"revaluation","213","955881","0.0-4.0-2.0-0.47","spark_pilot_norest","8175","4","11","Female","","false","","","","","[498.1000000014901,832.0999999996275]","./assets/img/ocean/memory/26.jpg","[""ArrowUp"",""ArrowLeft""]","value training","ocean","26","{""ArrowUp,ArrowLeft"":26,""ArrowUp,ArrowRight"":10,""ArrowDown,ArrowLeft"":5,""ArrowDown,ArrowRight"":17}","true","ArrowUp,ArrowLeft","false","revaluation","1","94","","",""
"html-keyboard-response","214","956384","0.0-4.0-2.0-1.47","spark_pilot_norest","8175","4","11","Female","","","","","","","null","<div style=""font-size:60px;"">+</div>","null","fixation","","","","","","","","","95","","",""
"revaluation","215","962404","0.0-4.0-2.0-0.48","spark_pilot_norest","8175","4","11","Female","","false","","","","","[631.7999999988824,603.5]","./assets/img/ocean/memory/1.jpg","[""ArrowUp"",""ArrowLeft""]","value training","ocean","26","{""ArrowUp,ArrowLeft"":26,""ArrowUp,ArrowRight"":10,""ArrowDown,ArrowLeft"":5,""ArrowDown,ArrowRight"":17}","true","ArrowUp,ArrowLeft","false","revaluation","1","96","","",""
"html-keyboard-response","216","962910","0.0-4.0-2.0-1.48","spark_pilot_norest","8175","4","11","Female","","","","","","","null","<div style=""font-size:60px;"">+</div>","null","fixation","","","","","","","","","97","","",""
"revaluation","217","968927","0.0-4.0-2.0-0.49","spark_pilot_norest","8175","4","11","Female","","false","","","","","[562.5,697.8000000007451]","./assets/img/ocean/memory/22.jpg","[""ArrowUp"",""ArrowLeft""]","value training","ocean","26","{""ArrowUp,ArrowLeft"":26,""ArrowUp,ArrowRight"":10,""ArrowDown,ArrowLeft"":5,""ArrowDown,ArrowRight"":17}","true","ArrowUp,ArrowLeft","false","revaluation","1","98","","",""
"html-keyboard-response","218","969430","0.0-4.0-2.0-1.49","spark_pilot_norest","8175","4","11","Female","","","","","","","null","<div style=""font-size:60px;"">+</div>","null","fixation","","","","","","","","","99","","",""
"learning-instructions","219","983693","0.0-4.0-3.0-0.0","spark_pilot_norest","8175","4","11","Female","","","","","","","1355.7999999988824","<p> Now, you will travel with a friend who will choose whether you go up or down first. </p>
            <p> On these turns, you will just see the animal that they found. You will still get to choose which chest to search for treasure.</p>","","instructions","","","","","","","","","","","",""
"revaluation","220","987701","0.0-4.0-4.0-0.0","spark_pilot_norest","8175","4","11","Female","","false","","","","","[790.9000000003725]","./assets/img/ocean/animals/seahorse.jpg","[""ArrowRight""]","revaluation","ocean","27","{""ArrowUp,ArrowLeft"":2,""ArrowUp,ArrowRight"":11,""ArrowDown,ArrowLeft"":8,""ArrowDown,ArrowRight"":27}","true","ArrowDown,ArrowRight","","revaluation","1","0","","",""
"html-keyboard-response","221","988216","0.0-4.0-4.0-1.0","spark_pilot_norest","8175","4","11","Female","","","","","","","null","<div style=""font-size:60px;"">+</div>","null","fixation","","","","","","","","","1","","",""
"revaluation","222","992235","0.0-4.0-4.0-0.1","spark_pilot_norest","8175","4","11","Female","","false","","","","","[686.1000000014901]","./assets/img/ocean/animals/seahorse.jpg","[""ArrowRight""]","revaluation","ocean","27","{""ArrowUp,ArrowLeft"":2,""ArrowUp,ArrowRight"":11,""ArrowDown,ArrowLeft"":8,""ArrowDown,ArrowRight"":27}","true","ArrowDown,ArrowRight","","revaluation","1","2","","",""
"html-keyboard-response","223","992740","0.0-4.0-4.0-1.1","spark_pilot_norest","8175","4","11","Female","","","","","","","null","<div style=""font-size:60px;"">+</div>","null","fixation","","","","","","","","","3","","",""
"revaluation","224","996755","0.0-4.0-4.0-0.2","spark_pilot_norest","8175","4","11","Female","","false","","","","","[505.2999999988824]","./assets/img/ocean/animals/octopus.jpg","[""ArrowLeft""]","revaluation","ocean","2","{""ArrowUp,ArrowLeft"":2,""ArrowUp,ArrowRight"":11,""ArrowDown,ArrowLeft"":8,""ArrowDown,ArrowRight"":27}","false","ArrowUp,ArrowLeft","","revaluation","1","4","","",""
"html-keyboard-response","225","997261","0.0-4.0-4.0-1.2","spark_pilot_norest","8175","4","11","Female","","","","","","","null","<div style=""font-size:60px;"">+</div>","null","fixation","","","","","","","","","5","","",""
"revaluation","226","1001282","0.0-4.0-4.0-0.3","spark_pilot_norest","8175","4","11","Female","","false","","","","","[453.40000000037253]","./assets/img/ocean/animals/seahorse.jpg","[""ArrowRight""]","revaluation","ocean","27","{""ArrowUp,ArrowLeft"":2,""ArrowUp,ArrowRight"":11,""ArrowDown,ArrowLeft"":8,""ArrowDown,ArrowRight"":27}","true","ArrowDown,ArrowRight","","revaluation","1","6","","",""
"html-keyboard-response","227","1001786","0.0-4.0-4.0-1.3","spark_pilot_norest","8175","4","11","Female","","","","","","","null","<div style=""font-size:60px;"">+</div>","null","fixation","","","","","","","","","7","","",""
"revaluation","228","1005795","0.0-4.0-4.0-0.4","spark_pilot_norest","8175","4","11","Female","","false","","","","","[305.19999999925494]","./assets/img/ocean/animals/seahorse.jpg","[""ArrowRight""]","revaluation","ocean","27","{""ArrowUp,ArrowLeft"":2,""ArrowUp,ArrowRight"":11,""ArrowDown,ArrowLeft"":8,""ArrowDown,ArrowRight"":27}","true","ArrowDown,ArrowRight","","revaluation","1","8","","",""
"html-keyboard-response","229","1006300","0.0-4.0-4.0-1.4","spark_pilot_norest","8175","4","11","Female","","","","","","","null","<div style=""font-size:60px;"">+</div>","null","fixation","","","","","","","","","9","","",""
"revaluation","230","1010318","0.0-4.0-4.0-0.5","spark_pilot_norest","8175","4","11","Female","","false","","","","","[319.59999999962747]","./assets/img/ocean/animals/octopus.jpg","[""ArrowRight""]","revaluation","ocean","11","{""ArrowUp,ArrowLeft"":2,""ArrowUp,ArrowRight"":11,""ArrowDown,ArrowLeft"":8,""ArrowDown,ArrowRight"":27}","true","ArrowUp,ArrowRight","","revaluation","1","10","","",""
"html-keyboard-response","231","1010826","0.0-4.0-4.0-1.5","spark_pilot_norest","8175","4","11","Female","","","","","","","null","<div style=""font-size:60px;"">+</div>","null","fixation","","","","","","","","","11","","",""
"revaluation","232","1014841","0.0-4.0-4.0-0.6","spark_pilot_norest","8175","4","11","Female","","false","","","","","[354]","./assets/img/ocean/animals/seahorse.jpg","[""ArrowRight""]","revaluation","ocean","27","{""ArrowUp,ArrowLeft"":2,""ArrowUp,ArrowRight"":11,""ArrowDown,ArrowLeft"":8,""ArrowDown,ArrowRight"":27}","true","ArrowDown,ArrowRight","","revaluation","1","12","","",""
"html-keyboard-response","233","1015348","0.0-4.0-4.0-1.6","spark_pilot_norest","8175","4","11","Female","","","","","","","null","<div style=""font-size:60px;"">+</div>","null","fixation","","","","","","","","","13","","",""
"revaluation","234","1019365","0.0-4.0-4.0-0.7","spark_pilot_norest","8175","4","11","Female","","false","","","","","[422.09999999962747]","./assets/img/ocean/animals/seahorse.jpg","[""ArrowRight""]","revaluation","ocean","27","{""ArrowUp,ArrowLeft"":2,""ArrowUp,ArrowRight"":11,""ArrowDown,ArrowLeft"":8,""ArrowDown,ArrowRight"":27}","true","ArrowDown,ArrowRight","","revaluation","1","14","","",""
"html-keyboard-response","235","1019872","0.0-4.0-4.0-1.7","spark_pilot_norest","8175","4","11","Female","","","","","","","null","<div style=""font-size:60px;"">+</div>","null","fixation","","","","","","","","","15","","",""
"revaluation","236","1023887","0.0-4.0-4.0-0.8","spark_pilot_norest","8175","4","11","Female","","false","","","","","[1111.199999999255]","./assets/img/ocean/animals/octopus.jpg","[""ArrowRight""]","revaluation","ocean","11","{""ArrowUp,ArrowLeft"":2,""ArrowUp,ArrowRight"":11,""ArrowDown,ArrowLeft"":8,""ArrowDown,ArrowRight"":27}","true","ArrowUp,ArrowRight","","revaluation","1","16","","",""
"html-keyboard-response","237","1024391","0.0-4.0-4.0-1.8","spark_pilot_norest","8175","4","11","Female","","","","","","","null","<div style=""font-size:60px;"">+</div>","null","fixation","","","","","","","","","17","","",""
"revaluation","238","1028411","0.0-4.0-4.0-0.9","spark_pilot_norest","8175","4","11","Female","","false","","","","","[328.40000000037253]","./assets/img/ocean/animals/seahorse.jpg","[""ArrowRight""]","revaluation","ocean","27","{""ArrowUp,ArrowLeft"":2,""ArrowUp,ArrowRight"":11,""ArrowDown,ArrowLeft"":8,""ArrowDown,ArrowRight"":27}","true","ArrowDown,ArrowRight","","revaluation","1","18","","",""
"html-keyboard-response","239","1028915","0.0-4.0-4.0-1.9","spark_pilot_norest","8175","4","11","Female","","","","","","","null","<div style=""font-size:60px;"">+</div>","null","fixation","","","","","","","","","19","","",""
"revaluation","240","1032929","0.0-4.0-4.0-0.10","spark_pilot_norest","8175","4","11","Female","","false","","","","","[390.5]","./assets/img/ocean/animals/seahorse.jpg","[""ArrowRight""]","revaluation","ocean","27","{""ArrowUp,ArrowLeft"":2,""ArrowUp,ArrowRight"":11,""ArrowDown,ArrowLeft"":8,""ArrowDown,ArrowRight"":27}","true","ArrowDown,ArrowRight","","revaluation","1","20","","",""
"html-keyboard-response","241","1033432","0.0-4.0-4.0-1.10","spark_pilot_norest","8175","4","11","Female","","","","","","","null","<div style=""font-size:60px;"">+</div>","null","fixation","","","","","","","","","21","","",""
"revaluation","242","1037446","0.0-4.0-4.0-0.11","spark_pilot_norest","8175","4","11","Female","","false","","","","","[483.7000000011176]","./assets/img/ocean/animals/octopus.jpg","[""ArrowRight""]","revaluation","ocean","11","{""ArrowUp,ArrowLeft"":2,""ArrowUp,ArrowRight"":11,""ArrowDown,ArrowLeft"":8,""ArrowDown,ArrowRight"":27}","true","ArrowUp,ArrowRight","","revaluation","1","22","","",""
"html-keyboard-response","243","1037950","0.0-4.0-4.0-1.11","spark_pilot_norest","8175","4","11","Female","","","","","","","null","<div style=""font-size:60px;"">+</div>","null","fixation","","","","","","","","","23","","",""
"revaluation","244","1041959","0.0-4.0-4.0-0.12","spark_pilot_norest","8175","4","11","Female","","false","","","","","[408]","./assets/img/ocean/animals/octopus.jpg","[""ArrowRight""]","revaluation","ocean","11","{""ArrowUp,ArrowLeft"":2,""ArrowUp,ArrowRight"":11,""ArrowDown,ArrowLeft"":8,""ArrowDown,ArrowRight"":27}","true","ArrowUp,ArrowRight","","revaluation","1","24","","",""
"html-keyboard-response","245","1042462","0.0-4.0-4.0-1.12","spark_pilot_norest","8175","4","11","Female","","","","","","","null","<div style=""font-size:60px;"">+</div>","null","fixation","","","","","","","","","25","","",""
"revaluation","246","1046476","0.0-4.0-4.0-0.13","spark_pilot_norest","8175","4","11","Female","","false","","","","","[572.5999999996275]","./assets/img/ocean/animals/octopus.jpg","[""ArrowLeft""]","revaluation","ocean","2","{""ArrowUp,ArrowLeft"":2,""ArrowUp,ArrowRight"":11,""ArrowDown,ArrowLeft"":8,""ArrowDown,ArrowRight"":27}","false","ArrowUp,ArrowLeft","","revaluation","1","26","","",""
"html-keyboard-response","247","1046979","0.0-4.0-4.0-1.13","spark_pilot_norest","8175","4","11","Female","","","","","","","null","<div style=""font-size:60px;"">+</div>","null","fixation","","","","","","","","","27","","",""
"revaluation","248","1050991","0.0-4.0-4.0-0.14","spark_pilot_norest","8175","4","11","Female","","false","","","","","[460]","./assets/img/ocean/animals/octopus.jpg","[""ArrowRight""]","revaluation","ocean","11","{""ArrowUp,ArrowLeft"":2,""ArrowUp,ArrowRight"":11,""ArrowDown,ArrowLeft"":8,""ArrowDown,ArrowRight"":27}","true","ArrowUp,ArrowRight","","revaluation","1","28","","",""
"html-keyboard-response","249","1051498","0.0-4.0-4.0-1.14","spark_pilot_norest","8175","4","11","Female","","","","","","","null","<div style=""font-size:60px;"">+</div>","null","fixation","","","","","","","","","29","","",""
"revaluation","250","1055513","0.0-4.0-4.0-0.15","spark_pilot_norest","8175","4","11","Female","","false","","","","","[250.30000000074506]","./assets/img/ocean/animals/seahorse.jpg","[""ArrowRight""]","revaluation","ocean","27","{""ArrowUp,ArrowLeft"":2,""ArrowUp,ArrowRight"":11,""ArrowDown,ArrowLeft"":8,""ArrowDown,ArrowRight"":27}","true","ArrowDown,ArrowRight","","revaluation","1","30","","",""
"html-keyboard-response","251","1056018","0.0-4.0-4.0-1.15","spark_pilot_norest","8175","4","11","Female","","","","","","","null","<div style=""font-size:60px;"">+</div>","null","fixation","","","","","","","","","31","","",""
"revaluation","252","1060037","0.0-4.0-4.0-0.16","spark_pilot_norest","8175","4","11","Female","","false","","","","","[175]","./assets/img/ocean/animals/octopus.jpg","[""ArrowRight""]","revaluation","ocean","11","{""ArrowUp,ArrowLeft"":2,""ArrowUp,ArrowRight"":11,""ArrowDown,ArrowLeft"":8,""ArrowDown,ArrowRight"":27}","true","ArrowUp,ArrowRight","","revaluation","1","32","","",""
"html-keyboard-response","253","1060543","0.0-4.0-4.0-1.16","spark_pilot_norest","8175","4","11","Female","","","","","","","null","<div style=""font-size:60px;"">+</div>","null","fixation","","","","","","","","","33","","",""
"revaluation","254","1064558","0.0-4.0-4.0-0.17","spark_pilot_norest","8175","4","11","Female","","false","","","","","[36.5]","./assets/img/ocean/animals/octopus.jpg","[""ArrowRight""]","revaluation","ocean","11","{""ArrowUp,ArrowLeft"":2,""ArrowUp,ArrowRight"":11,""ArrowDown,ArrowLeft"":8,""ArrowDown,ArrowRight"":27}","true","ArrowUp,ArrowRight","","revaluation","1","34","","",""
"html-keyboard-response","255","1065063","0.0-4.0-4.0-1.17","spark_pilot_norest","8175","4","11","Female","","","","","","","null","<div style=""font-size:60px;"">+</div>","null","fixation","","","","","","","","","35","","",""
"learning-instructions","256","1073175","0.0-4.0-5.0-0.0","spark_pilot_norest","8175","4","11","Female","","","","","","","null","<p> You have almost finished this part of the game! </p>
            <p> We are going to ask you to make a few more choices. </p>","","instructions","","","","","","","","","","","",""
"learning-instructions","257","1089156","0.0-4.0-5.0-0.1","spark_pilot_norest","8175","4","11","Female","","","","","","","null","<p> First, you need to decide whether to go up or down. When you see each picture, use the arrow keys to make your choice. </p>
            <p><b>You will not see which animal you found, but try to get to the one that will give you the most treasure.</b></p>","","instructions","","","","","","","","","","","",""
"html-keyboard-response","258","1090162","0.0-4.0-6.0-0.0","spark_pilot_norest","8175","4","11","Female","","","","","","","null","<div style=""font-size:100px;color:red;"">Starting in...</div>","null","","","","","","","","","","","","",""
"html-keyboard-response","259","1091167","0.0-4.0-6.0-1.0","spark_pilot_norest","8175","4","11","Female","","","","","","","null","<div style=""font-size:200px;color:red;"">3</div>","null","","","","","","","","","","","","",""
"html-keyboard-response","260","1092171","0.0-4.0-6.0-2.0","spark_pilot_norest","8175","4","11","Female","","","","","","","null","<div style=""font-size:200px;color:red;"">2</div>","null","","","","","","","","","","","","",""
"html-keyboard-response","261","1093176","0.0-4.0-6.0-3.0","spark_pilot_norest","8175","4","11","Female","","","","","","","null","<div style=""font-size:200px;color:red;"">1</div>","null","","","","","","","","","","","","",""
"revaluation","262","1093497","0.0-4.0-7.0-0.0","spark_pilot_norest","8175","4","11","Female","","false","","","","","[302.2000000011176]","./assets/img/ocean/test/0.jpg","[""ArrowUp""]","first stage test","ocean","0","{""ArrowUp,ArrowLeft"":2,""ArrowUp,ArrowRight"":11,""ArrowDown,ArrowLeft"":8,""ArrowDown,ArrowRight"":27}","false","ArrowUp","false","revaluation","1","","","",""
"html-keyboard-response","263","1094002","0.0-4.0-7.0-1.0","spark_pilot_norest","8175","4","11","Female","","","","","","","null","<div style=""font-size:60px;"">+</div>","null","fixation","","","","","","","","","","","",""
"revaluation","264","1094613","0.0-4.0-7.0-0.1","spark_pilot_norest","8175","4","11","Female","","false","","","","","[596.4000000003725]","./assets/img/ocean/test/2.jpg","[""ArrowUp""]","first stage test","ocean","0","{""ArrowUp,ArrowLeft"":2,""ArrowUp,ArrowRight"":11,""ArrowDown,ArrowLeft"":8,""ArrowDown,ArrowRight"":27}","false","ArrowUp","false","revaluation","1","","","",""
"html-keyboard-response","265","1095119","0.0-4.0-7.0-1.1","spark_pilot_norest","8175","4","11","Female","","","","","","","null","<div style=""font-size:60px;"">+</div>","null","fixation","","","","","","","","","","","",""
"revaluation","266","1095704","0.0-4.0-7.0-0.2","spark_pilot_norest","8175","4","11","Female","","false","","","","","[567.1000000014901]","./assets/img/ocean/test/1.jpg","[""ArrowDown""]","first stage test","ocean","0","{""ArrowUp,ArrowLeft"":2,""ArrowUp,ArrowRight"":11,""ArrowDown,ArrowLeft"":8,""ArrowDown,ArrowRight"":27}","true","ArrowDown","false","revaluation","1","","","",""
"html-keyboard-response","267","1096210","0.0-4.0-7.0-1.2","spark_pilot_norest","8175","4","11","Female","","","","","","","null","<div style=""font-size:60px;"">+</div>","null","fixation","","","","","","","","","","","",""
"revaluation","268","1096691","0.0-4.0-7.0-0.3","spark_pilot_norest","8175","4","11","Female","","false","","","","","[466.59999999962747]","./assets/img/ocean/test/3.jpg","[""ArrowUp""]","first stage test","ocean","0","{""ArrowUp,ArrowLeft"":2,""ArrowUp,ArrowRight"":11,""ArrowDown,ArrowLeft"":8,""ArrowDown,ArrowRight"":27}","false","ArrowUp","false","revaluation","1","","","",""
"html-keyboard-response","269","1097196","0.0-4.0-7.0-1.3","spark_pilot_norest","8175","4","11","Female","","","","","","","null","<div style=""font-size:60px;"">+</div>","null","fixation","","","","","","","","","","","",""
"learning-instructions","270","1110543","0.0-4.0-8.0-0.0","spark_pilot_norest","8175","4","11","Female","","","","","","","null","<p> Now you will see the animals again and can search their chests for treasure. </p>
            <p> This time, you will not see how much treasure you earned, but you will earn more bonus money for making better choices. </p>","","instructions","","","","","","","","","","","",""
"html-keyboard-response","271","1111551","0.0-4.0-9.0-0.0","spark_pilot_norest","8175","4","11","Female","","","","","","","null","<div style=""font-size:100px;color:red;"">Starting in...</div>","null","","","","","","","","","","","","",""
"html-keyboard-response","272","1112556","0.0-4.0-9.0-1.0","spark_pilot_norest","8175","4","11","Female","","","","","","","null","<div style=""font-size:200px;color:red;"">3</div>","null","","","","","","","","","","","","",""
"html-keyboard-response","273","1113562","0.0-4.0-9.0-2.0","spark_pilot_norest","8175","4","11","Female","","","","","","","null","<div style=""font-size:200px;color:red;"">2</div>","null","","","","","","","","","","","","",""
"html-keyboard-response","274","1114569","0.0-4.0-9.0-3.0","spark_pilot_norest","8175","4","11","Female","","","","","","","null","<div style=""font-size:200px;color:red;"">1</div>","null","","","","","","","","","","","","",""
"revaluation","275","1118447","0.0-4.0-10.0-0.0","spark_pilot_norest","8175","4","11","Female","","false","","","","","[3857.7999999988824]","./assets/img/ocean/animals/octopus.jpg","[""ArrowLeft""]","second stage test","ocean","0","{""ArrowUp,ArrowLeft"":2,""ArrowUp,ArrowRight"":11,""ArrowDown,ArrowLeft"":8,""ArrowDown,ArrowRight"":27}","false","ArrowUp,ArrowLeft","","revaluation","1","","","",""
"html-keyboard-response","276","1118952","0.0-4.0-10.0-1.0","spark_pilot_norest","8175","4","11","Female","","","","","","","null","<div style=""font-size:60px;"">+</div>","null","fixation","","","","","","","","","","","",""
"revaluation","277","1119372","0.0-4.0-10.0-0.1","spark_pilot_norest","8175","4","11","Female","","false","","","","","[400.3999999985099]","./assets/img/ocean/animals/octopus.jpg","[""ArrowRight""]","second stage test","ocean","0","{""ArrowUp,ArrowLeft"":2,""ArrowUp,ArrowRight"":11,""ArrowDown,ArrowLeft"":8,""ArrowDown,ArrowRight"":27}","true","ArrowUp,ArrowRight","","revaluation","1","","","",""
"html-keyboard-response","278","1119879","0.0-4.0-10.0-1.1","spark_pilot_norest","8175","4","11","Female","","","","","","","null","<div style=""font-size:60px;"">+</div>","null","fixation","","","","","","","","","","","",""
"revaluation","279","1120248","0.0-4.0-10.0-0.2","spark_pilot_norest","8175","4","11","Female","","false","","","","","[345.80000000074506]","./assets/img/ocean/animals/octopus.jpg","[""ArrowLeft""]","second stage test","ocean","0","{""ArrowUp,ArrowLeft"":2,""ArrowUp,ArrowRight"":11,""ArrowDown,ArrowLeft"":8,""ArrowDown,ArrowRight"":27}","false","ArrowUp,ArrowLeft","","revaluation","1","","","",""
"html-keyboard-response","280","1120754","0.0-4.0-10.0-1.2","spark_pilot_norest","8175","4","11","Female","","","","","","","null","<div style=""font-size:60px;"">+</div>","null","fixation","","","","","","","","","","","",""
"revaluation","281","1121052","0.0-4.0-10.0-0.3","spark_pilot_norest","8175","4","11","Female","","false","","","","","[283.69999999925494]","./assets/img/ocean/animals/octopus.jpg","[""ArrowRight""]","second stage test","ocean","0","{""ArrowUp,ArrowLeft"":2,""ArrowUp,ArrowRight"":11,""ArrowDown,ArrowLeft"":8,""ArrowDown,ArrowRight"":27}","true","ArrowUp,ArrowRight","","revaluation","1","","","",""
"html-keyboard-response","282","1121559","0.0-4.0-10.0-1.3","spark_pilot_norest","8175","4","11","Female","","","","","","","null","<div style=""font-size:60px;"">+</div>","null","fixation","","","","","","","","","","","",""
"revaluation","283","1122012","0.0-4.0-10.0-0.4","spark_pilot_norest","8175","4","11","Female","","false","","","","","[428.5]","./assets/img/ocean/animals/seahorse.jpg","[""ArrowRight""]","second stage test","ocean","0","{""ArrowUp,ArrowLeft"":2,""ArrowUp,ArrowRight"":11,""ArrowDown,ArrowLeft"":8,""ArrowDown,ArrowRight"":27}","true","ArrowDown,ArrowRight","","revaluation","1","","","",""
"html-keyboard-response","284","1122517","0.0-4.0-10.0-1.4","spark_pilot_norest","8175","4","11","Female","","","","","","","null","<div style=""font-size:60px;"">+</div>","null","fixation","","","","","","","","","","","",""
"revaluation","285","1123138","0.0-4.0-10.0-0.5","spark_pilot_norest","8175","4","11","Female","","false","","","","","[606.7000000011176]","./assets/img/ocean/animals/seahorse.jpg","[""ArrowLeft""]","second stage test","ocean","0","{""ArrowUp,ArrowLeft"":2,""ArrowUp,ArrowRight"":11,""ArrowDown,ArrowLeft"":8,""ArrowDown,ArrowRight"":27}","false","ArrowDown,ArrowLeft","","revaluation","1","","","",""
"html-keyboard-response","286","1123643","0.0-4.0-10.0-1.5","spark_pilot_norest","8175","4","11","Female","","","","","","","null","<div style=""font-size:60px;"">+</div>","null","fixation","","","","","","","","","","","",""
"revaluation","287","1124086","0.0-4.0-10.0-0.6","spark_pilot_norest","8175","4","11","Female","","false","","","","","[427.09999999962747]","./assets/img/ocean/animals/seahorse.jpg","[""ArrowLeft""]","second stage test","ocean","0","{""ArrowUp,ArrowLeft"":2,""ArrowUp,ArrowRight"":11,""ArrowDown,ArrowLeft"":8,""ArrowDown,ArrowRight"":27}","false","ArrowDown,ArrowLeft","","revaluation","1","","","",""
"html-keyboard-response","288","1124591","0.0-4.0-10.0-1.6","spark_pilot_norest","8175","4","11","Female","","","","","","","null","<div style=""font-size:60px;"">+</div>","null","fixation","","","","","","","","","","","",""
"revaluation","289","1124995","0.0-4.0-10.0-0.7","spark_pilot_norest","8175","4","11","Female","","false","","","","","[387.40000000037253]","./assets/img/ocean/animals/seahorse.jpg","[""ArrowLeft""]","second stage test","ocean","0","{""ArrowUp,ArrowLeft"":2,""ArrowUp,ArrowRight"":11,""ArrowDown,ArrowLeft"":8,""ArrowDown,ArrowRight"":27}","false","ArrowDown,ArrowLeft","","revaluation","1","","","",""
"html-keyboard-response","290","1125501","0.0-4.0-10.0-1.7","spark_pilot_norest","8175","4","11","Female","","","","","","","null","<div style=""font-size:60px;"">+</div>","null","fixation","","","","","","","","","","","",""
"learning-instructions","291","1131540","0.0-4.0-0.1-0.2","spark_pilot_norest","8175","4","11","Female","","","","","","","3208.0999999996275","<p> This time you are searching for treasure in the <b>canyon</b>.</p>","","instructions","","","","","","","","","","","",""
"learning-instructions","292","1149823","0.0-4.0-0.1-0.3","spark_pilot_norest","8175","4","11","Female","","","","","","","1023.5","<p><b>New</b> animals with <b>new</b> treasure chests live here. You need to explore to discover where the animal with the best treasure chest is.</p>
                    <p> Like before, once you figure out which animal has the chest with the most treasure, you should try to get to that animal and select that chest! </p>","","instructions","","","","","","","","","","","",""
"learning-instructions","293","1168362","0.0-4.0-1.1-0.1","spark_pilot_norest","8175","4","11","Female","","","","","","","3802.800000000745","<p> Remember, when you see a picture of the place, use the up and down keys to <b>find an animal</b>.</p>
            <p> When you encounter an animal, you should use the left and right keys to <b>select a treasure chest</b>.</p>
            <p> Don't forget to look out for the robber! </p>","","instructions","","","","","","","","","","","",""
"revaluation","294","1174376","0.0-4.0-2.1-0.50","spark_pilot_norest","8175","4","11","Female","","false","","","","","[754.5999999996275,449.59999999962747]","./assets/img/canyon/memory/21.jpg","[""ArrowDown"",""ArrowRight""]","value training","canyon","30","{""ArrowUp,ArrowLeft"":23,""ArrowUp,ArrowRight"":10,""ArrowDown,ArrowLeft"":8,""ArrowDown,ArrowRight"":30}","true","ArrowDown,ArrowRight","false","original","2","0","","",""
"html-keyboard-response","295","1174881","0.0-4.0-2.1-1.50","spark_pilot_norest","8175","4","11","Female","","","","","","","null","<div style=""font-size:60px;"">+</div>","null","fixation","","","","","","","","","1","","",""
"revaluation","296","1180895","0.0-4.0-2.1-0.51","spark_pilot_norest","8175","4","11","Female","","false","","","","","[1864.1000000014901,613]","./assets/img/canyon/memory/8.jpg","[""ArrowUp"",""ArrowRight""]","value training","canyon","10","{""ArrowUp,ArrowLeft"":23,""ArrowUp,ArrowRight"":10,""ArrowDown,ArrowLeft"":8,""ArrowDown,ArrowRight"":30}","false","ArrowUp,ArrowRight","false","original","2","2","","",""
"html-keyboard-response","297","1181404","0.0-4.0-2.1-1.51","spark_pilot_norest","8175","4","11","Female","","","","","","","null","<div style=""font-size:60px;"">+</div>","null","fixation","","","","","","","","","3","","",""
"revaluation","298","1187433","0.0-4.0-2.1-0.52","spark_pilot_norest","8175","4","11","Female","","false","","","","","[345.5,305]","./assets/img/canyon/memory/0.jpg","[""ArrowDown"",""ArrowRight""]","value training","canyon","30","{""ArrowUp,ArrowLeft"":23,""ArrowUp,ArrowRight"":10,""ArrowDown,ArrowLeft"":8,""ArrowDown,ArrowRight"":30}","true","ArrowDown,ArrowRight","false","original","2","4","","",""
"html-keyboard-response","299","1187940","0.0-4.0-2.1-1.52","spark_pilot_norest","8175","4","11","Female","","","","","","","null","<div style=""font-size:60px;"">+</div>","null","fixation","","","","","","","","","5","","",""
"revaluation","300","1193953","0.0-4.0-2.1-0.53","spark_pilot_norest","8175","4","11","Female","","false","","","","","[338.30000000074506,1320.2000000011176]","./assets/img/canyon/memory/20.jpg","[""ArrowDown"",""ArrowRight""]","value training","canyon","30","{""ArrowUp,ArrowLeft"":23,""ArrowUp,ArrowRight"":10,""ArrowDown,ArrowLeft"":8,""ArrowDown,ArrowRight"":30}","true","ArrowDown,ArrowRight","false","original","2","6","","",""
"html-keyboard-response","301","1194457","0.0-4.0-2.1-1.53","spark_pilot_norest","8175","4","11","Female","","","","","","","null","<div style=""font-size:60px;"">+</div>","null","fixation","","","","","","","","","7","","",""
"revaluation","302","1200479","0.0-4.0-2.1-0.54","spark_pilot_norest","8175","4","11","Female","","false","","","","","[928,334.5]","./assets/img/canyon/memory/26.jpg","[""ArrowDown"",""ArrowRight""]","value training","canyon","30","{""ArrowUp,ArrowLeft"":23,""ArrowUp,ArrowRight"":10,""ArrowDown,ArrowLeft"":8,""ArrowDown,ArrowRight"":30}","true","ArrowDown,ArrowRight","false","original","2","8","","",""
"html-keyboard-response","303","1200983","0.0-4.0-2.1-1.54","spark_pilot_norest","8175","4","11","Female","","","","","","","null","<div style=""font-size:60px;"">+</div>","null","fixation","","","","","","","","","9","","",""
"revaluation","304","1206994","0.0-4.0-2.1-0.55","spark_pilot_norest","8175","4","11","Female","","false","","","","","[532.5999999996275,238]","./assets/img/canyon/memory/41.jpg","[""ArrowDown"",""ArrowRight""]","value training","canyon","30","{""ArrowUp,ArrowLeft"":23,""ArrowUp,ArrowRight"":10,""ArrowDown,ArrowLeft"":8,""ArrowDown,ArrowRight"":30}","true","ArrowDown,ArrowRight","false","original","2","10","","",""
"html-keyboard-response","305","1207499","0.0-4.0-2.1-1.55","spark_pilot_norest","8175","4","11","Female","","","","","","","null","<div style=""font-size:60px;"">+</div>","null","fixation","","","","","","","","","11","","",""
"revaluation","306","1213520","0.0-4.0-2.1-0.56","spark_pilot_norest","8175","4","11","Female","","false","","","","","[444.30000000074506,893.3000000007451]","./assets/img/canyon/memory/6.jpg","[""ArrowDown"",""ArrowRight""]","value training","canyon","30","{""ArrowUp,ArrowLeft"":23,""ArrowUp,ArrowRight"":10,""ArrowDown,ArrowLeft"":8,""ArrowDown,ArrowRight"":30}","true","ArrowDown,ArrowRight","false","original","2","12","","",""
"html-keyboard-response","307","1214027","0.0-4.0-2.1-1.56","spark_pilot_norest","8175","4","11","Female","","","","","","","null","<div style=""font-size:60px;"">+</div>","null","fixation","","","","","","","","","13","","",""
"revaluation","308","1220047","0.0-4.0-2.1-0.57","spark_pilot_norest","8175","4","11","Female","","false","","","","","[1606.0999999996275,439.7999999988824]","./assets/img/canyon/memory/41.jpg","[""ArrowDown"",""ArrowRight""]","value training","canyon","30","{""ArrowUp,ArrowLeft"":23,""ArrowUp,ArrowRight"":10,""ArrowDown,ArrowLeft"":8,""ArrowDown,ArrowRight"":30}","true","ArrowDown,ArrowRight","false","original","2","14","","",""
"html-keyboard-response","309","1220553","0.0-4.0-2.1-1.57","spark_pilot_norest","8175","4","11","Female","","","","","","","null","<div style=""font-size:60px;"">+</div>","null","fixation","","","","","","","","","15","","",""
"revaluation","310","1226571","0.0-4.0-2.1-0.58","spark_pilot_norest","8175","4","11","Female","","false","","","","","[369.3999999985099,719.2000000011176]","./assets/img/canyon/memory/2.jpg","[""ArrowDown"",""ArrowRight""]","value training","canyon","30","{""ArrowUp,ArrowLeft"":23,""ArrowUp,ArrowRight"":10,""ArrowDown,ArrowLeft"":8,""ArrowDown,ArrowRight"":30}","true","ArrowDown,ArrowRight","false","original","2","16","","",""
"html-keyboard-response","311","1227076","0.0-4.0-2.1-1.58","spark_pilot_norest","8175","4","11","Female","","","","","","","null","<div style=""font-size:60px;"">+</div>","null","fixation","","","","","","","","","17","","",""
"revaluation","312","1233097","0.0-4.0-2.1-0.59","spark_pilot_norest","8175","4","11","Female","","false","","","","","[601,212]","./assets/img/canyon/memory/14.jpg","[""ArrowDown"",""ArrowRight""]","value training","canyon","30","{""ArrowUp,ArrowLeft"":23,""ArrowUp,ArrowRight"":10,""ArrowDown,ArrowLeft"":8,""ArrowDown,ArrowRight"":30}","true","ArrowDown,ArrowRight","false","original","2","18","","",""
