"trial_type","trial_index","time_elapsed","internal_node_id","task_version","subject_id","assigned_condition","age","gender","success","timeout","failed_images","failed_audio","failed_video","browser_interaction","rt","stimulus","response","task_part","environment","score","rewardMap","correct","fullState","isCatch","condition","order","trial_num","key_press","ground_truth","bonus"
"pavlovia","0","1452","0.0-0.0","spark_pilot_norest","8403","3","14","Female","","","","","","","","","","","","","","","","","","","","","",""
"preload","1","67101","0.0-1.0","spark_pilot_norest","8403","3","14","Female","true","false","[]","[]","[]","[{""event"":""fullscreenenter"",""trial"":2,""time"":69638}]","","","","","","","","","","","","","","","",""
"fullscreen","2","70570","0.0-2.0","spark_pilot_norest","8403","3","14","Female","true","","","","","","","","","","","","","","","","","","","","",""
"audio-button-response","3","72696","0.0-3.0-0.0-0.0","spark_pilot_norest","8403","3","14","Female","","","","","","","1261","./assets/audio/audiotest/turtle.mp3","2","audio_test","","","","","","","","","","","",""
"learning-instructions","4","82661","0.0-3.0-1.0-0.0","spark_pilot_norest","8403","3","14","Female","","","","","","","2962.600000023842","<p> Welcome! Please remember to stay in fullscreen mode and don't click away from the experiment. </p>","","instructions","","","","","","","","","","","",""
"learning-instructions","5","91648","0.0-3.0-1.0-0.1","spark_pilot_norest","8403","3","14","Female","","","","","","","563.2000000178814","<p> Today you will be playing a game to earn treasure. </p>
            <p> At the end of the experiment, you will earn a bonus based on how much treasure you find. </p>
            <img src='./assets/img/instructions/treasure.jpg' class='instructions-image'>","","instructions","","","","","","","","","","","",""
"learning-instructions","6","100881","0.0-3.0-1.0-0.2","spark_pilot_norest","8403","3","14","Female","","","","","","","946.5","<p> Animals have hidden treasure in treasure chests. </p>
            <p> You need to first find an animal and then choose which of their treasure chests to search. </p>
            <img src='./assets/img/space/animals/cat.jpg' class='instructions-image'>","","instructions","","","","","","","","","","","",""
"learning-instructions","7","115504","0.0-3.0-1.0-0.3","spark_pilot_norest","8403","3","14","Female","","","","","","","1429.2000000178814","<p> In each round, you will search for treasure in a different place. In the real game, there will be two rounds. </p>
            <p> You will begin with a separate, practice round where you will search for treasure in outer space. </p>
            <img src='./assets/img/space/0.jpg' class='instructions-image'>","","instructions","","","","","","","","","","","",""
"learning-instructions","8","127869","0.0-3.0-1.0-0.4","spark_pilot_norest","8403","3","14","Female","","","","","","","908.6999999880791","<p> On every turn, you will see a picture of the place that you are in, but the specific image may be different each time. </p>
            <p> For example, both of these images mean you are in outer space. </p>
            <img src='./assets/img/instructions/outerspace.jpg' class='instructions-image'>","","instructions","","","","","","","","","","","",""
"learning-instructions","9","136956","0.0-3.0-1.0-0.5","spark_pilot_norest","8403","3","14","Female","","","","","","","1237.2999999821186","<p> You need to decide which direction to travel in. </p>
            <p> You can choose between going <b>up or down</b> by using the arrow keys. </p>
            <img src='./assets/img/instructions/updown.jpg' class='instructions-image'>","","instructions","","","","","","","","","","","",""
"learning-instructions","10","147192","0.0-3.0-1.0-0.6","spark_pilot_norest","8403","3","14","Female","","","","","","","1392.4000000059605","<p> You will have <b>2 seconds</b> to make your choice. </p>
            <p> If you do not make a choice within 2 seconds, you will not find an animal or earn treasure. </p>
            <img src='./assets/img/instructions/2seconds.jpg' class='instructions-image'>","","instructions","","","","","","","","","","","",""
"learning-instructions","11","155206","0.0-3.0-1.0-0.7","spark_pilot_norest","8403","3","14","Female","","","","","","","967.6999999880791","<p> Let’s try practicing that now! </p>
            <p> When you see a picture of the place you are in, press the <b>up</b> key to travel up. </p>
            <img src='./assets/img/instructions/pressUp.jpg' class='instructions-image'>","","instructions","","","","","","","","","","","",""
"revaluation","12","159228","0.0-3.0-2.0-0.0","spark_pilot_norest","8403","3","14","Female","","false","","","","","[764]","./assets/img/space/0.jpg","[""ArrowUp""]","first stage practice","space","0","null","null","ArrowUp","false","","","","","",""
"html-keyboard-response","13","159740","0.0-3.0-2.0-1.0","spark_pilot_norest","8403","3","14","Female","","","","","","","null","<div style=""font-size:60px;"">+</div>","null","fixation","","","","","","","","","","","",""
"revaluation","14","163762","0.0-3.0-2.0-0.1","spark_pilot_norest","8403","3","14","Female","","false","","","","","[959.5999999940395]","./assets/img/space/1.jpg","[""ArrowUp""]","first stage practice","space","0","null","null","ArrowUp","false","","","","","",""
"html-keyboard-response","15","164265","0.0-3.0-2.0-1.1","spark_pilot_norest","8403","3","14","Female","","","","","","","null","<div style=""font-size:60px;"">+</div>","null","fixation","","","","","","","","","","","",""
"revaluation","16","168278","0.0-3.0-2.0-0.2","spark_pilot_norest","8403","3","14","Female","","true","","","","","[]","./assets/img/space/2.jpg","[]","first stage practice","space","-5","null","null","","false","","","","","",""
"html-keyboard-response","17","168785","0.0-3.0-2.0-1.2","spark_pilot_norest","8403","3","14","Female","","","","","","","null","<div style=""font-size:60px;"">+</div>","null","fixation","","","","","","","","","","","",""
"learning-instructions","18","174219","0.0-3.0-3.0-0.0","spark_pilot_norest","8403","3","14","Female","","","","","","","729.9000000059605","<p> Great job! Now try pressing the <b>down</b> key to travel down. </p>
            <img src='./assets/img/instructions/pressDown.jpg' class='instructions-image'>","","instructions","","","","","","","","","","","",""
"revaluation","19","178235","0.0-3.0-4.0-0.0","spark_pilot_norest","8403","3","14","Female","","false","","","","","[483.30000001192093]","./assets/img/space/3.jpg","[""ArrowDown""]","first stage practice","space","0","null","null","ArrowDown","false","","","","","",""
"html-keyboard-response","20","178748","0.0-3.0-4.0-1.0","spark_pilot_norest","8403","3","14","Female","","","","","","","null","<div style=""font-size:60px;"">+</div>","null","fixation","","","","","","","","","","","",""
"revaluation","21","182777","0.0-3.0-4.0-0.1","spark_pilot_norest","8403","3","14","Female","","false","","","","","[301.5]","./assets/img/space/4.jpg","[""ArrowDown""]","first stage practice","space","0","null","null","ArrowDown","false","","","","","",""
"html-keyboard-response","22","183286","0.0-3.0-4.0-1.1","spark_pilot_norest","8403","3","14","Female","","","","","","","null","<div style=""font-size:60px;"">+</div>","null","fixation","","","","","","","","","","","",""
"revaluation","23","187294","0.0-3.0-4.0-0.2","spark_pilot_norest","8403","3","14","Female","","false","","","","","[295.2999999821186]","./assets/img/space/5.jpg","[""ArrowDown""]","first stage practice","space","0","null","null","ArrowDown","false","","","","","",""
"html-keyboard-response","24","187809","0.0-3.0-4.0-1.2","spark_pilot_norest","8403","3","14","Female","","","","","","","null","<div style=""font-size:60px;"">+</div>","null","fixation","","","","","","","","","","","",""
"learning-instructions","25","199038","0.0-3.0-5.0-0.0","spark_pilot_norest","8403","3","14","Female","","","","","","","1350.0999999940395","<p> The animals don’t move, so the animal in the upper part of a place will stay in the upper part of a place, and the animal in the lower part of a place will stay in the lower part of a place. </p>","","instructions","","","","","","","","","","","",""
"learning-instructions","26","208796","0.0-3.0-5.0-0.1","spark_pilot_norest","8403","3","14","Female","","","","","","","587","<p> Each animal has two treasure chests for you to choose from. </p>
            <p> The amount of treasure in each chest can range from <b> 0 to 40 pieces.</b></p>","","instructions","","","","","","","","","","","",""
"learning-instructions","27","220605","0.0-3.0-5.0-0.2","spark_pilot_norest","8403","3","14","Female","","","","","","","587","<p> You should decide which chest to search for treasure by using the <b>left</b> and <b>right</b> arrow keys. </p>
            <p><b> Pay attention to which animal is on the screen, as the animals have different treasure chests. </b></p>
            <img src='./assets/img/instructions/leftright.jpg' class='instructions-image'>","","instructions","","","","","","","","","","","",""
"learning-instructions","28","227401","0.0-3.0-5.0-0.3","spark_pilot_norest","8403","3","14","Female","","","","","","","402.60000002384186","<p> Let’s try practicing that now. </p>
            <p> When you see an animal, choose which chest to search for treasure. </p>
            <img src='./assets/img/instructions/chooseChest.jpg' class='instructions-image'>","","instructions","","","","","","","","","","","",""
"revaluation","29","231418","0.0-3.0-6.0-0.0","spark_pilot_norest","8403","3","14","Female","","false","","","","","[1117.0999999940395]","./assets/img/space/animals/cat.jpg","[""ArrowRight""]","second stage practice","space","36","{""ArrowUp,ArrowLeft"":3,""ArrowUp,ArrowRight"":36,""ArrowDown,ArrowLeft"":15,""ArrowDown,ArrowRight"":23}","true","ArrowUp,ArrowRight","","","","","","",""
"html-keyboard-response","30","231927","0.0-3.0-6.0-1.0","spark_pilot_norest","8403","3","14","Female","","","","","","","null","<div style=""font-size:60px;"">+</div>","null","fixation","","","","","","","","","","","",""
"revaluation","31","235938","0.0-3.0-6.0-0.1","spark_pilot_norest","8403","3","14","Female","","false","","","","","[893.2000000178814]","./assets/img/space/animals/rabbit.jpg","[""ArrowLeft""]","second stage practice","space","15","{""ArrowUp,ArrowLeft"":3,""ArrowUp,ArrowRight"":36,""ArrowDown,ArrowLeft"":15,""ArrowDown,ArrowRight"":23}","false","ArrowDown,ArrowLeft","","","","","","",""
"html-keyboard-response","32","236446","0.0-3.0-6.0-1.1","spark_pilot_norest","8403","3","14","Female","","","","","","","null","<div style=""font-size:60px;"">+</div>","null","fixation","","","","","","","","","","","",""
"revaluation","33","240466","0.0-3.0-6.0-0.2","spark_pilot_norest","8403","3","14","Female","","false","","","","","[856.0999999940395]","./assets/img/space/animals/rabbit.jpg","[""ArrowRight""]","second stage practice","space","23","{""ArrowUp,ArrowLeft"":3,""ArrowUp,ArrowRight"":36,""ArrowDown,ArrowLeft"":15,""ArrowDown,ArrowRight"":23}","true","ArrowDown,ArrowRight","","","","","","",""
"html-keyboard-response","34","240978","0.0-3.0-6.0-1.2","spark_pilot_norest","8403","3","14","Female","","","","","","","null","<div style=""font-size:60px;"">+</div>","null","fixation","","","","","","","","","","","",""
"revaluation","35","245006","0.0-3.0-6.0-0.3","spark_pilot_norest","8403","3","14","Female","","false","","","","","[723.1000000238419]","./assets/img/space/animals/cat.jpg","[""ArrowRight""]","second stage practice","space","36","{""ArrowUp,ArrowLeft"":3,""ArrowUp,ArrowRight"":36,""ArrowDown,ArrowLeft"":15,""ArrowDown,ArrowRight"":23}","true","ArrowUp,ArrowRight","","","","","","",""
"html-keyboard-response","36","245513","0.0-3.0-6.0-1.3","spark_pilot_norest","8403","3","14","Female","","","","","","","null","<div style=""font-size:60px;"">+</div>","null","fixation","","","","","","","","","","","",""
"learning-instructions","37","262971","0.0-3.0-7.0-0.0","spark_pilot_norest","8403","3","14","Female","","","","","","","611.2999999821186","<p> Great job. Now let’s try putting it together. </p>
            <p> On each turn, you will first see a picture to remind you of the place you are in, and you need to choose whether to go up or down. </p>
            <p> Then you will see an animal and choose which of its chests to search for treasure. </p>","","instructions","","","","","","","","","","","",""
"learning-instructions","38","271657","0.0-3.0-7.0-0.1","spark_pilot_norest","8403","3","14","Female","","","","","","","398.60000002384186","<p> When you choose whether to go up or down, try to go to the animal with the chest with the most treasure. </p>
            <p> Try practicing that now! </p>","","instructions","","","","","","","","","","","",""
"revaluation","39","277678","0.0-3.0-8.0-0.0","spark_pilot_norest","8403","3","14","Female","","false","","","","","[874.4000000059605,642]","./assets/img/space/6.jpg","[""ArrowUp"",""ArrowRight""]","full practice","space","36","{""ArrowUp,ArrowLeft"":3,""ArrowUp,ArrowRight"":36,""ArrowDown,ArrowLeft"":15,""ArrowDown,ArrowRight"":23}","true","ArrowUp,ArrowRight","false","","","","","",""
"html-keyboard-response","40","278196","0.0-3.0-8.0-1.0","spark_pilot_norest","8403","3","14","Female","","","","","","","null","<div style=""font-size:60px;"">+</div>","null","fixation","","","","","","","","","","","",""
"revaluation","41","284225","0.0-3.0-8.0-0.1","spark_pilot_norest","8403","3","14","Female","","false","","","","","[760.3000000119209,458]","./assets/img/space/7.jpg","[""ArrowUp"",""ArrowRight""]","full practice","space","36","{""ArrowUp,ArrowLeft"":3,""ArrowUp,ArrowRight"":36,""ArrowDown,ArrowLeft"":15,""ArrowDown,ArrowRight"":23}","true","ArrowUp,ArrowRight","false","","","","","",""
"html-keyboard-response","42","284732","0.0-3.0-8.0-1.1","spark_pilot_norest","8403","3","14","Female","","","","","","","null","<div style=""font-size:60px;"">+</div>","null","fixation","","","","","","","","","","","",""
"revaluation","43","290762","0.0-3.0-8.0-0.2","spark_pilot_norest","8403","3","14","Female","","false","","","","","[573.2000000178814,644.5999999940395]","./assets/img/space/8.jpg","[""ArrowUp"",""ArrowRight""]","full practice","space","36","{""ArrowUp,ArrowLeft"":3,""ArrowUp,ArrowRight"":36,""ArrowDown,ArrowLeft"":15,""ArrowDown,ArrowRight"":23}","true","ArrowUp,ArrowRight","false","","","","","",""
"html-keyboard-response","44","291267","0.0-3.0-8.0-1.2","spark_pilot_norest","8403","3","14","Female","","","","","","","null","<div style=""font-size:60px;"">+</div>","null","fixation","","","","","","","","","","","",""
"revaluation","45","297286","0.0-3.0-8.0-0.3","spark_pilot_norest","8403","3","14","Female","","false","","","","","[508.59999999403954,425.09999999403954]","./assets/img/space/9.jpg","[""ArrowUp"",""ArrowRight""]","full practice","space","36","{""ArrowUp,ArrowLeft"":3,""ArrowUp,ArrowRight"":36,""ArrowDown,ArrowLeft"":15,""ArrowDown,ArrowRight"":23}","true","ArrowUp,ArrowRight","false","","","","","",""
"html-keyboard-response","46","297797","0.0-3.0-8.0-1.3","spark_pilot_norest","8403","3","14","Female","","","","","","","null","<div style=""font-size:60px;"">+</div>","null","fixation","","","","","","","","","","","",""
"revaluation","47","303814","0.0-3.0-8.0-0.4","spark_pilot_norest","8403","3","14","Female","","false","","","","","[529.0999999940395,422.69999998807907]","./assets/img/space/10.jpg","[""ArrowUp"",""ArrowRight""]","full practice","space","36","{""ArrowUp,ArrowLeft"":3,""ArrowUp,ArrowRight"":36,""ArrowDown,ArrowLeft"":15,""ArrowDown,ArrowRight"":23}","true","ArrowUp,ArrowRight","false","","","","","",""
"html-keyboard-response","48","304319","0.0-3.0-8.0-1.4","spark_pilot_norest","8403","3","14","Female","","","","","","","null","<div style=""font-size:60px;"">+</div>","null","fixation","","","","","","","","","","","",""
"learning-instructions","49","315248","0.0-3.0-9.0-0.0","spark_pilot_norest","8403","3","14","Female","","","","","","","610.1999999880791","<p> One last thing: sometimes, you will see a robber. The robber can be anywhere in the picture. </p>
            <p> If you do not stop them, you will lose treasure. </p>
            <img src='./assets/img/instructions/robber.jpg' class='instructions-image'>","","instructions","","","","","","","","","","","",""
"learning-instructions","50","322871","0.0-3.0-9.0-0.1","spark_pilot_norest","8403","3","14","Female","","","","","","","434.2999999821186","<p> If you see the robber, you should <b>press the space bar</b> rather than using the arrow keys. </p>
            <p> Try practicing that now! </p>","","instructions","","","","","","","","","","","",""
"revaluation","51","326889","0.0-3.0-10.0-0.0","spark_pilot_norest","8403","3","14","Female","","false","","","","","[951.9000000059605]","./assets/img/space/catch/0.jpg","[""spaceBar""]","catch practice","space","0","{""ArrowUp,ArrowLeft"":3,""ArrowUp,ArrowRight"":36,""ArrowDown,ArrowLeft"":15,""ArrowDown,ArrowRight"":23}","true","spaceBar","true","","","","","",""
"html-keyboard-response","52","327393","0.0-3.0-10.0-1.0","spark_pilot_norest","8403","3","14","Female","","","","","","","null","<div style=""font-size:60px;"">+</div>","null","fixation","","","","","","","","","","","",""
"revaluation","53","331405","0.0-3.0-10.0-0.1","spark_pilot_norest","8403","3","14","Female","","false","","","","","[715.0999999940395]","./assets/img/space/catch/1.jpg","[""spaceBar""]","catch practice","space","0","{""ArrowUp,ArrowLeft"":3,""ArrowUp,ArrowRight"":36,""ArrowDown,ArrowLeft"":15,""ArrowDown,ArrowRight"":23}","true","spaceBar","true","","","","","",""
"html-keyboard-response","54","331912","0.0-3.0-10.0-1.1","spark_pilot_norest","8403","3","14","Female","","","","","","","null","<div style=""font-size:60px;"">+</div>","null","fixation","","","","","","","","","","","",""
"revaluation","55","335925","0.0-3.0-10.0-0.2","spark_pilot_norest","8403","3","14","Female","","false","","","","","[848.0999999940395]","./assets/img/space/catch/2.jpg","[""spaceBar""]","catch practice","space","0","{""ArrowUp,ArrowLeft"":3,""ArrowUp,ArrowRight"":36,""ArrowDown,ArrowLeft"":15,""ArrowDown,ArrowRight"":23}","true","spaceBar","true","","","","","",""
"html-keyboard-response","56","336436","0.0-3.0-10.0-1.2","spark_pilot_norest","8403","3","14","Female","","","","","","","null","<div style=""font-size:60px;"">+</div>","null","fixation","","","","","","","","","","","",""
"learning-instructions","57","342941","0.0-3.0-11.0-0.0-0.0","spark_pilot_norest","8403","3","14","Female","","","","","","","1215.699999988079","<p> Now, you will practice a shortened version of the game to get a sense of how it all fits together. </p>","","instructions","","","","","","","","","","","",""
"learning-instructions","58","346878","0.0-3.0-11.0-0.0-0.1","spark_pilot_norest","8403","3","14","Female","","","","","","","741.6999999880791","<p>This time you are searching for treasure in outer space.</p>","","instructions","","","","","","","","","","","",""
"learning-instructions","59","362169","0.0-3.0-11.0-1.0-0.0","spark_pilot_norest","8403","3","14","Female","","","","","","","480.7999999821186","<p> Remember, when you see a picture of the place, use the up and down keys to <b>find an animal</b>.</p>
            <p> When you encounter an animal, you should use the left and right keys to <b>select a treasure chest</b>.</p>
            <p> Don't forget to look out for the robber! </p>","","instructions","","","","","","","","","","","",""
"revaluation","60","368186","0.0-3.0-11.0-2.0-0.0","spark_pilot_norest","8403","3","14","Female","","false","","","","","[716.5999999940395,367.09999999403954]","./assets/img/space/11.jpg","[""ArrowUp"",""ArrowRight""]","practice block","space","36","{""ArrowUp,ArrowLeft"":3,""ArrowUp,ArrowRight"":36,""ArrowDown,ArrowLeft"":15,""ArrowDown,ArrowRight"":23}","true","ArrowUp,ArrowRight","false","","","","","",""
"html-keyboard-response","61","368696","0.0-3.0-11.0-2.0-1.0","spark_pilot_norest","8403","3","14","Female","","","","","","","null","<div style=""font-size:60px;"">+</div>","null","fixation","","","","","","","","","","","",""
"revaluation","62","374733","0.0-3.0-11.0-2.0-0.1","spark_pilot_norest","8403","3","14","Female","","false","","","","","[888.8000000119209,617.6999999880791]","./assets/img/space/12.jpg","[""ArrowUp"",""ArrowRight""]","practice block","space","36","{""ArrowUp,ArrowLeft"":3,""ArrowUp,ArrowRight"":36,""ArrowDown,ArrowLeft"":15,""ArrowDown,ArrowRight"":23}","true","ArrowUp,ArrowRight","false","","","","","",""
"html-keyboard-response","63","375245","0.0-3.0-11.0-2.0-1.1","spark_pilot_norest","8403","3","14","Female","","","","","","","null","<div style=""font-size:60px;"">+</div>","null","fixation","","","","","","","","","","","",""
"revaluation","64","381273","0.0-3.0-11.0-2.0-0.2","spark_pilot_norest","8403","3","14","Female","","false","","","","","[759.0999999940395,615]","./assets/img/space/13.jpg","[""ArrowUp"",""ArrowRight""]","practice block","space","36","{""ArrowUp,ArrowLeft"":3,""ArrowUp,ArrowRight"":36,""ArrowDown,ArrowLeft"":15,""ArrowDown,ArrowRight"":23}","true","ArrowUp,ArrowRight","false","","","","","",""
"html-keyboard-response","65","381783","0.0-3.0-11.0-2.0-1.2","spark_pilot_norest","8403","3","14","Female","","","","","","","null","<div style=""font-size:60px;"">+</div>","null","fixation","","","","","","","","","","","",""
"revaluation","66","387813","0.0-3.0-11.0-2.0-0.3","spark_pilot_norest","8403","3","14","Female","","false","","","","","[849.2999999821186,462.7999999821186]","./assets/img/space/14.jpg","[""ArrowUp"",""ArrowRight""]","practice block","space","36","{""ArrowUp,ArrowLeft"":3,""ArrowUp,ArrowRight"":36,""ArrowDown,ArrowLeft"":15,""ArrowDown,ArrowRight"":23}","true","ArrowUp,ArrowRight","false","","","","","",""
"html-keyboard-response","67","388315","0.0-3.0-11.0-2.0-1.3","spark_pilot_norest","8403","3","14","Female","","","","","","","null","<div style=""font-size:60px;"">+</div>","null","fixation","","","","","","","","","","","",""
"revaluation","68","394342","0.0-3.0-11.0-2.0-0.4","spark_pilot_norest","8403","3","14","Female","","false","","","","","[1045.5,538.0999999940395]","./assets/img/space/11.jpg","[""ArrowUp"",""ArrowRight""]","practice block","space","36","{""ArrowUp,ArrowLeft"":3,""ArrowUp,ArrowRight"":36,""ArrowDown,ArrowLeft"":15,""ArrowDown,ArrowRight"":23}","true","ArrowUp,ArrowRight","false","","","","","",""
"html-keyboard-response","69","394845","0.0-3.0-11.0-2.0-1.4","spark_pilot_norest","8403","3","14","Female","","","","","","","null","<div style=""font-size:60px;"">+</div>","null","fixation","","","","","","","","","","","",""
"revaluation","70","400874","0.0-3.0-11.0-2.0-0.5","spark_pilot_norest","8403","3","14","Female","","false","","","","","[1080.2000000178814,823]","./assets/img/space/12.jpg","[""ArrowUp"",""ArrowRight""]","practice block","space","36","{""ArrowUp,ArrowLeft"":3,""ArrowUp,ArrowRight"":36,""ArrowDown,ArrowLeft"":15,""ArrowDown,ArrowRight"":23}","true","ArrowUp,ArrowRight","false","","","","","",""
"html-keyboard-response","71","401383","0.0-3.0-11.0-2.0-1.5","spark_pilot_norest","8403","3","14","Female","","","","","","","null","<div style=""font-size:60px;"">+</div>","null","fixation","","","","","","","","","","","",""
"revaluation","72","407412","0.0-3.0-11.0-2.0-0.6","spark_pilot_norest","8403","3","14","Female","","false","","","","","[1094.5,549.9000000059605]","./assets/img/space/13.jpg","[""ArrowUp"",""ArrowRight""]","practice block","space","36","{""ArrowUp,ArrowLeft"":3,""ArrowUp,ArrowRight"":36,""ArrowDown,ArrowLeft"":15,""ArrowDown,ArrowRight"":23}","true","ArrowUp,ArrowRight","false","","","","","",""
"html-keyboard-response","73","407922","0.0-3.0-11.0-2.0-1.6","spark_pilot_norest","8403","3","14","Female","","","","","","","null","<div style=""font-size:60px;"">+</div>","null","fixation","","","","","","","","","","","",""
"revaluation","74","413943","0.0-3.0-11.0-2.0-0.7","spark_pilot_norest","8403","3","14","Female","","false","","","","","[1245.0999999940395,561.8000000119209]","./assets/img/space/14.jpg","[""ArrowUp"",""ArrowRight""]","practice block","space","36","{""ArrowUp,ArrowLeft"":3,""ArrowUp,ArrowRight"":36,""ArrowDown,ArrowLeft"":15,""ArrowDown,ArrowRight"":23}","true","ArrowUp,ArrowRight","false","","","","","",""
"html-keyboard-response","75","414449","0.0-3.0-11.0-2.0-1.7","spark_pilot_norest","8403","3","14","Female","","","","","","","null","<div style=""font-size:60px;"">+</div>","null","fixation","","","","","","","","","","","",""
"revaluation","76","418477","0.0-3.0-11.0-2.0-0.8","spark_pilot_norest","8403","3","14","Female","","false","","","","","[708.7999999821186]","./assets/img/space/catch/3.jpg","[""spaceBar""]","practice block","space","0","{""ArrowUp,ArrowLeft"":3,""ArrowUp,ArrowRight"":36,""ArrowDown,ArrowLeft"":15,""ArrowDown,ArrowRight"":23}","true","spaceBar","true","","","","","",""
"html-keyboard-response","77","418986","0.0-3.0-11.0-2.0-1.8","spark_pilot_norest","8403","3","14","Female","","","","","","","null","<div style=""font-size:60px;"">+</div>","null","fixation","","","","","","","","","","","",""
"learning-instructions","78","433278","0.0-3.0-11.0-3.0-0.0","spark_pilot_norest","8403","3","14","Female","","","","","","","515.6000000238419","<p> Now, you will travel with a friend who will choose whether you go up or down first. </p>
            <p> On these turns, you will just see the animal that they found. You will still get to choose which chest to search for treasure.</p>","","instructions","","","","","","","","","","","",""
"revaluation","79","437301","0.0-3.0-11.0-4.0-0.0","spark_pilot_norest","8403","3","14","Female","","false","","","","","[450.90000000596046]","./assets/img/space/animals/cat.jpg","[""ArrowRight""]","practice block","space","36","{""ArrowUp,ArrowLeft"":3,""ArrowUp,ArrowRight"":36,""ArrowDown,ArrowLeft"":15,""ArrowDown,ArrowRight"":23}","true","ArrowUp,ArrowRight","","","","","","",""
"html-keyboard-response","80","437811","0.0-3.0-11.0-4.0-1.0","spark_pilot_norest","8403","3","14","Female","","","","","","","null","<div style=""font-size:60px;"">+</div>","null","fixation","","","","","","","","","","","",""
"revaluation","81","441830","0.0-3.0-11.0-4.0-0.1","spark_pilot_norest","8403","3","14","Female","","false","","","","","[444.09999999403954]","./assets/img/space/animals/rabbit.jpg","[""ArrowRight""]","practice block","space","23","{""ArrowUp,ArrowLeft"":3,""ArrowUp,ArrowRight"":36,""ArrowDown,ArrowLeft"":15,""ArrowDown,ArrowRight"":23}","true","ArrowDown,ArrowRight","","","","","","",""
"html-keyboard-response","82","442348","0.0-3.0-11.0-4.0-1.1","spark_pilot_norest","8403","3","14","Female","","","","","","","null","<div style=""font-size:60px;"">+</div>","null","fixation","","","","","","","","","","","",""
"revaluation","83","446372","0.0-3.0-11.0-4.0-0.2","spark_pilot_norest","8403","3","14","Female","","false","","","","","[467.39999997615814]","./assets/img/space/animals/cat.jpg","[""ArrowRight""]","practice block","space","36","{""ArrowUp,ArrowLeft"":3,""ArrowUp,ArrowRight"":36,""ArrowDown,ArrowLeft"":15,""ArrowDown,ArrowRight"":23}","true","ArrowUp,ArrowRight","","","","","","",""
"html-keyboard-response","84","446882","0.0-3.0-11.0-4.0-1.2","spark_pilot_norest","8403","3","14","Female","","","","","","","null","<div style=""font-size:60px;"">+</div>","null","fixation","","","","","","","","","","","",""
"revaluation","85","450901","0.0-3.0-11.0-4.0-0.3","spark_pilot_norest","8403","3","14","Female","","false","","","","","[517.6999999880791]","./assets/img/space/animals/rabbit.jpg","[""ArrowRight""]","practice block","space","23","{""ArrowUp,ArrowLeft"":3,""ArrowUp,ArrowRight"":36,""ArrowDown,ArrowLeft"":15,""ArrowDown,ArrowRight"":23}","true","ArrowDown,ArrowRight","","","","","","",""
"html-keyboard-response","86","451408","0.0-3.0-11.0-4.0-1.3","spark_pilot_norest","8403","3","14","Female","","","","","","","null","<div style=""font-size:60px;"">+</div>","null","fixation","","","","","","","","","","","",""
"learning-instructions","87","459544","0.0-3.0-11.0-5.0-0.0","spark_pilot_norest","8403","3","14","Female","","","","","","","null","<p> You have almost finished this part of the game! </p>
            <p> We are going to ask you to make a few more choices. </p>","","instructions","","","","","","","","","","","",""
"learning-instructions","88","475600","0.0-3.0-11.0-5.0-0.1","spark_pilot_norest","8403","3","14","Female","","","","","","","null","<p> First, you need to decide whether to go up or down. When you see each picture, use the arrow keys to make your choice. </p>
            <p><b>You will not see which animal you found, but try to get to the one that will give you the most treasure.</b></p>","","instructions","","","","","","","","","","","",""
"html-keyboard-response","89","476611","0.0-3.0-11.0-6.0-0.0","spark_pilot_norest","8403","3","14","Female","","","","","","","null","<div style=""font-size:100px;color:red;"">Starting in...</div>","null","","","","","","","","","","","","",""
"html-keyboard-response","90","477619","0.0-3.0-11.0-6.0-1.0","spark_pilot_norest","8403","3","14","Female","","","","","","","null","<div style=""font-size:200px;color:red;"">3</div>","null","","","","","","","","","","","","",""
"html-keyboard-response","91","478628","0.0-3.0-11.0-6.0-2.0","spark_pilot_norest","8403","3","14","Female","","","","","","","null","<div style=""font-size:200px;color:red;"">2</div>","null","","","","","","","","","","","","",""
"html-keyboard-response","92","479630","0.0-3.0-11.0-6.0-3.0","spark_pilot_norest","8403","3","14","Female","","","","","","","null","<div style=""font-size:200px;color:red;"">1</div>","null","","","","","","","","","","","","",""
"revaluation","93","480168","0.0-3.0-11.0-7.0","spark_pilot_norest","8403","3","14","Female","","false","","","","","[531.0999999940395]","./assets/img/space/15.jpg","[""ArrowUp""]","practice block","space","0","{""ArrowUp,ArrowLeft"":3,""ArrowUp,ArrowRight"":36,""ArrowDown,ArrowLeft"":15,""ArrowDown,ArrowRight"":23}","true","ArrowUp","false","","","","","",""
"html-keyboard-response","94","480680","0.0-3.0-11.0-8.0","spark_pilot_norest","8403","3","14","Female","","","","","","","null","<div style=""font-size:60px;"">+</div>","null","fixation","","","","","","","","","","","",""
"learning-instructions","95","494075","0.0-3.0-11.0-9.0-0.0","spark_pilot_norest","8403","3","14","Female","","","","","","","null","<p> Now you will see the animals again and can search their chests for treasure. </p>
            <p> This time, you will not see how much treasure you earned, but you will earn more bonus money for making better choices. </p>","","instructions","","","","","","","","","","","",""
"html-keyboard-response","96","495086","0.0-3.0-11.0-10.0-0.0","spark_pilot_norest","8403","3","14","Female","","","","","","","null","<div style=""font-size:100px;color:red;"">Starting in...</div>","null","","","","","","","","","","","","",""
"html-keyboard-response","97","496091","0.0-3.0-11.0-10.0-1.0","spark_pilot_norest","8403","3","14","Female","","","","","","","null","<div style=""font-size:200px;color:red;"">3</div>","null","","","","","","","","","","","","",""
"html-keyboard-response","98","497099","0.0-3.0-11.0-10.0-2.0","spark_pilot_norest","8403","3","14","Female","","","","","","","null","<div style=""font-size:200px;color:red;"">2</div>","null","","","","","","","","","","","","",""
"html-keyboard-response","99","498101","0.0-3.0-11.0-10.0-3.0","spark_pilot_norest","8403","3","14","Female","","","","","","","null","<div style=""font-size:200px;color:red;"">1</div>","null","","","","","","","","","","","","",""
"revaluation","100","498587","0.0-3.0-11.0-11.0-0.0","spark_pilot_norest","8403","3","14","Female","","false","","","","","[479]","./assets/img/space/animals/cat.jpg","[""ArrowRight""]","practice block","space","0","{""ArrowUp,ArrowLeft"":3,""ArrowUp,ArrowRight"":36,""ArrowDown,ArrowLeft"":15,""ArrowDown,ArrowRight"":23}","true","ArrowUp,ArrowRight","","","","","","",""
"html-keyboard-response","101","499091","0.0-3.0-11.0-11.0-1.0","spark_pilot_norest","8403","3","14","Female","","","","","","","null","<div style=""font-size:60px;"">+</div>","null","fixation","","","","","","","","","","","",""
"revaluation","102","500159","0.0-3.0-11.0-11.0-0.1","spark_pilot_norest","8403","3","14","Female","","false","","","","","[1063.7999999821186]","./assets/img/space/animals/rabbit.jpg","[""ArrowRight""]","practice block","space","0","{""ArrowUp,ArrowLeft"":3,""ArrowUp,ArrowRight"":36,""ArrowDown,ArrowLeft"":15,""ArrowDown,ArrowRight"":23}","true","ArrowDown,ArrowRight","","","","","","",""
"html-keyboard-response","103","500661","0.0-3.0-11.0-11.0-1.1","spark_pilot_norest","8403","3","14","Female","","","","","","","null","<div style=""font-size:60px;"">+</div>","null","fixation","","","","","","","","","","","",""
"learning-instructions","104","506496","0.0-3.0-12.0-0.0","spark_pilot_norest","8403","3","14","Female","","","","","","","1251.7000000178814","<p> Before you start, we're going to ask you a few questions about how the game works. </p>","","instructions","","","","","","","","","","","",""
"comp-q","105","513045","0.0-3.0-13.0-0.0-0.0","spark_pilot_norest","8403","3","14","Female","","","","","","","946.4000000059605","<p> <b> True or False? </b> </p>
            <p> There can be 50 pieces of treasure in a given animal's chest. </p>","1","comp_question","","","","true","","","","","","","",""
"comp-q","106","522077","0.0-3.0-13.0-0.0-1.0","spark_pilot_norest","8403","3","14","Female","","","","","","","2350","<p> <b> That's right! </b> The amount of treasure in each chest can range from 0 to 40 pieces. </p>","0","comp_answer","","","","","","","","","","","",""
"comp-q","107","529956","0.0-3.0-13.0-0.1-0.1","spark_pilot_norest","8403","3","14","Female","","","","","","","751.6999999880791","<p> <b> True or False? </b> </p><p> In this game, all animals have the same amount of treasure in their left and right chests. </p>","1","comp_question","","","","true","","","","","","","",""
"comp-q","108","535980","0.0-3.0-13.0-0.1-1.1","spark_pilot_norest","8403","3","14","Female","","","","","","","785.5","<p> <b> That's right! </b> Animals have different amounts of treasure in their treasure chests. </p>","0","comp_answer","","","","","","","","","","","",""
"comp-q","109","542316","0.0-3.0-13.0-0.2-0.2","spark_pilot_norest","8403","3","14","Female","","","","","","","481.40000000596046","<p> <b> True or False? </b> </p><p> The same animal will always be there if you go up in the same place. </p>","0","comp_question","","","","true","","","","","","","",""
"comp-q","110","549516","0.0-3.0-13.0-0.2-1.2","spark_pilot_norest","8403","3","14","Female","","","","","","","731.4000000059605","<p> <b> That's right! </b> One animal lives in the upper part and one lives in the lower part of every place. </p>","0","comp_answer","","","","","","","","","","","",""
"comp-q","111","555496","0.0-3.0-13.0-0.3-0.3","spark_pilot_norest","8403","3","14","Female","","","","","","","455.5","<p> <b> True or False? </b> </p><p> If you see a different picture, it means you are in a new place. </p>","1","comp_question","","","","true","","","","","","","",""
"comp-q","112","567503","0.0-3.0-13.0-0.3-1.3","spark_pilot_norest","8403","3","14","Female","","","","","","","743","<p> <b> That's right! </b> Lots of different images may show the same place. For example,  you may see three different images that all remind you that you are in outer space. </p>","0","comp_answer","","","","","","","","","","","",""
"learning-instructions","113","579704","0.0-3.0-14.0-0.0","spark_pilot_norest","8403","3","14","Female","","","","","","","2313.300000011921","<p> Good job. Remember to do your best because the amount of treasure you earn will be converted into bonus money. </p>
            <p> It’s time to start the real game! </p>","","instructions","","","","","","","","","","","",""
"learning-instructions","114","583652","0.0-4.0-0.0-0.0","spark_pilot_norest","8403","3","14","Female","","","","","","","1226.5","<p> This time you are searching for treasure in the <b>ocean</b>.</p>","","instructions","","","","","","","","","","","",""
"learning-instructions","115","603338","0.0-4.0-0.0-0.1","spark_pilot_norest","8403","3","14","Female","","","","","","","2337.9000000059605","<p><b>New</b> animals with <b>new</b> treasure chests live here. You need to explore to discover where the animal with the best treasure chest is.</p>
                    <p> Like before, once you figure out which animal has the chest with the most treasure, you should try to get to that animal and select that chest! </p>","","instructions","","","","","","","","","","","",""
"learning-instructions","116","618664","0.0-4.0-1.0-0.0","spark_pilot_norest","8403","3","14","Female","","","","","","","587.5999999940395","<p> Remember, when you see a picture of the place, use the up and down keys to <b>find an animal</b>.</p>
            <p> When you encounter an animal, you should use the left and right keys to <b>select a treasure chest</b>.</p>
            <p> Don't forget to look out for the robber! </p>","","instructions","","","","","","","","","","","",""
"revaluation","117","624695","0.0-4.0-2.0-0.0","spark_pilot_norest","8403","3","14","Female","","false","","","","","[595.2000000178814,625.5]","./assets/img/ocean/memory/11.jpg","[""ArrowUp"",""ArrowRight""]","value training","ocean","10","{""ArrowUp,ArrowLeft"":23,""ArrowUp,ArrowRight"":10,""ArrowDown,ArrowLeft"":8,""ArrowDown,ArrowRight"":30}","false","ArrowUp,ArrowRight","false","original","1","0","","",""
"html-keyboard-response","118","625204","0.0-4.0-2.0-1.0","spark_pilot_norest","8403","3","14","Female","","","","","","","null","<div style=""font-size:60px;"">+</div>","null","fixation","","","","","","","","","1","","",""
"revaluation","119","631222","0.0-4.0-2.0-0.1","spark_pilot_norest","8403","3","14","Female","","false","","","","","[660.0999999940395,510.5]","./assets/img/ocean/memory/0.jpg","[""ArrowUp"",""ArrowLeft""]","value training","ocean","23","{""ArrowUp,ArrowLeft"":23,""ArrowUp,ArrowRight"":10,""ArrowDown,ArrowLeft"":8,""ArrowDown,ArrowRight"":30}","false","ArrowUp,ArrowLeft","false","original","1","2","","",""
"html-keyboard-response","120","631733","0.0-4.0-2.0-1.1","spark_pilot_norest","8403","3","14","Female","","","","","","","null","<div style=""font-size:60px;"">+</div>","null","fixation","","","","","","","","","3","","",""
"revaluation","121","637753","0.0-4.0-2.0-0.2","spark_pilot_norest","8403","3","14","Female","","false","","","","","[675.3000000119209,566.2999999821186]","./assets/img/ocean/memory/30.jpg","[""ArrowDown"",""ArrowRight""]","value training","ocean","30","{""ArrowUp,ArrowLeft"":23,""ArrowUp,ArrowRight"":10,""ArrowDown,ArrowLeft"":8,""ArrowDown,ArrowRight"":30}","true","ArrowDown,ArrowRight","false","original","1","4","","",""
"html-keyboard-response","122","638262","0.0-4.0-2.0-1.2","spark_pilot_norest","8403","3","14","Female","","","","","","","null","<div style=""font-size:60px;"">+</div>","null","fixation","","","","","","","","","5","","",""
"revaluation","123","644283","0.0-4.0-2.0-0.3","spark_pilot_norest","8403","3","14","Female","","false","","","","","[790.6999999880791,739.6999999880791]","./assets/img/ocean/memory/12.jpg","[""ArrowDown"",""ArrowLeft""]","value training","ocean","8","{""ArrowUp,ArrowLeft"":23,""ArrowUp,ArrowRight"":10,""ArrowDown,ArrowLeft"":8,""ArrowDown,ArrowRight"":30}","false","ArrowDown,ArrowLeft","false","original","1","6","","",""
"html-keyboard-response","124","644790","0.0-4.0-2.0-1.3","spark_pilot_norest","8403","3","14","Female","","","","","","","null","<div style=""font-size:60px;"">+</div>","null","fixation","","","","","","","","","7","","",""
"revaluation","125","650804","0.0-4.0-2.0-0.4","spark_pilot_norest","8403","3","14","Female","","false","","","","","[1269.7000000178814,536.8000000119209]","./assets/img/ocean/memory/41.jpg","[""ArrowDown"",""ArrowRight""]","value training","ocean","30","{""ArrowUp,ArrowLeft"":23,""ArrowUp,ArrowRight"":10,""ArrowDown,ArrowLeft"":8,""ArrowDown,ArrowRight"":30}","true","ArrowDown,ArrowRight","false","original","1","8","","",""
"html-keyboard-response","126","651310","0.0-4.0-2.0-1.4","spark_pilot_norest","8403","3","14","Female","","","","","","","null","<div style=""font-size:60px;"">+</div>","null","fixation","","","","","","","","","9","","",""
"revaluation","127","657345","0.0-4.0-2.0-0.5","spark_pilot_norest","8403","3","14","Female","","false","","","","","[844.9000000059605,499.90000000596046]","./assets/img/ocean/memory/26.jpg","[""ArrowDown"",""ArrowRight""]","value training","ocean","30","{""ArrowUp,ArrowLeft"":23,""ArrowUp,ArrowRight"":10,""ArrowDown,ArrowLeft"":8,""ArrowDown,ArrowRight"":30}","true","ArrowDown,ArrowRight","false","original","1","10","","",""
"html-keyboard-response","128","657850","0.0-4.0-2.0-1.5","spark_pilot_norest","8403","3","14","Female","","","","","","","null","<div style=""font-size:60px;"">+</div>","null","fixation","","","","","","","","","11","","",""
"revaluation","129","661873","0.0-4.0-2.0-0.6","spark_pilot_norest","8403","3","14","Female","","false","","","","","[1232.0999999940395]","./assets/img/ocean/catch/1.jpg","[""ArrowDown""]","value training","ocean","-10","{""ArrowUp,ArrowLeft"":23,""ArrowUp,ArrowRight"":10,""ArrowDown,ArrowLeft"":8,""ArrowDown,ArrowRight"":30}","false","ArrowDown","true","original","1","12","","",""
"html-keyboard-response","130","662385","0.0-4.0-2.0-1.6","spark_pilot_norest","8403","3","14","Female","","","","","","","null","<div style=""font-size:60px;"">+</div>","null","fixation","","","","","","","","","13","","",""
"revaluation","131","666403","0.0-4.0-2.0-0.7","spark_pilot_norest","8403","3","14","Female","","false","","","","","[1094.2000000178814]","./assets/img/ocean/catch/3.jpg","[""spaceBar""]","value training","ocean","0","{""ArrowUp,ArrowLeft"":23,""ArrowUp,ArrowRight"":10,""ArrowDown,ArrowLeft"":8,""ArrowDown,ArrowRight"":30}","true","spaceBar","true","original","1","14","","",""
"html-keyboard-response","132","666909","0.0-4.0-2.0-1.7","spark_pilot_norest","8403","3","14","Female","","","","","","","null","<div style=""font-size:60px;"">+</div>","null","fixation","","","","","","","","","15","","",""
"revaluation","133","672927","0.0-4.0-2.0-0.8","spark_pilot_norest","8403","3","14","Female","","false","","","","","[799,410.59999999403954]","./assets/img/ocean/memory/11.jpg","[""ArrowDown"",""ArrowRight""]","value training","ocean","30","{""ArrowUp,ArrowLeft"":23,""ArrowUp,ArrowRight"":10,""ArrowDown,ArrowLeft"":8,""ArrowDown,ArrowRight"":30}","true","ArrowDown,ArrowRight","false","original","1","16","","",""
"html-keyboard-response","134","673432","0.0-4.0-2.0-1.8","spark_pilot_norest","8403","3","14","Female","","","","","","","null","<div style=""font-size:60px;"">+</div>","null","fixation","","","","","","","","","17","","",""
"revaluation","135","679451","0.0-4.0-2.0-0.9","spark_pilot_norest","8403","3","14","Female","","false","","","","","[1118.2999999821186,562.8000000119209]","./assets/img/ocean/memory/19.jpg","[""ArrowDown"",""ArrowRight""]","value training","ocean","30","{""ArrowUp,ArrowLeft"":23,""ArrowUp,ArrowRight"":10,""ArrowDown,ArrowLeft"":8,""ArrowDown,ArrowRight"":30}","true","ArrowDown,ArrowRight","false","original","1","18","","",""
"html-keyboard-response","136","679967","0.0-4.0-2.0-1.9","spark_pilot_norest","8403","3","14","Female","","","","","","","null","<div style=""font-size:60px;"">+</div>","null","fixation","","","","","","","","","19","","",""
"revaluation","137","683988","0.0-4.0-2.0-0.10","spark_pilot_norest","8403","3","14","Female","","false","","","","","[847.3000000119209]","./assets/img/ocean/catch/7.jpg","[""spaceBar""]","value training","ocean","0","{""ArrowUp,ArrowLeft"":23,""ArrowUp,ArrowRight"":10,""ArrowDown,ArrowLeft"":8,""ArrowDown,ArrowRight"":30}","true","spaceBar","true","original","1","20","","",""
"html-keyboard-response","138","684503","0.0-4.0-2.0-1.10","spark_pilot_norest","8403","3","14","Female","","","","","","","null","<div style=""font-size:60px;"">+</div>","null","fixation","","","","","","","","","21","","",""
"revaluation","139","690514","0.0-4.0-2.0-0.11","spark_pilot_norest","8403","3","14","Female","","false","","","","","[968.9000000059605,497.2999999821186]","./assets/img/ocean/memory/27.jpg","[""ArrowDown"",""ArrowRight""]","value training","ocean","30","{""ArrowUp,ArrowLeft"":23,""ArrowUp,ArrowRight"":10,""ArrowDown,ArrowLeft"":8,""ArrowDown,ArrowRight"":30}","true","ArrowDown,ArrowRight","false","original","1","22","","",""
"html-keyboard-response","140","691020","0.0-4.0-2.0-1.11","spark_pilot_norest","8403","3","14","Female","","","","","","","null","<div style=""font-size:60px;"">+</div>","null","fixation","","","","","","","","","23","","",""
"revaluation","141","697034","0.0-4.0-2.0-0.12","spark_pilot_norest","8403","3","14","Female","","false","","","","","[723.5,553.4000000059605]","./assets/img/ocean/memory/12.jpg","[""ArrowDown"",""ArrowRight""]","value training","ocean","30","{""ArrowUp,ArrowLeft"":23,""ArrowUp,ArrowRight"":10,""ArrowDown,ArrowLeft"":8,""ArrowDown,ArrowRight"":30}","true","ArrowDown,ArrowRight","false","original","1","24","","",""
"html-keyboard-response","142","697537","0.0-4.0-2.0-1.12","spark_pilot_norest","8403","3","14","Female","","","","","","","null","<div style=""font-size:60px;"">+</div>","null","fixation","","","","","","","","","25","","",""
"revaluation","143","703559","0.0-4.0-2.0-0.13","spark_pilot_norest","8403","3","14","Female","","false","","","","","[1436.9000000059605,586.5]","./assets/img/ocean/memory/8.jpg","[""ArrowDown"",""ArrowRight""]","value training","ocean","30","{""ArrowUp,ArrowLeft"":23,""ArrowUp,ArrowRight"":10,""ArrowDown,ArrowLeft"":8,""ArrowDown,ArrowRight"":30}","true","ArrowDown,ArrowRight","false","original","1","26","","",""
"html-keyboard-response","144","704074","0.0-4.0-2.0-1.13","spark_pilot_norest","8403","3","14","Female","","","","","","","null","<div style=""font-size:60px;"">+</div>","null","fixation","","","","","","","","","27","","",""
"revaluation","145","710099","0.0-4.0-2.0-0.14","spark_pilot_norest","8403","3","14","Female","","false","","","","","[823.4000000059605,609.3000000119209]","./assets/img/ocean/memory/37.jpg","[""ArrowDown"",""ArrowRight""]","value training","ocean","30","{""ArrowUp,ArrowLeft"":23,""ArrowUp,ArrowRight"":10,""ArrowDown,ArrowLeft"":8,""ArrowDown,ArrowRight"":30}","true","ArrowDown,ArrowRight","false","original","1","28","","",""
"html-keyboard-response","146","710607","0.0-4.0-2.0-1.14","spark_pilot_norest","8403","3","14","Female","","","","","","","null","<div style=""font-size:60px;"">+</div>","null","fixation","","","","","","","","","29","","",""
"revaluation","147","716630","0.0-4.0-2.0-0.15","spark_pilot_norest","8403","3","14","Female","","false","","","","","[1029.5,822.1999999880791]","./assets/img/ocean/memory/26.jpg","[""ArrowDown"",""ArrowRight""]","value training","ocean","30","{""ArrowUp,ArrowLeft"":23,""ArrowUp,ArrowRight"":10,""ArrowDown,ArrowLeft"":8,""ArrowDown,ArrowRight"":30}","true","ArrowDown,ArrowRight","false","original","1","30","","",""
"html-keyboard-response","148","717139","0.0-4.0-2.0-1.15","spark_pilot_norest","8403","3","14","Female","","","","","","","null","<div style=""font-size:60px;"">+</div>","null","fixation","","","","","","","","","31","","",""
"revaluation","149","723154","0.0-4.0-2.0-0.16","spark_pilot_norest","8403","3","14","Female","","false","","","","","[836.8000000119209,607.8000000119209]","./assets/img/ocean/memory/23.jpg","[""ArrowDown"",""ArrowRight""]","value training","ocean","30","{""ArrowUp,ArrowLeft"":23,""ArrowUp,ArrowRight"":10,""ArrowDown,ArrowLeft"":8,""ArrowDown,ArrowRight"":30}","true","ArrowDown,ArrowRight","false","original","1","32","","",""
"html-keyboard-response","150","723658","0.0-4.0-2.0-1.16","spark_pilot_norest","8403","3","14","Female","","","","","","","null","<div style=""font-size:60px;"">+</div>","null","fixation","","","","","","","","","33","","",""
"revaluation","151","729678","0.0-4.0-2.0-0.17","spark_pilot_norest","8403","3","14","Female","","false","","","","","[910.5999999940395,613.5999999940395]","./assets/img/ocean/memory/6.jpg","[""ArrowDown"",""ArrowRight""]","value training","ocean","30","{""ArrowUp,ArrowLeft"":23,""ArrowUp,ArrowRight"":10,""ArrowDown,ArrowLeft"":8,""ArrowDown,ArrowRight"":30}","true","ArrowDown,ArrowRight","false","original","1","34","","",""
"html-keyboard-response","152","730183","0.0-4.0-2.0-1.17","spark_pilot_norest","8403","3","14","Female","","","","","","","null","<div style=""font-size:60px;"">+</div>","null","fixation","","","","","","","","","35","","",""
"revaluation","153","736205","0.0-4.0-2.0-0.18","spark_pilot_norest","8403","3","14","Female","","false","","","","","[850.6999999880791,481.7999999821186]","./assets/img/ocean/memory/13.jpg","[""ArrowDown"",""ArrowRight""]","value training","ocean","30","{""ArrowUp,ArrowLeft"":23,""ArrowUp,ArrowRight"":10,""ArrowDown,ArrowLeft"":8,""ArrowDown,ArrowRight"":30}","true","ArrowDown,ArrowRight","false","original","1","36","","",""
"html-keyboard-response","154","736720","0.0-4.0-2.0-1.18","spark_pilot_norest","8403","3","14","Female","","","","","","","null","<div style=""font-size:60px;"">+</div>","null","fixation","","","","","","","","","37","","",""
"revaluation","155","742741","0.0-4.0-2.0-0.19","spark_pilot_norest","8403","3","14","Female","","false","","","","","[838.5999999940395,728.2000000178814]","./assets/img/ocean/memory/23.jpg","[""ArrowDown"",""ArrowRight""]","value training","ocean","30","{""ArrowUp,ArrowLeft"":23,""ArrowUp,ArrowRight"":10,""ArrowDown,ArrowLeft"":8,""ArrowDown,ArrowRight"":30}","true","ArrowDown,ArrowRight","false","original","1","38","","",""
"html-keyboard-response","156","743247","0.0-4.0-2.0-1.19","spark_pilot_norest","8403","3","14","Female","","","","","","","null","<div style=""font-size:60px;"">+</div>","null","fixation","","","","","","","","","39","","",""
"revaluation","157","749271","0.0-4.0-2.0-0.20","spark_pilot_norest","8403","3","14","Female","","false","","","","","[977.8000000119209,449.59999999403954]","./assets/img/ocean/memory/30.jpg","[""ArrowDown"",""ArrowRight""]","value training","ocean","30","{""ArrowUp,ArrowLeft"":23,""ArrowUp,ArrowRight"":10,""ArrowDown,ArrowLeft"":8,""ArrowDown,ArrowRight"":30}","true","ArrowDown,ArrowRight","false","original","1","40","","",""
"html-keyboard-response","158","749776","0.0-4.0-2.0-1.20","spark_pilot_norest","8403","3","14","Female","","","","","","","null","<div style=""font-size:60px;"">+</div>","null","fixation","","","","","","","","","41","","",""
"revaluation","159","755789","0.0-4.0-2.0-0.21","spark_pilot_norest","8403","3","14","Female","","false","","","","","[826,431]","./assets/img/ocean/memory/6.jpg","[""ArrowDown"",""ArrowRight""]","value training","ocean","30","{""ArrowUp,ArrowLeft"":23,""ArrowUp,ArrowRight"":10,""ArrowDown,ArrowLeft"":8,""ArrowDown,ArrowRight"":30}","true","ArrowDown,ArrowRight","false","original","1","42","","",""
"html-keyboard-response","160","756292","0.0-4.0-2.0-1.21","spark_pilot_norest","8403","3","14","Female","","","","","","","null","<div style=""font-size:60px;"">+</div>","null","fixation","","","","","","","","","43","","",""
"revaluation","161","762311","0.0-4.0-2.0-0.22","spark_pilot_norest","8403","3","14","Female","","false","","","","","[897.6999999880791,634.5999999940395]","./assets/img/ocean/memory/41.jpg","[""ArrowDown"",""ArrowRight""]","value training","ocean","30","{""ArrowUp,ArrowLeft"":23,""ArrowUp,ArrowRight"":10,""ArrowDown,ArrowLeft"":8,""ArrowDown,ArrowRight"":30}","true","ArrowDown,ArrowRight","false","original","1","44","","",""
"html-keyboard-response","162","762820","0.0-4.0-2.0-1.22","spark_pilot_norest","8403","3","14","Female","","","","","","","null","<div style=""font-size:60px;"">+</div>","null","fixation","","","","","","","","","45","","",""
"revaluation","163","768833","0.0-4.0-2.0-0.23","spark_pilot_norest","8403","3","14","Female","","false","","","","","[1175,657.8999999761581]","./assets/img/ocean/memory/1.jpg","[""ArrowDown"",""ArrowRight""]","value training","ocean","30","{""ArrowUp,ArrowLeft"":23,""ArrowUp,ArrowRight"":10,""ArrowDown,ArrowLeft"":8,""ArrowDown,ArrowRight"":30}","true","ArrowDown,ArrowRight","false","original","1","46","","",""
"html-keyboard-response","164","769338","0.0-4.0-2.0-1.23","spark_pilot_norest","8403","3","14","Female","","","","","","","null","<div style=""font-size:60px;"">+</div>","null","fixation","","","","","","","","","47","","",""
"revaluation","165","775360","0.0-4.0-2.0-0.24","spark_pilot_norest","8403","3","14","Female","","false","","","","","[664.4000000059605,513.2000000178814]","./assets/img/ocean/memory/1.jpg","[""ArrowDown"",""ArrowRight""]","value training","ocean","30","{""ArrowUp,ArrowLeft"":23,""ArrowUp,ArrowRight"":10,""ArrowDown,ArrowLeft"":8,""ArrowDown,ArrowRight"":30}","true","ArrowDown,ArrowRight","false","original","1","48","","",""
"html-keyboard-response","166","775864","0.0-4.0-2.0-1.24","spark_pilot_norest","8403","3","14","Female","","","","","","","null","<div style=""font-size:60px;"">+</div>","null","fixation","","","","","","","","","49","","",""
"revaluation","167","781881","0.0-4.0-2.0-0.25","spark_pilot_norest","8403","3","14","Female","","false","","","","","[1411.5999999940395,678.2000000178814]","./assets/img/ocean/memory/0.jpg","[""ArrowDown"",""ArrowRight""]","value training","ocean","30","{""ArrowUp,ArrowLeft"":23,""ArrowUp,ArrowRight"":10,""ArrowDown,ArrowLeft"":8,""ArrowDown,ArrowRight"":30}","true","ArrowDown,ArrowRight","false","original","1","50","","",""
"html-keyboard-response","168","782387","0.0-4.0-2.0-1.25","spark_pilot_norest","8403","3","14","Female","","","","","","","null","<div style=""font-size:60px;"">+</div>","null","fixation","","","","","","","","","51","","",""
"revaluation","169","788417","0.0-4.0-2.0-0.26","spark_pilot_norest","8403","3","14","Female","","false","","","","","[758.9000000059605,685.1000000238419]","./assets/img/ocean/memory/39.jpg","[""ArrowDown"",""ArrowRight""]","value training","ocean","30","{""ArrowUp,ArrowLeft"":23,""ArrowUp,ArrowRight"":10,""ArrowDown,ArrowLeft"":8,""ArrowDown,ArrowRight"":30}","true","ArrowDown,ArrowRight","false","original","1","52","","",""
"html-keyboard-response","170","788919","0.0-4.0-2.0-1.26","spark_pilot_norest","8403","3","14","Female","","","","","","","null","<div style=""font-size:60px;"">+</div>","null","fixation","","","","","","","","","53","","",""
"revaluation","171","794947","0.0-4.0-2.0-0.27","spark_pilot_norest","8403","3","14","Female","","false","","","","","[1381.5,541.1999999880791]","./assets/img/ocean/memory/15.jpg","[""ArrowDown"",""ArrowRight""]","value training","ocean","30","{""ArrowUp,ArrowLeft"":23,""ArrowUp,ArrowRight"":10,""ArrowDown,ArrowLeft"":8,""ArrowDown,ArrowRight"":30}","true","ArrowDown,ArrowRight","false","original","1","54","","",""
"html-keyboard-response","172","795451","0.0-4.0-2.0-1.27","spark_pilot_norest","8403","3","14","Female","","","","","","","null","<div style=""font-size:60px;"">+</div>","null","fixation","","","","","","","","","55","","",""
"revaluation","173","801467","0.0-4.0-2.0-0.28","spark_pilot_norest","8403","3","14","Female","","false","","","","","[826.5,491.10000002384186]","./assets/img/ocean/memory/15.jpg","[""ArrowDown"",""ArrowRight""]","value training","ocean","30","{""ArrowUp,ArrowLeft"":23,""ArrowUp,ArrowRight"":10,""ArrowDown,ArrowLeft"":8,""ArrowDown,ArrowRight"":30}","true","ArrowDown,ArrowRight","false","original","1","56","","",""
"html-keyboard-response","174","801970","0.0-4.0-2.0-1.28","spark_pilot_norest","8403","3","14","Female","","","","","","","null","<div style=""font-size:60px;"">+</div>","null","fixation","","","","","","","","","57","","",""
"revaluation","175","807993","0.0-4.0-2.0-0.29","spark_pilot_norest","8403","3","14","Female","","false","","","","","[890.6999999880791,471.40000000596046]","./assets/img/ocean/memory/25.jpg","[""ArrowDown"",""ArrowRight""]","value training","ocean","30","{""ArrowUp,ArrowLeft"":23,""ArrowUp,ArrowRight"":10,""ArrowDown,ArrowLeft"":8,""ArrowDown,ArrowRight"":30}","true","ArrowDown,ArrowRight","false","original","1","58","","",""
"html-keyboard-response","176","808497","0.0-4.0-2.0-1.29","spark_pilot_norest","8403","3","14","Female","","","","","","","null","<div style=""font-size:60px;"">+</div>","null","fixation","","","","","","","","","59","","",""
"revaluation","177","814509","0.0-4.0-2.0-0.30","spark_pilot_norest","8403","3","14","Female","","false","","","","","[874.6999999880791,598.5]","./assets/img/ocean/memory/19.jpg","[""ArrowDown"",""ArrowRight""]","value training","ocean","30","{""ArrowUp,ArrowLeft"":23,""ArrowUp,ArrowRight"":10,""ArrowDown,ArrowLeft"":8,""ArrowDown,ArrowRight"":30}","true","ArrowDown,ArrowRight","false","original","1","60","","",""
"html-keyboard-response","178","815018","0.0-4.0-2.0-1.30","spark_pilot_norest","8403","3","14","Female","","","","","","","null","<div style=""font-size:60px;"">+</div>","null","fixation","","","","","","","","","61","","",""
"revaluation","179","821038","0.0-4.0-2.0-0.31","spark_pilot_norest","8403","3","14","Female","","false","","","","","[897.6000000238419,506.5]","./assets/img/ocean/memory/27.jpg","[""ArrowDown"",""ArrowRight""]","value training","ocean","30","{""ArrowUp,ArrowLeft"":23,""ArrowUp,ArrowRight"":10,""ArrowDown,ArrowLeft"":8,""ArrowDown,ArrowRight"":30}","true","ArrowDown,ArrowRight","false","original","1","62","","",""
"html-keyboard-response","180","821542","0.0-4.0-2.0-1.31","spark_pilot_norest","8403","3","14","Female","","","","","","","null","<div style=""font-size:60px;"">+</div>","null","fixation","","","","","","","","","63","","",""
"revaluation","181","825553","0.0-4.0-2.0-0.32","spark_pilot_norest","8403","3","14","Female","","false","","","","","[734.2999999821186]","./assets/img/ocean/catch/2.jpg","[""spaceBar""]","value training","ocean","0","{""ArrowUp,ArrowLeft"":23,""ArrowUp,ArrowRight"":10,""ArrowDown,ArrowLeft"":8,""ArrowDown,ArrowRight"":30}","true","spaceBar","true","original","1","64","","",""
"html-keyboard-response","182","826056","0.0-4.0-2.0-1.32","spark_pilot_norest","8403","3","14","Female","","","","","","","null","<div style=""font-size:60px;"">+</div>","null","fixation","","","","","","","","","65","","",""
"revaluation","183","830063","0.0-4.0-2.0-0.33","spark_pilot_norest","8403","3","14","Female","","false","","","","","[753.7000000178814]","./assets/img/ocean/catch/4.jpg","[""spaceBar""]","value training","ocean","0","{""ArrowUp,ArrowLeft"":23,""ArrowUp,ArrowRight"":10,""ArrowDown,ArrowLeft"":8,""ArrowDown,ArrowRight"":30}","true","spaceBar","true","original","1","66","","",""
"html-keyboard-response","184","830568","0.0-4.0-2.0-1.33","spark_pilot_norest","8403","3","14","Female","","","","","","","null","<div style=""font-size:60px;"">+</div>","null","fixation","","","","","","","","","67","","",""
"revaluation","185","836599","0.0-4.0-2.0-0.34","spark_pilot_norest","8403","3","14","Female","","false","","","","","[716.7999999821186,638.0999999940395]","./assets/img/ocean/memory/5.jpg","[""ArrowDown"",""ArrowRight""]","value training","ocean","30","{""ArrowUp,ArrowLeft"":23,""ArrowUp,ArrowRight"":10,""ArrowDown,ArrowLeft"":8,""ArrowDown,ArrowRight"":30}","true","ArrowDown,ArrowRight","false","original","1","68","","",""
"html-keyboard-response","186","837104","0.0-4.0-2.0-1.34","spark_pilot_norest","8403","3","14","Female","","","","","","","null","<div style=""font-size:60px;"">+</div>","null","fixation","","","","","","","","","69","","",""
"revaluation","187","843126","0.0-4.0-2.0-0.35","spark_pilot_norest","8403","3","14","Female","","false","","","","","[898.4000000059605,515]","./assets/img/ocean/memory/39.jpg","[""ArrowDown"",""ArrowRight""]","value training","ocean","30","{""ArrowUp,ArrowLeft"":23,""ArrowUp,ArrowRight"":10,""ArrowDown,ArrowLeft"":8,""ArrowDown,ArrowRight"":30}","true","ArrowDown,ArrowRight","false","original","1","70","","",""
"html-keyboard-response","188","843630","0.0-4.0-2.0-1.35","spark_pilot_norest","8403","3","14","Female","","","","","","","null","<div style=""font-size:60px;"">+</div>","null","fixation","","","","","","","","","71","","",""
"revaluation","189","849652","0.0-4.0-2.0-0.36","spark_pilot_norest","8403","3","14","Female","","false","","","","","[1194.7000000178814,805.0999999940395]","./assets/img/ocean/memory/8.jpg","[""ArrowDown"",""ArrowRight""]","value training","ocean","30","{""ArrowUp,ArrowLeft"":23,""ArrowUp,ArrowRight"":10,""ArrowDown,ArrowLeft"":8,""ArrowDown,ArrowRight"":30}","true","ArrowDown,ArrowRight","false","original","1","72","","",""
"html-keyboard-response","190","850162","0.0-4.0-2.0-1.36","spark_pilot_norest","8403","3","14","Female","","","","","","","null","<div style=""font-size:60px;"">+</div>","null","fixation","","","","","","","","","73","","",""
"revaluation","191","854182","0.0-4.0-2.0-0.37","spark_pilot_norest","8403","3","14","Female","","false","","","","","[726.2000000178814]","./assets/img/ocean/catch/6.jpg","[""spaceBar""]","value training","ocean","0","{""ArrowUp,ArrowLeft"":23,""ArrowUp,ArrowRight"":10,""ArrowDown,ArrowLeft"":8,""ArrowDown,ArrowRight"":30}","true","spaceBar","true","original","1","74","","",""
"html-keyboard-response","192","854691","0.0-4.0-2.0-1.37","spark_pilot_norest","8403","3","14","Female","","","","","","","null","<div style=""font-size:60px;"">+</div>","null","fixation","","","","","","","","","75","","",""
"revaluation","193","858713","0.0-4.0-2.0-0.38","spark_pilot_norest","8403","3","14","Female","","false","","","","","[762.1999999880791]","./assets/img/ocean/catch/5.jpg","[""spaceBar""]","value training","ocean","0","{""ArrowUp,ArrowLeft"":23,""ArrowUp,ArrowRight"":10,""ArrowDown,ArrowLeft"":8,""ArrowDown,ArrowRight"":30}","true","spaceBar","true","original","1","76","","",""
"html-keyboard-response","194","859216","0.0-4.0-2.0-1.38","spark_pilot_norest","8403","3","14","Female","","","","","","","null","<div style=""font-size:60px;"">+</div>","null","fixation","","","","","","","","","77","","",""
"revaluation","195","865235","0.0-4.0-2.0-0.39","spark_pilot_norest","8403","3","14","Female","","false","","","","","[999.7000000178814,681.6999999880791]","./assets/img/ocean/memory/29.jpg","[""ArrowDown"",""ArrowRight""]","value training","ocean","30","{""ArrowUp,ArrowLeft"":23,""ArrowUp,ArrowRight"":10,""ArrowDown,ArrowLeft"":8,""ArrowDown,ArrowRight"":30}","true","ArrowDown,ArrowRight","false","original","1","78","","",""
"html-keyboard-response","196","865737","0.0-4.0-2.0-1.39","spark_pilot_norest","8403","3","14","Female","","","","","","","null","<div style=""font-size:60px;"">+</div>","null","fixation","","","","","","","","","79","","",""
"revaluation","197","871763","0.0-4.0-2.0-0.40","spark_pilot_norest","8403","3","14","Female","","false","","","","","[642.3000000119209,562]","./assets/img/ocean/memory/5.jpg","[""ArrowDown"",""ArrowRight""]","value training","ocean","30","{""ArrowUp,ArrowLeft"":23,""ArrowUp,ArrowRight"":10,""ArrowDown,ArrowLeft"":8,""ArrowDown,ArrowRight"":30}","true","ArrowDown,ArrowRight","false","original","1","80","","",""
"html-keyboard-response","198","872267","0.0-4.0-2.0-1.40","spark_pilot_norest","8403","3","14","Female","","","","","","","null","<div style=""font-size:60px;"">+</div>","null","fixation","","","","","","","","","81","","",""
"revaluation","199","876284","0.0-4.0-2.0-0.41","spark_pilot_norest","8403","3","14","Female","","false","","","","","[662.5999999940395]","./assets/img/ocean/catch/0.jpg","[""spaceBar""]","value training","ocean","0","{""ArrowUp,ArrowLeft"":23,""ArrowUp,ArrowRight"":10,""ArrowDown,ArrowLeft"":8,""ArrowDown,ArrowRight"":30}","true","spaceBar","true","original","1","82","","",""
"html-keyboard-response","200","876793","0.0-4.0-2.0-1.41","spark_pilot_norest","8403","3","14","Female","","","","","","","null","<div style=""font-size:60px;"">+</div>","null","fixation","","","","","","","","","83","","",""
"revaluation","201","882813","0.0-4.0-2.0-0.42","spark_pilot_norest","8403","3","14","Female","","false","","","","","[873.5999999940395,541.2999999821186]","./assets/img/ocean/memory/40.jpg","[""ArrowDown"",""ArrowRight""]","value training","ocean","30","{""ArrowUp,ArrowLeft"":23,""ArrowUp,ArrowRight"":10,""ArrowDown,ArrowLeft"":8,""ArrowDown,ArrowRight"":30}","true","ArrowDown,ArrowRight","false","original","1","84","","",""
"html-keyboard-response","202","883320","0.0-4.0-2.0-1.42","spark_pilot_norest","8403","3","14","Female","","","","","","","null","<div style=""font-size:60px;"">+</div>","null","fixation","","","","","","","","","85","","",""
"revaluation","203","889333","0.0-4.0-2.0-0.43","spark_pilot_norest","8403","3","14","Female","","false","","","","","[931.3000000119209,575.7999999821186]","./assets/img/ocean/memory/21.jpg","[""ArrowDown"",""ArrowRight""]","value training","ocean","30","{""ArrowUp,ArrowLeft"":23,""ArrowUp,ArrowRight"":10,""ArrowDown,ArrowLeft"":8,""ArrowDown,ArrowRight"":30}","true","ArrowDown,ArrowRight","false","original","1","86","","",""
"html-keyboard-response","204","889836","0.0-4.0-2.0-1.43","spark_pilot_norest","8403","3","14","Female","","","","","","","null","<div style=""font-size:60px;"">+</div>","null","fixation","","","","","","","","","87","","",""
"revaluation","205","895856","0.0-4.0-2.0-0.44","spark_pilot_norest","8403","3","14","Female","","false","","","","","[824.0999999940395,772]","./assets/img/ocean/memory/37.jpg","[""ArrowDown"",""ArrowRight""]","value training","ocean","30","{""ArrowUp,ArrowLeft"":23,""ArrowUp,ArrowRight"":10,""ArrowDown,ArrowLeft"":8,""ArrowDown,ArrowRight"":30}","true","ArrowDown,ArrowRight","false","original","1","88","","",""
"html-keyboard-response","206","896362","0.0-4.0-2.0-1.44","spark_pilot_norest","8403","3","14","Female","","","","","","","null","<div style=""font-size:60px;"">+</div>","null","fixation","","","","","","","","","89","","",""
"revaluation","207","902381","0.0-4.0-2.0-0.45","spark_pilot_norest","8403","3","14","Female","","false","","","","","[965.1999999880791,696.2999999821186]","./assets/img/ocean/memory/29.jpg","[""ArrowDown"",""ArrowRight""]","value training","ocean","30","{""ArrowUp,ArrowLeft"":23,""ArrowUp,ArrowRight"":10,""ArrowDown,ArrowLeft"":8,""ArrowDown,ArrowRight"":30}","true","ArrowDown,ArrowRight","false","original","1","90","","",""
"html-keyboard-response","208","902888","0.0-4.0-2.0-1.45","spark_pilot_norest","8403","3","14","Female","","","","","","","null","<div style=""font-size:60px;"">+</div>","null","fixation","","","","","","","","","91","","",""
"revaluation","209","908908","0.0-4.0-2.0-0.46","spark_pilot_norest","8403","3","14","Female","","false","","","","","[633.4000000059605,558.2000000178814]","./assets/img/ocean/memory/25.jpg","[""ArrowDown"",""ArrowRight""]","value training","ocean","30","{""ArrowUp,ArrowLeft"":23,""ArrowUp,ArrowRight"":10,""ArrowDown,ArrowLeft"":8,""ArrowDown,ArrowRight"":30}","true","ArrowDown,ArrowRight","false","original","1","92","","",""
"html-keyboard-response","210","909416","0.0-4.0-2.0-1.46","spark_pilot_norest","8403","3","14","Female","","","","","","","null","<div style=""font-size:60px;"">+</div>","null","fixation","","","","","","","","","93","","",""
"revaluation","211","915447","0.0-4.0-2.0-0.47","spark_pilot_norest","8403","3","14","Female","","false","","","","","[803.4000000059605,609.3000000119209]","./assets/img/ocean/memory/40.jpg","[""ArrowDown"",""ArrowRight""]","value training","ocean","30","{""ArrowUp,ArrowLeft"":23,""ArrowUp,ArrowRight"":10,""ArrowDown,ArrowLeft"":8,""ArrowDown,ArrowRight"":30}","true","ArrowDown,ArrowRight","false","original","1","94","","",""
"html-keyboard-response","212","915957","0.0-4.0-2.0-1.47","spark_pilot_norest","8403","3","14","Female","","","","","","","null","<div style=""font-size:60px;"">+</div>","null","fixation","","","","","","","","","95","","",""
"revaluation","213","921979","0.0-4.0-2.0-0.48","spark_pilot_norest","8403","3","14","Female","","false","","","","","[813,774.8000000119209]","./assets/img/ocean/memory/21.jpg","[""ArrowDown"",""ArrowRight""]","value training","ocean","30","{""ArrowUp,ArrowLeft"":23,""ArrowUp,ArrowRight"":10,""ArrowDown,ArrowLeft"":8,""ArrowDown,ArrowRight"":30}","true","ArrowDown,ArrowRight","false","original","1","96","","",""
"html-keyboard-response","214","922485","0.0-4.0-2.0-1.48","spark_pilot_norest","8403","3","14","Female","","","","","","","null","<div style=""font-size:60px;"">+</div>","null","fixation","","","","","","","","","97","","",""
"revaluation","215","928503","0.0-4.0-2.0-0.49","spark_pilot_norest","8403","3","14","Female","","false","","","","","[860.5999999940395,616.4000000059605]","./assets/img/ocean/memory/13.jpg","[""ArrowDown"",""ArrowRight""]","value training","ocean","30","{""ArrowUp,ArrowLeft"":23,""ArrowUp,ArrowRight"":10,""ArrowDown,ArrowLeft"":8,""ArrowDown,ArrowRight"":30}","true","ArrowDown,ArrowRight","false","original","1","98","","",""
"html-keyboard-response","216","929008","0.0-4.0-2.0-1.49","spark_pilot_norest","8403","3","14","Female","","","","","","","null","<div style=""font-size:60px;"">+</div>","null","fixation","","","","","","","","","99","","",""
"learning-instructions","217","943911","0.0-4.0-3.0-0.0","spark_pilot_norest","8403","3","14","Female","","","","","","","1145.2999999821186","<p> Now, you will travel with a friend who will choose whether you go up or down first. </p>
            <p> On these turns, you will just see the animal that they found. You will still get to choose which chest to search for treasure.</p>","","instructions","","","","","","","","","","","",""
"revaluation","218","947928","0.0-4.0-4.0-0.0","spark_pilot_norest","8403","3","14","Female","","false","","","","","[478.59999999403954]","./assets/img/ocean/animals/seahorse.jpg","[""ArrowRight""]","revaluation","ocean","10","{""ArrowUp,ArrowLeft"":23,""ArrowUp,ArrowRight"":10,""ArrowDown,ArrowLeft"":8,""ArrowDown,ArrowRight"":30}","false","ArrowUp,ArrowRight","","original","1","0","","",""
"html-keyboard-response","219","948441","0.0-4.0-4.0-1.0","spark_pilot_norest","8403","3","14","Female","","","","","","","null","<div style=""font-size:60px;"">+</div>","null","fixation","","","","","","","","","1","","",""
"revaluation","220","952454","0.0-4.0-4.0-0.1","spark_pilot_norest","8403","3","14","Female","","false","","","","","[753.9000000059605]","./assets/img/ocean/animals/seahorse.jpg","[""ArrowLeft""]","revaluation","ocean","23","{""ArrowUp,ArrowLeft"":23,""ArrowUp,ArrowRight"":10,""ArrowDown,ArrowLeft"":8,""ArrowDown,ArrowRight"":30}","true","ArrowUp,ArrowLeft","","original","1","2","","",""
"html-keyboard-response","221","952962","0.0-4.0-4.0-1.1","spark_pilot_norest","8403","3","14","Female","","","","","","","null","<div style=""font-size:60px;"">+</div>","null","fixation","","","","","","","","","3","","",""
"revaluation","222","956980","0.0-4.0-4.0-0.2","spark_pilot_norest","8403","3","14","Female","","false","","","","","[584.5]","./assets/img/ocean/animals/seahorse.jpg","[""ArrowLeft""]","revaluation","ocean","23","{""ArrowUp,ArrowLeft"":23,""ArrowUp,ArrowRight"":10,""ArrowDown,ArrowLeft"":8,""ArrowDown,ArrowRight"":30}","true","ArrowUp,ArrowLeft","","original","1","4","","",""
"html-keyboard-response","223","957491","0.0-4.0-4.0-1.2","spark_pilot_norest","8403","3","14","Female","","","","","","","null","<div style=""font-size:60px;"">+</div>","null","fixation","","","","","","","","","5","","",""
"revaluation","224","961524","0.0-4.0-4.0-0.3","spark_pilot_norest","8403","3","14","Female","","false","","","","","[485.7000000178814]","./assets/img/ocean/animals/octopus.jpg","[""ArrowRight""]","revaluation","ocean","30","{""ArrowUp,ArrowLeft"":23,""ArrowUp,ArrowRight"":10,""ArrowDown,ArrowLeft"":8,""ArrowDown,ArrowRight"":30}","true","ArrowDown,ArrowRight","","original","1","6","","",""
"html-keyboard-response","225","962036","0.0-4.0-4.0-1.3","spark_pilot_norest","8403","3","14","Female","","","","","","","null","<div style=""font-size:60px;"">+</div>","null","fixation","","","","","","","","","7","","",""
"revaluation","226","966064","0.0-4.0-4.0-0.4","spark_pilot_norest","8403","3","14","Female","","false","","","","","[502.59999999403954]","./assets/img/ocean/animals/seahorse.jpg","[""ArrowLeft""]","revaluation","ocean","23","{""ArrowUp,ArrowLeft"":23,""ArrowUp,ArrowRight"":10,""ArrowDown,ArrowLeft"":8,""ArrowDown,ArrowRight"":30}","true","ArrowUp,ArrowLeft","","original","1","8","","",""
"html-keyboard-response","227","966573","0.0-4.0-4.0-1.4","spark_pilot_norest","8403","3","14","Female","","","","","","","null","<div style=""font-size:60px;"">+</div>","null","fixation","","","","","","","","","9","","",""
"revaluation","228","970591","0.0-4.0-4.0-0.5","spark_pilot_norest","8403","3","14","Female","","false","","","","","[617]","./assets/img/ocean/animals/seahorse.jpg","[""ArrowLeft""]","revaluation","ocean","23","{""ArrowUp,ArrowLeft"":23,""ArrowUp,ArrowRight"":10,""ArrowDown,ArrowLeft"":8,""ArrowDown,ArrowRight"":30}","true","ArrowUp,ArrowLeft","","original","1","10","","",""
"html-keyboard-response","229","971098","0.0-4.0-4.0-1.5","spark_pilot_norest","8403","3","14","Female","","","","","","","null","<div style=""font-size:60px;"">+</div>","null","fixation","","","","","","","","","11","","",""
"revaluation","230","975112","0.0-4.0-4.0-0.6","spark_pilot_norest","8403","3","14","Female","","false","","","","","[851.8999999761581]","./assets/img/ocean/animals/seahorse.jpg","[""ArrowLeft""]","revaluation","ocean","23","{""ArrowUp,ArrowLeft"":23,""ArrowUp,ArrowRight"":10,""ArrowDown,ArrowLeft"":8,""ArrowDown,ArrowRight"":30}","true","ArrowUp,ArrowLeft","","original","1","12","","",""
"html-keyboard-response","231","975615","0.0-4.0-4.0-1.6","spark_pilot_norest","8403","3","14","Female","","","","","","","null","<div style=""font-size:60px;"">+</div>","null","fixation","","","","","","","","","13","","",""
"revaluation","232","979626","0.0-4.0-4.0-0.7","spark_pilot_norest","8403","3","14","Female","","false","","","","","[444.59999999403954]","./assets/img/ocean/animals/octopus.jpg","[""ArrowRight""]","revaluation","ocean","30","{""ArrowUp,ArrowLeft"":23,""ArrowUp,ArrowRight"":10,""ArrowDown,ArrowLeft"":8,""ArrowDown,ArrowRight"":30}","true","ArrowDown,ArrowRight","","original","1","14","","",""
"html-keyboard-response","233","980135","0.0-4.0-4.0-1.7","spark_pilot_norest","8403","3","14","Female","","","","","","","null","<div style=""font-size:60px;"">+</div>","null","fixation","","","","","","","","","15","","",""
"revaluation","234","984155","0.0-4.0-4.0-0.8","spark_pilot_norest","8403","3","14","Female","","false","","","","","[485]","./assets/img/ocean/animals/octopus.jpg","[""ArrowRight""]","revaluation","ocean","30","{""ArrowUp,ArrowLeft"":23,""ArrowUp,ArrowRight"":10,""ArrowDown,ArrowLeft"":8,""ArrowDown,ArrowRight"":30}","true","ArrowDown,ArrowRight","","original","1","16","","",""
"html-keyboard-response","235","984660","0.0-4.0-4.0-1.8","spark_pilot_norest","8403","3","14","Female","","","","","","","null","<div style=""font-size:60px;"">+</div>","null","fixation","","","","","","","","","17","","",""
"revaluation","236","988676","0.0-4.0-4.0-0.9","spark_pilot_norest","8403","3","14","Female","","false","","","","","[535.4000000059605]","./assets/img/ocean/animals/octopus.jpg","[""ArrowRight""]","revaluation","ocean","30","{""ArrowUp,ArrowLeft"":23,""ArrowUp,ArrowRight"":10,""ArrowDown,ArrowLeft"":8,""ArrowDown,ArrowRight"":30}","true","ArrowDown,ArrowRight","","original","1","18","","",""
"html-keyboard-response","237","989183","0.0-4.0-4.0-1.9","spark_pilot_norest","8403","3","14","Female","","","","","","","null","<div style=""font-size:60px;"">+</div>","null","fixation","","","","","","","","","19","","",""
"revaluation","238","993195","0.0-4.0-4.0-0.10","spark_pilot_norest","8403","3","14","Female","","false","","","","","[480.90000000596046]","./assets/img/ocean/animals/octopus.jpg","[""ArrowRight""]","revaluation","ocean","30","{""ArrowUp,ArrowLeft"":23,""ArrowUp,ArrowRight"":10,""ArrowDown,ArrowLeft"":8,""ArrowDown,ArrowRight"":30}","true","ArrowDown,ArrowRight","","original","1","20","","",""
"html-keyboard-response","239","993702","0.0-4.0-4.0-1.10","spark_pilot_norest","8403","3","14","Female","","","","","","","null","<div style=""font-size:60px;"">+</div>","null","fixation","","","","","","","","","21","","",""
"revaluation","240","997720","0.0-4.0-4.0-0.11","spark_pilot_norest","8403","3","14","Female","","false","","","","","[562.0999999940395]","./assets/img/ocean/animals/seahorse.jpg","[""ArrowLeft""]","revaluation","ocean","23","{""ArrowUp,ArrowLeft"":23,""ArrowUp,ArrowRight"":10,""ArrowDown,ArrowLeft"":8,""ArrowDown,ArrowRight"":30}","true","ArrowUp,ArrowLeft","","original","1","22","","",""
"html-keyboard-response","241","998224","0.0-4.0-4.0-1.11","spark_pilot_norest","8403","3","14","Female","","","","","","","null","<div style=""font-size:60px;"">+</div>","null","fixation","","","","","","","","","23","","",""
"revaluation","242","1002231","0.0-4.0-4.0-0.12","spark_pilot_norest","8403","3","14","Female","","false","","","","","[474.5]","./assets/img/ocean/animals/seahorse.jpg","[""ArrowLeft""]","revaluation","ocean","23","{""ArrowUp,ArrowLeft"":23,""ArrowUp,ArrowRight"":10,""ArrowDown,ArrowLeft"":8,""ArrowDown,ArrowRight"":30}","true","ArrowUp,ArrowLeft","","original","1","24","","",""
"html-keyboard-response","243","1002743","0.0-4.0-4.0-1.12","spark_pilot_norest","8403","3","14","Female","","","","","","","null","<div style=""font-size:60px;"">+</div>","null","fixation","","","","","","","","","25","","",""
"revaluation","244","1006765","0.0-4.0-4.0-0.13","spark_pilot_norest","8403","3","14","Female","","false","","","","","[688.0999999940395]","./assets/img/ocean/animals/octopus.jpg","[""ArrowRight""]","revaluation","ocean","30","{""ArrowUp,ArrowLeft"":23,""ArrowUp,ArrowRight"":10,""ArrowDown,ArrowLeft"":8,""ArrowDown,ArrowRight"":30}","true","ArrowDown,ArrowRight","","original","1","26","","",""
"html-keyboard-response","245","1007267","0.0-4.0-4.0-1.13","spark_pilot_norest","8403","3","14","Female","","","","","","","null","<div style=""font-size:60px;"">+</div>","null","fixation","","","","","","","","","27","","",""
"revaluation","246","1011278","0.0-4.0-4.0-0.14","spark_pilot_norest","8403","3","14","Female","","false","","","","","[547.8000000119209]","./assets/img/ocean/animals/seahorse.jpg","[""ArrowLeft""]","revaluation","ocean","23","{""ArrowUp,ArrowLeft"":23,""ArrowUp,ArrowRight"":10,""ArrowDown,ArrowLeft"":8,""ArrowDown,ArrowRight"":30}","true","ArrowUp,ArrowLeft","","original","1","28","","",""
"html-keyboard-response","247","1011787","0.0-4.0-4.0-1.14","spark_pilot_norest","8403","3","14","Female","","","","","","","null","<div style=""font-size:60px;"">+</div>","null","fixation","","","","","","","","","29","","",""
"revaluation","248","1015803","0.0-4.0-4.0-0.15","spark_pilot_norest","8403","3","14","Female","","false","","","","","[594.5999999940395]","./assets/img/ocean/animals/octopus.jpg","[""ArrowRight""]","revaluation","ocean","30","{""ArrowUp,ArrowLeft"":23,""ArrowUp,ArrowRight"":10,""ArrowDown,ArrowLeft"":8,""ArrowDown,ArrowRight"":30}","true","ArrowDown,ArrowRight","","original","1","30","","",""
"html-keyboard-response","249","1016309","0.0-4.0-4.0-1.15","spark_pilot_norest","8403","3","14","Female","","","","","","","null","<div style=""font-size:60px;"">+</div>","null","fixation","","","","","","","","","31","","",""
"revaluation","250","1020332","0.0-4.0-4.0-0.16","spark_pilot_norest","8403","3","14","Female","","false","","","","","[582.5]","./assets/img/ocean/animals/octopus.jpg","[""ArrowRight""]","revaluation","ocean","30","{""ArrowUp,ArrowLeft"":23,""ArrowUp,ArrowRight"":10,""ArrowDown,ArrowLeft"":8,""ArrowDown,ArrowRight"":30}","true","ArrowDown,ArrowRight","","original","1","32","","",""
"html-keyboard-response","251","1020835","0.0-4.0-4.0-1.16","spark_pilot_norest","8403","3","14","Female","","","","","","","null","<div style=""font-size:60px;"">+</div>","null","fixation","","","","","","","","","33","","",""
"revaluation","252","1024848","0.0-4.0-4.0-0.17","spark_pilot_norest","8403","3","14","Female","","false","","","","","[551]","./assets/img/ocean/animals/octopus.jpg","[""ArrowRight""]","revaluation","ocean","30","{""ArrowUp,ArrowLeft"":23,""ArrowUp,ArrowRight"":10,""ArrowDown,ArrowLeft"":8,""ArrowDown,ArrowRight"":30}","true","ArrowDown,ArrowRight","","original","1","34","","",""
"html-keyboard-response","253","1025357","0.0-4.0-4.0-1.17","spark_pilot_norest","8403","3","14","Female","","","","","","","null","<div style=""font-size:60px;"">+</div>","null","fixation","","","","","","","","","35","","",""
"learning-instructions","254","1034344","0.0-4.0-5.0-0.0","spark_pilot_norest","8403","3","14","Female","","","","","","","null","<p> You have almost finished this part of the game! </p>
            <p> We are going to ask you to make a few more choices. </p>","","instructions","","","","","","","","","","","",""
"learning-instructions","255","1050340","0.0-4.0-5.0-0.1","spark_pilot_norest","8403","3","14","Female","","","","","","","null","<p> First, you need to decide whether to go up or down. When you see each picture, use the arrow keys to make your choice. </p>
            <p><b>You will not see which animal you found, but try to get to the one that will give you the most treasure.</b></p>","","instructions","","","","","","","","","","","",""
"html-keyboard-response","256","1051350","0.0-4.0-6.0-0.0","spark_pilot_norest","8403","3","14","Female","","","","","","","null","<div style=""font-size:100px;color:red;"">Starting in...</div>","null","","","","","","","","","","","","",""
"html-keyboard-response","257","1052360","0.0-4.0-6.0-1.0","spark_pilot_norest","8403","3","14","Female","","","","","","","null","<div style=""font-size:200px;color:red;"">3</div>","null","","","","","","","","","","","","",""
"html-keyboard-response","258","1053369","0.0-4.0-6.0-2.0","spark_pilot_norest","8403","3","14","Female","","","","","","","null","<div style=""font-size:200px;color:red;"">2</div>","null","","","","","","","","","","","","",""
"html-keyboard-response","259","1054378","0.0-4.0-6.0-3.0","spark_pilot_norest","8403","3","14","Female","","","","","","","null","<div style=""font-size:200px;color:red;"">1</div>","null","","","","","","","","","","","","",""
"revaluation","260","1054738","0.0-4.0-7.0-0.0","spark_pilot_norest","8403","3","14","Female","","false","","","","","[354.30000001192093]","./assets/img/ocean/test/0.jpg","[""ArrowDown""]","first stage test","ocean","0","{""ArrowUp,ArrowLeft"":23,""ArrowUp,ArrowRight"":10,""ArrowDown,ArrowLeft"":8,""ArrowDown,ArrowRight"":30}","true","ArrowDown","false","original","1","","","",""
"html-keyboard-response","261","1055241","0.0-4.0-7.0-1.0","spark_pilot_norest","8403","3","14","Female","","","","","","","null","<div style=""font-size:60px;"">+</div>","null","fixation","","","","","","","","","","","",""
"revaluation","262","1055934","0.0-4.0-7.0-0.1","spark_pilot_norest","8403","3","14","Female","","false","","","","","[688.8000000119209]","./assets/img/ocean/test/1.jpg","[""ArrowDown""]","first stage test","ocean","0","{""ArrowUp,ArrowLeft"":23,""ArrowUp,ArrowRight"":10,""ArrowDown,ArrowLeft"":8,""ArrowDown,ArrowRight"":30}","true","ArrowDown","false","original","1","","","",""
"html-keyboard-response","263","1056439","0.0-4.0-7.0-1.1","spark_pilot_norest","8403","3","14","Female","","","","","","","null","<div style=""font-size:60px;"">+</div>","null","fixation","","","","","","","","","","","",""
"revaluation","264","1057046","0.0-4.0-7.0-0.2","spark_pilot_norest","8403","3","14","Female","","false","","","","","[599.7000000178814]","./assets/img/ocean/test/2.jpg","[""ArrowDown""]","first stage test","ocean","0","{""ArrowUp,ArrowLeft"":23,""ArrowUp,ArrowRight"":10,""ArrowDown,ArrowLeft"":8,""ArrowDown,ArrowRight"":30}","true","ArrowDown","false","original","1","","","",""
"html-keyboard-response","265","1057559","0.0-4.0-7.0-1.2","spark_pilot_norest","8403","3","14","Female","","","","","","","null","<div style=""font-size:60px;"">+</div>","null","fixation","","","","","","","","","","","",""
"revaluation","266","1058212","0.0-4.0-7.0-0.3","spark_pilot_norest","8403","3","14","Female","","false","","","","","[648.6999999880791]","./assets/img/ocean/test/3.jpg","[""ArrowDown""]","first stage test","ocean","0","{""ArrowUp,ArrowLeft"":23,""ArrowUp,ArrowRight"":10,""ArrowDown,ArrowLeft"":8,""ArrowDown,ArrowRight"":30}","true","ArrowDown","false","original","1","","","",""
"html-keyboard-response","267","1058720","0.0-4.0-7.0-1.3","spark_pilot_norest","8403","3","14","Female","","","","","","","null","<div style=""font-size:60px;"">+</div>","null","fixation","","","","","","","","","","","",""
"learning-instructions","268","1072070","0.0-4.0-8.0-0.0","spark_pilot_norest","8403","3","14","Female","","","","","","","null","<p> Now you will see the animals again and can search their chests for treasure. </p>
            <p> This time, you will not see how much treasure you earned, but you will earn more bonus money for making better choices. </p>","","instructions","","","","","","","","","","","",""
"html-keyboard-response","269","1073081","0.0-4.0-9.0-0.0","spark_pilot_norest","8403","3","14","Female","","","","","","","null","<div style=""font-size:100px;color:red;"">Starting in...</div>","null","","","","","","","","","","","","",""
"html-keyboard-response","270","1074092","0.0-4.0-9.0-1.0","spark_pilot_norest","8403","3","14","Female","","","","","","","null","<div style=""font-size:200px;color:red;"">3</div>","null","","","","","","","","","","","","",""
"html-keyboard-response","271","1075098","0.0-4.0-9.0-2.0","spark_pilot_norest","8403","3","14","Female","","","","","","","null","<div style=""font-size:200px;color:red;"">2</div>","null","","","","","","","","","","","","",""
"html-keyboard-response","272","1076104","0.0-4.0-9.0-3.0","spark_pilot_norest","8403","3","14","Female","","","","","","","null","<div style=""font-size:200px;color:red;"">1</div>","null","","","","","","","","","","","","",""
"revaluation","273","1076870","0.0-4.0-10.0-0.0","spark_pilot_norest","8403","3","14","Female","","false","","","","","[761.6000000238419]","./assets/img/ocean/animals/seahorse.jpg","[""ArrowLeft""]","second stage test","ocean","0","{""ArrowUp,ArrowLeft"":23,""ArrowUp,ArrowRight"":10,""ArrowDown,ArrowLeft"":8,""ArrowDown,ArrowRight"":30}","true","ArrowUp,ArrowLeft","","original","1","","","",""
"html-keyboard-response","274","1077379","0.0-4.0-10.0-1.0","spark_pilot_norest","8403","3","14","Female","","","","","","","null","<div style=""font-size:60px;"">+</div>","null","fixation","","","","","","","","","","","",""
"revaluation","275","1077923","0.0-4.0-10.0-0.1","spark_pilot_norest","8403","3","14","Female","","false","","","","","[538.2999999821186]","./assets/img/ocean/animals/seahorse.jpg","[""ArrowLeft""]","second stage test","ocean","0","{""ArrowUp,ArrowLeft"":23,""ArrowUp,ArrowRight"":10,""ArrowDown,ArrowLeft"":8,""ArrowDown,ArrowRight"":30}","true","ArrowUp,ArrowLeft","","original","1","","","",""
"html-keyboard-response","276","1078430","0.0-4.0-10.0-1.1","spark_pilot_norest","8403","3","14","Female","","","","","","","null","<div style=""font-size:60px;"">+</div>","null","fixation","","","","","","","","","","","",""
"revaluation","277","1079122","0.0-4.0-10.0-0.2","spark_pilot_norest","8403","3","14","Female","","false","","","","","[687.9000000059605]","./assets/img/ocean/animals/seahorse.jpg","[""ArrowLeft""]","second stage test","ocean","0","{""ArrowUp,ArrowLeft"":23,""ArrowUp,ArrowRight"":10,""ArrowDown,ArrowLeft"":8,""ArrowDown,ArrowRight"":30}","true","ArrowUp,ArrowLeft","","original","1","","","",""
"html-keyboard-response","278","1079639","0.0-4.0-10.0-1.2","spark_pilot_norest","8403","3","14","Female","","","","","","","null","<div style=""font-size:60px;"">+</div>","null","fixation","","","","","","","","","","","",""
"revaluation","279","1080215","0.0-4.0-10.0-0.3","spark_pilot_norest","8403","3","14","Female","","false","","","","","[571.3000000119209]","./assets/img/ocean/animals/seahorse.jpg","[""ArrowLeft""]","second stage test","ocean","0","{""ArrowUp,ArrowLeft"":23,""ArrowUp,ArrowRight"":10,""ArrowDown,ArrowLeft"":8,""ArrowDown,ArrowRight"":30}","true","ArrowUp,ArrowLeft","","original","1","","","",""
"html-keyboard-response","280","1080721","0.0-4.0-10.0-1.3","spark_pilot_norest","8403","3","14","Female","","","","","","","null","<div style=""font-size:60px;"">+</div>","null","fixation","","","","","","","","","","","",""
"revaluation","281","1081235","0.0-4.0-10.0-0.4","spark_pilot_norest","8403","3","14","Female","","false","","","","","[512.1999999880791]","./assets/img/ocean/animals/octopus.jpg","[""ArrowRight""]","second stage test","ocean","0","{""ArrowUp,ArrowLeft"":23,""ArrowUp,ArrowRight"":10,""ArrowDown,ArrowLeft"":8,""ArrowDown,ArrowRight"":30}","true","ArrowDown,ArrowRight","","original","1","","","",""
"html-keyboard-response","282","1081744","0.0-4.0-10.0-1.4","spark_pilot_norest","8403","3","14","Female","","","","","","","null","<div style=""font-size:60px;"">+</div>","null","fixation","","","","","","","","","","","",""
"revaluation","283","1082289","0.0-4.0-10.0-0.5","spark_pilot_norest","8403","3","14","Female","","false","","","","","[542.1999999880791]","./assets/img/ocean/animals/octopus.jpg","[""ArrowRight""]","second stage test","ocean","0","{""ArrowUp,ArrowLeft"":23,""ArrowUp,ArrowRight"":10,""ArrowDown,ArrowLeft"":8,""ArrowDown,ArrowRight"":30}","true","ArrowDown,ArrowRight","","original","1","","","",""
"html-keyboard-response","284","1082799","0.0-4.0-10.0-1.5","spark_pilot_norest","8403","3","14","Female","","","","","","","null","<div style=""font-size:60px;"">+</div>","null","fixation","","","","","","","","","","","",""
"revaluation","285","1083316","0.0-4.0-10.0-0.6","spark_pilot_norest","8403","3","14","Female","","false","","","","","[513.0999999940395]","./assets/img/ocean/animals/octopus.jpg","[""ArrowRight""]","second stage test","ocean","0","{""ArrowUp,ArrowLeft"":23,""ArrowUp,ArrowRight"":10,""ArrowDown,ArrowLeft"":8,""ArrowDown,ArrowRight"":30}","true","ArrowDown,ArrowRight","","original","1","","","",""
"html-keyboard-response","286","1083819","0.0-4.0-10.0-1.6","spark_pilot_norest","8403","3","14","Female","","","","","","","null","<div style=""font-size:60px;"">+</div>","null","fixation","","","","","","","","","","","",""
"revaluation","287","1084233","0.0-4.0-10.0-0.7","spark_pilot_norest","8403","3","14","Female","","false","","","","","[409.59999999403954]","./assets/img/ocean/animals/octopus.jpg","[""ArrowRight""]","second stage test","ocean","0","{""ArrowUp,ArrowLeft"":23,""ArrowUp,ArrowRight"":10,""ArrowDown,ArrowLeft"":8,""ArrowDown,ArrowRight"":30}","true","ArrowDown,ArrowRight","","original","1","","","",""
"html-keyboard-response","288","1084741","0.0-4.0-10.0-1.7","spark_pilot_norest","8403","3","14","Female","","","","","","","null","<div style=""font-size:60px;"">+</div>","null","fixation","","","","","","","","","","","",""
"learning-instructions","289","1089418","0.0-4.0-0.1-0.2","spark_pilot_norest","8403","3","14","Female","","","","","","","1885.300000011921","<p> This time you are searching for treasure in the <b>canyon</b>.</p>","","instructions","","","","","","","","","","","",""
"learning-instructions","290","1107704","0.0-4.0-0.1-0.3","spark_pilot_norest","8403","3","14","Female","","","","","","","1040.800000011921","<p><b>New</b> animals with <b>new</b> treasure chests live here. You need to explore to discover where the animal with the best treasure chest is.</p>
                    <p> Like before, once you figure out which animal has the chest with the most treasure, you should try to get to that animal and select that chest! </p>","","instructions","","","","","","","","","","","",""
"learning-instructions","291","1122964","0.0-4.0-1.1-0.1","spark_pilot_norest","8403","3","14","Female","","","","","","","519","<p> Remember, when you see a picture of the place, use the up and down keys to <b>find an animal</b>.</p>
            <p> When you encounter an animal, you should use the left and right keys to <b>select a treasure chest</b>.</p>
            <p> Don't forget to look out for the robber! </p>","","instructions","","","","","","","","","","","",""
"revaluation","292","1128992","0.0-4.0-2.1-0.50","spark_pilot_norest","8403","3","14","Female","","false","","","","","[871.3000000119209,670.9000000059605]","./assets/img/canyon/memory/5.jpg","[""ArrowUp"",""ArrowLeft""]","value training","canyon","26","{""ArrowUp,ArrowLeft"":26,""ArrowUp,ArrowRight"":10,""ArrowDown,ArrowLeft"":5,""ArrowDown,ArrowRight"":17}","true","ArrowUp,ArrowLeft","false","revaluation","2","0","","",""
"html-keyboard-response","293","1129510","0.0-4.0-2.1-1.50","spark_pilot_norest","8403","3","14","Female","","","","","","","null","<div style=""font-size:60px;"">+</div>","null","fixation","","","","","","","","","1","","",""
"revaluation","294","1135542","0.0-4.0-2.1-0.51","spark_pilot_norest","8403","3","14","Female","","false","","","","","[604.5999999940395,465]","./assets/img/canyon/memory/21.jpg","[""ArrowUp"",""ArrowRight""]","value training","canyon","10","{""ArrowUp,ArrowLeft"":26,""ArrowUp,ArrowRight"":10,""ArrowDown,ArrowLeft"":5,""ArrowDown,ArrowRight"":17}","false","ArrowUp,ArrowRight","false","revaluation","2","2","","",""
"html-keyboard-response","295","1136059","0.0-4.0-2.1-1.51","spark_pilot_norest","8403","3","14","Female","","","","","","","null","<div style=""font-size:60px;"">+</div>","null","fixation","","","","","","","","","3","","",""
"revaluation","296","1140080","0.0-4.0-2.1-0.52","spark_pilot_norest","8403","3","14","Female","","false","","","","","[696.5]","./assets/img/canyon/catch/2.jpg","[""ArrowDown""]","value training","canyon","-10","{""ArrowUp,ArrowLeft"":26,""ArrowUp,ArrowRight"":10,""ArrowDown,ArrowLeft"":5,""ArrowDown,ArrowRight"":17}","false","ArrowDown","true","revaluation","2","4","","",""
"html-keyboard-response","297","1140599","0.0-4.0-2.1-1.52","spark_pilot_norest","8403","3","14","Female","","","","","","","null","<div style=""font-size:60px;"">+</div>","null","fixation","","","","","","","","","5","","",""
"revaluation","298","1146621","0.0-4.0-2.1-0.53","spark_pilot_norest","8403","3","14","Female","","false","","","","","[999.2999999821186,506]","./assets/img/canyon/memory/6.jpg","[""ArrowDown"",""ArrowLeft""]","value training","canyon","5","{""ArrowUp,ArrowLeft"":26,""ArrowUp,ArrowRight"":10,""ArrowDown,ArrowLeft"":5,""ArrowDown,ArrowRight"":17}","false","ArrowDown,ArrowLeft","false","revaluation","2","6","","",""
"html-keyboard-response","299","1147129","0.0-4.0-2.1-1.53","spark_pilot_norest","8403","3","14","Female","","","","","","","null","<div style=""font-size:60px;"">+</div>","null","fixation","","","","","","","","","7","","",""
"revaluation","300","1153160","0.0-4.0-2.1-0.54","spark_pilot_norest","8403","3","14","Female","","false","","","","","[861.5,624.0999999940395]","./assets/img/canyon/memory/25.jpg","[""ArrowDown"",""ArrowRight""]","value training","canyon","17","{""ArrowUp,ArrowLeft"":26,""ArrowUp,ArrowRight"":10,""ArrowDown,ArrowLeft"":5,""ArrowDown,ArrowRight"":17}","false","ArrowDown,ArrowRight","false","revaluation","2","8","","",""
"html-keyboard-response","301","1153666","0.0-4.0-2.1-1.54","spark_pilot_norest","8403","3","14","Female","","","","","","","null","<div style=""font-size:60px;"">+</div>","null","fixation","","","","","","","","","9","","",""
"revaluation","302","1159682","0.0-4.0-2.1-0.55","spark_pilot_norest","8403","3","14","Female","","false","","","","","[1203.2000000178814,427.7999999821186]","./assets/img/canyon/memory/27.jpg","[""ArrowUp"",""ArrowLeft""]","value training","canyon","26","{""ArrowUp,ArrowLeft"":26,""ArrowUp,ArrowRight"":10,""ArrowDown,ArrowLeft"":5,""ArrowDown,ArrowRight"":17}","true","ArrowUp,ArrowLeft","false","revaluation","2","10","","",""
"html-keyboard-response","303","1160187","0.0-4.0-2.1-1.55","spark_pilot_norest","8403","3","14","Female","","","","","","","null","<div style=""font-size:60px;"">+</div>","null","fixation","","","","","","","","","11","","",""
"revaluation","304","1164205","0.0-4.0-2.1-0.56","spark_pilot_norest","8403","3","14","Female","","false","","","","","[705.7999999821186]","./assets/img/canyon/catch/7.jpg","[""spaceBar""]","value training","canyon","0","{""ArrowUp,ArrowLeft"":26,""ArrowUp,ArrowRight"":10,""ArrowDown,ArrowLeft"":5,""ArrowDown,ArrowRight"":17}","true","spaceBar","true","revaluation","2","12","","",""
"html-keyboard-response","305","1164712","0.0-4.0-2.1-1.56","spark_pilot_norest","8403","3","14","Female","","","","","","","null","<div style=""font-size:60px;"">+</div>","null","fixation","","","","","","","","","13","","",""
"revaluation","306","1168731","0.0-4.0-2.1-0.57","spark_pilot_norest","8403","3","14","Female","","false","","","","","[697.8000000119209]","./assets/img/canyon/catch/0.jpg","[""spaceBar""]","value training","canyon","0","{""ArrowUp,ArrowLeft"":26,""ArrowUp,ArrowRight"":10,""ArrowDown,ArrowLeft"":5,""ArrowDown,ArrowRight"":17}","true","spaceBar","true","revaluation","2","14","","",""
"html-keyboard-response","307","1169235","0.0-4.0-2.1-1.57","spark_pilot_norest","8403","3","14","Female","","","","","","","null","<div style=""font-size:60px;"">+</div>","null","fixation","","","","","","","","","15","","",""
"revaluation","308","1175247","0.0-4.0-2.1-0.58","spark_pilot_norest","8403","3","14","Female","","false","","","","","[842.9000000059605,451.40000000596046]","./assets/img/canyon/memory/25.jpg","[""ArrowUp"",""ArrowLeft""]","value training","canyon","26","{""ArrowUp,ArrowLeft"":26,""ArrowUp,ArrowRight"":10,""ArrowDown,ArrowLeft"":5,""ArrowDown,ArrowRight"":17}","true","ArrowUp,ArrowLeft","false","revaluation","2","16","","",""
"html-keyboard-response","309","1175753","0.0-4.0-2.1-1.58","spark_pilot_norest","8403","3","14","Female","","","","","","","null","<div style=""font-size:60px;"">+</div>","null","fixation","","","","","","","","","17","","",""
"revaluation","310","1181772","0.0-4.0-2.1-0.59","spark_pilot_norest","8403","3","14","Female","","false","","","","","[576.7000000178814,606.5]","./assets/img/canyon/memory/29.jpg","[""ArrowUp"",""ArrowLeft""]","value training","canyon","26","{""ArrowUp,ArrowLeft"":26,""ArrowUp,ArrowRight"":10,""ArrowDown,ArrowLeft"":5,""ArrowDown,ArrowRight"":17}","true","ArrowUp,ArrowLeft","false","revaluation","2","18","","",""
"html-keyboard-response","311","1182275","0.0-4.0-2.1-1.59","spark_pilot_norest","8403","3","14","Female","","","","","","","null","<div style=""font-size:60px;"">+</div>","null","fixation","","","","","","","","","19","","",""
