"trial_type","trial_index","time_elapsed","internal_node_id","task_version","subject_id","assigned_condition","age","gender","success","timeout","failed_images","failed_audio","failed_video","browser_interaction","rt","stimulus","response","task_part","environment","score","rewardMap","correct","fullState","isCatch","condition","order","trial_num","key_press","ground_truth","bonus"
"pavlovia","0","1132","0.0-0.0","spark_pilot_norest","8558","2","9","Female","","","","","","","","","","","","","","","","","","","","","",""
"preload","1","34314","0.0-1.0","spark_pilot_norest","8558","2","9","Female","true","false","[]","[]","[]","[{""event"":""fullscreenenter"",""trial"":2,""time"":42258}]","","","","","","","","","","","","","","","",""
"fullscreen","2","43244","0.0-2.0","spark_pilot_norest","8558","2","9","Female","true","","","","","","","","","","","","","","","","","","","","",""
"audio-button-response","3","46611","0.0-3.0-0.0-0.0","spark_pilot_norest","8558","2","9","Female","","","","","","","3296","./assets/audio/audiotest/turtle.mp3","2","audio_test","","","","","","","","","","","",""
"learning-instructions","4","57580","0.0-3.0-1.0-0.0","spark_pilot_norest","8558","2","9","Female","","","","","","","3990.60000000149","<p> Welcome! Please remember to stay in fullscreen mode and don't click away from the experiment. </p>","","instructions","","","","","","","","","","","",""
"learning-instructions","5","70001","0.0-3.0-1.0-0.1","spark_pilot_norest","8558","2","9","Female","","","","","","","4012.7000000029802","<p> Today you will be playing a game to earn treasure. </p>
            <p> At the end of the experiment, you will earn a bonus based on how much treasure you find. </p>
            <img src='./assets/img/instructions/treasure.jpg' class='instructions-image'>","","instructions","","","","","","","","","","","",""
"learning-instructions","6","79091","0.0-3.0-1.0-0.2","spark_pilot_norest","8558","2","9","Female","","","","","","","824.9000000059605","<p> Animals have hidden treasure in treasure chests. </p>
            <p> You need to first find an animal and then choose which of their treasure chests to search. </p>
            <img src='./assets/img/space/animals/cat.jpg' class='instructions-image'>","","instructions","","","","","","","","","","","",""
"learning-instructions","7","93090","0.0-3.0-1.0-0.3","spark_pilot_norest","8558","2","9","Female","","","","","","","851.2000000029802","<p> In each round, you will search for treasure in a different place. In the real game, there will be two rounds. </p>
            <p> You will begin with a separate, practice round where you will search for treasure in outer space. </p>
            <img src='./assets/img/space/0.jpg' class='instructions-image'>","","instructions","","","","","","","","","","","",""
"learning-instructions","8","105293","0.0-3.0-1.0-0.4","spark_pilot_norest","8558","2","9","Female","","","","","","","788.2999999970198","<p> On every turn, you will see a picture of the place that you are in, but the specific image may be different each time. </p>
            <p> For example, both of these images mean you are in outer space. </p>
            <img src='./assets/img/instructions/outerspace.jpg' class='instructions-image'>","","instructions","","","","","","","","","","","",""
"learning-instructions","9","115051","0.0-3.0-1.0-0.5","spark_pilot_norest","8558","2","9","Female","","","","","","","1927.4000000059605","<p> You need to decide which direction to travel in. </p>
            <p> You can choose between going <b>up or down</b> by using the arrow keys. </p>
            <img src='./assets/img/instructions/updown.jpg' class='instructions-image'>","","instructions","","","","","","","","","","","",""
"learning-instructions","10","124370","0.0-3.0-1.0-0.6","spark_pilot_norest","8558","2","9","Female","","","","","","","505.8999999985099","<p> You will have <b>2 seconds</b> to make your choice. </p>
            <p> If you do not make a choice within 2 seconds, you will not find an animal or earn treasure. </p>
            <img src='./assets/img/instructions/2seconds.jpg' class='instructions-image'>","","instructions","","","","","","","","","","","",""
"learning-instructions","11","133631","0.0-3.0-1.0-0.7","spark_pilot_norest","8558","2","9","Female","","","","","","","2226.2000000029802","<p> Let’s try practicing that now! </p>
            <p> When you see a picture of the place you are in, press the <b>up</b> key to travel up. </p>
            <img src='./assets/img/instructions/pressUp.jpg' class='instructions-image'>","","instructions","","","","","","","","","","","",""
"revaluation","12","137652","0.0-3.0-2.0-0.0","spark_pilot_norest","8558","2","9","Female","","true","","","","","[]","./assets/img/space/0.jpg","[]","first stage practice","space","-5","null","null","","false","","","","","",""
"html-keyboard-response","13","138160","0.0-3.0-2.0-1.0","spark_pilot_norest","8558","2","9","Female","","","","","","","null","<div style=""font-size:60px;"">+</div>","null","fixation","","","","","","","","","","","",""
"revaluation","14","142179","0.0-3.0-2.0-0.1","spark_pilot_norest","8558","2","9","Female","","false","","","","","[624.8999999985099]","./assets/img/space/1.jpg","[""ArrowUp""]","first stage practice","space","0","null","null","ArrowUp","false","","","","","",""
"html-keyboard-response","15","142688","0.0-3.0-2.0-1.1","spark_pilot_norest","8558","2","9","Female","","","","","","","null","<div style=""font-size:60px;"">+</div>","null","fixation","","","","","","","","","","","",""
"revaluation","16","146707","0.0-3.0-2.0-0.2","spark_pilot_norest","8558","2","9","Female","","false","","","","","[1163.3999999985099]","./assets/img/space/2.jpg","[""ArrowUp""]","first stage practice","space","0","null","null","ArrowUp","false","","","","","",""
"html-keyboard-response","17","147216","0.0-3.0-2.0-1.2","spark_pilot_norest","8558","2","9","Female","","","","","","","null","<div style=""font-size:60px;"">+</div>","null","fixation","","","","","","","","","","","",""
"learning-instructions","18","153886","0.0-3.0-3.0-0.0","spark_pilot_norest","8558","2","9","Female","","","","","","","1970.2999999970198","<p> Great job! Now try pressing the <b>down</b> key to travel down. </p>
            <img src='./assets/img/instructions/pressDown.jpg' class='instructions-image'>","","instructions","","","","","","","","","","","",""
"revaluation","19","157907","0.0-3.0-4.0-0.0","spark_pilot_norest","8558","2","9","Female","","false","","","","","[1125.3999999985099]","./assets/img/space/3.jpg","[""ArrowDown""]","first stage practice","space","0","null","null","ArrowDown","false","","","","","",""
"html-keyboard-response","20","158414","0.0-3.0-4.0-1.0","spark_pilot_norest","8558","2","9","Female","","","","","","","null","<div style=""font-size:60px;"">+</div>","null","fixation","","","","","","","","","","","",""
"revaluation","21","162431","0.0-3.0-4.0-0.1","spark_pilot_norest","8558","2","9","Female","","false","","","","","[852.3000000044703]","./assets/img/space/4.jpg","[""ArrowDown""]","first stage practice","space","0","null","null","ArrowDown","false","","","","","",""
"html-keyboard-response","22","162933","0.0-3.0-4.0-1.1","spark_pilot_norest","8558","2","9","Female","","","","","","","null","<div style=""font-size:60px;"">+</div>","null","fixation","","","","","","","","","","","",""
"revaluation","23","166950","0.0-3.0-4.0-0.2","spark_pilot_norest","8558","2","9","Female","","false","","","","","[1126.1000000014901]","./assets/img/space/5.jpg","[""ArrowDown""]","first stage practice","space","0","null","null","ArrowDown","false","","","","","",""
"html-keyboard-response","24","167458","0.0-3.0-4.0-1.2","spark_pilot_norest","8558","2","9","Female","","","","","","","null","<div style=""font-size:60px;"">+</div>","null","fixation","","","","","","","","","","","",""
"learning-instructions","25","179128","0.0-3.0-5.0-0.0","spark_pilot_norest","8558","2","9","Female","","","","","","","1816.3999999985099","<p> The animals don’t move, so the animal in the upper part of a place will stay in the upper part of a place, and the animal in the lower part of a place will stay in the lower part of a place. </p>","","instructions","","","","","","","","","","","",""
"learning-instructions","26","188848","0.0-3.0-5.0-0.1","spark_pilot_norest","8558","2","9","Female","","","","","","","587.2999999970198","<p> Each animal has two treasure chests for you to choose from. </p>
            <p> The amount of treasure in each chest can range from <b> 0 to 40 pieces.</b></p>","","instructions","","","","","","","","","","","",""
"learning-instructions","27","201993","0.0-3.0-5.0-0.2","spark_pilot_norest","8558","2","9","Female","","","","","","","1961.8000000044703","<p> You should decide which chest to search for treasure by using the <b>left</b> and <b>right</b> arrow keys. </p>
            <p><b> Pay attention to which animal is on the screen, as the animals have different treasure chests. </b></p>
            <img src='./assets/img/instructions/leftright.jpg' class='instructions-image'>","","instructions","","","","","","","","","","","",""
"learning-instructions","28","209477","0.0-3.0-5.0-0.3","spark_pilot_norest","8558","2","9","Female","","","","","","","1120.3000000044703","<p> Let’s try practicing that now. </p>
            <p> When you see an animal, choose which chest to search for treasure. </p>
            <img src='./assets/img/instructions/chooseChest.jpg' class='instructions-image'>","","instructions","","","","","","","","","","","",""
"revaluation","29","213498","0.0-3.0-6.0-0.0","spark_pilot_norest","8558","2","9","Female","","false","","","","","[1107.6000000014901]","./assets/img/space/animals/cat.jpg","[""ArrowRight""]","second stage practice","space","36","{""ArrowUp,ArrowLeft"":3,""ArrowUp,ArrowRight"":36,""ArrowDown,ArrowLeft"":15,""ArrowDown,ArrowRight"":23}","true","ArrowUp,ArrowRight","","","","","","",""
"html-keyboard-response","30","214009","0.0-3.0-6.0-1.0","spark_pilot_norest","8558","2","9","Female","","","","","","","null","<div style=""font-size:60px;"">+</div>","null","fixation","","","","","","","","","","","",""
"revaluation","31","218034","0.0-3.0-6.0-0.1","spark_pilot_norest","8558","2","9","Female","","false","","","","","[613.8000000044703]","./assets/img/space/animals/rabbit.jpg","[""ArrowLeft""]","second stage practice","space","15","{""ArrowUp,ArrowLeft"":3,""ArrowUp,ArrowRight"":36,""ArrowDown,ArrowLeft"":15,""ArrowDown,ArrowRight"":23}","false","ArrowDown,ArrowLeft","","","","","","",""
"html-keyboard-response","32","218545","0.0-3.0-6.0-1.1","spark_pilot_norest","8558","2","9","Female","","","","","","","null","<div style=""font-size:60px;"">+</div>","null","fixation","","","","","","","","","","","",""
"revaluation","33","222570","0.0-3.0-6.0-0.2","spark_pilot_norest","8558","2","9","Female","","false","","","","","[525]","./assets/img/space/animals/cat.jpg","[""ArrowRight""]","second stage practice","space","36","{""ArrowUp,ArrowLeft"":3,""ArrowUp,ArrowRight"":36,""ArrowDown,ArrowLeft"":15,""ArrowDown,ArrowRight"":23}","true","ArrowUp,ArrowRight","","","","","","",""
"html-keyboard-response","34","223081","0.0-3.0-6.0-1.2","spark_pilot_norest","8558","2","9","Female","","","","","","","null","<div style=""font-size:60px;"">+</div>","null","fixation","","","","","","","","","","","",""
"revaluation","35","227106","0.0-3.0-6.0-0.3","spark_pilot_norest","8558","2","9","Female","","false","","","","","[421]","./assets/img/space/animals/rabbit.jpg","[""ArrowRight""]","second stage practice","space","23","{""ArrowUp,ArrowLeft"":3,""ArrowUp,ArrowRight"":36,""ArrowDown,ArrowLeft"":15,""ArrowDown,ArrowRight"":23}","true","ArrowDown,ArrowRight","","","","","","",""
"html-keyboard-response","36","227613","0.0-3.0-6.0-1.3","spark_pilot_norest","8558","2","9","Female","","","","","","","null","<div style=""font-size:60px;"">+</div>","null","fixation","","","","","","","","","","","",""
"learning-instructions","37","246804","0.0-3.0-7.0-0.0","spark_pilot_norest","8558","2","9","Female","","","","","","","2375","<p> Great job. Now let’s try putting it together. </p>
            <p> On each turn, you will first see a picture to remind you of the place you are in, and you need to choose whether to go up or down. </p>
            <p> Then you will see an animal and choose which of its chests to search for treasure. </p>","","instructions","","","","","","","","","","","",""
"learning-instructions","38","255892","0.0-3.0-7.0-0.1","spark_pilot_norest","8558","2","9","Female","","","","","","","828.3000000044703","<p> When you choose whether to go up or down, try to go to the animal with the chest with the most treasure. </p>
            <p> Try practicing that now! </p>","","instructions","","","","","","","","","","","",""
"revaluation","39","261921","0.0-3.0-8.0-0.0","spark_pilot_norest","8558","2","9","Female","","false","","","","","[1736.9000000059605,955.8000000044703]","./assets/img/space/6.jpg","[""ArrowUp"",""ArrowRight""]","full practice","space","36","{""ArrowUp,ArrowLeft"":3,""ArrowUp,ArrowRight"":36,""ArrowDown,ArrowLeft"":15,""ArrowDown,ArrowRight"":23}","true","ArrowUp,ArrowRight","false","","","","","",""
"html-keyboard-response","40","262433","0.0-3.0-8.0-1.0","spark_pilot_norest","8558","2","9","Female","","","","","","","null","<div style=""font-size:60px;"">+</div>","null","fixation","","","","","","","","","","","",""
"revaluation","41","268457","0.0-3.0-8.0-0.1","spark_pilot_norest","8558","2","9","Female","","false","","","","","[827.8999999985099,651.3999999985099]","./assets/img/space/7.jpg","[""ArrowDown"",""ArrowLeft""]","full practice","space","15","{""ArrowUp,ArrowLeft"":3,""ArrowUp,ArrowRight"":36,""ArrowDown,ArrowLeft"":15,""ArrowDown,ArrowRight"":23}","false","ArrowDown,ArrowLeft","false","","","","","",""
"html-keyboard-response","42","268968","0.0-3.0-8.0-1.1","spark_pilot_norest","8558","2","9","Female","","","","","","","null","<div style=""font-size:60px;"">+</div>","null","fixation","","","","","","","","","","","",""
"revaluation","43","274997","0.0-3.0-8.0-0.2","spark_pilot_norest","8558","2","9","Female","","false","","","","","[1443.5999999940395,702.1000000014901]","./assets/img/space/8.jpg","[""ArrowDown"",""ArrowRight""]","full practice","space","23","{""ArrowUp,ArrowLeft"":3,""ArrowUp,ArrowRight"":36,""ArrowDown,ArrowLeft"":15,""ArrowDown,ArrowRight"":23}","false","ArrowDown,ArrowRight","false","","","","","",""
"html-keyboard-response","44","275500","0.0-3.0-8.0-1.2","spark_pilot_norest","8558","2","9","Female","","","","","","","null","<div style=""font-size:60px;"">+</div>","null","fixation","","","","","","","","","","","",""
"revaluation","45","279516","0.0-3.0-8.0-0.3","spark_pilot_norest","8558","2","9","Female","","true","","","","","[]","./assets/img/space/9.jpg","[]","full practice","space","-5","{""ArrowUp,ArrowLeft"":3,""ArrowUp,ArrowRight"":36,""ArrowDown,ArrowLeft"":15,""ArrowDown,ArrowRight"":23}","false","","false","","","","","",""
"html-keyboard-response","46","280023","0.0-3.0-8.0-1.3","spark_pilot_norest","8558","2","9","Female","","","","","","","null","<div style=""font-size:60px;"">+</div>","null","fixation","","","","","","","","","","","",""
"revaluation","47","286045","0.0-3.0-8.0-0.4","spark_pilot_norest","8558","2","9","Female","","false","","","","","[964,750.6000000014901]","./assets/img/space/10.jpg","[""ArrowDown"",""ArrowRight""]","full practice","space","23","{""ArrowUp,ArrowLeft"":3,""ArrowUp,ArrowRight"":36,""ArrowDown,ArrowLeft"":15,""ArrowDown,ArrowRight"":23}","false","ArrowDown,ArrowRight","false","","","","","",""
"html-keyboard-response","48","286551","0.0-3.0-8.0-1.4","spark_pilot_norest","8558","2","9","Female","","","","","","","null","<div style=""font-size:60px;"">+</div>","null","fixation","","","","","","","","","","","",""
"learning-instructions","49","299911","0.0-3.0-9.0-0.0","spark_pilot_norest","8558","2","9","Female","","","","","","","3007","<p> One last thing: sometimes, you will see a robber. The robber can be anywhere in the picture. </p>
            <p> If you do not stop them, you will lose treasure. </p>
            <img src='./assets/img/instructions/robber.jpg' class='instructions-image'>","","instructions","","","","","","","","","","","",""
"learning-instructions","50","310487","0.0-3.0-9.0-0.1","spark_pilot_norest","8558","2","9","Female","","","","","","","3412.2999999970198","<p> If you see the robber, you should <b>press the space bar</b> rather than using the arrow keys. </p>
            <p> Try practicing that now! </p>","","instructions","","","","","","","","","","","",""
"revaluation","51","314500","0.0-3.0-10.0-0.0","spark_pilot_norest","8558","2","9","Female","","false","","","","","[891.0999999940395]","./assets/img/space/catch/0.jpg","[""spaceBar""]","catch practice","space","0","{""ArrowUp,ArrowLeft"":3,""ArrowUp,ArrowRight"":36,""ArrowDown,ArrowLeft"":15,""ArrowDown,ArrowRight"":23}","true","spaceBar","true","","","","","",""
"html-keyboard-response","52","315004","0.0-3.0-10.0-1.0","spark_pilot_norest","8558","2","9","Female","","","","","","","null","<div style=""font-size:60px;"">+</div>","null","fixation","","","","","","","","","","","",""
"revaluation","53","319024","0.0-3.0-10.0-0.1","spark_pilot_norest","8558","2","9","Female","","false","","","","","[477.8999999985099]","./assets/img/space/catch/1.jpg","[""spaceBar""]","catch practice","space","0","{""ArrowUp,ArrowLeft"":3,""ArrowUp,ArrowRight"":36,""ArrowDown,ArrowLeft"":15,""ArrowDown,ArrowRight"":23}","true","spaceBar","true","","","","","",""
"html-keyboard-response","54","319532","0.0-3.0-10.0-1.1","spark_pilot_norest","8558","2","9","Female","","","","","","","null","<div style=""font-size:60px;"">+</div>","null","fixation","","","","","","","","","","","",""
"revaluation","55","323548","0.0-3.0-10.0-0.2","spark_pilot_norest","8558","2","9","Female","","false","","","","","[482.79999999701977]","./assets/img/space/catch/2.jpg","[""spaceBar""]","catch practice","space","0","{""ArrowUp,ArrowLeft"":3,""ArrowUp,ArrowRight"":36,""ArrowDown,ArrowLeft"":15,""ArrowDown,ArrowRight"":23}","true","spaceBar","true","","","","","",""
"html-keyboard-response","56","324052","0.0-3.0-10.0-1.2","spark_pilot_norest","8558","2","9","Female","","","","","","","null","<div style=""font-size:60px;"">+</div>","null","fixation","","","","","","","","","","","",""
"learning-instructions","57","331277","0.0-3.0-11.0-0.0-0.0","spark_pilot_norest","8558","2","9","Female","","","","","","","1969.6000000014901","<p> Now, you will practice a shortened version of the game to get a sense of how it all fits together. </p>","","instructions","","","","","","","","","","","",""
"learning-instructions","58","335173","0.0-3.0-11.0-0.0-0.1","spark_pilot_norest","8558","2","9","Female","","","","","","","708.2000000029802","<p>This time you are searching for treasure in outer space.</p>","","instructions","","","","","","","","","","","",""
"learning-instructions","59","351456","0.0-3.0-11.0-1.0-0.0","spark_pilot_norest","8558","2","9","Female","","","","","","","1514.2999999970198","<p> Remember, when you see a picture of the place, use the up and down keys to <b>find an animal</b>.</p>
            <p> When you encounter an animal, you should use the left and right keys to <b>select a treasure chest</b>.</p>
            <p> Don't forget to look out for the robber! </p>","","instructions","","","","","","","","","","","",""
"revaluation","60","355475","0.0-3.0-11.0-2.0-0.0","spark_pilot_norest","8558","2","9","Female","","true","","","","","[]","./assets/img/space/11.jpg","[]","practice block","space","-5","{""ArrowUp,ArrowLeft"":3,""ArrowUp,ArrowRight"":36,""ArrowDown,ArrowLeft"":15,""ArrowDown,ArrowRight"":23}","false","","false","","","","","",""
"html-keyboard-response","61","355978","0.0-3.0-11.0-2.0-1.0","spark_pilot_norest","8558","2","9","Female","","","","","","","null","<div style=""font-size:60px;"">+</div>","null","fixation","","","","","","","","","","","",""
"revaluation","62","362003","0.0-3.0-11.0-2.0-0.1","spark_pilot_norest","8558","2","9","Female","","false","","","","","[877.2999999970198,762.0999999940395]","./assets/img/space/12.jpg","[""ArrowDown"",""ArrowRight""]","practice block","space","23","{""ArrowUp,ArrowLeft"":3,""ArrowUp,ArrowRight"":36,""ArrowDown,ArrowLeft"":15,""ArrowDown,ArrowRight"":23}","false","ArrowDown,ArrowRight","false","","","","","",""
"html-keyboard-response","63","362506","0.0-3.0-11.0-2.0-1.1","spark_pilot_norest","8558","2","9","Female","","","","","","","null","<div style=""font-size:60px;"">+</div>","null","fixation","","","","","","","","","","","",""
"revaluation","64","368533","0.0-3.0-11.0-2.0-0.2","spark_pilot_norest","8558","2","9","Female","","false","","","","","[988.1000000014901,500.09999999403954]","./assets/img/space/13.jpg","[""ArrowUp"",""ArrowRight""]","practice block","space","36","{""ArrowUp,ArrowLeft"":3,""ArrowUp,ArrowRight"":36,""ArrowDown,ArrowLeft"":15,""ArrowDown,ArrowRight"":23}","true","ArrowUp,ArrowRight","false","","","","","",""
"html-keyboard-response","65","369034","0.0-3.0-11.0-2.0-1.2","spark_pilot_norest","8558","2","9","Female","","","","","","","null","<div style=""font-size:60px;"">+</div>","null","fixation","","","","","","","","","","","",""
"revaluation","66","375058","0.0-3.0-11.0-2.0-0.3","spark_pilot_norest","8558","2","9","Female","","false","","","","","[989,597.8999999985099]","./assets/img/space/14.jpg","[""ArrowUp"",""ArrowRight""]","practice block","space","36","{""ArrowUp,ArrowLeft"":3,""ArrowUp,ArrowRight"":36,""ArrowDown,ArrowLeft"":15,""ArrowDown,ArrowRight"":23}","true","ArrowUp,ArrowRight","false","","","","","",""
"html-keyboard-response","67","375563","0.0-3.0-11.0-2.0-1.3","spark_pilot_norest","8558","2","9","Female","","","","","","","null","<div style=""font-size:60px;"">+</div>","null","fixation","","","","","","","","","","","",""
"revaluation","68","381589","0.0-3.0-11.0-2.0-0.4","spark_pilot_norest","8558","2","9","Female","","false","","","","","[1546.7000000029802,468.70000000298023]","./assets/img/space/11.jpg","[""ArrowDown"",""ArrowRight""]","practice block","space","23","{""ArrowUp,ArrowLeft"":3,""ArrowUp,ArrowRight"":36,""ArrowDown,ArrowLeft"":15,""ArrowDown,ArrowRight"":23}","false","ArrowDown,ArrowRight","false","","","","","",""
"html-keyboard-response","69","382101","0.0-3.0-11.0-2.0-1.4","spark_pilot_norest","8558","2","9","Female","","","","","","","null","<div style=""font-size:60px;"">+</div>","null","fixation","","","","","","","","","","","",""
"revaluation","70","388123","0.0-3.0-11.0-2.0-0.5","spark_pilot_norest","8558","2","9","Female","","false","","","","","[728.3999999985099,422.79999999701977]","./assets/img/space/12.jpg","[""ArrowUp"",""ArrowRight""]","practice block","space","36","{""ArrowUp,ArrowLeft"":3,""ArrowUp,ArrowRight"":36,""ArrowDown,ArrowLeft"":15,""ArrowDown,ArrowRight"":23}","true","ArrowUp,ArrowRight","false","","","","","",""
"html-keyboard-response","71","388629","0.0-3.0-11.0-2.0-1.5","spark_pilot_norest","8558","2","9","Female","","","","","","","null","<div style=""font-size:60px;"">+</div>","null","fixation","","","","","","","","","","","",""
"revaluation","72","394651","0.0-3.0-11.0-2.0-0.6","spark_pilot_norest","8558","2","9","Female","","false","","","","","[752.5,421.3999999985099]","./assets/img/space/13.jpg","[""ArrowUp"",""ArrowRight""]","practice block","space","36","{""ArrowUp,ArrowLeft"":3,""ArrowUp,ArrowRight"":36,""ArrowDown,ArrowLeft"":15,""ArrowDown,ArrowRight"":23}","true","ArrowUp,ArrowRight","false","","","","","",""
"html-keyboard-response","73","395157","0.0-3.0-11.0-2.0-1.6","spark_pilot_norest","8558","2","9","Female","","","","","","","null","<div style=""font-size:60px;"">+</div>","null","fixation","","","","","","","","","","","",""
"revaluation","74","401178","0.0-3.0-11.0-2.0-0.7","spark_pilot_norest","8558","2","9","Female","","false","","","","","[847.2000000029802,332.69999999552965]","./assets/img/space/14.jpg","[""ArrowUp"",""ArrowRight""]","practice block","space","36","{""ArrowUp,ArrowLeft"":3,""ArrowUp,ArrowRight"":36,""ArrowDown,ArrowLeft"":15,""ArrowDown,ArrowRight"":23}","true","ArrowUp,ArrowRight","false","","","","","",""
"html-keyboard-response","75","401685","0.0-3.0-11.0-2.0-1.7","spark_pilot_norest","8558","2","9","Female","","","","","","","null","<div style=""font-size:60px;"">+</div>","null","fixation","","","","","","","","","","","",""
"revaluation","76","405701","0.0-3.0-11.0-2.0-0.8","spark_pilot_norest","8558","2","9","Female","","false","","","","","[847.0999999940395]","./assets/img/space/catch/3.jpg","[""spaceBar""]","practice block","space","0","{""ArrowUp,ArrowLeft"":3,""ArrowUp,ArrowRight"":36,""ArrowDown,ArrowLeft"":15,""ArrowDown,ArrowRight"":23}","true","spaceBar","true","","","","","",""
"html-keyboard-response","77","406213","0.0-3.0-11.0-2.0-1.8","spark_pilot_norest","8558","2","9","Female","","","","","","","null","<div style=""font-size:60px;"">+</div>","null","fixation","","","","","","","","","","","",""
"learning-instructions","78","420486","0.0-3.0-11.0-3.0-0.0","spark_pilot_norest","8558","2","9","Female","","","","","","","1311.6000000014901","<p> Now, you will travel with a friend who will choose whether you go up or down first. </p>
            <p> On these turns, you will just see the animal that they found. You will still get to choose which chest to search for treasure.</p>","","instructions","","","","","","","","","","","",""
"revaluation","79","424498","0.0-3.0-11.0-4.0-0.0","spark_pilot_norest","8558","2","9","Female","","false","","","","","[1277.2000000029802]","./assets/img/space/animals/cat.jpg","[""ArrowRight""]","practice block","space","36","{""ArrowUp,ArrowLeft"":3,""ArrowUp,ArrowRight"":36,""ArrowDown,ArrowLeft"":15,""ArrowDown,ArrowRight"":23}","true","ArrowUp,ArrowRight","","","","","","",""
"html-keyboard-response","80","425006","0.0-3.0-11.0-4.0-1.0","spark_pilot_norest","8558","2","9","Female","","","","","","","null","<div style=""font-size:60px;"">+</div>","null","fixation","","","","","","","","","","","",""
"revaluation","81","429030","0.0-3.0-11.0-4.0-0.1","spark_pilot_norest","8558","2","9","Female","","false","","","","","[867.7000000029802]","./assets/img/space/animals/rabbit.jpg","[""ArrowRight""]","practice block","space","23","{""ArrowUp,ArrowLeft"":3,""ArrowUp,ArrowRight"":36,""ArrowDown,ArrowLeft"":15,""ArrowDown,ArrowRight"":23}","true","ArrowDown,ArrowRight","","","","","","",""
"html-keyboard-response","82","429541","0.0-3.0-11.0-4.0-1.1","spark_pilot_norest","8558","2","9","Female","","","","","","","null","<div style=""font-size:60px;"">+</div>","null","fixation","","","","","","","","","","","",""
"revaluation","83","433557","0.0-3.0-11.0-4.0-0.2","spark_pilot_norest","8558","2","9","Female","","false","","","","","[701.3999999985099]","./assets/img/space/animals/cat.jpg","[""ArrowRight""]","practice block","space","36","{""ArrowUp,ArrowLeft"":3,""ArrowUp,ArrowRight"":36,""ArrowDown,ArrowLeft"":15,""ArrowDown,ArrowRight"":23}","true","ArrowUp,ArrowRight","","","","","","",""
"html-keyboard-response","84","434066","0.0-3.0-11.0-4.0-1.2","spark_pilot_norest","8558","2","9","Female","","","","","","","null","<div style=""font-size:60px;"">+</div>","null","fixation","","","","","","","","","","","",""
"revaluation","85","438086","0.0-3.0-11.0-4.0-0.3","spark_pilot_norest","8558","2","9","Female","","false","","","","","[552.8999999985099]","./assets/img/space/animals/rabbit.jpg","[""ArrowLeft""]","practice block","space","15","{""ArrowUp,ArrowLeft"":3,""ArrowUp,ArrowRight"":36,""ArrowDown,ArrowLeft"":15,""ArrowDown,ArrowRight"":23}","false","ArrowDown,ArrowLeft","","","","","","",""
"html-keyboard-response","86","438597","0.0-3.0-11.0-4.0-1.3","spark_pilot_norest","8558","2","9","Female","","","","","","","null","<div style=""font-size:60px;"">+</div>","null","fixation","","","","","","","","","","","",""
"learning-instructions","87","446725","0.0-3.0-11.0-5.0-0.0","spark_pilot_norest","8558","2","9","Female","","","","","","","null","<p> You have almost finished this part of the game! </p>
            <p> We are going to ask you to make a few more choices. </p>","","instructions","","","","","","","","","","","",""
"learning-instructions","88","462739","0.0-3.0-11.0-5.0-0.1","spark_pilot_norest","8558","2","9","Female","","","","","","","null","<p> First, you need to decide whether to go up or down. When you see each picture, use the arrow keys to make your choice. </p>
            <p><b>You will not see which animal you found, but try to get to the one that will give you the most treasure.</b></p>","","instructions","","","","","","","","","","","",""
"html-keyboard-response","89","463748","0.0-3.0-11.0-6.0-0.0","spark_pilot_norest","8558","2","9","Female","","","","","","","null","<div style=""font-size:100px;color:red;"">Starting in...</div>","null","","","","","","","","","","","","",""
"html-keyboard-response","90","464757","0.0-3.0-11.0-6.0-1.0","spark_pilot_norest","8558","2","9","Female","","","","","","","null","<div style=""font-size:200px;color:red;"">3</div>","null","","","","","","","","","","","","",""
"html-keyboard-response","91","465764","0.0-3.0-11.0-6.0-2.0","spark_pilot_norest","8558","2","9","Female","","","","","","","null","<div style=""font-size:200px;color:red;"">2</div>","null","","","","","","","","","","","","",""
"html-keyboard-response","92","466772","0.0-3.0-11.0-6.0-3.0","spark_pilot_norest","8558","2","9","Female","","","","","","","null","<div style=""font-size:200px;color:red;"">1</div>","null","","","","","","","","","","","","",""
"revaluation","93","467547","0.0-3.0-11.0-7.0","spark_pilot_norest","8558","2","9","Female","","false","","","","","[772]","./assets/img/space/15.jpg","[""ArrowDown""]","practice block","space","0","{""ArrowUp,ArrowLeft"":3,""ArrowUp,ArrowRight"":36,""ArrowDown,ArrowLeft"":15,""ArrowDown,ArrowRight"":23}","false","ArrowDown","false","","","","","",""
"html-keyboard-response","94","468048","0.0-3.0-11.0-8.0","spark_pilot_norest","8558","2","9","Female","","","","","","","null","<div style=""font-size:60px;"">+</div>","null","fixation","","","","","","","","","","","",""
"learning-instructions","95","481435","0.0-3.0-11.0-9.0-0.0","spark_pilot_norest","8558","2","9","Female","","","","","","","null","<p> Now you will see the animals again and can search their chests for treasure. </p>
            <p> This time, you will not see how much treasure you earned, but you will earn more bonus money for making better choices. </p>","","instructions","","","","","","","","","","","",""
"html-keyboard-response","96","482444","0.0-3.0-11.0-10.0-0.0","spark_pilot_norest","8558","2","9","Female","","","","","","","null","<div style=""font-size:100px;color:red;"">Starting in...</div>","null","","","","","","","","","","","","",""
"html-keyboard-response","97","483449","0.0-3.0-11.0-10.0-1.0","spark_pilot_norest","8558","2","9","Female","","","","","","","null","<div style=""font-size:200px;color:red;"">3</div>","null","","","","","","","","","","","","",""
"html-keyboard-response","98","484456","0.0-3.0-11.0-10.0-2.0","spark_pilot_norest","8558","2","9","Female","","","","","","","null","<div style=""font-size:200px;color:red;"">2</div>","null","","","","","","","","","","","","",""
"html-keyboard-response","99","485469","0.0-3.0-11.0-10.0-3.0","spark_pilot_norest","8558","2","9","Female","","","","","","","null","<div style=""font-size:200px;color:red;"">1</div>","null","","","","","","","","","","","","",""
"revaluation","100","486562","0.0-3.0-11.0-11.0-0.0","spark_pilot_norest","8558","2","9","Female","","false","","","","","[1088.1999999955297]","./assets/img/space/animals/cat.jpg","[""ArrowRight""]","practice block","space","0","{""ArrowUp,ArrowLeft"":3,""ArrowUp,ArrowRight"":36,""ArrowDown,ArrowLeft"":15,""ArrowDown,ArrowRight"":23}","true","ArrowUp,ArrowRight","","","","","","",""
"html-keyboard-response","101","487067","0.0-3.0-11.0-11.0-1.0","spark_pilot_norest","8558","2","9","Female","","","","","","","null","<div style=""font-size:60px;"">+</div>","null","fixation","","","","","","","","","","","",""
"revaluation","102","487849","0.0-3.0-11.0-11.0-0.1","spark_pilot_norest","8558","2","9","Female","","false","","","","","[779.5]","./assets/img/space/animals/rabbit.jpg","[""ArrowRight""]","practice block","space","0","{""ArrowUp,ArrowLeft"":3,""ArrowUp,ArrowRight"":36,""ArrowDown,ArrowLeft"":15,""ArrowDown,ArrowRight"":23}","true","ArrowDown,ArrowRight","","","","","","",""
"html-keyboard-response","103","488357","0.0-3.0-11.0-11.0-1.1","spark_pilot_norest","8558","2","9","Female","","","","","","","null","<div style=""font-size:60px;"">+</div>","null","fixation","","","","","","","","","","","",""
"learning-instructions","104","494653","0.0-3.0-12.0-0.0","spark_pilot_norest","8558","2","9","Female","","","","","","","1716.3999999985099","<p> Before you start, we're going to ask you a few questions about how the game works. </p>","","instructions","","","","","","","","","","","",""
"comp-q","105","503781","0.0-3.0-13.0-0.0-0.0","spark_pilot_norest","8558","2","9","Female","","","","","","","3538.60000000149","<p> <b> True or False? </b> </p>
            <p> There can be 50 pieces of treasure in a given animal's chest. </p>","1","comp_question","","","","true","","","","","","","",""
"comp-q","106","513512","0.0-3.0-13.0-0.0-1.0","spark_pilot_norest","8558","2","9","Female","","","","","","","3077.6999999955297","<p> <b> That's right! </b> The amount of treasure in each chest can range from 0 to 40 pieces. </p>","0","comp_answer","","","","","","","","","","","",""
"comp-q","107","521812","0.0-3.0-13.0-0.1-0.1","spark_pilot_norest","8558","2","9","Female","","","","","","","1179.9000000059605","<p> <b> True or False? </b> </p><p> In this game, all animals have the same amount of treasure in their left and right chests. </p>","1","comp_question","","","","true","","","","","","","",""
"comp-q","108","529195","0.0-3.0-13.0-0.1-1.1","spark_pilot_norest","8558","2","9","Female","","","","","","","2152.9000000059605","<p> <b> That's right! </b> Animals have different amounts of treasure in their treasure chests. </p>","0","comp_answer","","","","","","","","","","","",""
"comp-q","109","535899","0.0-3.0-13.0-0.2-0.2","spark_pilot_norest","8558","2","9","Female","","","","","","","856.7999999970198","<p> <b> True or False? </b> </p><p> The same animal will always be there if you go up in the same place. </p>","1","comp_question","","","","false","","","","","","","",""
"comp-q","110","544470","0.0-3.0-13.0-0.2-1.2","spark_pilot_norest","8558","2","9","Female","","","","","","","2266","<p> <b>Incorrect.</b> One animal lives in the upper part and one lives in the lower part of every place. </p>","0","comp_answer","","","","","","","","","","","",""
"comp-q","111","553358","0.0-3.0-13.0-0.3-0.3","spark_pilot_norest","8558","2","9","Female","","","","","","","3063","<p> <b> True or False? </b> </p><p> The same animal will always be there if you go up in the same place. </p>","0","comp_question","","","","true","","","","","","","",""
"comp-q","112","569107","0.0-3.0-13.0-0.3-1.3","spark_pilot_norest","8558","2","9","Female","","","","","","","9303.29999999702","<p> <b> That's right! </b> One animal lives in the upper part and one lives in the lower part of every place. </p>","0","comp_answer","","","","","","","","","","","",""
"comp-q","113","575856","0.0-3.0-13.0-0.4-0.4","spark_pilot_norest","8558","2","9","Female","","","","","","","1226.7999999970198","<p> <b> True or False? </b> </p><p> If you see a different picture, it means you are in a new place. </p>","1","comp_question","","","","true","","","","","","","",""
"comp-q","114","597845","0.0-3.0-13.0-0.4-1.4","spark_pilot_norest","8558","2","9","Female","","","","","","","10762.89999999851","<p> <b> That's right! </b> Lots of different images may show the same place. For example,  you may see three different images that all remind you that you are in outer space. </p>","0","comp_answer","","","","","","","","","","","",""
"learning-instructions","115","610484","0.0-3.0-14.0-0.0","spark_pilot_norest","8558","2","9","Female","","","","","","","2789.5","<p> Good job. Remember to do your best because the amount of treasure you earn will be converted into bonus money. </p>
            <p> It’s time to start the real game! </p>","","instructions","","","","","","","","","","","",""
"learning-instructions","116","615146","0.0-4.0-0.0-0.0","spark_pilot_norest","8558","2","9","Female","","","","","","","1952.6000000014901","<p> This time you are searching for treasure in the <b>ocean</b>.</p>","","instructions","","","","","","","","","","","",""
"learning-instructions","117","634845","0.0-4.0-0.0-0.1","spark_pilot_norest","8558","2","9","Female","","","","","","","2404.10000000149","<p><b>New</b> animals with <b>new</b> treasure chests live here. You need to explore to discover where the animal with the best treasure chest is.</p>
                    <p> Like before, once you figure out which animal has the chest with the most treasure, you should try to get to that animal and select that chest! </p>","","instructions","","","","","","","","","","","",""
"learning-instructions","118","651023","0.0-4.0-1.0-0.0","spark_pilot_norest","8558","2","9","Female","","","","","","","1447.5","<p> Remember, when you see a picture of the place, use the up and down keys to <b>find an animal</b>.</p>
            <p> When you encounter an animal, you should use the left and right keys to <b>select a treasure chest</b>.</p>
            <p> Don't forget to look out for the robber! </p>","","instructions","","","","","","","","","","","",""
"revaluation","119","655042","0.0-4.0-2.0-0.0","spark_pilot_norest","8558","2","9","Female","","false","","","","","[1629]","./assets/img/ocean/catch/7.jpg","[""spaceBar""]","value training","ocean","0","{""ArrowUp,ArrowLeft"":23,""ArrowUp,ArrowRight"":10,""ArrowDown,ArrowLeft"":8,""ArrowDown,ArrowRight"":30}","true","spaceBar","true","revaluation","1","0","","",""
"html-keyboard-response","120","655554","0.0-4.0-2.0-1.0","spark_pilot_norest","8558","2","9","Female","","","","","","","null","<div style=""font-size:60px;"">+</div>","null","fixation","","","","","","","","","1","","",""
"revaluation","121","661586","0.0-4.0-2.0-0.1","spark_pilot_norest","8558","2","9","Female","","false","","","","","[1202.7999999970198,805.7999999970198]","./assets/img/ocean/memory/5.jpg","[""ArrowDown"",""ArrowRight""]","value training","ocean","30","{""ArrowUp,ArrowLeft"":23,""ArrowUp,ArrowRight"":10,""ArrowDown,ArrowLeft"":8,""ArrowDown,ArrowRight"":30}","true","ArrowDown,ArrowRight","false","revaluation","1","2","","",""
"html-keyboard-response","122","662097","0.0-4.0-2.0-1.1","spark_pilot_norest","8558","2","9","Female","","","","","","","null","<div style=""font-size:60px;"">+</div>","null","fixation","","","","","","","","","3","","",""
"revaluation","123","666113","0.0-4.0-2.0-0.2","spark_pilot_norest","8558","2","9","Female","","false","","","","","[642.6000000014901]","./assets/img/ocean/catch/4.jpg","[""ArrowUp""]","value training","ocean","-10","{""ArrowUp,ArrowLeft"":23,""ArrowUp,ArrowRight"":10,""ArrowDown,ArrowLeft"":8,""ArrowDown,ArrowRight"":30}","false","ArrowUp","true","revaluation","1","4","","",""
"html-keyboard-response","124","666624","0.0-4.0-2.0-1.2","spark_pilot_norest","8558","2","9","Female","","","","","","","null","<div style=""font-size:60px;"">+</div>","null","fixation","","","","","","","","","5","","",""
"revaluation","125","670638","0.0-4.0-2.0-0.3","spark_pilot_norest","8558","2","9","Female","","false","","","","","[996.1000000014901]","./assets/img/ocean/catch/3.jpg","[""spaceBar""]","value training","ocean","0","{""ArrowUp,ArrowLeft"":23,""ArrowUp,ArrowRight"":10,""ArrowDown,ArrowLeft"":8,""ArrowDown,ArrowRight"":30}","true","spaceBar","true","revaluation","1","6","","",""
"html-keyboard-response","126","671143","0.0-4.0-2.0-1.3","spark_pilot_norest","8558","2","9","Female","","","","","","","null","<div style=""font-size:60px;"">+</div>","null","fixation","","","","","","","","","7","","",""
"revaluation","127","677166","0.0-4.0-2.0-0.4","spark_pilot_norest","8558","2","9","Female","","false","","","","","[1084.1000000014901,790.8000000044703]","./assets/img/ocean/memory/26.jpg","[""ArrowDown"",""ArrowLeft""]","value training","ocean","8","{""ArrowUp,ArrowLeft"":23,""ArrowUp,ArrowRight"":10,""ArrowDown,ArrowLeft"":8,""ArrowDown,ArrowRight"":30}","false","ArrowDown,ArrowLeft","false","revaluation","1","8","","",""
"html-keyboard-response","128","677669","0.0-4.0-2.0-1.4","spark_pilot_norest","8558","2","9","Female","","","","","","","null","<div style=""font-size:60px;"">+</div>","null","fixation","","","","","","","","","9","","",""
"revaluation","129","683693","0.0-4.0-2.0-0.5","spark_pilot_norest","8558","2","9","Female","","false","","","","","[921.6000000014901,713.3000000044703]","./assets/img/ocean/memory/11.jpg","[""ArrowUp"",""ArrowRight""]","value training","ocean","10","{""ArrowUp,ArrowLeft"":23,""ArrowUp,ArrowRight"":10,""ArrowDown,ArrowLeft"":8,""ArrowDown,ArrowRight"":30}","false","ArrowUp,ArrowRight","false","revaluation","1","10","","",""
"html-keyboard-response","130","684199","0.0-4.0-2.0-1.5","spark_pilot_norest","8558","2","9","Female","","","","","","","null","<div style=""font-size:60px;"">+</div>","null","fixation","","","","","","","","","11","","",""
"revaluation","131","690221","0.0-4.0-2.0-0.6","spark_pilot_norest","8558","2","9","Female","","false","","","","","[1124.3000000044703,505]","./assets/img/ocean/memory/31.jpg","[""ArrowUp"",""ArrowLeft""]","value training","ocean","23","{""ArrowUp,ArrowLeft"":23,""ArrowUp,ArrowRight"":10,""ArrowDown,ArrowLeft"":8,""ArrowDown,ArrowRight"":30}","false","ArrowUp,ArrowLeft","false","revaluation","1","12","","",""
"html-keyboard-response","132","690727","0.0-4.0-2.0-1.6","spark_pilot_norest","8558","2","9","Female","","","","","","","null","<div style=""font-size:60px;"">+</div>","null","fixation","","","","","","","","","13","","",""
"revaluation","133","694743","0.0-4.0-2.0-0.7","spark_pilot_norest","8558","2","9","Female","","false","","","","","[858.8000000044703]","./assets/img/ocean/catch/0.jpg","[""spaceBar""]","value training","ocean","0","{""ArrowUp,ArrowLeft"":23,""ArrowUp,ArrowRight"":10,""ArrowDown,ArrowLeft"":8,""ArrowDown,ArrowRight"":30}","true","spaceBar","true","revaluation","1","14","","",""
"html-keyboard-response","134","695254","0.0-4.0-2.0-1.7","spark_pilot_norest","8558","2","9","Female","","","","","","","null","<div style=""font-size:60px;"">+</div>","null","fixation","","","","","","","","","15","","",""
"revaluation","135","701277","0.0-4.0-2.0-0.8","spark_pilot_norest","8558","2","9","Female","","false","","","","","[844.3999999985099,496.3999999985099]","./assets/img/ocean/memory/31.jpg","[""ArrowDown"",""ArrowRight""]","value training","ocean","30","{""ArrowUp,ArrowLeft"":23,""ArrowUp,ArrowRight"":10,""ArrowDown,ArrowLeft"":8,""ArrowDown,ArrowRight"":30}","true","ArrowDown,ArrowRight","false","revaluation","1","16","","",""
"html-keyboard-response","136","701783","0.0-4.0-2.0-1.8","spark_pilot_norest","8558","2","9","Female","","","","","","","null","<div style=""font-size:60px;"">+</div>","null","fixation","","","","","","","","","17","","",""
"revaluation","137","707804","0.0-4.0-2.0-0.9","spark_pilot_norest","8558","2","9","Female","","false","","","","","[914.8999999985099,648.5]","./assets/img/ocean/memory/7.jpg","[""ArrowDown"",""ArrowRight""]","value training","ocean","30","{""ArrowUp,ArrowLeft"":23,""ArrowUp,ArrowRight"":10,""ArrowDown,ArrowLeft"":8,""ArrowDown,ArrowRight"":30}","true","ArrowDown,ArrowRight","false","revaluation","1","18","","",""
"html-keyboard-response","138","708311","0.0-4.0-2.0-1.9","spark_pilot_norest","8558","2","9","Female","","","","","","","null","<div style=""font-size:60px;"">+</div>","null","fixation","","","","","","","","","19","","",""
"revaluation","139","714332","0.0-4.0-2.0-0.10","spark_pilot_norest","8558","2","9","Female","","false","","","","","[690.7000000029802,662.3999999985099]","./assets/img/ocean/memory/14.jpg","[""ArrowDown"",""ArrowRight""]","value training","ocean","30","{""ArrowUp,ArrowLeft"":23,""ArrowUp,ArrowRight"":10,""ArrowDown,ArrowLeft"":8,""ArrowDown,ArrowRight"":30}","true","ArrowDown,ArrowRight","false","revaluation","1","20","","",""
"html-keyboard-response","140","714839","0.0-4.0-2.0-1.10","spark_pilot_norest","8558","2","9","Female","","","","","","","null","<div style=""font-size:60px;"">+</div>","null","fixation","","","","","","","","","21","","",""
"revaluation","141","718855","0.0-4.0-2.0-0.11","spark_pilot_norest","8558","2","9","Female","","true","","","","","[]","./assets/img/ocean/memory/1.jpg","[]","value training","ocean","-5","{""ArrowUp,ArrowLeft"":23,""ArrowUp,ArrowRight"":10,""ArrowDown,ArrowLeft"":8,""ArrowDown,ArrowRight"":30}","false","","false","revaluation","1","22","","",""
"html-keyboard-response","142","719367","0.0-4.0-2.0-1.11","spark_pilot_norest","8558","2","9","Female","","","","","","","null","<div style=""font-size:60px;"">+</div>","null","fixation","","","","","","","","","23","","",""
"revaluation","143","725388","0.0-4.0-2.0-0.12","spark_pilot_norest","8558","2","9","Female","","false","","","","","[913.0999999940395,567.2000000029802]","./assets/img/ocean/memory/34.jpg","[""ArrowDown"",""ArrowRight""]","value training","ocean","30","{""ArrowUp,ArrowLeft"":23,""ArrowUp,ArrowRight"":10,""ArrowDown,ArrowLeft"":8,""ArrowDown,ArrowRight"":30}","true","ArrowDown,ArrowRight","false","revaluation","1","24","","",""
"html-keyboard-response","144","725894","0.0-4.0-2.0-1.12","spark_pilot_norest","8558","2","9","Female","","","","","","","null","<div style=""font-size:60px;"">+</div>","null","fixation","","","","","","","","","25","","",""
"revaluation","145","731916","0.0-4.0-2.0-0.13","spark_pilot_norest","8558","2","9","Female","","false","","","","","[881.2000000029802,422.20000000298023]","./assets/img/ocean/memory/37.jpg","[""ArrowDown"",""ArrowRight""]","value training","ocean","30","{""ArrowUp,ArrowLeft"":23,""ArrowUp,ArrowRight"":10,""ArrowDown,ArrowLeft"":8,""ArrowDown,ArrowRight"":30}","true","ArrowDown,ArrowRight","false","revaluation","1","26","","",""
"html-keyboard-response","146","732422","0.0-4.0-2.0-1.13","spark_pilot_norest","8558","2","9","Female","","","","","","","null","<div style=""font-size:60px;"">+</div>","null","fixation","","","","","","","","","27","","",""
"revaluation","147","738444","0.0-4.0-2.0-0.14","spark_pilot_norest","8558","2","9","Female","","false","","","","","[834,558.7000000029802]","./assets/img/ocean/memory/4.jpg","[""ArrowDown"",""ArrowRight""]","value training","ocean","30","{""ArrowUp,ArrowLeft"":23,""ArrowUp,ArrowRight"":10,""ArrowDown,ArrowLeft"":8,""ArrowDown,ArrowRight"":30}","true","ArrowDown,ArrowRight","false","revaluation","1","28","","",""
"html-keyboard-response","148","738950","0.0-4.0-2.0-1.14","spark_pilot_norest","8558","2","9","Female","","","","","","","null","<div style=""font-size:60px;"">+</div>","null","fixation","","","","","","","","","29","","",""
"revaluation","149","742966","0.0-4.0-2.0-0.15","spark_pilot_norest","8558","2","9","Female","","false","","","","","[833.2000000029802]","./assets/img/ocean/catch/6.jpg","[""spaceBar""]","value training","ocean","0","{""ArrowUp,ArrowLeft"":23,""ArrowUp,ArrowRight"":10,""ArrowDown,ArrowLeft"":8,""ArrowDown,ArrowRight"":30}","true","spaceBar","true","revaluation","1","30","","",""
"html-keyboard-response","150","743478","0.0-4.0-2.0-1.15","spark_pilot_norest","8558","2","9","Female","","","","","","","null","<div style=""font-size:60px;"">+</div>","null","fixation","","","","","","","","","31","","",""
"revaluation","151","749500","0.0-4.0-2.0-0.16","spark_pilot_norest","8558","2","9","Female","","false","","","","","[1376.8999999985099,680.7999999970198]","./assets/img/ocean/memory/20.jpg","[""ArrowDown"",""ArrowRight""]","value training","ocean","30","{""ArrowUp,ArrowLeft"":23,""ArrowUp,ArrowRight"":10,""ArrowDown,ArrowLeft"":8,""ArrowDown,ArrowRight"":30}","true","ArrowDown,ArrowRight","false","revaluation","1","32","","",""
"html-keyboard-response","152","750006","0.0-4.0-2.0-1.16","spark_pilot_norest","8558","2","9","Female","","","","","","","null","<div style=""font-size:60px;"">+</div>","null","fixation","","","","","","","","","33","","",""
"revaluation","153","756028","0.0-4.0-2.0-0.17","spark_pilot_norest","8558","2","9","Female","","false","","","","","[848.8000000044703,672.2999999970198]","./assets/img/ocean/memory/36.jpg","[""ArrowDown"",""ArrowRight""]","value training","ocean","30","{""ArrowUp,ArrowLeft"":23,""ArrowUp,ArrowRight"":10,""ArrowDown,ArrowLeft"":8,""ArrowDown,ArrowRight"":30}","true","ArrowDown,ArrowRight","false","revaluation","1","34","","",""
"html-keyboard-response","154","756534","0.0-4.0-2.0-1.17","spark_pilot_norest","8558","2","9","Female","","","","","","","null","<div style=""font-size:60px;"">+</div>","null","fixation","","","","","","","","","35","","",""
"revaluation","155","762556","0.0-4.0-2.0-0.18","spark_pilot_norest","8558","2","9","Female","","false","","","","","[1033,693.2000000029802]","./assets/img/ocean/memory/35.jpg","[""ArrowDown"",""ArrowRight""]","value training","ocean","30","{""ArrowUp,ArrowLeft"":23,""ArrowUp,ArrowRight"":10,""ArrowDown,ArrowLeft"":8,""ArrowDown,ArrowRight"":30}","true","ArrowDown,ArrowRight","false","revaluation","1","36","","",""
"html-keyboard-response","156","763062","0.0-4.0-2.0-1.18","spark_pilot_norest","8558","2","9","Female","","","","","","","null","<div style=""font-size:60px;"">+</div>","null","fixation","","","","","","","","","37","","",""
"revaluation","157","769083","0.0-4.0-2.0-0.19","spark_pilot_norest","8558","2","9","Female","","false","","","","","[1008.3000000044703,69.39999999850988]","./assets/img/ocean/memory/30.jpg","[""ArrowDown"",""ArrowRight""]","value training","ocean","30","{""ArrowUp,ArrowLeft"":23,""ArrowUp,ArrowRight"":10,""ArrowDown,ArrowLeft"":8,""ArrowDown,ArrowRight"":30}","true","ArrowDown,ArrowRight","false","revaluation","1","38","","",""
"html-keyboard-response","158","769591","0.0-4.0-2.0-1.19","spark_pilot_norest","8558","2","9","Female","","","","","","","null","<div style=""font-size:60px;"">+</div>","null","fixation","","","","","","","","","39","","",""
"revaluation","159","775616","0.0-4.0-2.0-0.20","spark_pilot_norest","8558","2","9","Female","","false","","","","","[647.1000000014901,508.40000000596046]","./assets/img/ocean/memory/22.jpg","[""ArrowDown"",""ArrowRight""]","value training","ocean","30","{""ArrowUp,ArrowLeft"":23,""ArrowUp,ArrowRight"":10,""ArrowDown,ArrowLeft"":8,""ArrowDown,ArrowRight"":30}","true","ArrowDown,ArrowRight","false","revaluation","1","40","","",""
"html-keyboard-response","160","776123","0.0-4.0-2.0-1.20","spark_pilot_norest","8558","2","9","Female","","","","","","","null","<div style=""font-size:60px;"">+</div>","null","fixation","","","","","","","","","41","","",""
"revaluation","161","782150","0.0-4.0-2.0-0.21","spark_pilot_norest","8558","2","9","Female","","false","","","","","[690.1999999955297,642.1999999955297]","./assets/img/ocean/memory/34.jpg","[""ArrowDown"",""ArrowRight""]","value training","ocean","30","{""ArrowUp,ArrowLeft"":23,""ArrowUp,ArrowRight"":10,""ArrowDown,ArrowLeft"":8,""ArrowDown,ArrowRight"":30}","true","ArrowDown,ArrowRight","false","revaluation","1","42","","",""
"html-keyboard-response","162","782662","0.0-4.0-2.0-1.21","spark_pilot_norest","8558","2","9","Female","","","","","","","null","<div style=""font-size:60px;"">+</div>","null","fixation","","","","","","","","","43","","",""
"revaluation","163","788683","0.0-4.0-2.0-0.22","spark_pilot_norest","8558","2","9","Female","","false","","","","","[559.6000000014901,428.20000000298023]","./assets/img/ocean/memory/5.jpg","[""ArrowDown"",""ArrowRight""]","value training","ocean","30","{""ArrowUp,ArrowLeft"":23,""ArrowUp,ArrowRight"":10,""ArrowDown,ArrowLeft"":8,""ArrowDown,ArrowRight"":30}","true","ArrowDown,ArrowRight","false","revaluation","1","44","","",""
"html-keyboard-response","164","789189","0.0-4.0-2.0-1.22","spark_pilot_norest","8558","2","9","Female","","","","","","","null","<div style=""font-size:60px;"">+</div>","null","fixation","","","","","","","","","45","","",""
"revaluation","165","795211","0.0-4.0-2.0-0.23","spark_pilot_norest","8558","2","9","Female","","false","","","","","[719.5,755.5]","./assets/img/ocean/memory/36.jpg","[""ArrowDown"",""ArrowRight""]","value training","ocean","30","{""ArrowUp,ArrowLeft"":23,""ArrowUp,ArrowRight"":10,""ArrowDown,ArrowLeft"":8,""ArrowDown,ArrowRight"":30}","true","ArrowDown,ArrowRight","false","revaluation","1","46","","",""
"html-keyboard-response","166","795717","0.0-4.0-2.0-1.23","spark_pilot_norest","8558","2","9","Female","","","","","","","null","<div style=""font-size:60px;"">+</div>","null","fixation","","","","","","","","","47","","",""
"revaluation","167","801739","0.0-4.0-2.0-0.24","spark_pilot_norest","8558","2","9","Female","","false","","","","","[927,452]","./assets/img/ocean/memory/0.jpg","[""ArrowDown"",""ArrowRight""]","value training","ocean","30","{""ArrowUp,ArrowLeft"":23,""ArrowUp,ArrowRight"":10,""ArrowDown,ArrowLeft"":8,""ArrowDown,ArrowRight"":30}","true","ArrowDown,ArrowRight","false","revaluation","1","48","","",""
"html-keyboard-response","168","802245","0.0-4.0-2.0-1.24","spark_pilot_norest","8558","2","9","Female","","","","","","","null","<div style=""font-size:60px;"">+</div>","null","fixation","","","","","","","","","49","","",""
"revaluation","169","808267","0.0-4.0-2.0-0.25","spark_pilot_norest","8558","2","9","Female","","false","","","","","[390,1171.7000000029802]","./assets/img/ocean/memory/1.jpg","[""ArrowDown"",""ArrowRight""]","value training","ocean","30","{""ArrowUp,ArrowLeft"":23,""ArrowUp,ArrowRight"":10,""ArrowDown,ArrowLeft"":8,""ArrowDown,ArrowRight"":30}","true","ArrowDown,ArrowRight","false","revaluation","1","50","","",""
"html-keyboard-response","170","808773","0.0-4.0-2.0-1.25","spark_pilot_norest","8558","2","9","Female","","","","","","","null","<div style=""font-size:60px;"">+</div>","null","fixation","","","","","","","","","51","","",""
"revaluation","171","814795","0.0-4.0-2.0-0.26","spark_pilot_norest","8558","2","9","Female","","false","","","","","[830.3000000044703,522.8000000044703]","./assets/img/ocean/memory/16.jpg","[""ArrowDown"",""ArrowRight""]","value training","ocean","30","{""ArrowUp,ArrowLeft"":23,""ArrowUp,ArrowRight"":10,""ArrowDown,ArrowLeft"":8,""ArrowDown,ArrowRight"":30}","true","ArrowDown,ArrowRight","false","revaluation","1","52","","",""
"html-keyboard-response","172","815301","0.0-4.0-2.0-1.26","spark_pilot_norest","8558","2","9","Female","","","","","","","null","<div style=""font-size:60px;"">+</div>","null","fixation","","","","","","","","","53","","",""
"revaluation","173","819317","0.0-4.0-2.0-0.27","spark_pilot_norest","8558","2","9","Female","","false","","","","","[949.2999999970198]","./assets/img/ocean/catch/2.jpg","[""spaceBar""]","value training","ocean","0","{""ArrowUp,ArrowLeft"":23,""ArrowUp,ArrowRight"":10,""ArrowDown,ArrowLeft"":8,""ArrowDown,ArrowRight"":30}","true","spaceBar","true","revaluation","1","54","","",""
"html-keyboard-response","174","819829","0.0-4.0-2.0-1.27","spark_pilot_norest","8558","2","9","Female","","","","","","","null","<div style=""font-size:60px;"">+</div>","null","fixation","","","","","","","","","55","","",""
"revaluation","175","825850","0.0-4.0-2.0-0.28","spark_pilot_norest","8558","2","9","Female","","false","","","","","[829.8999999985099,681.9000000059605]","./assets/img/ocean/memory/16.jpg","[""ArrowDown"",""ArrowRight""]","value training","ocean","30","{""ArrowUp,ArrowLeft"":23,""ArrowUp,ArrowRight"":10,""ArrowDown,ArrowLeft"":8,""ArrowDown,ArrowRight"":30}","true","ArrowDown,ArrowRight","false","revaluation","1","56","","",""
"html-keyboard-response","176","826357","0.0-4.0-2.0-1.28","spark_pilot_norest","8558","2","9","Female","","","","","","","null","<div style=""font-size:60px;"">+</div>","null","fixation","","","","","","","","","57","","",""
"revaluation","177","832378","0.0-4.0-2.0-0.29","spark_pilot_norest","8558","2","9","Female","","false","","","","","[1213.2000000029802,618]","./assets/img/ocean/memory/35.jpg","[""ArrowDown"",""ArrowRight""]","value training","ocean","30","{""ArrowUp,ArrowLeft"":23,""ArrowUp,ArrowRight"":10,""ArrowDown,ArrowLeft"":8,""ArrowDown,ArrowRight"":30}","true","ArrowDown,ArrowRight","false","revaluation","1","58","","",""
"html-keyboard-response","178","832885","0.0-4.0-2.0-1.29","spark_pilot_norest","8558","2","9","Female","","","","","","","null","<div style=""font-size:60px;"">+</div>","null","fixation","","","","","","","","","59","","",""
"revaluation","179","838906","0.0-4.0-2.0-0.30","spark_pilot_norest","8558","2","9","Female","","false","","","","","[804.6000000014901,554.5]","./assets/img/ocean/memory/33.jpg","[""ArrowDown"",""ArrowRight""]","value training","ocean","30","{""ArrowUp,ArrowLeft"":23,""ArrowUp,ArrowRight"":10,""ArrowDown,ArrowLeft"":8,""ArrowDown,ArrowRight"":30}","true","ArrowDown,ArrowRight","false","revaluation","1","60","","",""
"html-keyboard-response","180","839413","0.0-4.0-2.0-1.30","spark_pilot_norest","8558","2","9","Female","","","","","","","null","<div style=""font-size:60px;"">+</div>","null","fixation","","","","","","","","","61","","",""
"revaluation","181","845434","0.0-4.0-2.0-0.31","spark_pilot_norest","8558","2","9","Female","","false","","","","","[924.8000000044703,513.8000000044703]","./assets/img/ocean/memory/27.jpg","[""ArrowDown"",""ArrowRight""]","value training","ocean","30","{""ArrowUp,ArrowLeft"":23,""ArrowUp,ArrowRight"":10,""ArrowDown,ArrowLeft"":8,""ArrowDown,ArrowRight"":30}","true","ArrowDown,ArrowRight","false","revaluation","1","62","","",""
"html-keyboard-response","182","845940","0.0-4.0-2.0-1.31","spark_pilot_norest","8558","2","9","Female","","","","","","","null","<div style=""font-size:60px;"">+</div>","null","fixation","","","","","","","","","63","","",""
"revaluation","183","851962","0.0-4.0-2.0-0.32","spark_pilot_norest","8558","2","9","Female","","false","","","","","[764.8999999985099,473.70000000298023]","./assets/img/ocean/memory/14.jpg","[""ArrowDown"",""ArrowRight""]","value training","ocean","30","{""ArrowUp,ArrowLeft"":23,""ArrowUp,ArrowRight"":10,""ArrowDown,ArrowLeft"":8,""ArrowDown,ArrowRight"":30}","true","ArrowDown,ArrowRight","false","revaluation","1","64","","",""
"html-keyboard-response","184","852468","0.0-4.0-2.0-1.32","spark_pilot_norest","8558","2","9","Female","","","","","","","null","<div style=""font-size:60px;"">+</div>","null","fixation","","","","","","","","","65","","",""
"revaluation","185","858490","0.0-4.0-2.0-0.33","spark_pilot_norest","8558","2","9","Female","","false","","","","","[884.2000000029802,969.6000000014901]","./assets/img/ocean/memory/27.jpg","[""ArrowDown"",""ArrowRight""]","value training","ocean","30","{""ArrowUp,ArrowLeft"":23,""ArrowUp,ArrowRight"":10,""ArrowDown,ArrowLeft"":8,""ArrowDown,ArrowRight"":30}","true","ArrowDown,ArrowRight","false","revaluation","1","66","","",""
"html-keyboard-response","186","858996","0.0-4.0-2.0-1.33","spark_pilot_norest","8558","2","9","Female","","","","","","","null","<div style=""font-size:60px;"">+</div>","null","fixation","","","","","","","","","67","","",""
"revaluation","187","865018","0.0-4.0-2.0-0.34","spark_pilot_norest","8558","2","9","Female","","false","","","","","[797.1000000014901,1168.1000000014901]","./assets/img/ocean/memory/33.jpg","[""ArrowDown"",""ArrowRight""]","value training","ocean","30","{""ArrowUp,ArrowLeft"":23,""ArrowUp,ArrowRight"":10,""ArrowDown,ArrowLeft"":8,""ArrowDown,ArrowRight"":30}","true","ArrowDown,ArrowRight","false","revaluation","1","68","","",""
"html-keyboard-response","188","865523","0.0-4.0-2.0-1.34","spark_pilot_norest","8558","2","9","Female","","","","","","","null","<div style=""font-size:60px;"">+</div>","null","fixation","","","","","","","","","69","","",""
"revaluation","189","871546","0.0-4.0-2.0-0.35","spark_pilot_norest","8558","2","9","Female","","false","","","","","[652.5,504.3999999985099]","./assets/img/ocean/memory/11.jpg","[""ArrowDown"",""ArrowRight""]","value training","ocean","30","{""ArrowUp,ArrowLeft"":23,""ArrowUp,ArrowRight"":10,""ArrowDown,ArrowLeft"":8,""ArrowDown,ArrowRight"":30}","true","ArrowDown,ArrowRight","false","revaluation","1","70","","",""
"html-keyboard-response","190","872052","0.0-4.0-2.0-1.35","spark_pilot_norest","8558","2","9","Female","","","","","","","null","<div style=""font-size:60px;"">+</div>","null","fixation","","","","","","","","","71","","",""
"revaluation","191","878074","0.0-4.0-2.0-0.36","spark_pilot_norest","8558","2","9","Female","","false","","","","","[731.8999999985099,647.7999999970198]","./assets/img/ocean/memory/26.jpg","[""ArrowDown"",""ArrowRight""]","value training","ocean","30","{""ArrowUp,ArrowLeft"":23,""ArrowUp,ArrowRight"":10,""ArrowDown,ArrowLeft"":8,""ArrowDown,ArrowRight"":30}","true","ArrowDown,ArrowRight","false","revaluation","1","72","","",""
"html-keyboard-response","192","878580","0.0-4.0-2.0-1.36","spark_pilot_norest","8558","2","9","Female","","","","","","","null","<div style=""font-size:60px;"">+</div>","null","fixation","","","","","","","","","73","","",""
"revaluation","193","884601","0.0-4.0-2.0-0.37","spark_pilot_norest","8558","2","9","Female","","false","","","","","[771.2000000029802,983.2000000029802]","./assets/img/ocean/memory/21.jpg","[""ArrowDown"",""ArrowRight""]","value training","ocean","30","{""ArrowUp,ArrowLeft"":23,""ArrowUp,ArrowRight"":10,""ArrowDown,ArrowLeft"":8,""ArrowDown,ArrowRight"":30}","true","ArrowDown,ArrowRight","false","revaluation","1","74","","",""
"html-keyboard-response","194","885108","0.0-4.0-2.0-1.37","spark_pilot_norest","8558","2","9","Female","","","","","","","null","<div style=""font-size:60px;"">+</div>","null","fixation","","","","","","","","","75","","",""
"revaluation","195","891129","0.0-4.0-2.0-0.38","spark_pilot_norest","8558","2","9","Female","","false","","","","","[1187.3000000044703,1080]","./assets/img/ocean/memory/20.jpg","[""ArrowDown"",""ArrowRight""]","value training","ocean","30","{""ArrowUp,ArrowLeft"":23,""ArrowUp,ArrowRight"":10,""ArrowDown,ArrowLeft"":8,""ArrowDown,ArrowRight"":30}","true","ArrowDown,ArrowRight","false","revaluation","1","76","","",""
"html-keyboard-response","196","891636","0.0-4.0-2.0-1.38","spark_pilot_norest","8558","2","9","Female","","","","","","","null","<div style=""font-size:60px;"">+</div>","null","fixation","","","","","","","","","77","","",""
"revaluation","197","897657","0.0-4.0-2.0-0.39","spark_pilot_norest","8558","2","9","Female","","false","","","","","[1450.2000000029802,655]","./assets/img/ocean/memory/37.jpg","[""ArrowDown"",""ArrowRight""]","value training","ocean","30","{""ArrowUp,ArrowLeft"":23,""ArrowUp,ArrowRight"":10,""ArrowDown,ArrowLeft"":8,""ArrowDown,ArrowRight"":30}","true","ArrowDown,ArrowRight","false","revaluation","1","78","","",""
"html-keyboard-response","198","898164","0.0-4.0-2.0-1.39","spark_pilot_norest","8558","2","9","Female","","","","","","","null","<div style=""font-size:60px;"">+</div>","null","fixation","","","","","","","","","79","","",""
"revaluation","199","904185","0.0-4.0-2.0-0.40","spark_pilot_norest","8558","2","9","Female","","false","","","","","[626,487.5]","./assets/img/ocean/memory/30.jpg","[""ArrowDown"",""ArrowRight""]","value training","ocean","30","{""ArrowUp,ArrowLeft"":23,""ArrowUp,ArrowRight"":10,""ArrowDown,ArrowLeft"":8,""ArrowDown,ArrowRight"":30}","true","ArrowDown,ArrowRight","false","revaluation","1","80","","",""
"html-keyboard-response","200","904691","0.0-4.0-2.0-1.40","spark_pilot_norest","8558","2","9","Female","","","","","","","null","<div style=""font-size:60px;"">+</div>","null","fixation","","","","","","","","","81","","",""
"revaluation","201","910713","0.0-4.0-2.0-0.41","spark_pilot_norest","8558","2","9","Female","","false","","","","","[520.8999999985099,606.7000000029802]","./assets/img/ocean/memory/7.jpg","[""ArrowDown"",""ArrowRight""]","value training","ocean","30","{""ArrowUp,ArrowLeft"":23,""ArrowUp,ArrowRight"":10,""ArrowDown,ArrowLeft"":8,""ArrowDown,ArrowRight"":30}","true","ArrowDown,ArrowRight","false","revaluation","1","82","","",""
"html-keyboard-response","202","911219","0.0-4.0-2.0-1.41","spark_pilot_norest","8558","2","9","Female","","","","","","","null","<div style=""font-size:60px;"">+</div>","null","fixation","","","","","","","","","83","","",""
"revaluation","203","917241","0.0-4.0-2.0-0.42","spark_pilot_norest","8558","2","9","Female","","false","","","","","[881.6000000014901,1134.5]","./assets/img/ocean/memory/13.jpg","[""ArrowDown"",""ArrowRight""]","value training","ocean","30","{""ArrowUp,ArrowLeft"":23,""ArrowUp,ArrowRight"":10,""ArrowDown,ArrowLeft"":8,""ArrowDown,ArrowRight"":30}","true","ArrowDown,ArrowRight","false","revaluation","1","84","","",""
"html-keyboard-response","204","917747","0.0-4.0-2.0-1.42","spark_pilot_norest","8558","2","9","Female","","","","","","","null","<div style=""font-size:60px;"">+</div>","null","fixation","","","","","","","","","85","","",""
"revaluation","205","923769","0.0-4.0-2.0-0.43","spark_pilot_norest","8558","2","9","Female","","false","","","","","[1337.5,605.7000000029802]","./assets/img/ocean/memory/21.jpg","[""ArrowDown"",""ArrowRight""]","value training","ocean","30","{""ArrowUp,ArrowLeft"":23,""ArrowUp,ArrowRight"":10,""ArrowDown,ArrowLeft"":8,""ArrowDown,ArrowRight"":30}","true","ArrowDown,ArrowRight","false","revaluation","1","86","","",""
"html-keyboard-response","206","924275","0.0-4.0-2.0-1.43","spark_pilot_norest","8558","2","9","Female","","","","","","","null","<div style=""font-size:60px;"">+</div>","null","fixation","","","","","","","","","87","","",""
"revaluation","207","930297","0.0-4.0-2.0-0.44","spark_pilot_norest","8558","2","9","Female","","false","","","","","[1057.1000000014901,686.2000000029802]","./assets/img/ocean/memory/4.jpg","[""ArrowDown"",""ArrowRight""]","value training","ocean","30","{""ArrowUp,ArrowLeft"":23,""ArrowUp,ArrowRight"":10,""ArrowDown,ArrowLeft"":8,""ArrowDown,ArrowRight"":30}","true","ArrowDown,ArrowRight","false","revaluation","1","88","","",""
"html-keyboard-response","208","930803","0.0-4.0-2.0-1.44","spark_pilot_norest","8558","2","9","Female","","","","","","","null","<div style=""font-size:60px;"">+</div>","null","fixation","","","","","","","","","89","","",""
"revaluation","209","936825","0.0-4.0-2.0-0.45","spark_pilot_norest","8558","2","9","Female","","false","","","","","[1312.8000000044703,1326]","./assets/img/ocean/memory/13.jpg","[""ArrowDown"",""ArrowRight""]","value training","ocean","30","{""ArrowUp,ArrowLeft"":23,""ArrowUp,ArrowRight"":10,""ArrowDown,ArrowLeft"":8,""ArrowDown,ArrowRight"":30}","true","ArrowDown,ArrowRight","false","revaluation","1","90","","",""
"html-keyboard-response","210","937330","0.0-4.0-2.0-1.45","spark_pilot_norest","8558","2","9","Female","","","","","","","null","<div style=""font-size:60px;"">+</div>","null","fixation","","","","","","","","","91","","",""
"revaluation","211","943352","0.0-4.0-2.0-0.46","spark_pilot_norest","8558","2","9","Female","","false","","","","","[729.1000000014901,996.8999999985099]","./assets/img/ocean/memory/22.jpg","[""ArrowDown"",""ArrowRight""]","value training","ocean","30","{""ArrowUp,ArrowLeft"":23,""ArrowUp,ArrowRight"":10,""ArrowDown,ArrowLeft"":8,""ArrowDown,ArrowRight"":30}","true","ArrowDown,ArrowRight","false","revaluation","1","92","","",""
"html-keyboard-response","212","943859","0.0-4.0-2.0-1.46","spark_pilot_norest","8558","2","9","Female","","","","","","","null","<div style=""font-size:60px;"">+</div>","null","fixation","","","","","","","","","93","","",""
"revaluation","213","947875","0.0-4.0-2.0-0.47","spark_pilot_norest","8558","2","9","Female","","false","","","","","[844.8000000044703]","./assets/img/ocean/catch/5.jpg","[""ArrowDown""]","value training","ocean","-10","{""ArrowUp,ArrowLeft"":23,""ArrowUp,ArrowRight"":10,""ArrowDown,ArrowLeft"":8,""ArrowDown,ArrowRight"":30}","false","ArrowDown","true","revaluation","1","94","","",""
"html-keyboard-response","214","948387","0.0-4.0-2.0-1.47","spark_pilot_norest","8558","2","9","Female","","","","","","","null","<div style=""font-size:60px;"">+</div>","null","fixation","","","","","","","","","95","","",""
"revaluation","215","952403","0.0-4.0-2.0-0.48","spark_pilot_norest","8558","2","9","Female","","false","","","","","[750.5]","./assets/img/ocean/catch/1.jpg","[""spaceBar""]","value training","ocean","0","{""ArrowUp,ArrowLeft"":23,""ArrowUp,ArrowRight"":10,""ArrowDown,ArrowLeft"":8,""ArrowDown,ArrowRight"":30}","true","spaceBar","true","revaluation","1","96","","",""
"html-keyboard-response","216","952914","0.0-4.0-2.0-1.48","spark_pilot_norest","8558","2","9","Female","","","","","","","null","<div style=""font-size:60px;"">+</div>","null","fixation","","","","","","","","","97","","",""
"revaluation","217","958936","0.0-4.0-2.0-0.49","spark_pilot_norest","8558","2","9","Female","","false","","","","","[1160.3000000044703,684.5]","./assets/img/ocean/memory/0.jpg","[""ArrowDown"",""ArrowRight""]","value training","ocean","30","{""ArrowUp,ArrowLeft"":23,""ArrowUp,ArrowRight"":10,""ArrowDown,ArrowLeft"":8,""ArrowDown,ArrowRight"":30}","true","ArrowDown,ArrowRight","false","revaluation","1","98","","",""
"html-keyboard-response","218","959443","0.0-4.0-2.0-1.49","spark_pilot_norest","8558","2","9","Female","","","","","","","null","<div style=""font-size:60px;"">+</div>","null","fixation","","","","","","","","","99","","",""
"learning-instructions","219","974180","0.0-4.0-3.0-0.0","spark_pilot_norest","8558","2","9","Female","","","","","","","1804.7000000029802","<p> Now, you will travel with a friend who will choose whether you go up or down first. </p>
            <p> On these turns, you will just see the animal that they found. You will still get to choose which chest to search for treasure.</p>","","instructions","","","","","","","","","","","",""
"revaluation","220","978197","0.0-4.0-4.0-0.0","spark_pilot_norest","8558","2","9","Female","","false","","","","","[1182]","./assets/img/ocean/animals/seahorse.jpg","[""ArrowRight""]","revaluation","ocean","7","{""ArrowUp,ArrowLeft"":27,""ArrowUp,ArrowRight"":15,""ArrowDown,ArrowLeft"":21,""ArrowDown,ArrowRight"":7}","false","ArrowDown,ArrowRight","","revaluation","1","0","","",""
"html-keyboard-response","221","978708","0.0-4.0-4.0-1.0","spark_pilot_norest","8558","2","9","Female","","","","","","","null","<div style=""font-size:60px;"">+</div>","null","fixation","","","","","","","","","1","","",""
"revaluation","222","982733","0.0-4.0-4.0-0.1","spark_pilot_norest","8558","2","9","Female","","false","","","","","[515.6000000014901]","./assets/img/ocean/animals/seahorse.jpg","[""ArrowLeft""]","revaluation","ocean","21","{""ArrowUp,ArrowLeft"":27,""ArrowUp,ArrowRight"":15,""ArrowDown,ArrowLeft"":21,""ArrowDown,ArrowRight"":7}","true","ArrowDown,ArrowLeft","","revaluation","1","2","","",""
"html-keyboard-response","223","983244","0.0-4.0-4.0-1.1","spark_pilot_norest","8558","2","9","Female","","","","","","","null","<div style=""font-size:60px;"">+</div>","null","fixation","","","","","","","","","3","","",""
"revaluation","224","987259","0.0-4.0-4.0-0.2","spark_pilot_norest","8558","2","9","Female","","false","","","","","[492.29999999701977]","./assets/img/ocean/animals/seahorse.jpg","[""ArrowLeft""]","revaluation","ocean","21","{""ArrowUp,ArrowLeft"":27,""ArrowUp,ArrowRight"":15,""ArrowDown,ArrowLeft"":21,""ArrowDown,ArrowRight"":7}","true","ArrowDown,ArrowLeft","","revaluation","1","4","","",""
"html-keyboard-response","225","987772","0.0-4.0-4.0-1.2","spark_pilot_norest","8558","2","9","Female","","","","","","","null","<div style=""font-size:60px;"">+</div>","null","fixation","","","","","","","","","5","","",""
"revaluation","226","991784","0.0-4.0-4.0-0.3","spark_pilot_norest","8558","2","9","Female","","false","","","","","[844.3000000044703]","./assets/img/ocean/animals/seahorse.jpg","[""ArrowLeft""]","revaluation","ocean","21","{""ArrowUp,ArrowLeft"":27,""ArrowUp,ArrowRight"":15,""ArrowDown,ArrowLeft"":21,""ArrowDown,ArrowRight"":7}","true","ArrowDown,ArrowLeft","","revaluation","1","6","","",""
"html-keyboard-response","227","992289","0.0-4.0-4.0-1.3","spark_pilot_norest","8558","2","9","Female","","","","","","","null","<div style=""font-size:60px;"">+</div>","null","fixation","","","","","","","","","7","","",""
"revaluation","228","996308","0.0-4.0-4.0-0.4","spark_pilot_norest","8558","2","9","Female","","false","","","","","[1398.8999999985099]","./assets/img/ocean/animals/octopus.jpg","[""ArrowLeft""]","revaluation","ocean","27","{""ArrowUp,ArrowLeft"":27,""ArrowUp,ArrowRight"":15,""ArrowDown,ArrowLeft"":21,""ArrowDown,ArrowRight"":7}","true","ArrowUp,ArrowLeft","","revaluation","1","8","","",""
"html-keyboard-response","229","996820","0.0-4.0-4.0-1.4","spark_pilot_norest","8558","2","9","Female","","","","","","","null","<div style=""font-size:60px;"">+</div>","null","fixation","","","","","","","","","9","","",""
"revaluation","230","1000843","0.0-4.0-4.0-0.5","spark_pilot_norest","8558","2","9","Female","","false","","","","","[1019.0999999940395]","./assets/img/ocean/animals/seahorse.jpg","[""ArrowLeft""]","revaluation","ocean","21","{""ArrowUp,ArrowLeft"":27,""ArrowUp,ArrowRight"":15,""ArrowDown,ArrowLeft"":21,""ArrowDown,ArrowRight"":7}","true","ArrowDown,ArrowLeft","","revaluation","1","10","","",""
"html-keyboard-response","231","1001356","0.0-4.0-4.0-1.5","spark_pilot_norest","8558","2","9","Female","","","","","","","null","<div style=""font-size:60px;"">+</div>","null","fixation","","","","","","","","","11","","",""
"revaluation","232","1005378","0.0-4.0-4.0-0.6","spark_pilot_norest","8558","2","9","Female","","false","","","","","[451.79999999701977]","./assets/img/ocean/animals/octopus.jpg","[""ArrowRight""]","revaluation","ocean","15","{""ArrowUp,ArrowLeft"":27,""ArrowUp,ArrowRight"":15,""ArrowDown,ArrowLeft"":21,""ArrowDown,ArrowRight"":7}","false","ArrowUp,ArrowRight","","revaluation","1","12","","",""
"html-keyboard-response","233","1005883","0.0-4.0-4.0-1.6","spark_pilot_norest","8558","2","9","Female","","","","","","","null","<div style=""font-size:60px;"">+</div>","null","fixation","","","","","","","","","13","","",""
"revaluation","234","1009900","0.0-4.0-4.0-0.7","spark_pilot_norest","8558","2","9","Female","","false","","","","","[820.0999999940395]","./assets/img/ocean/animals/octopus.jpg","[""ArrowLeft""]","revaluation","ocean","27","{""ArrowUp,ArrowLeft"":27,""ArrowUp,ArrowRight"":15,""ArrowDown,ArrowLeft"":21,""ArrowDown,ArrowRight"":7}","true","ArrowUp,ArrowLeft","","revaluation","1","14","","",""
"html-keyboard-response","235","1010410","0.0-4.0-4.0-1.7","spark_pilot_norest","8558","2","9","Female","","","","","","","null","<div style=""font-size:60px;"">+</div>","null","fixation","","","","","","","","","15","","",""
"revaluation","236","1014428","0.0-4.0-4.0-0.8","spark_pilot_norest","8558","2","9","Female","","false","","","","","[635.3999999985099]","./assets/img/ocean/animals/seahorse.jpg","[""ArrowLeft""]","revaluation","ocean","21","{""ArrowUp,ArrowLeft"":27,""ArrowUp,ArrowRight"":15,""ArrowDown,ArrowLeft"":21,""ArrowDown,ArrowRight"":7}","true","ArrowDown,ArrowLeft","","revaluation","1","16","","",""
"html-keyboard-response","237","1014940","0.0-4.0-4.0-1.8","spark_pilot_norest","8558","2","9","Female","","","","","","","null","<div style=""font-size:60px;"">+</div>","null","fixation","","","","","","","","","17","","",""
"revaluation","238","1018961","0.0-4.0-4.0-0.9","spark_pilot_norest","8558","2","9","Female","","false","","","","","[499.20000000298023]","./assets/img/ocean/animals/octopus.jpg","[""ArrowLeft""]","revaluation","ocean","27","{""ArrowUp,ArrowLeft"":27,""ArrowUp,ArrowRight"":15,""ArrowDown,ArrowLeft"":21,""ArrowDown,ArrowRight"":7}","true","ArrowUp,ArrowLeft","","revaluation","1","18","","",""
"html-keyboard-response","239","1019467","0.0-4.0-4.0-1.9","spark_pilot_norest","8558","2","9","Female","","","","","","","null","<div style=""font-size:60px;"">+</div>","null","fixation","","","","","","","","","19","","",""
"revaluation","240","1023484","0.0-4.0-4.0-0.10","spark_pilot_norest","8558","2","9","Female","","false","","","","","[602.8000000044703]","./assets/img/ocean/animals/octopus.jpg","[""ArrowLeft""]","revaluation","ocean","27","{""ArrowUp,ArrowLeft"":27,""ArrowUp,ArrowRight"":15,""ArrowDown,ArrowLeft"":21,""ArrowDown,ArrowRight"":7}","true","ArrowUp,ArrowLeft","","revaluation","1","20","","",""
"html-keyboard-response","241","1023996","0.0-4.0-4.0-1.10","spark_pilot_norest","8558","2","9","Female","","","","","","","null","<div style=""font-size:60px;"">+</div>","null","fixation","","","","","","","","","21","","",""
"revaluation","242","1028017","0.0-4.0-4.0-0.11","spark_pilot_norest","8558","2","9","Female","","false","","","","","[434.3999999985099]","./assets/img/ocean/animals/seahorse.jpg","[""ArrowLeft""]","revaluation","ocean","21","{""ArrowUp,ArrowLeft"":27,""ArrowUp,ArrowRight"":15,""ArrowDown,ArrowLeft"":21,""ArrowDown,ArrowRight"":7}","true","ArrowDown,ArrowLeft","","revaluation","1","22","","",""
"html-keyboard-response","243","1028523","0.0-4.0-4.0-1.11","spark_pilot_norest","8558","2","9","Female","","","","","","","null","<div style=""font-size:60px;"">+</div>","null","fixation","","","","","","","","","23","","",""
"revaluation","244","1032545","0.0-4.0-4.0-0.12","spark_pilot_norest","8558","2","9","Female","","false","","","","","[578.7999999970198]","./assets/img/ocean/animals/octopus.jpg","[""ArrowLeft""]","revaluation","ocean","27","{""ArrowUp,ArrowLeft"":27,""ArrowUp,ArrowRight"":15,""ArrowDown,ArrowLeft"":21,""ArrowDown,ArrowRight"":7}","true","ArrowUp,ArrowLeft","","revaluation","1","24","","",""
"html-keyboard-response","245","1033051","0.0-4.0-4.0-1.12","spark_pilot_norest","8558","2","9","Female","","","","","","","null","<div style=""font-size:60px;"">+</div>","null","fixation","","","","","","","","","25","","",""
"revaluation","246","1037068","0.0-4.0-4.0-0.13","spark_pilot_norest","8558","2","9","Female","","false","","","","","[578.2000000029802]","./assets/img/ocean/animals/octopus.jpg","[""ArrowLeft""]","revaluation","ocean","27","{""ArrowUp,ArrowLeft"":27,""ArrowUp,ArrowRight"":15,""ArrowDown,ArrowLeft"":21,""ArrowDown,ArrowRight"":7}","true","ArrowUp,ArrowLeft","","revaluation","1","26","","",""
"html-keyboard-response","247","1037579","0.0-4.0-4.0-1.13","spark_pilot_norest","8558","2","9","Female","","","","","","","null","<div style=""font-size:60px;"">+</div>","null","fixation","","","","","","","","","27","","",""
"revaluation","248","1041601","0.0-4.0-4.0-0.14","spark_pilot_norest","8558","2","9","Female","","false","","","","","[481.69999999552965]","./assets/img/ocean/animals/seahorse.jpg","[""ArrowLeft""]","revaluation","ocean","21","{""ArrowUp,ArrowLeft"":27,""ArrowUp,ArrowRight"":15,""ArrowDown,ArrowLeft"":21,""ArrowDown,ArrowRight"":7}","true","ArrowDown,ArrowLeft","","revaluation","1","28","","",""
"html-keyboard-response","249","1042107","0.0-4.0-4.0-1.14","spark_pilot_norest","8558","2","9","Female","","","","","","","null","<div style=""font-size:60px;"">+</div>","null","fixation","","","","","","","","","29","","",""
"revaluation","250","1046124","0.0-4.0-4.0-0.15","spark_pilot_norest","8558","2","9","Female","","false","","","","","[481.8999999985099]","./assets/img/ocean/animals/seahorse.jpg","[""ArrowLeft""]","revaluation","ocean","21","{""ArrowUp,ArrowLeft"":27,""ArrowUp,ArrowRight"":15,""ArrowDown,ArrowLeft"":21,""ArrowDown,ArrowRight"":7}","true","ArrowDown,ArrowLeft","","revaluation","1","30","","",""
"html-keyboard-response","251","1046635","0.0-4.0-4.0-1.15","spark_pilot_norest","8558","2","9","Female","","","","","","","null","<div style=""font-size:60px;"">+</div>","null","fixation","","","","","","","","","31","","",""
"revaluation","252","1050656","0.0-4.0-4.0-0.16","spark_pilot_norest","8558","2","9","Female","","false","","","","","[665.1000000014901]","./assets/img/ocean/animals/octopus.jpg","[""ArrowLeft""]","revaluation","ocean","27","{""ArrowUp,ArrowLeft"":27,""ArrowUp,ArrowRight"":15,""ArrowDown,ArrowLeft"":21,""ArrowDown,ArrowRight"":7}","true","ArrowUp,ArrowLeft","","revaluation","1","32","","",""
"html-keyboard-response","253","1051163","0.0-4.0-4.0-1.16","spark_pilot_norest","8558","2","9","Female","","","","","","","null","<div style=""font-size:60px;"">+</div>","null","fixation","","","","","","","","","33","","",""
"revaluation","254","1055179","0.0-4.0-4.0-0.17","spark_pilot_norest","8558","2","9","Female","","false","","","","","[1682.2000000029802]","./assets/img/ocean/animals/octopus.jpg","[""ArrowLeft""]","revaluation","ocean","27","{""ArrowUp,ArrowLeft"":27,""ArrowUp,ArrowRight"":15,""ArrowDown,ArrowLeft"":21,""ArrowDown,ArrowRight"":7}","true","ArrowUp,ArrowLeft","","revaluation","1","34","","",""
"html-keyboard-response","255","1055691","0.0-4.0-4.0-1.17","spark_pilot_norest","8558","2","9","Female","","","","","","","null","<div style=""font-size:60px;"">+</div>","null","fixation","","","","","","","","","35","","",""
"learning-instructions","256","1063855","0.0-4.0-5.0-0.0","spark_pilot_norest","8558","2","9","Female","","","","","","","null","<p> You have almost finished this part of the game! </p>
            <p> We are going to ask you to make a few more choices. </p>","","instructions","","","","","","","","","","","",""
"learning-instructions","257","1079831","0.0-4.0-5.0-0.1","spark_pilot_norest","8558","2","9","Female","","","","","","","null","<p> First, you need to decide whether to go up or down. When you see each picture, use the arrow keys to make your choice. </p>
            <p><b>You will not see which animal you found, but try to get to the one that will give you the most treasure.</b></p>","","instructions","","","","","","","","","","","",""
"html-keyboard-response","258","1080839","0.0-4.0-6.0-0.0","spark_pilot_norest","8558","2","9","Female","","","","","","","null","<div style=""font-size:100px;color:red;"">Starting in...</div>","null","","","","","","","","","","","","",""
"html-keyboard-response","259","1081847","0.0-4.0-6.0-1.0","spark_pilot_norest","8558","2","9","Female","","","","","","","null","<div style=""font-size:200px;color:red;"">3</div>","null","","","","","","","","","","","","",""
"html-keyboard-response","260","1082855","0.0-4.0-6.0-2.0","spark_pilot_norest","8558","2","9","Female","","","","","","","null","<div style=""font-size:200px;color:red;"">2</div>","null","","","","","","","","","","","","",""
"html-keyboard-response","261","1083863","0.0-4.0-6.0-3.0","spark_pilot_norest","8558","2","9","Female","","","","","","","null","<div style=""font-size:200px;color:red;"">1</div>","null","","","","","","","","","","","","",""
"revaluation","262","1084365","0.0-4.0-7.0-0.0","spark_pilot_norest","8558","2","9","Female","","false","","","","","[499.69999999552965]","./assets/img/ocean/test/1.jpg","[""ArrowDown""]","first stage test","ocean","0","{""ArrowUp,ArrowLeft"":27,""ArrowUp,ArrowRight"":15,""ArrowDown,ArrowLeft"":21,""ArrowDown,ArrowRight"":7}","false","ArrowDown","false","revaluation","1","","","",""
"html-keyboard-response","263","1084871","0.0-4.0-7.0-1.0","spark_pilot_norest","8558","2","9","Female","","","","","","","null","<div style=""font-size:60px;"">+</div>","null","fixation","","","","","","","","","","","",""
"revaluation","264","1085557","0.0-4.0-7.0-0.1","spark_pilot_norest","8558","2","9","Female","","false","","","","","[682.7999999970198]","./assets/img/ocean/test/0.jpg","[""ArrowDown""]","first stage test","ocean","0","{""ArrowUp,ArrowLeft"":27,""ArrowUp,ArrowRight"":15,""ArrowDown,ArrowLeft"":21,""ArrowDown,ArrowRight"":7}","false","ArrowDown","false","revaluation","1","","","",""
"html-keyboard-response","265","1086062","0.0-4.0-7.0-1.1","spark_pilot_norest","8558","2","9","Female","","","","","","","null","<div style=""font-size:60px;"">+</div>","null","fixation","","","","","","","","","","","",""
"revaluation","266","1086636","0.0-4.0-7.0-0.2","spark_pilot_norest","8558","2","9","Female","","false","","","","","[572.4000000059605]","./assets/img/ocean/test/2.jpg","[""ArrowDown""]","first stage test","ocean","0","{""ArrowUp,ArrowLeft"":27,""ArrowUp,ArrowRight"":15,""ArrowDown,ArrowLeft"":21,""ArrowDown,ArrowRight"":7}","false","ArrowDown","false","revaluation","1","","","",""
"html-keyboard-response","267","1087142","0.0-4.0-7.0-1.2","spark_pilot_norest","8558","2","9","Female","","","","","","","null","<div style=""font-size:60px;"">+</div>","null","fixation","","","","","","","","","","","",""
"revaluation","268","1087828","0.0-4.0-7.0-0.3","spark_pilot_norest","8558","2","9","Female","","false","","","","","[682.6000000014901]","./assets/img/ocean/test/3.jpg","[""ArrowUp""]","first stage test","ocean","0","{""ArrowUp,ArrowLeft"":27,""ArrowUp,ArrowRight"":15,""ArrowDown,ArrowLeft"":21,""ArrowDown,ArrowRight"":7}","true","ArrowUp","false","revaluation","1","","","",""
"html-keyboard-response","269","1088334","0.0-4.0-7.0-1.3","spark_pilot_norest","8558","2","9","Female","","","","","","","null","<div style=""font-size:60px;"">+</div>","null","fixation","","","","","","","","","","","",""
"learning-instructions","270","1101680","0.0-4.0-8.0-0.0","spark_pilot_norest","8558","2","9","Female","","","","","","","null","<p> Now you will see the animals again and can search their chests for treasure. </p>
            <p> This time, you will not see how much treasure you earned, but you will earn more bonus money for making better choices. </p>","","instructions","","","","","","","","","","","",""
"html-keyboard-response","271","1102689","0.0-4.0-9.0-0.0","spark_pilot_norest","8558","2","9","Female","","","","","","","null","<div style=""font-size:100px;color:red;"">Starting in...</div>","null","","","","","","","","","","","","",""
"html-keyboard-response","272","1103697","0.0-4.0-9.0-1.0","spark_pilot_norest","8558","2","9","Female","","","","","","","null","<div style=""font-size:200px;color:red;"">3</div>","null","","","","","","","","","","","","",""
"html-keyboard-response","273","1104702","0.0-4.0-9.0-2.0","spark_pilot_norest","8558","2","9","Female","","","","","","","null","<div style=""font-size:200px;color:red;"">2</div>","null","","","","","","","","","","","","",""
"html-keyboard-response","274","1105714","0.0-4.0-9.0-3.0","spark_pilot_norest","8558","2","9","Female","","","","","","","null","<div style=""font-size:200px;color:red;"">1</div>","null","","","","","","","","","","","","",""
"revaluation","275","1106844","0.0-4.0-10.0-0.0","spark_pilot_norest","8558","2","9","Female","","false","","","","","[1126.7000000029802]","./assets/img/ocean/animals/octopus.jpg","[""ArrowLeft""]","second stage test","ocean","0","{""ArrowUp,ArrowLeft"":27,""ArrowUp,ArrowRight"":15,""ArrowDown,ArrowLeft"":21,""ArrowDown,ArrowRight"":7}","true","ArrowUp,ArrowLeft","","revaluation","1","","","",""
"html-keyboard-response","276","1107350","0.0-4.0-10.0-1.0","spark_pilot_norest","8558","2","9","Female","","","","","","","null","<div style=""font-size:60px;"">+</div>","null","fixation","","","","","","","","","","","",""
"revaluation","277","1108028","0.0-4.0-10.0-0.1","spark_pilot_norest","8558","2","9","Female","","false","","","","","[675.5]","./assets/img/ocean/animals/octopus.jpg","[""ArrowLeft""]","second stage test","ocean","0","{""ArrowUp,ArrowLeft"":27,""ArrowUp,ArrowRight"":15,""ArrowDown,ArrowLeft"":21,""ArrowDown,ArrowRight"":7}","true","ArrowUp,ArrowLeft","","revaluation","1","","","",""
"html-keyboard-response","278","1108534","0.0-4.0-10.0-1.1","spark_pilot_norest","8558","2","9","Female","","","","","","","null","<div style=""font-size:60px;"">+</div>","null","fixation","","","","","","","","","","","",""
"revaluation","279","1109035","0.0-4.0-10.0-0.2","spark_pilot_norest","8558","2","9","Female","","false","","","","","[498]","./assets/img/ocean/animals/octopus.jpg","[""ArrowLeft""]","second stage test","ocean","0","{""ArrowUp,ArrowLeft"":27,""ArrowUp,ArrowRight"":15,""ArrowDown,ArrowLeft"":21,""ArrowDown,ArrowRight"":7}","true","ArrowUp,ArrowLeft","","revaluation","1","","","",""
"html-keyboard-response","280","1109542","0.0-4.0-10.0-1.2","spark_pilot_norest","8558","2","9","Female","","","","","","","null","<div style=""font-size:60px;"">+</div>","null","fixation","","","","","","","","","","","",""
"revaluation","281","1110084","0.0-4.0-10.0-0.3","spark_pilot_norest","8558","2","9","Female","","false","","","","","[537.4000000059605]","./assets/img/ocean/animals/octopus.jpg","[""ArrowLeft""]","second stage test","ocean","0","{""ArrowUp,ArrowLeft"":27,""ArrowUp,ArrowRight"":15,""ArrowDown,ArrowLeft"":21,""ArrowDown,ArrowRight"":7}","true","ArrowUp,ArrowLeft","","revaluation","1","","","",""
"html-keyboard-response","282","1110594","0.0-4.0-10.0-1.3","spark_pilot_norest","8558","2","9","Female","","","","","","","null","<div style=""font-size:60px;"">+</div>","null","fixation","","","","","","","","","","","",""
"revaluation","283","1111516","0.0-4.0-10.0-0.4","spark_pilot_norest","8558","2","9","Female","","false","","","","","[918.2999999970198]","./assets/img/ocean/animals/seahorse.jpg","[""ArrowRight""]","second stage test","ocean","0","{""ArrowUp,ArrowLeft"":27,""ArrowUp,ArrowRight"":15,""ArrowDown,ArrowLeft"":21,""ArrowDown,ArrowRight"":7}","false","ArrowDown,ArrowRight","","revaluation","1","","","",""
"html-keyboard-response","284","1112026","0.0-4.0-10.0-1.4","spark_pilot_norest","8558","2","9","Female","","","","","","","null","<div style=""font-size:60px;"">+</div>","null","fixation","","","","","","","","","","","",""
"revaluation","285","1112395","0.0-4.0-10.0-0.5","spark_pilot_norest","8558","2","9","Female","","false","","","","","[365.8999999985099]","./assets/img/ocean/animals/seahorse.jpg","[""ArrowLeft""]","second stage test","ocean","0","{""ArrowUp,ArrowLeft"":27,""ArrowUp,ArrowRight"":15,""ArrowDown,ArrowLeft"":21,""ArrowDown,ArrowRight"":7}","true","ArrowDown,ArrowLeft","","revaluation","1","","","",""
"html-keyboard-response","286","1112906","0.0-4.0-10.0-1.5","spark_pilot_norest","8558","2","9","Female","","","","","","","null","<div style=""font-size:60px;"">+</div>","null","fixation","","","","","","","","","","","",""
"revaluation","287","1113283","0.0-4.0-10.0-0.6","spark_pilot_norest","8558","2","9","Female","","false","","","","","[373.5]","./assets/img/ocean/animals/seahorse.jpg","[""ArrowRight""]","second stage test","ocean","0","{""ArrowUp,ArrowLeft"":27,""ArrowUp,ArrowRight"":15,""ArrowDown,ArrowLeft"":21,""ArrowDown,ArrowRight"":7}","false","ArrowDown,ArrowRight","","revaluation","1","","","",""
"html-keyboard-response","288","1113790","0.0-4.0-10.0-1.6","spark_pilot_norest","8558","2","9","Female","","","","","","","null","<div style=""font-size:60px;"">+</div>","null","fixation","","","","","","","","","","","",""
"revaluation","289","1114195","0.0-4.0-10.0-0.7","spark_pilot_norest","8558","2","9","Female","","false","","","","","[401.30000000447035]","./assets/img/ocean/animals/seahorse.jpg","[""ArrowLeft""]","second stage test","ocean","0","{""ArrowUp,ArrowLeft"":27,""ArrowUp,ArrowRight"":15,""ArrowDown,ArrowLeft"":21,""ArrowDown,ArrowRight"":7}","true","ArrowDown,ArrowLeft","","revaluation","1","","","",""
"html-keyboard-response","290","1114704","0.0-4.0-10.0-1.7","spark_pilot_norest","8558","2","9","Female","","","","","","","null","<div style=""font-size:60px;"">+</div>","null","fixation","","","","","","","","","","","",""
"learning-instructions","291","1120069","0.0-4.0-0.1-0.2","spark_pilot_norest","8558","2","9","Female","","","","","","","2596","<p> This time you are searching for treasure in the <b>canyon</b>.</p>","","instructions","","","","","","","","","","","",""
"learning-instructions","292","1143599","0.0-4.0-0.1-0.3","spark_pilot_norest","8558","2","9","Female","","","","","","","6277","<p><b>New</b> animals with <b>new</b> treasure chests live here. You need to explore to discover where the animal with the best treasure chest is.</p>
                    <p> Like before, once you figure out which animal has the chest with the most treasure, you should try to get to that animal and select that chest! </p>","","instructions","","","","","","","","","","","",""
"learning-instructions","293","1162492","0.0-4.0-1.1-0.1","spark_pilot_norest","8558","2","9","Female","","","","","","","4162.39999999851","<p> Remember, when you see a picture of the place, use the up and down keys to <b>find an animal</b>.</p>
            <p> When you encounter an animal, you should use the left and right keys to <b>select a treasure chest</b>.</p>
            <p> Don't forget to look out for the robber! </p>","","instructions","","","","","","","","","","","",""
"revaluation","294","1166512","0.0-4.0-2.1-0.50","spark_pilot_norest","8558","2","9","Female","","false","","","","","[1161.5]","./assets/img/canyon/catch/6.jpg","[""spaceBar""]","value training","canyon","0","{""ArrowUp,ArrowLeft"":26,""ArrowUp,ArrowRight"":10,""ArrowDown,ArrowLeft"":5,""ArrowDown,ArrowRight"":17}","true","spaceBar","true","original","2","0","","",""
"html-keyboard-response","295","1167022","0.0-4.0-2.1-1.50","spark_pilot_norest","8558","2","9","Female","","","","","","","null","<div style=""font-size:60px;"">+</div>","null","fixation","","","","","","","","","1","","",""
"revaluation","296","1173045","0.0-4.0-2.1-0.51","spark_pilot_norest","8558","2","9","Female","","false","","","","","[543.1999999955297,1046.6999999955297]","./assets/img/canyon/memory/33.jpg","[""ArrowDown"",""ArrowRight""]","value training","canyon","17","{""ArrowUp,ArrowLeft"":26,""ArrowUp,ArrowRight"":10,""ArrowDown,ArrowLeft"":5,""ArrowDown,ArrowRight"":17}","false","ArrowDown,ArrowRight","false","original","2","2","","",""
"html-keyboard-response","297","1173549","0.0-4.0-2.1-1.51","spark_pilot_norest","8558","2","9","Female","","","","","","","null","<div style=""font-size:60px;"">+</div>","null","fixation","","","","","","","","","3","","",""
"revaluation","298","1179576","0.0-4.0-2.1-0.52","spark_pilot_norest","8558","2","9","Female","","false","","","","","[703.6000000014901,406.3999999985099]","./assets/img/canyon/memory/35.jpg","[""ArrowDown"",""ArrowLeft""]","value training","canyon","5","{""ArrowUp,ArrowLeft"":26,""ArrowUp,ArrowRight"":10,""ArrowDown,ArrowLeft"":5,""ArrowDown,ArrowRight"":17}","false","ArrowDown,ArrowLeft","false","original","2","4","","",""
"html-keyboard-response","299","1180085","0.0-4.0-2.1-1.52","spark_pilot_norest","8558","2","9","Female","","","","","","","null","<div style=""font-size:60px;"">+</div>","null","fixation","","","","","","","","","5","","",""
"revaluation","300","1186112","0.0-4.0-2.1-0.53","spark_pilot_norest","8558","2","9","Female","","false","","","","","[751.2999999970198,854.5999999940395]","./assets/img/canyon/memory/36.jpg","[""ArrowUp"",""ArrowRight""]","value training","canyon","10","{""ArrowUp,ArrowLeft"":26,""ArrowUp,ArrowRight"":10,""ArrowDown,ArrowLeft"":5,""ArrowDown,ArrowRight"":17}","false","ArrowUp,ArrowRight","false","original","2","6","","",""
"html-keyboard-response","301","1186621","0.0-4.0-2.1-1.53","spark_pilot_norest","8558","2","9","Female","","","","","","","null","<div style=""font-size:60px;"">+</div>","null","fixation","","","","","","","","","7","","",""
"revaluation","302","1192644","0.0-4.0-2.1-0.54","spark_pilot_norest","8558","2","9","Female","","false","","","","","[520.5999999940395,386.19999999552965]","./assets/img/canyon/memory/11.jpg","[""ArrowUp"",""ArrowLeft""]","value training","canyon","26","{""ArrowUp,ArrowLeft"":26,""ArrowUp,ArrowRight"":10,""ArrowDown,ArrowLeft"":5,""ArrowDown,ArrowRight"":17}","true","ArrowUp,ArrowLeft","false","original","2","8","","",""
"html-keyboard-response","303","1193150","0.0-4.0-2.1-1.54","spark_pilot_norest","8558","2","9","Female","","","","","","","null","<div style=""font-size:60px;"">+</div>","null","fixation","","","","","","","","","9","","",""
"revaluation","304","1197167","0.0-4.0-2.1-0.55","spark_pilot_norest","8558","2","9","Female","","false","","","","","[932.7000000029802]","./assets/img/canyon/catch/5.jpg","[""spaceBar""]","value training","canyon","0","{""ArrowUp,ArrowLeft"":26,""ArrowUp,ArrowRight"":10,""ArrowDown,ArrowLeft"":5,""ArrowDown,ArrowRight"":17}","true","spaceBar","true","original","2","10","","",""
"html-keyboard-response","305","1197668","0.0-4.0-2.1-1.55","spark_pilot_norest","8558","2","9","Female","","","","","","","null","<div style=""font-size:60px;"">+</div>","null","fixation","","","","","","","","","11","","",""
"revaluation","306","1203695","0.0-4.0-2.1-0.56","spark_pilot_norest","8558","2","9","Female","","false","","","","","[808.1000000014901,431.70000000298023]","./assets/img/canyon/memory/36.jpg","[""ArrowUp"",""ArrowLeft""]","value training","canyon","26","{""ArrowUp,ArrowLeft"":26,""ArrowUp,ArrowRight"":10,""ArrowDown,ArrowLeft"":5,""ArrowDown,ArrowRight"":17}","true","ArrowUp,ArrowLeft","false","original","2","12","","",""
"html-keyboard-response","307","1204206","0.0-4.0-2.1-1.56","spark_pilot_norest","8558","2","9","Female","","","","","","","null","<div style=""font-size:60px;"">+</div>","null","fixation","","","","","","","","","13","","",""
"revaluation","308","1210228","0.0-4.0-2.1-0.57","spark_pilot_norest","8558","2","9","Female","","false","","","","","[852.7000000029802,866.0999999940395]","./assets/img/canyon/memory/21.jpg","[""ArrowUp"",""ArrowLeft""]","value training","canyon","26","{""ArrowUp,ArrowLeft"":26,""ArrowUp,ArrowRight"":10,""ArrowDown,ArrowLeft"":5,""ArrowDown,ArrowRight"":17}","true","ArrowUp,ArrowLeft","false","original","2","14","","",""
"html-keyboard-response","309","1210734","0.0-4.0-2.1-1.57","spark_pilot_norest","8558","2","9","Female","","","","","","","null","<div style=""font-size:60px;"">+</div>","null","fixation","","","","","","","","","15","","",""
"revaluation","310","1216756","0.0-4.0-2.1-0.58","spark_pilot_norest","8558","2","9","Female","","false","","","","","[651.7000000029802,661.8000000044703]","./assets/img/canyon/memory/0.jpg","[""ArrowUp"",""ArrowLeft""]","value training","canyon","26","{""ArrowUp,ArrowLeft"":26,""ArrowUp,ArrowRight"":10,""ArrowDown,ArrowLeft"":5,""ArrowDown,ArrowRight"":17}","true","ArrowUp,ArrowLeft","false","original","2","16","","",""
"html-keyboard-response","311","1217262","0.0-4.0-2.1-1.58","spark_pilot_norest","8558","2","9","Female","","","","","","","null","<div style=""font-size:60px;"">+</div>","null","fixation","","","","","","","","","17","","",""
"revaluation","312","1223285","0.0-4.0-2.1-0.59","spark_pilot_norest","8558","2","9","Female","","false","","","","","[932.3999999985099,641.0999999940395]","./assets/img/canyon/memory/22.jpg","[""ArrowUp"",""ArrowLeft""]","value training","canyon","26","{""ArrowUp,ArrowLeft"":26,""ArrowUp,ArrowRight"":10,""ArrowDown,ArrowLeft"":5,""ArrowDown,ArrowRight"":17}","true","ArrowUp,ArrowLeft","false","original","2","18","","",""
