"trial_type","trial_index","time_elapsed","internal_node_id","task_version","subject_id","assigned_condition","age","gender","browser_interaction","success","timeout","failed_images","failed_audio","failed_video","rt","stimulus","response","task_part","environment","score","rewardMap","correct","fullState","isCatch","condition","order","trial_num","key_press","ground_truth","bonus"
"pavlovia","0","1242","0.0-0.0","spark_pilot_norest","8731","8","23","Female","[{""event"":""blur"",""trial"":1,""time"":13287},{""event"":""focus"",""trial"":1,""time"":17745},{""event"":""blur"",""trial"":1,""time"":19799},{""event"":""focus"",""trial"":2,""time"":34155},{""event"":""fullscreenenter"",""trial"":2,""time"":35896}]","","","","","","","","","","","","","","","","","","","","",""
"preload","1","20449","0.0-1.0","spark_pilot_norest","8731","8","23","Female","[{""event"":""blur"",""trial"":1,""time"":13287},{""event"":""focus"",""trial"":1,""time"":17745},{""event"":""blur"",""trial"":1,""time"":19799},{""event"":""focus"",""trial"":2,""time"":34155},{""event"":""fullscreenenter"",""trial"":2,""time"":35896}]","true","false","[]","[]","[]","","","","","","","","","","","","","","","",""
"fullscreen","2","36897","0.0-2.0","spark_pilot_norest","8731","8","23","Female","","true","","","","","","","","","","","","","","","","","","","",""
"audio-button-response","3","38501","0.0-3.0-0.0-0.0","spark_pilot_norest","8731","8","23","Female","","","","","","","1477","./assets/audio/audiotest/turtle.mp3","2","audio_test","","","","","","","","","","","",""
"learning-instructions","4","48015","0.0-3.0-1.0-0.0","spark_pilot_norest","8731","8","23","Female","","","","","","","2531.899999976158","<p> Welcome! Please remember to stay in fullscreen mode and don't click away from the experiment. </p>","","instructions","","","","","","","","","","","",""
"learning-instructions","5","57119","0.0-3.0-1.0-0.1","spark_pilot_norest","8731","8","23","Female","","","","","","","702.3999999761581","<p> Today you will be playing a game to earn treasure. </p>
            <p> At the end of the experiment, you will earn a bonus based on how much treasure you find. </p>
            <img src='./assets/img/instructions/treasure.jpg' class='instructions-image'>","","instructions","","","","","","","","","","","",""
"learning-instructions","6","80685","0.0-3.0-1.0-0.2","spark_pilot_norest","8731","8","23","Female","","","","","","","15308.899999976158","<p> Animals have hidden treasure in treasure chests. </p>
            <p> You need to first find an animal and then choose which of their treasure chests to search. </p>
            <img src='./assets/img/space/animals/cat.jpg' class='instructions-image'>","","instructions","","","","","","","","","","","",""
"learning-instructions","7","95116","0.0-3.0-1.0-0.3","spark_pilot_norest","8731","8","23","Female","","","","","","","1287","<p> In each round, you will search for treasure in a different place. In the real game, there will be two rounds. </p>
            <p> You will begin with a separate, practice round where you will search for treasure in outer space. </p>
            <img src='./assets/img/space/0.jpg' class='instructions-image'>","","instructions","","","","","","","","","","","",""
"learning-instructions","8","108467","0.0-3.0-1.0-0.4","spark_pilot_norest","8731","8","23","Female","","","","","","","1938","<p> On every turn, you will see a picture of the place that you are in, but the specific image may be different each time. </p>
            <p> For example, both of these images mean you are in outer space. </p>
            <img src='./assets/img/instructions/outerspace.jpg' class='instructions-image'>","","instructions","","","","","","","","","","","",""
"learning-instructions","9","117750","0.0-3.0-1.0-0.5","spark_pilot_norest","8731","8","23","Female","","","","","","","1456.1999999284744","<p> You need to decide which direction to travel in. </p>
            <p> You can choose between going <b>up or down</b> by using the arrow keys. </p>
            <img src='./assets/img/instructions/updown.jpg' class='instructions-image'>","","instructions","","","","","","","","","","","",""
"learning-instructions","10","127967","0.0-3.0-1.0-0.6","spark_pilot_norest","8731","8","23","Female","","","","","","","1406.7000000476837","<p> You will have <b>2 seconds</b> to make your choice. </p>
            <p> If you do not make a choice within 2 seconds, you will not find an animal or earn treasure. </p>
            <img src='./assets/img/instructions/2seconds.jpg' class='instructions-image'>","","instructions","","","","","","","","","","","",""
"learning-instructions","11","136267","0.0-3.0-1.0-0.7","spark_pilot_norest","8731","8","23","Female","","","","","","","1263.3999999761581","<p> Let’s try practicing that now! </p>
            <p> When you see a picture of the place you are in, press the <b>up</b> key to travel up. </p>
            <img src='./assets/img/instructions/pressUp.jpg' class='instructions-image'>","","instructions","","","","","","","","","","","",""
"revaluation","12","140293","0.0-3.0-2.0-0.0","spark_pilot_norest","8731","8","23","Female","","","false","","","","[1745.3000000715256]","./assets/img/space/0.jpg","[""ArrowUp""]","first stage practice","space","0","null","null","ArrowUp","false","","","","","",""
"html-keyboard-response","13","140802","0.0-3.0-2.0-1.0","spark_pilot_norest","8731","8","23","Female","","","","","","","null","<div style=""font-size:60px;"">+</div>","null","fixation","","","","","","","","","","","",""
"revaluation","14","144820","0.0-3.0-2.0-0.1","spark_pilot_norest","8731","8","23","Female","","","false","","","","[1625.1000000238419]","./assets/img/space/1.jpg","[""ArrowUp""]","first stage practice","space","0","null","null","ArrowUp","false","","","","","",""
"html-keyboard-response","15","145330","0.0-3.0-2.0-1.1","spark_pilot_norest","8731","8","23","Female","","","","","","","null","<div style=""font-size:60px;"">+</div>","null","fixation","","","","","","","","","","","",""
"revaluation","16","149355","0.0-3.0-2.0-0.2","spark_pilot_norest","8731","8","23","Female","","","false","","","","[1162.6000000238419]","./assets/img/space/2.jpg","[""ArrowUp""]","first stage practice","space","0","null","null","ArrowUp","false","","","","","",""
"html-keyboard-response","17","149867","0.0-3.0-2.0-1.2","spark_pilot_norest","8731","8","23","Female","","","","","","","null","<div style=""font-size:60px;"">+</div>","null","fixation","","","","","","","","","","","",""
"learning-instructions","18","158447","0.0-3.0-3.0-0.0","spark_pilot_norest","8731","8","23","Female","","","","","","","3877.1999999284744","<p> Great job! Now try pressing the <b>down</b> key to travel down. </p>
            <img src='./assets/img/instructions/pressDown.jpg' class='instructions-image'>","","instructions","","","","","","","","","","","",""
"revaluation","19","162463","0.0-3.0-4.0-0.0","spark_pilot_norest","8731","8","23","Female","","","false","","","","[1101]","./assets/img/space/3.jpg","[""ArrowDown""]","first stage practice","space","0","null","null","ArrowDown","false","","","","","",""
"html-keyboard-response","20","162966","0.0-3.0-4.0-1.0","spark_pilot_norest","8731","8","23","Female","","","","","","","null","<div style=""font-size:60px;"">+</div>","null","fixation","","","","","","","","","","","",""
"revaluation","21","166988","0.0-3.0-4.0-0.1","spark_pilot_norest","8731","8","23","Female","","","false","","","","[379.90000009536743]","./assets/img/space/4.jpg","[""ArrowDown""]","first stage practice","space","0","null","null","ArrowDown","false","","","","","",""
"html-keyboard-response","22","167495","0.0-3.0-4.0-1.1","spark_pilot_norest","8731","8","23","Female","","","","","","","null","<div style=""font-size:60px;"">+</div>","null","fixation","","","","","","","","","","","",""
"revaluation","23","171512","0.0-3.0-4.0-0.2","spark_pilot_norest","8731","8","23","Female","","","false","","","","[354.5]","./assets/img/space/5.jpg","[""ArrowDown""]","first stage practice","space","0","null","null","ArrowDown","false","","","","","",""
"html-keyboard-response","24","172015","0.0-3.0-4.0-1.2","spark_pilot_norest","8731","8","23","Female","","","","","","","null","<div style=""font-size:60px;"">+</div>","null","fixation","","","","","","","","","","","",""
"learning-instructions","25","182900","0.0-3.0-5.0-0.0","spark_pilot_norest","8731","8","23","Female","","","","","","","1028.8999999761581","<p> The animals don’t move, so the animal in the upper part of a place will stay in the upper part of a place, and the animal in the lower part of a place will stay in the lower part of a place. </p>","","instructions","","","","","","","","","","","",""
"learning-instructions","26","193050","0.0-3.0-5.0-0.1","spark_pilot_norest","8731","8","23","Female","","","","","","","1019.5","<p> Each animal has two treasure chests for you to choose from. </p>
            <p> The amount of treasure in each chest can range from <b> 0 to 40 pieces.</b></p>","","instructions","","","","","","","","","","","",""
"learning-instructions","27","218434","0.0-3.0-5.0-0.2","spark_pilot_norest","8731","8","23","Female","","","","","","","14204.899999976158","<p> You should decide which chest to search for treasure by using the <b>left</b> and <b>right</b> arrow keys. </p>
            <p><b> Pay attention to which animal is on the screen, as the animals have different treasure chests. </b></p>
            <img src='./assets/img/instructions/leftright.jpg' class='instructions-image'>","","instructions","","","","","","","","","","","",""
"learning-instructions","28","225600","0.0-3.0-5.0-0.3","spark_pilot_norest","8731","8","23","Female","","","","","","","805.5","<p> Let’s try practicing that now. </p>
            <p> When you see an animal, choose which chest to search for treasure. </p>
            <img src='./assets/img/instructions/chooseChest.jpg' class='instructions-image'>","","instructions","","","","","","","","","","","",""
"revaluation","29","229615","0.0-3.0-6.0-0.0","spark_pilot_norest","8731","8","23","Female","","","false","","","","[1402.2000000476837]","./assets/img/space/animals/rabbit.jpg","[""ArrowRight""]","second stage practice","space","23","{""ArrowUp,ArrowLeft"":3,""ArrowUp,ArrowRight"":36,""ArrowDown,ArrowLeft"":15,""ArrowDown,ArrowRight"":23}","true","ArrowDown,ArrowRight","","","","","","",""
"html-keyboard-response","30","230118","0.0-3.0-6.0-1.0","spark_pilot_norest","8731","8","23","Female","","","","","","","null","<div style=""font-size:60px;"">+</div>","null","fixation","","","","","","","","","","","",""
"revaluation","31","234139","0.0-3.0-6.0-0.1","spark_pilot_norest","8731","8","23","Female","","","false","","","","[912]","./assets/img/space/animals/cat.jpg","[""ArrowLeft""]","second stage practice","space","3","{""ArrowUp,ArrowLeft"":3,""ArrowUp,ArrowRight"":36,""ArrowDown,ArrowLeft"":15,""ArrowDown,ArrowRight"":23}","false","ArrowUp,ArrowLeft","","","","","","",""
"html-keyboard-response","32","234651","0.0-3.0-6.0-1.1","spark_pilot_norest","8731","8","23","Female","","","","","","","null","<div style=""font-size:60px;"">+</div>","null","fixation","","","","","","","","","","","",""
"revaluation","33","238672","0.0-3.0-6.0-0.2","spark_pilot_norest","8731","8","23","Female","","","false","","","","[299.2000000476837]","./assets/img/space/animals/rabbit.jpg","[""ArrowRight""]","second stage practice","space","23","{""ArrowUp,ArrowLeft"":3,""ArrowUp,ArrowRight"":36,""ArrowDown,ArrowLeft"":15,""ArrowDown,ArrowRight"":23}","true","ArrowDown,ArrowRight","","","","","","",""
"html-keyboard-response","34","239185","0.0-3.0-6.0-1.2","spark_pilot_norest","8731","8","23","Female","","","","","","","null","<div style=""font-size:60px;"">+</div>","null","fixation","","","","","","","","","","","",""
"revaluation","35","243200","0.0-3.0-6.0-0.3","spark_pilot_norest","8731","8","23","Female","","","false","","","","[375.2000000476837]","./assets/img/space/animals/cat.jpg","[""ArrowRight""]","second stage practice","space","36","{""ArrowUp,ArrowLeft"":3,""ArrowUp,ArrowRight"":36,""ArrowDown,ArrowLeft"":15,""ArrowDown,ArrowRight"":23}","true","ArrowUp,ArrowRight","","","","","","",""
"html-keyboard-response","36","243705","0.0-3.0-6.0-1.3","spark_pilot_norest","8731","8","23","Female","","","","","","","null","<div style=""font-size:60px;"">+</div>","null","fixation","","","","","","","","","","","",""
"learning-instructions","37","262449","0.0-3.0-7.0-0.0","spark_pilot_norest","8731","8","23","Female","","","","","","","1932.9000000953674","<p> Great job. Now let’s try putting it together. </p>
            <p> On each turn, you will first see a picture to remind you of the place you are in, and you need to choose whether to go up or down. </p>
            <p> Then you will see an animal and choose which of its chests to search for treasure. </p>","","instructions","","","","","","","","","","","",""
"learning-instructions","38","271932","0.0-3.0-7.0-0.1","spark_pilot_norest","8731","8","23","Female","","","","","","","1229.7000000476837","<p> When you choose whether to go up or down, try to go to the animal with the chest with the most treasure. </p>
            <p> Try practicing that now! </p>","","instructions","","","","","","","","","","","",""
"revaluation","39","275955","0.0-3.0-8.0-0.0","spark_pilot_norest","8731","8","23","Female","","","true","","","","[]","./assets/img/space/6.jpg","[]","full practice","space","-5","{""ArrowUp,ArrowLeft"":3,""ArrowUp,ArrowRight"":36,""ArrowDown,ArrowLeft"":15,""ArrowDown,ArrowRight"":23}","false","","false","","","","","",""
"html-keyboard-response","40","276462","0.0-3.0-8.0-1.0","spark_pilot_norest","8731","8","23","Female","","","","","","","null","<div style=""font-size:60px;"">+</div>","null","fixation","","","","","","","","","","","",""
"revaluation","41","282489","0.0-3.0-8.0-0.1","spark_pilot_norest","8731","8","23","Female","","","false","","","","[416.10000002384186,1017.8000000715256]","./assets/img/space/7.jpg","[""ArrowUp"",""ArrowLeft""]","full practice","space","3","{""ArrowUp,ArrowLeft"":3,""ArrowUp,ArrowRight"":36,""ArrowDown,ArrowLeft"":15,""ArrowDown,ArrowRight"":23}","false","ArrowUp,ArrowLeft","false","","","","","",""
"html-keyboard-response","42","283002","0.0-3.0-8.0-1.1","spark_pilot_norest","8731","8","23","Female","","","","","","","null","<div style=""font-size:60px;"">+</div>","null","fixation","","","","","","","","","","","",""
"revaluation","43","289032","0.0-3.0-8.0-0.2","spark_pilot_norest","8731","8","23","Female","","","false","","","","[272.6999999284744,356.60000002384186]","./assets/img/space/8.jpg","[""ArrowUp"",""ArrowRight""]","full practice","space","36","{""ArrowUp,ArrowLeft"":3,""ArrowUp,ArrowRight"":36,""ArrowDown,ArrowLeft"":15,""ArrowDown,ArrowRight"":23}","true","ArrowUp,ArrowRight","false","","","","","",""
"html-keyboard-response","44","289542","0.0-3.0-8.0-1.2","spark_pilot_norest","8731","8","23","Female","","","","","","","null","<div style=""font-size:60px;"">+</div>","null","fixation","","","","","","","","","","","",""
"revaluation","45","295571","0.0-3.0-8.0-0.3","spark_pilot_norest","8731","8","23","Female","","","false","","","","[770,512.3000000715256]","./assets/img/space/9.jpg","[""ArrowUp"",""ArrowRight""]","full practice","space","36","{""ArrowUp,ArrowLeft"":3,""ArrowUp,ArrowRight"":36,""ArrowDown,ArrowLeft"":15,""ArrowDown,ArrowRight"":23}","true","ArrowUp,ArrowRight","false","","","","","",""
"html-keyboard-response","46","296082","0.0-3.0-8.0-1.3","spark_pilot_norest","8731","8","23","Female","","","","","","","null","<div style=""font-size:60px;"">+</div>","null","fixation","","","","","","","","","","","",""
"revaluation","47","302110","0.0-3.0-8.0-0.4","spark_pilot_norest","8731","8","23","Female","","","false","","","","[412.89999997615814,354.5]","./assets/img/space/10.jpg","[""ArrowUp"",""ArrowRight""]","full practice","space","36","{""ArrowUp,ArrowLeft"":3,""ArrowUp,ArrowRight"":36,""ArrowDown,ArrowLeft"":15,""ArrowDown,ArrowRight"":23}","true","ArrowUp,ArrowRight","false","","","","","",""
"html-keyboard-response","48","302617","0.0-3.0-8.0-1.4","spark_pilot_norest","8731","8","23","Female","","","","","","","null","<div style=""font-size:60px;"">+</div>","null","fixation","","","","","","","","","","","",""
"learning-instructions","49","314984","0.0-3.0-9.0-0.0","spark_pilot_norest","8731","8","23","Female","","","","","","","2018.2999999523163","<p> One last thing: sometimes, you will see a robber. The robber can be anywhere in the picture. </p>
            <p> If you do not stop them, you will lose treasure. </p>
            <img src='./assets/img/instructions/robber.jpg' class='instructions-image'>","","instructions","","","","","","","","","","","",""
"learning-instructions","50","323216","0.0-3.0-9.0-0.1","spark_pilot_norest","8731","8","23","Female","","","","","","","1072.3999999761581","<p> If you see the robber, you should <b>press the space bar</b> rather than using the arrow keys. </p>
            <p> Try practicing that now! </p>","","instructions","","","","","","","","","","","",""
"revaluation","51","327231","0.0-3.0-10.0-0.0","spark_pilot_norest","8731","8","23","Female","","","false","","","","[1938.6000000238419]","./assets/img/space/catch/0.jpg","[""spaceBar""]","catch practice","space","0","{""ArrowUp,ArrowLeft"":3,""ArrowUp,ArrowRight"":36,""ArrowDown,ArrowLeft"":15,""ArrowDown,ArrowRight"":23}","true","spaceBar","true","","","","","",""
"html-keyboard-response","52","327746","0.0-3.0-10.0-1.0","spark_pilot_norest","8731","8","23","Female","","","","","","","null","<div style=""font-size:60px;"">+</div>","null","fixation","","","","","","","","","","","",""
"revaluation","53","331768","0.0-3.0-10.0-0.1","spark_pilot_norest","8731","8","23","Female","","","false","","","","[602.2999999523163]","./assets/img/space/catch/1.jpg","[""spaceBar""]","catch practice","space","0","{""ArrowUp,ArrowLeft"":3,""ArrowUp,ArrowRight"":36,""ArrowDown,ArrowLeft"":15,""ArrowDown,ArrowRight"":23}","true","spaceBar","true","","","","","",""
"html-keyboard-response","54","332278","0.0-3.0-10.0-1.1","spark_pilot_norest","8731","8","23","Female","","","","","","","null","<div style=""font-size:60px;"">+</div>","null","fixation","","","","","","","","","","","",""
"revaluation","55","336295","0.0-3.0-10.0-0.2","spark_pilot_norest","8731","8","23","Female","","","false","","","","[487]","./assets/img/space/catch/2.jpg","[""spaceBar""]","catch practice","space","0","{""ArrowUp,ArrowLeft"":3,""ArrowUp,ArrowRight"":36,""ArrowDown,ArrowLeft"":15,""ArrowDown,ArrowRight"":23}","true","spaceBar","true","","","","","",""
"html-keyboard-response","56","336810","0.0-3.0-10.0-1.2","spark_pilot_norest","8731","8","23","Female","","","","","","","null","<div style=""font-size:60px;"">+</div>","null","fixation","","","","","","","","","","","",""
"learning-instructions","57","343232","0.0-3.0-11.0-0.0-0.0","spark_pilot_norest","8731","8","23","Female","","","","","","","1158.3999999761581","<p> Now, you will practice a shortened version of the game to get a sense of how it all fits together. </p>","","instructions","","","","","","","","","","","",""
"learning-instructions","58","348649","0.0-3.0-11.0-0.0-0.1","spark_pilot_norest","8731","8","23","Female","","","","","","","2228","<p>This time you are searching for treasure in outer space.</p>","","instructions","","","","","","","","","","","",""
"learning-instructions","59","364549","0.0-3.0-11.0-1.0-0.0","spark_pilot_norest","8731","8","23","Female","","","","","","","1136.7000000476837","<p> Remember, when you see a picture of the place, use the up and down keys to <b>find an animal</b>.</p>
            <p> When you encounter an animal, you should use the left and right keys to <b>select a treasure chest</b>.</p>
            <p> Don't forget to look out for the robber! </p>","","instructions","","","","","","","","","","","",""
"revaluation","60","370578","0.0-3.0-11.0-2.0-0.0","spark_pilot_norest","8731","8","23","Female","","","false","","","","[1238.5,620.4000000953674]","./assets/img/space/11.jpg","[""ArrowUp"",""ArrowRight""]","practice block","space","36","{""ArrowUp,ArrowLeft"":3,""ArrowUp,ArrowRight"":36,""ArrowDown,ArrowLeft"":15,""ArrowDown,ArrowRight"":23}","true","ArrowUp,ArrowRight","false","","","","","",""
"html-keyboard-response","61","371087","0.0-3.0-11.0-2.0-1.0","spark_pilot_norest","8731","8","23","Female","","","","","","","null","<div style=""font-size:60px;"">+</div>","null","fixation","","","","","","","","","","","",""
"revaluation","62","377110","0.0-3.0-11.0-2.0-0.1","spark_pilot_norest","8731","8","23","Female","","","false","","","","[1161.2999999523163,889.5]","./assets/img/space/12.jpg","[""ArrowUp"",""ArrowRight""]","practice block","space","36","{""ArrowUp,ArrowLeft"":3,""ArrowUp,ArrowRight"":36,""ArrowDown,ArrowLeft"":15,""ArrowDown,ArrowRight"":23}","true","ArrowUp,ArrowRight","false","","","","","",""
"html-keyboard-response","63","377617","0.0-3.0-11.0-2.0-1.1","spark_pilot_norest","8731","8","23","Female","","","","","","","null","<div style=""font-size:60px;"">+</div>","null","fixation","","","","","","","","","","","",""
"revaluation","64","383650","0.0-3.0-11.0-2.0-0.2","spark_pilot_norest","8731","8","23","Female","","","false","","","","[921.6000000238419,625.1999999284744]","./assets/img/space/13.jpg","[""ArrowUp"",""ArrowRight""]","practice block","space","36","{""ArrowUp,ArrowLeft"":3,""ArrowUp,ArrowRight"":36,""ArrowDown,ArrowLeft"":15,""ArrowDown,ArrowRight"":23}","true","ArrowUp,ArrowRight","false","","","","","",""
"html-keyboard-response","65","384158","0.0-3.0-11.0-2.0-1.2","spark_pilot_norest","8731","8","23","Female","","","","","","","null","<div style=""font-size:60px;"">+</div>","null","fixation","","","","","","","","","","","",""
"revaluation","66","390186","0.0-3.0-11.0-2.0-0.3","spark_pilot_norest","8731","8","23","Female","","","false","","","","[852.2999999523163,392.7999999523163]","./assets/img/space/14.jpg","[""ArrowUp"",""ArrowRight""]","practice block","space","36","{""ArrowUp,ArrowLeft"":3,""ArrowUp,ArrowRight"":36,""ArrowDown,ArrowLeft"":15,""ArrowDown,ArrowRight"":23}","true","ArrowUp,ArrowRight","false","","","","","",""
"html-keyboard-response","67","390693","0.0-3.0-11.0-2.0-1.3","spark_pilot_norest","8731","8","23","Female","","","","","","","null","<div style=""font-size:60px;"">+</div>","null","fixation","","","","","","","","","","","",""
"revaluation","68","396720","0.0-3.0-11.0-2.0-0.4","spark_pilot_norest","8731","8","23","Female","","","false","","","","[748.5,361.59999990463257]","./assets/img/space/11.jpg","[""ArrowUp"",""ArrowRight""]","practice block","space","36","{""ArrowUp,ArrowLeft"":3,""ArrowUp,ArrowRight"":36,""ArrowDown,ArrowLeft"":15,""ArrowDown,ArrowRight"":23}","true","ArrowUp,ArrowRight","false","","","","","",""
"html-keyboard-response","69","397231","0.0-3.0-11.0-2.0-1.4","spark_pilot_norest","8731","8","23","Female","","","","","","","null","<div style=""font-size:60px;"">+</div>","null","fixation","","","","","","","","","","","",""
"revaluation","70","403253","0.0-3.0-11.0-2.0-0.5","spark_pilot_norest","8731","8","23","Female","","","false","","","","[956.8000000715256,381.2000000476837]","./assets/img/space/12.jpg","[""ArrowUp"",""ArrowRight""]","practice block","space","36","{""ArrowUp,ArrowLeft"":3,""ArrowUp,ArrowRight"":36,""ArrowDown,ArrowLeft"":15,""ArrowDown,ArrowRight"":23}","true","ArrowUp,ArrowRight","false","","","","","",""
"html-keyboard-response","71","403759","0.0-3.0-11.0-2.0-1.5","spark_pilot_norest","8731","8","23","Female","","","","","","","null","<div style=""font-size:60px;"">+</div>","null","fixation","","","","","","","","","","","",""
"revaluation","72","409781","0.0-3.0-11.0-2.0-0.6","spark_pilot_norest","8731","8","23","Female","","","false","","","","[974,365.39999997615814]","./assets/img/space/13.jpg","[""ArrowUp"",""ArrowRight""]","practice block","space","36","{""ArrowUp,ArrowLeft"":3,""ArrowUp,ArrowRight"":36,""ArrowDown,ArrowLeft"":15,""ArrowDown,ArrowRight"":23}","true","ArrowUp,ArrowRight","false","","","","","",""
"html-keyboard-response","73","410287","0.0-3.0-11.0-2.0-1.6","spark_pilot_norest","8731","8","23","Female","","","","","","","null","<div style=""font-size:60px;"">+</div>","null","fixation","","","","","","","","","","","",""
"revaluation","74","416309","0.0-3.0-11.0-2.0-0.7","spark_pilot_norest","8731","8","23","Female","","","false","","","","[792.5999999046326,339.3000000715256]","./assets/img/space/14.jpg","[""ArrowUp"",""ArrowRight""]","practice block","space","36","{""ArrowUp,ArrowLeft"":3,""ArrowUp,ArrowRight"":36,""ArrowDown,ArrowLeft"":15,""ArrowDown,ArrowRight"":23}","true","ArrowUp,ArrowRight","false","","","","","",""
"html-keyboard-response","75","416815","0.0-3.0-11.0-2.0-1.7","spark_pilot_norest","8731","8","23","Female","","","","","","","null","<div style=""font-size:60px;"">+</div>","null","fixation","","","","","","","","","","","",""
"revaluation","76","420831","0.0-3.0-11.0-2.0-0.8","spark_pilot_norest","8731","8","23","Female","","","false","","","","[994.2999999523163]","./assets/img/space/catch/3.jpg","[""spaceBar""]","practice block","space","0","{""ArrowUp,ArrowLeft"":3,""ArrowUp,ArrowRight"":36,""ArrowDown,ArrowLeft"":15,""ArrowDown,ArrowRight"":23}","true","spaceBar","true","","","","","",""
"html-keyboard-response","77","421343","0.0-3.0-11.0-2.0-1.8","spark_pilot_norest","8731","8","23","Female","","","","","","","null","<div style=""font-size:60px;"">+</div>","null","fixation","","","","","","","","","","","",""
"learning-instructions","78","437033","0.0-3.0-11.0-3.0-0.0","spark_pilot_norest","8731","8","23","Female","","","","","","","2734.6999999284744","<p> Now, you will travel with a friend who will choose whether you go up or down first. </p>
            <p> On these turns, you will just see the animal that they found. You will still get to choose which chest to search for treasure.</p>","","instructions","","","","","","","","","","","",""
"revaluation","79","441046","0.0-3.0-11.0-4.0-0.0","spark_pilot_norest","8731","8","23","Female","","","false","","","","[1238.2999999523163]","./assets/img/space/animals/cat.jpg","[""ArrowRight""]","practice block","space","36","{""ArrowUp,ArrowLeft"":3,""ArrowUp,ArrowRight"":36,""ArrowDown,ArrowLeft"":15,""ArrowDown,ArrowRight"":23}","true","ArrowUp,ArrowRight","","","","","","",""
"html-keyboard-response","80","441550","0.0-3.0-11.0-4.0-1.0","spark_pilot_norest","8731","8","23","Female","","","","","","","null","<div style=""font-size:60px;"">+</div>","null","fixation","","","","","","","","","","","",""
"revaluation","81","445567","0.0-3.0-11.0-4.0-0.1","spark_pilot_norest","8731","8","23","Female","","","false","","","","[876.8000000715256]","./assets/img/space/animals/rabbit.jpg","[""ArrowLeft""]","practice block","space","15","{""ArrowUp,ArrowLeft"":3,""ArrowUp,ArrowRight"":36,""ArrowDown,ArrowLeft"":15,""ArrowDown,ArrowRight"":23}","false","ArrowDown,ArrowLeft","","","","","","",""
"html-keyboard-response","82","446077","0.0-3.0-11.0-4.0-1.1","spark_pilot_norest","8731","8","23","Female","","","","","","","null","<div style=""font-size:60px;"">+</div>","null","fixation","","","","","","","","","","","",""
"revaluation","83","450097","0.0-3.0-11.0-4.0-0.2","spark_pilot_norest","8731","8","23","Female","","","false","","","","[329.39999997615814]","./assets/img/space/animals/cat.jpg","[""ArrowRight""]","practice block","space","36","{""ArrowUp,ArrowLeft"":3,""ArrowUp,ArrowRight"":36,""ArrowDown,ArrowLeft"":15,""ArrowDown,ArrowRight"":23}","true","ArrowUp,ArrowRight","","","","","","",""
"html-keyboard-response","84","450605","0.0-3.0-11.0-4.0-1.2","spark_pilot_norest","8731","8","23","Female","","","","","","","null","<div style=""font-size:60px;"">+</div>","null","fixation","","","","","","","","","","","",""
"revaluation","85","454621","0.0-3.0-11.0-4.0-0.3","spark_pilot_norest","8731","8","23","Female","","","false","","","","[329.3000000715256]","./assets/img/space/animals/rabbit.jpg","[""ArrowRight""]","practice block","space","23","{""ArrowUp,ArrowLeft"":3,""ArrowUp,ArrowRight"":36,""ArrowDown,ArrowLeft"":15,""ArrowDown,ArrowRight"":23}","true","ArrowDown,ArrowRight","","","","","","",""
"html-keyboard-response","86","455124","0.0-3.0-11.0-4.0-1.3","spark_pilot_norest","8731","8","23","Female","","","","","","","null","<div style=""font-size:60px;"">+</div>","null","fixation","","","","","","","","","","","",""
"learning-instructions","87","463247","0.0-3.0-11.0-5.0-0.0","spark_pilot_norest","8731","8","23","Female","","","","","","","null","<p> You have almost finished this part of the game! </p>
            <p> We are going to ask you to make a few more choices. </p>","","instructions","","","","","","","","","","","",""
"learning-instructions","88","479262","0.0-3.0-11.0-5.0-0.1","spark_pilot_norest","8731","8","23","Female","","","","","","","null","<p> First, you need to decide whether to go up or down. When you see each picture, use the arrow keys to make your choice. </p>
            <p><b>You will not see which animal you found, but try to get to the one that will give you the most treasure.</b></p>","","instructions","","","","","","","","","","","",""
"html-keyboard-response","89","480271","0.0-3.0-11.0-6.0-0.0","spark_pilot_norest","8731","8","23","Female","","","","","","","null","<div style=""font-size:100px;color:red;"">Starting in...</div>","null","","","","","","","","","","","","",""
"html-keyboard-response","90","481281","0.0-3.0-11.0-6.0-1.0","spark_pilot_norest","8731","8","23","Female","","","","","","","null","<div style=""font-size:200px;color:red;"">3</div>","null","","","","","","","","","","","","",""
"html-keyboard-response","91","482285","0.0-3.0-11.0-6.0-2.0","spark_pilot_norest","8731","8","23","Female","","","","","","","null","<div style=""font-size:200px;color:red;"">2</div>","null","","","","","","","","","","","","",""
"html-keyboard-response","92","483295","0.0-3.0-11.0-6.0-3.0","spark_pilot_norest","8731","8","23","Female","","","","","","","null","<div style=""font-size:200px;color:red;"">1</div>","null","","","","","","","","","","","","",""
"revaluation","93","483921","0.0-3.0-11.0-7.0","spark_pilot_norest","8731","8","23","Female","","","false","","","","[622.1000000238419]","./assets/img/space/15.jpg","[""ArrowUp""]","practice block","space","0","{""ArrowUp,ArrowLeft"":3,""ArrowUp,ArrowRight"":36,""ArrowDown,ArrowLeft"":15,""ArrowDown,ArrowRight"":23}","true","ArrowUp","false","","","","","",""
"html-keyboard-response","94","484428","0.0-3.0-11.0-8.0","spark_pilot_norest","8731","8","23","Female","","","","","","","null","<div style=""font-size:60px;"">+</div>","null","fixation","","","","","","","","","","","",""
"learning-instructions","95","497809","0.0-3.0-11.0-9.0-0.0","spark_pilot_norest","8731","8","23","Female","","","","","","","null","<p> Now you will see the animals again and can search their chests for treasure. </p>
            <p> This time, you will not see how much treasure you earned, but you will earn more bonus money for making better choices. </p>","","instructions","","","","","","","","","","","",""
"html-keyboard-response","96","498816","0.0-3.0-11.0-10.0-0.0","spark_pilot_norest","8731","8","23","Female","","","","","","","null","<div style=""font-size:100px;color:red;"">Starting in...</div>","null","","","","","","","","","","","","",""
"html-keyboard-response","97","499823","0.0-3.0-11.0-10.0-1.0","spark_pilot_norest","8731","8","23","Female","","","","","","","null","<div style=""font-size:200px;color:red;"">3</div>","null","","","","","","","","","","","","",""
"html-keyboard-response","98","500833","0.0-3.0-11.0-10.0-2.0","spark_pilot_norest","8731","8","23","Female","","","","","","","null","<div style=""font-size:200px;color:red;"">2</div>","null","","","","","","","","","","","","",""
"html-keyboard-response","99","501841","0.0-3.0-11.0-10.0-3.0","spark_pilot_norest","8731","8","23","Female","","","","","","","null","<div style=""font-size:200px;color:red;"">1</div>","null","","","","","","","","","","","","",""
"revaluation","100","502128","0.0-3.0-11.0-11.0-0.0","spark_pilot_norest","8731","8","23","Female","","","false","","","","[283.09999990463257]","./assets/img/space/animals/cat.jpg","[""ArrowRight""]","practice block","space","0","{""ArrowUp,ArrowLeft"":3,""ArrowUp,ArrowRight"":36,""ArrowDown,ArrowLeft"":15,""ArrowDown,ArrowRight"":23}","true","ArrowUp,ArrowRight","","","","","","",""
"html-keyboard-response","101","502633","0.0-3.0-11.0-11.0-1.0","spark_pilot_norest","8731","8","23","Female","","","","","","","null","<div style=""font-size:60px;"">+</div>","null","fixation","","","","","","","","","","","",""
"revaluation","102","503907","0.0-3.0-11.0-11.0-0.1","spark_pilot_norest","8731","8","23","Female","","","false","","","","[1268.7000000476837]","./assets/img/space/animals/rabbit.jpg","[""ArrowLeft""]","practice block","space","0","{""ArrowUp,ArrowLeft"":3,""ArrowUp,ArrowRight"":36,""ArrowDown,ArrowLeft"":15,""ArrowDown,ArrowRight"":23}","false","ArrowDown,ArrowLeft","","","","","","",""
"html-keyboard-response","103","504430","0.0-3.0-11.0-11.0-1.1","spark_pilot_norest","8731","8","23","Female","","","","","","","null","<div style=""font-size:60px;"">+</div>","null","fixation","","","","","","","","","","","",""
"learning-instructions","104","511882","0.0-3.0-12.0-0.0","spark_pilot_norest","8731","8","23","Female","","","","","","","2875","<p> Before you start, we're going to ask you a few questions about how the game works. </p>","","instructions","","","","","","","","","","","",""
"comp-q","105","518782","0.0-3.0-13.0-0.0-0.0","spark_pilot_norest","8731","8","23","Female","","","","","","","1313.7000000476837","<p> <b> True or False? </b> </p>
            <p> There can be 50 pieces of treasure in a given animal's chest. </p>","1","comp_question","","","","true","","","","","","","",""
"comp-q","106","527585","0.0-3.0-13.0-0.0-1.0","spark_pilot_norest","8731","8","23","Female","","","","","","","2150.899999976158","<p> <b> That's right! </b> The amount of treasure in each chest can range from 0 to 40 pieces. </p>","0","comp_answer","","","","","","","","","","","",""
"comp-q","107","535496","0.0-3.0-13.0-0.1-0.1","spark_pilot_norest","8731","8","23","Female","","","","","","","793.8999999761581","<p> <b> True or False? </b> </p><p> In this game, all animals have the same amount of treasure in their left and right chests. </p>","1","comp_question","","","","true","","","","","","","",""
"comp-q","108","543213","0.0-3.0-13.0-0.1-1.1","spark_pilot_norest","8731","8","23","Female","","","","","","","2494.2000000476837","<p> <b> That's right! </b> Animals have different amounts of treasure in their treasure chests. </p>","0","comp_answer","","","","","","","","","","","",""
"comp-q","109","549849","0.0-3.0-13.0-0.2-0.2","spark_pilot_norest","8731","8","23","Female","","","","","","","799.5","<p> <b> True or False? </b> </p><p> The same animal will always be there if you go up in the same place. </p>","0","comp_question","","","","true","","","","","","","",""
"comp-q","110","557584","0.0-3.0-13.0-0.2-1.2","spark_pilot_norest","8731","8","23","Female","","","","","","","1286.5999999046326","<p> <b> That's right! </b> One animal lives in the upper part and one lives in the lower part of every place. </p>","0","comp_answer","","","","","","","","","","","",""
"comp-q","111","564282","0.0-3.0-13.0-0.3-0.3","spark_pilot_norest","8731","8","23","Female","","","","","","","1173.3999999761581","<p> <b> True or False? </b> </p><p> If you see a different picture, it means you are in a new place. </p>","0","comp_question","","","","false","","","","","","","",""
"comp-q","112","576931","0.0-3.0-13.0-0.3-1.3","spark_pilot_norest","8731","8","23","Female","","","","","","","1561.6999999284744","<p> <b>Incorrect.</b> Lots of different images may show the same place. For example,  you may see three different images that all remind you that you are in outer space. </p>","0","comp_answer","","","","","","","","","","","",""
"comp-q","113","583565","0.0-3.0-13.0-0.4-0.4","spark_pilot_norest","8731","8","23","Female","","","","","","","1129.2999999523163","<p> <b> True or False? </b> </p><p> If you see a different picture, it means you are in a new place. </p>","1","comp_question","","","","true","","","","","","","",""
"comp-q","114","596732","0.0-3.0-13.0-0.4-1.4","spark_pilot_norest","8731","8","23","Female","","","","","","","1943.8999999761581","<p> <b> That's right! </b> Lots of different images may show the same place. For example,  you may see three different images that all remind you that you are in outer space. </p>","0","comp_answer","","","","","","","","","","","",""
"learning-instructions","115","608533","0.0-3.0-14.0-0.0","spark_pilot_norest","8731","8","23","Female","","","","","","","1947.6999999284744","<p> Good job. Remember to do your best because the amount of treasure you earn will be converted into bonus money. </p>
            <p> It’s time to start the real game! </p>","","instructions","","","","","","","","","","","",""
"learning-instructions","116","612166","0.0-4.0-0.0-0.0","spark_pilot_norest","8731","8","23","Female","","","","","","","866.1999999284744","<p> This time you are searching for treasure in the <b>canyon</b>.</p>","","instructions","","","","","","","","","","","",""
"learning-instructions","117","630984","0.0-4.0-0.0-0.1","spark_pilot_norest","8731","8","23","Female","","","","","","","1524.6999999284744","<p><b>New</b> animals with <b>new</b> treasure chests live here. You need to explore to discover where the animal with the best treasure chest is.</p>
                    <p> Like before, once you figure out which animal has the chest with the most treasure, you should try to get to that animal and select that chest! </p>","","instructions","","","","","","","","","","","",""
"learning-instructions","118","646782","0.0-4.0-1.0-0.0","spark_pilot_norest","8731","8","23","Female","","","","","","","1066.6999999284744","<p> Remember, when you see a picture of the place, use the up and down keys to <b>find an animal</b>.</p>
            <p> When you encounter an animal, you should use the left and right keys to <b>select a treasure chest</b>.</p>
            <p> Don't forget to look out for the robber! </p>","","instructions","","","","","","","","","","","",""
"revaluation","119","652808","0.0-4.0-2.0-0.0","spark_pilot_norest","8731","8","23","Female","","","false","","","","[1516.5,639.0999999046326]","./assets/img/canyon/memory/35.jpg","[""ArrowUp"",""ArrowRight""]","value training","canyon","10","{""ArrowUp,ArrowLeft"":26,""ArrowUp,ArrowRight"":10,""ArrowDown,ArrowLeft"":5,""ArrowDown,ArrowRight"":17}","false","ArrowUp,ArrowRight","false","revaluation","1","0","","",""
"html-keyboard-response","120","653324","0.0-4.0-2.0-1.0","spark_pilot_norest","8731","8","23","Female","","","","","","","null","<div style=""font-size:60px;"">+</div>","null","fixation","","","","","","","","","1","","",""
"revaluation","121","659352","0.0-4.0-2.0-0.1","spark_pilot_norest","8731","8","23","Female","","","false","","","","[936.9000000953674,500.39999997615814]","./assets/img/canyon/memory/1.jpg","[""ArrowUp"",""ArrowLeft""]","value training","canyon","26","{""ArrowUp,ArrowLeft"":26,""ArrowUp,ArrowRight"":10,""ArrowDown,ArrowLeft"":5,""ArrowDown,ArrowRight"":17}","true","ArrowUp,ArrowLeft","false","revaluation","1","2","","",""
"html-keyboard-response","122","659863","0.0-4.0-2.0-1.1","spark_pilot_norest","8731","8","23","Female","","","","","","","null","<div style=""font-size:60px;"">+</div>","null","fixation","","","","","","","","","3","","",""
"revaluation","123","665896","0.0-4.0-2.0-0.2","spark_pilot_norest","8731","8","23","Female","","","false","","","","[676.7999999523163,317.39999997615814]","./assets/img/canyon/memory/16.jpg","[""ArrowDown"",""ArrowLeft""]","value training","canyon","5","{""ArrowUp,ArrowLeft"":26,""ArrowUp,ArrowRight"":10,""ArrowDown,ArrowLeft"":5,""ArrowDown,ArrowRight"":17}","false","ArrowDown,ArrowLeft","false","revaluation","1","4","","",""
"html-keyboard-response","124","666404","0.0-4.0-2.0-1.2","spark_pilot_norest","8731","8","23","Female","","","","","","","null","<div style=""font-size:60px;"">+</div>","null","fixation","","","","","","","","","5","","",""
"revaluation","125","672432","0.0-4.0-2.0-0.3","spark_pilot_norest","8731","8","23","Female","","","false","","","","[499.1999999284744,405.3000000715256]","./assets/img/canyon/memory/38.jpg","[""ArrowDown"",""ArrowRight""]","value training","canyon","17","{""ArrowUp,ArrowLeft"":26,""ArrowUp,ArrowRight"":10,""ArrowDown,ArrowLeft"":5,""ArrowDown,ArrowRight"":17}","false","ArrowDown,ArrowRight","false","revaluation","1","6","","",""
"html-keyboard-response","126","672940","0.0-4.0-2.0-1.3","spark_pilot_norest","8731","8","23","Female","","","","","","","null","<div style=""font-size:60px;"">+</div>","null","fixation","","","","","","","","","7","","",""
"revaluation","127","678964","0.0-4.0-2.0-0.4","spark_pilot_norest","8731","8","23","Female","","","false","","","","[1126.9000000953674,284.7999999523163]","./assets/img/canyon/memory/0.jpg","[""ArrowUp"",""ArrowLeft""]","value training","canyon","26","{""ArrowUp,ArrowLeft"":26,""ArrowUp,ArrowRight"":10,""ArrowDown,ArrowLeft"":5,""ArrowDown,ArrowRight"":17}","true","ArrowUp,ArrowLeft","false","revaluation","1","8","","",""
"html-keyboard-response","128","679470","0.0-4.0-2.0-1.4","spark_pilot_norest","8731","8","23","Female","","","","","","","null","<div style=""font-size:60px;"">+</div>","null","fixation","","","","","","","","","9","","",""
"revaluation","129","685494","0.0-4.0-2.0-0.5","spark_pilot_norest","8731","8","23","Female","","","false","","","","[978,443.89999997615814]","./assets/img/canyon/memory/6.jpg","[""ArrowUp"",""ArrowLeft""]","value training","canyon","26","{""ArrowUp,ArrowLeft"":26,""ArrowUp,ArrowRight"":10,""ArrowDown,ArrowLeft"":5,""ArrowDown,ArrowRight"":17}","true","ArrowUp,ArrowLeft","false","revaluation","1","10","","",""
"html-keyboard-response","130","685999","0.0-4.0-2.0-1.5","spark_pilot_norest","8731","8","23","Female","","","","","","","null","<div style=""font-size:60px;"">+</div>","null","fixation","","","","","","","","","11","","",""
"revaluation","131","692030","0.0-4.0-2.0-0.6","spark_pilot_norest","8731","8","23","Female","","","false","","","","[594,495.2999999523163]","./assets/img/canyon/memory/25.jpg","[""ArrowUp"",""ArrowLeft""]","value training","canyon","26","{""ArrowUp,ArrowLeft"":26,""ArrowUp,ArrowRight"":10,""ArrowDown,ArrowLeft"":5,""ArrowDown,ArrowRight"":17}","true","ArrowUp,ArrowLeft","false","revaluation","1","12","","",""
"html-keyboard-response","132","692541","0.0-4.0-2.0-1.6","spark_pilot_norest","8731","8","23","Female","","","","","","","null","<div style=""font-size:60px;"">+</div>","null","fixation","","","","","","","","","13","","",""
"revaluation","133","698566","0.0-4.0-2.0-0.7","spark_pilot_norest","8731","8","23","Female","","","false","","","","[686.6000000238419,864.5]","./assets/img/canyon/memory/31.jpg","[""ArrowUp"",""ArrowLeft""]","value training","canyon","26","{""ArrowUp,ArrowLeft"":26,""ArrowUp,ArrowRight"":10,""ArrowDown,ArrowLeft"":5,""ArrowDown,ArrowRight"":17}","true","ArrowUp,ArrowLeft","false","revaluation","1","14","","",""
"html-keyboard-response","134","699075","0.0-4.0-2.0-1.7","spark_pilot_norest","8731","8","23","Female","","","","","","","null","<div style=""font-size:60px;"">+</div>","null","fixation","","","","","","","","","15","","",""
"revaluation","135","705102","0.0-4.0-2.0-0.8","spark_pilot_norest","8731","8","23","Female","","","false","","","","[872,814.7000000476837]","./assets/img/canyon/memory/12.jpg","[""ArrowUp"",""ArrowLeft""]","value training","canyon","26","{""ArrowUp,ArrowLeft"":26,""ArrowUp,ArrowRight"":10,""ArrowDown,ArrowLeft"":5,""ArrowDown,ArrowRight"":17}","true","ArrowUp,ArrowLeft","false","revaluation","1","16","","",""
"html-keyboard-response","136","705613","0.0-4.0-2.0-1.8","spark_pilot_norest","8731","8","23","Female","","","","","","","null","<div style=""font-size:60px;"">+</div>","null","fixation","","","","","","","","","17","","",""
"revaluation","137","711636","0.0-4.0-2.0-0.9","spark_pilot_norest","8731","8","23","Female","","","false","","","","[713.0999999046326,454.89999997615814]","./assets/img/canyon/memory/9.jpg","[""ArrowUp"",""ArrowLeft""]","value training","canyon","26","{""ArrowUp,ArrowLeft"":26,""ArrowUp,ArrowRight"":10,""ArrowDown,ArrowLeft"":5,""ArrowDown,ArrowRight"":17}","true","ArrowUp,ArrowLeft","false","revaluation","1","18","","",""
"html-keyboard-response","138","712141","0.0-4.0-2.0-1.9","spark_pilot_norest","8731","8","23","Female","","","","","","","null","<div style=""font-size:60px;"">+</div>","null","fixation","","","","","","","","","19","","",""
"revaluation","139","716158","0.0-4.0-2.0-0.10","spark_pilot_norest","8731","8","23","Female","","","false","","","","[807.2999999523163]","./assets/img/canyon/catch/6.jpg","[""spaceBar""]","value training","canyon","0","{""ArrowUp,ArrowLeft"":26,""ArrowUp,ArrowRight"":10,""ArrowDown,ArrowLeft"":5,""ArrowDown,ArrowRight"":17}","true","spaceBar","true","revaluation","1","20","","",""
"html-keyboard-response","140","716669","0.0-4.0-2.0-1.10","spark_pilot_norest","8731","8","23","Female","","","","","","","null","<div style=""font-size:60px;"">+</div>","null","fixation","","","","","","","","","21","","",""
"revaluation","141","720686","0.0-4.0-2.0-0.11","spark_pilot_norest","8731","8","23","Female","","","false","","","","[684.2999999523163]","./assets/img/canyon/catch/0.jpg","[""spaceBar""]","value training","canyon","0","{""ArrowUp,ArrowLeft"":26,""ArrowUp,ArrowRight"":10,""ArrowDown,ArrowLeft"":5,""ArrowDown,ArrowRight"":17}","true","spaceBar","true","revaluation","1","22","","",""
"html-keyboard-response","142","721197","0.0-4.0-2.0-1.11","spark_pilot_norest","8731","8","23","Female","","","","","","","null","<div style=""font-size:60px;"">+</div>","null","fixation","","","","","","","","","23","","",""
"revaluation","143","727219","0.0-4.0-2.0-0.12","spark_pilot_norest","8731","8","23","Female","","","false","","","","[938.8999999761581,423.39999997615814]","./assets/img/canyon/memory/37.jpg","[""ArrowUp"",""ArrowLeft""]","value training","canyon","26","{""ArrowUp,ArrowLeft"":26,""ArrowUp,ArrowRight"":10,""ArrowDown,ArrowLeft"":5,""ArrowDown,ArrowRight"":17}","true","ArrowUp,ArrowLeft","false","revaluation","1","24","","",""
"html-keyboard-response","144","727725","0.0-4.0-2.0-1.12","spark_pilot_norest","8731","8","23","Female","","","","","","","null","<div style=""font-size:60px;"">+</div>","null","fixation","","","","","","","","","25","","",""
"revaluation","145","733747","0.0-4.0-2.0-0.13","spark_pilot_norest","8731","8","23","Female","","","false","","","","[801.2999999523163,418.2999999523163]","./assets/img/canyon/memory/6.jpg","[""ArrowUp"",""ArrowLeft""]","value training","canyon","26","{""ArrowUp,ArrowLeft"":26,""ArrowUp,ArrowRight"":10,""ArrowDown,ArrowLeft"":5,""ArrowDown,ArrowRight"":17}","true","ArrowUp,ArrowLeft","false","revaluation","1","26","","",""
"html-keyboard-response","146","734253","0.0-4.0-2.0-1.13","spark_pilot_norest","8731","8","23","Female","","","","","","","null","<div style=""font-size:60px;"">+</div>","null","fixation","","","","","","","","","27","","",""
"revaluation","147","738269","0.0-4.0-2.0-0.14","spark_pilot_norest","8731","8","23","Female","","","false","","","","[878.2000000476837]","./assets/img/canyon/catch/2.jpg","[""spaceBar""]","value training","canyon","0","{""ArrowUp,ArrowLeft"":26,""ArrowUp,ArrowRight"":10,""ArrowDown,ArrowLeft"":5,""ArrowDown,ArrowRight"":17}","true","spaceBar","true","revaluation","1","28","","",""
"html-keyboard-response","148","738781","0.0-4.0-2.0-1.14","spark_pilot_norest","8731","8","23","Female","","","","","","","null","<div style=""font-size:60px;"">+</div>","null","fixation","","","","","","","","","29","","",""
"revaluation","149","744803","0.0-4.0-2.0-0.15","spark_pilot_norest","8731","8","23","Female","","","false","","","","[705.4000000953674,985]","./assets/img/canyon/memory/38.jpg","[""ArrowUp"",""ArrowLeft""]","value training","canyon","26","{""ArrowUp,ArrowLeft"":26,""ArrowUp,ArrowRight"":10,""ArrowDown,ArrowLeft"":5,""ArrowDown,ArrowRight"":17}","true","ArrowUp,ArrowLeft","false","revaluation","1","30","","",""
"html-keyboard-response","150","745309","0.0-4.0-2.0-1.15","spark_pilot_norest","8731","8","23","Female","","","","","","","null","<div style=""font-size:60px;"">+</div>","null","fixation","","","","","","","","","31","","",""
"revaluation","151","751331","0.0-4.0-2.0-0.16","spark_pilot_norest","8731","8","23","Female","","","false","","","","[586.5,225.39999997615814]","./assets/img/canyon/memory/29.jpg","[""ArrowUp"",""ArrowLeft""]","value training","canyon","26","{""ArrowUp,ArrowLeft"":26,""ArrowUp,ArrowRight"":10,""ArrowDown,ArrowLeft"":5,""ArrowDown,ArrowRight"":17}","true","ArrowUp,ArrowLeft","false","revaluation","1","32","","",""
"html-keyboard-response","152","751837","0.0-4.0-2.0-1.16","spark_pilot_norest","8731","8","23","Female","","","","","","","null","<div style=""font-size:60px;"">+</div>","null","fixation","","","","","","","","","33","","",""
"revaluation","153","757858","0.0-4.0-2.0-0.17","spark_pilot_norest","8731","8","23","Female","","","false","","","","[728.1000000238419,1042.7000000476837]","./assets/img/canyon/memory/27.jpg","[""ArrowUp"",""ArrowLeft""]","value training","canyon","26","{""ArrowUp,ArrowLeft"":26,""ArrowUp,ArrowRight"":10,""ArrowDown,ArrowLeft"":5,""ArrowDown,ArrowRight"":17}","true","ArrowUp,ArrowLeft","false","revaluation","1","34","","",""
"html-keyboard-response","154","758365","0.0-4.0-2.0-1.17","spark_pilot_norest","8731","8","23","Female","","","","","","","null","<div style=""font-size:60px;"">+</div>","null","fixation","","","","","","","","","35","","",""
"revaluation","155","764387","0.0-4.0-2.0-0.18","spark_pilot_norest","8731","8","23","Female","","","false","","","","[308.2999999523163,454.60000002384186]","./assets/img/canyon/memory/5.jpg","[""ArrowUp"",""ArrowLeft""]","value training","canyon","26","{""ArrowUp,ArrowLeft"":26,""ArrowUp,ArrowRight"":10,""ArrowDown,ArrowLeft"":5,""ArrowDown,ArrowRight"":17}","true","ArrowUp,ArrowLeft","false","revaluation","1","36","","",""
"html-keyboard-response","156","764893","0.0-4.0-2.0-1.18","spark_pilot_norest","8731","8","23","Female","","","","","","","null","<div style=""font-size:60px;"">+</div>","null","fixation","","","","","","","","","37","","",""
"revaluation","157","770915","0.0-4.0-2.0-0.19","spark_pilot_norest","8731","8","23","Female","","","false","","","","[1105.7999999523163,390.3000000715256]","./assets/img/canyon/memory/24.jpg","[""ArrowUp"",""ArrowLeft""]","value training","canyon","26","{""ArrowUp,ArrowLeft"":26,""ArrowUp,ArrowRight"":10,""ArrowDown,ArrowLeft"":5,""ArrowDown,ArrowRight"":17}","true","ArrowUp,ArrowLeft","false","revaluation","1","38","","",""
"html-keyboard-response","158","771421","0.0-4.0-2.0-1.19","spark_pilot_norest","8731","8","23","Female","","","","","","","null","<div style=""font-size:60px;"">+</div>","null","fixation","","","","","","","","","39","","",""
"revaluation","159","777443","0.0-4.0-2.0-0.20","spark_pilot_norest","8731","8","23","Female","","","false","","","","[666,311.89999997615814]","./assets/img/canyon/memory/25.jpg","[""ArrowUp"",""ArrowLeft""]","value training","canyon","26","{""ArrowUp,ArrowLeft"":26,""ArrowUp,ArrowRight"":10,""ArrowDown,ArrowLeft"":5,""ArrowDown,ArrowRight"":17}","true","ArrowUp,ArrowLeft","false","revaluation","1","40","","",""
"html-keyboard-response","160","777949","0.0-4.0-2.0-1.20","spark_pilot_norest","8731","8","23","Female","","","","","","","null","<div style=""font-size:60px;"">+</div>","null","fixation","","","","","","","","","41","","",""
"revaluation","161","783974","0.0-4.0-2.0-0.21","spark_pilot_norest","8731","8","23","Female","","","false","","","","[850.6000000238419,1022]","./assets/img/canyon/memory/41.jpg","[""ArrowUp"",""ArrowLeft""]","value training","canyon","26","{""ArrowUp,ArrowLeft"":26,""ArrowUp,ArrowRight"":10,""ArrowDown,ArrowLeft"":5,""ArrowDown,ArrowRight"":17}","true","ArrowUp,ArrowLeft","false","revaluation","1","42","","",""
"html-keyboard-response","162","784482","0.0-4.0-2.0-1.21","spark_pilot_norest","8731","8","23","Female","","","","","","","null","<div style=""font-size:60px;"">+</div>","null","fixation","","","","","","","","","43","","",""
"revaluation","163","790510","0.0-4.0-2.0-0.22","spark_pilot_norest","8731","8","23","Female","","","false","","","","[1014.7000000476837,399.5]","./assets/img/canyon/memory/26.jpg","[""ArrowUp"",""ArrowLeft""]","value training","canyon","26","{""ArrowUp,ArrowLeft"":26,""ArrowUp,ArrowRight"":10,""ArrowDown,ArrowLeft"":5,""ArrowDown,ArrowRight"":17}","true","ArrowUp,ArrowLeft","false","revaluation","1","44","","",""
"html-keyboard-response","164","791021","0.0-4.0-2.0-1.22","spark_pilot_norest","8731","8","23","Female","","","","","","","null","<div style=""font-size:60px;"">+</div>","null","fixation","","","","","","","","","45","","",""
"revaluation","165","797043","0.0-4.0-2.0-0.23","spark_pilot_norest","8731","8","23","Female","","","false","","","","[853.8000000715256,776.2000000476837]","./assets/img/canyon/memory/15.jpg","[""ArrowUp"",""ArrowLeft""]","value training","canyon","26","{""ArrowUp,ArrowLeft"":26,""ArrowUp,ArrowRight"":10,""ArrowDown,ArrowLeft"":5,""ArrowDown,ArrowRight"":17}","true","ArrowUp,ArrowLeft","false","revaluation","1","46","","",""
"html-keyboard-response","166","797549","0.0-4.0-2.0-1.23","spark_pilot_norest","8731","8","23","Female","","","","","","","null","<div style=""font-size:60px;"">+</div>","null","fixation","","","","","","","","","47","","",""
"revaluation","167","803571","0.0-4.0-2.0-0.24","spark_pilot_norest","8731","8","23","Female","","","false","","","","[553.8999999761581,364.7999999523163]","./assets/img/canyon/memory/11.jpg","[""ArrowUp"",""ArrowLeft""]","value training","canyon","26","{""ArrowUp,ArrowLeft"":26,""ArrowUp,ArrowRight"":10,""ArrowDown,ArrowLeft"":5,""ArrowDown,ArrowRight"":17}","true","ArrowUp,ArrowLeft","false","revaluation","1","48","","",""
"html-keyboard-response","168","804077","0.0-4.0-2.0-1.24","spark_pilot_norest","8731","8","23","Female","","","","","","","null","<div style=""font-size:60px;"">+</div>","null","fixation","","","","","","","","","49","","",""
"revaluation","169","808093","0.0-4.0-2.0-0.25","spark_pilot_norest","8731","8","23","Female","","","false","","","","[750.1000000238419]","./assets/img/canyon/catch/1.jpg","[""spaceBar""]","value training","canyon","0","{""ArrowUp,ArrowLeft"":26,""ArrowUp,ArrowRight"":10,""ArrowDown,ArrowLeft"":5,""ArrowDown,ArrowRight"":17}","true","spaceBar","true","revaluation","1","50","","",""
"html-keyboard-response","170","808605","0.0-4.0-2.0-1.25","spark_pilot_norest","8731","8","23","Female","","","","","","","null","<div style=""font-size:60px;"">+</div>","null","fixation","","","","","","","","","51","","",""
"revaluation","171","814627","0.0-4.0-2.0-0.26","spark_pilot_norest","8731","8","23","Female","","","false","","","","[869.2999999523163,773]","./assets/img/canyon/memory/5.jpg","[""ArrowUp"",""ArrowLeft""]","value training","canyon","26","{""ArrowUp,ArrowLeft"":26,""ArrowUp,ArrowRight"":10,""ArrowDown,ArrowLeft"":5,""ArrowDown,ArrowRight"":17}","true","ArrowUp,ArrowLeft","false","revaluation","1","52","","",""
"html-keyboard-response","172","815133","0.0-4.0-2.0-1.26","spark_pilot_norest","8731","8","23","Female","","","","","","","null","<div style=""font-size:60px;"">+</div>","null","fixation","","","","","","","","","53","","",""
"revaluation","173","821154","0.0-4.0-2.0-0.27","spark_pilot_norest","8731","8","23","Female","","","false","","","","[895,404.89999997615814]","./assets/img/canyon/memory/27.jpg","[""ArrowUp"",""ArrowLeft""]","value training","canyon","26","{""ArrowUp,ArrowLeft"":26,""ArrowUp,ArrowRight"":10,""ArrowDown,ArrowLeft"":5,""ArrowDown,ArrowRight"":17}","true","ArrowUp,ArrowLeft","false","revaluation","1","54","","",""
"html-keyboard-response","174","821661","0.0-4.0-2.0-1.27","spark_pilot_norest","8731","8","23","Female","","","","","","","null","<div style=""font-size:60px;"">+</div>","null","fixation","","","","","","","","","55","","",""
"revaluation","175","827683","0.0-4.0-2.0-0.28","spark_pilot_norest","8731","8","23","Female","","","false","","","","[774.5,627.8999999761581]","./assets/img/canyon/memory/13.jpg","[""ArrowUp"",""ArrowLeft""]","value training","canyon","26","{""ArrowUp,ArrowLeft"":26,""ArrowUp,ArrowRight"":10,""ArrowDown,ArrowLeft"":5,""ArrowDown,ArrowRight"":17}","true","ArrowUp,ArrowLeft","false","revaluation","1","56","","",""
"html-keyboard-response","176","828189","0.0-4.0-2.0-1.28","spark_pilot_norest","8731","8","23","Female","","","","","","","null","<div style=""font-size:60px;"">+</div>","null","fixation","","","","","","","","","57","","",""
"revaluation","177","834211","0.0-4.0-2.0-0.29","spark_pilot_norest","8731","8","23","Female","","","false","","","","[1024.6999999284744,483]","./assets/img/canyon/memory/14.jpg","[""ArrowUp"",""ArrowLeft""]","value training","canyon","26","{""ArrowUp,ArrowLeft"":26,""ArrowUp,ArrowRight"":10,""ArrowDown,ArrowLeft"":5,""ArrowDown,ArrowRight"":17}","true","ArrowUp,ArrowLeft","false","revaluation","1","58","","",""
"html-keyboard-response","178","834717","0.0-4.0-2.0-1.29","spark_pilot_norest","8731","8","23","Female","","","","","","","null","<div style=""font-size:60px;"">+</div>","null","fixation","","","","","","","","","59","","",""
"revaluation","179","840739","0.0-4.0-2.0-0.30","spark_pilot_norest","8731","8","23","Female","","","false","","","","[791.7999999523163,1094.4000000953674]","./assets/img/canyon/memory/37.jpg","[""ArrowUp"",""ArrowLeft""]","value training","canyon","26","{""ArrowUp,ArrowLeft"":26,""ArrowUp,ArrowRight"":10,""ArrowDown,ArrowLeft"":5,""ArrowDown,ArrowRight"":17}","true","ArrowUp,ArrowLeft","false","revaluation","1","60","","",""
"html-keyboard-response","180","841245","0.0-4.0-2.0-1.30","spark_pilot_norest","8731","8","23","Female","","","","","","","null","<div style=""font-size:60px;"">+</div>","null","fixation","","","","","","","","","61","","",""
"revaluation","181","847266","0.0-4.0-2.0-0.31","spark_pilot_norest","8731","8","23","Female","","","false","","","","[1000.9000000953674,506]","./assets/img/canyon/memory/14.jpg","[""ArrowUp"",""ArrowLeft""]","value training","canyon","26","{""ArrowUp,ArrowLeft"":26,""ArrowUp,ArrowRight"":10,""ArrowDown,ArrowLeft"":5,""ArrowDown,ArrowRight"":17}","true","ArrowUp,ArrowLeft","false","revaluation","1","62","","",""
"html-keyboard-response","182","847773","0.0-4.0-2.0-1.31","spark_pilot_norest","8731","8","23","Female","","","","","","","null","<div style=""font-size:60px;"">+</div>","null","fixation","","","","","","","","","63","","",""
"revaluation","183","853794","0.0-4.0-2.0-0.32","spark_pilot_norest","8731","8","23","Female","","","false","","","","[457.2999999523163,298.2000000476837]","./assets/img/canyon/memory/0.jpg","[""ArrowUp"",""ArrowLeft""]","value training","canyon","26","{""ArrowUp,ArrowLeft"":26,""ArrowUp,ArrowRight"":10,""ArrowDown,ArrowLeft"":5,""ArrowDown,ArrowRight"":17}","true","ArrowUp,ArrowLeft","false","revaluation","1","64","","",""
"html-keyboard-response","184","854300","0.0-4.0-2.0-1.32","spark_pilot_norest","8731","8","23","Female","","","","","","","null","<div style=""font-size:60px;"">+</div>","null","fixation","","","","","","","","","65","","",""
"revaluation","185","860322","0.0-4.0-2.0-0.33","spark_pilot_norest","8731","8","23","Female","","","false","","","","[719.8999999761581,493.39999997615814]","./assets/img/canyon/memory/29.jpg","[""ArrowUp"",""ArrowLeft""]","value training","canyon","26","{""ArrowUp,ArrowLeft"":26,""ArrowUp,ArrowRight"":10,""ArrowDown,ArrowLeft"":5,""ArrowDown,ArrowRight"":17}","true","ArrowUp,ArrowLeft","false","revaluation","1","66","","",""
"html-keyboard-response","186","860828","0.0-4.0-2.0-1.33","spark_pilot_norest","8731","8","23","Female","","","","","","","null","<div style=""font-size:60px;"">+</div>","null","fixation","","","","","","","","","67","","",""
"revaluation","187","864845","0.0-4.0-2.0-0.34","spark_pilot_norest","8731","8","23","Female","","","false","","","","[784.5]","./assets/img/canyon/catch/7.jpg","[""spaceBar""]","value training","canyon","0","{""ArrowUp,ArrowLeft"":26,""ArrowUp,ArrowRight"":10,""ArrowDown,ArrowLeft"":5,""ArrowDown,ArrowRight"":17}","true","spaceBar","true","revaluation","1","68","","",""
"html-keyboard-response","188","865356","0.0-4.0-2.0-1.34","spark_pilot_norest","8731","8","23","Female","","","","","","","null","<div style=""font-size:60px;"">+</div>","null","fixation","","","","","","","","","69","","",""
"revaluation","189","871378","0.0-4.0-2.0-0.35","spark_pilot_norest","8731","8","23","Female","","","false","","","","[646.3999999761581,272.2999999523163]","./assets/img/canyon/memory/13.jpg","[""ArrowUp"",""ArrowLeft""]","value training","canyon","26","{""ArrowUp,ArrowLeft"":26,""ArrowUp,ArrowRight"":10,""ArrowDown,ArrowLeft"":5,""ArrowDown,ArrowRight"":17}","true","ArrowUp,ArrowLeft","false","revaluation","1","70","","",""
"html-keyboard-response","190","871884","0.0-4.0-2.0-1.35","spark_pilot_norest","8731","8","23","Female","","","","","","","null","<div style=""font-size:60px;"">+</div>","null","fixation","","","","","","","","","71","","",""
"revaluation","191","877906","0.0-4.0-2.0-0.36","spark_pilot_norest","8731","8","23","Female","","","false","","","","[796.2000000476837,699]","./assets/img/canyon/memory/16.jpg","[""ArrowUp"",""ArrowLeft""]","value training","canyon","26","{""ArrowUp,ArrowLeft"":26,""ArrowUp,ArrowRight"":10,""ArrowDown,ArrowLeft"":5,""ArrowDown,ArrowRight"":17}","true","ArrowUp,ArrowLeft","false","revaluation","1","72","","",""
"html-keyboard-response","192","878412","0.0-4.0-2.0-1.36","spark_pilot_norest","8731","8","23","Female","","","","","","","null","<div style=""font-size:60px;"">+</div>","null","fixation","","","","","","","","","73","","",""
"revaluation","193","882429","0.0-4.0-2.0-0.37","spark_pilot_norest","8731","8","23","Female","","","false","","","","[1186]","./assets/img/canyon/catch/5.jpg","[""spaceBar""]","value training","canyon","0","{""ArrowUp,ArrowLeft"":26,""ArrowUp,ArrowRight"":10,""ArrowDown,ArrowLeft"":5,""ArrowDown,ArrowRight"":17}","true","spaceBar","true","revaluation","1","74","","",""
"html-keyboard-response","194","882940","0.0-4.0-2.0-1.37","spark_pilot_norest","8731","8","23","Female","","","","","","","null","<div style=""font-size:60px;"">+</div>","null","fixation","","","","","","","","","75","","",""
"revaluation","195","886957","0.0-4.0-2.0-0.38","spark_pilot_norest","8731","8","23","Female","","","false","","","","[711.3999999761581]","./assets/img/canyon/catch/3.jpg","[""spaceBar""]","value training","canyon","0","{""ArrowUp,ArrowLeft"":26,""ArrowUp,ArrowRight"":10,""ArrowDown,ArrowLeft"":5,""ArrowDown,ArrowRight"":17}","true","spaceBar","true","revaluation","1","76","","",""
"html-keyboard-response","196","887468","0.0-4.0-2.0-1.38","spark_pilot_norest","8731","8","23","Female","","","","","","","null","<div style=""font-size:60px;"">+</div>","null","fixation","","","","","","","","","77","","",""
"revaluation","197","893493","0.0-4.0-2.0-0.39","spark_pilot_norest","8731","8","23","Female","","","false","","","","[556.5,593.3000000715256]","./assets/img/canyon/memory/26.jpg","[""ArrowUp"",""ArrowLeft""]","value training","canyon","26","{""ArrowUp,ArrowLeft"":26,""ArrowUp,ArrowRight"":10,""ArrowDown,ArrowLeft"":5,""ArrowDown,ArrowRight"":17}","true","ArrowUp,ArrowLeft","false","revaluation","1","78","","",""
"html-keyboard-response","198","893998","0.0-4.0-2.0-1.39","spark_pilot_norest","8731","8","23","Female","","","","","","","null","<div style=""font-size:60px;"">+</div>","null","fixation","","","","","","","","","79","","",""
"revaluation","199","900029","0.0-4.0-2.0-0.40","spark_pilot_norest","8731","8","23","Female","","","false","","","","[841.6999999284744,784.1000000238419]","./assets/img/canyon/memory/31.jpg","[""ArrowUp"",""ArrowLeft""]","value training","canyon","26","{""ArrowUp,ArrowLeft"":26,""ArrowUp,ArrowRight"":10,""ArrowDown,ArrowLeft"":5,""ArrowDown,ArrowRight"":17}","true","ArrowUp,ArrowLeft","false","revaluation","1","80","","",""
"html-keyboard-response","200","900540","0.0-4.0-2.0-1.40","spark_pilot_norest","8731","8","23","Female","","","","","","","null","<div style=""font-size:60px;"">+</div>","null","fixation","","","","","","","","","81","","",""
"revaluation","201","906573","0.0-4.0-2.0-0.41","spark_pilot_norest","8731","8","23","Female","","","true","","","","[635.7000000476837]","./assets/img/canyon/memory/9.jpg","[""ArrowUp""]","value training","canyon","-5","{""ArrowUp,ArrowLeft"":26,""ArrowUp,ArrowRight"":10,""ArrowDown,ArrowLeft"":5,""ArrowDown,ArrowRight"":17}","false","ArrowUp","false","revaluation","1","82","","",""
"html-keyboard-response","202","907084","0.0-4.0-2.0-1.41","spark_pilot_norest","8731","8","23","Female","","","","","","","null","<div style=""font-size:60px;"">+</div>","null","fixation","","","","","","","","","83","","",""
"revaluation","203","911100","0.0-4.0-2.0-0.42","spark_pilot_norest","8731","8","23","Female","","","false","","","","[897.7999999523163]","./assets/img/canyon/catch/4.jpg","[""spaceBar""]","value training","canyon","0","{""ArrowUp,ArrowLeft"":26,""ArrowUp,ArrowRight"":10,""ArrowDown,ArrowLeft"":5,""ArrowDown,ArrowRight"":17}","true","spaceBar","true","revaluation","1","84","","",""
"html-keyboard-response","204","911612","0.0-4.0-2.0-1.42","spark_pilot_norest","8731","8","23","Female","","","","","","","null","<div style=""font-size:60px;"">+</div>","null","fixation","","","","","","","","","85","","",""
"revaluation","205","917634","0.0-4.0-2.0-0.43","spark_pilot_norest","8731","8","23","Female","","","false","","","","[840.6000000238419,666]","./assets/img/canyon/memory/24.jpg","[""ArrowUp"",""ArrowLeft""]","value training","canyon","26","{""ArrowUp,ArrowLeft"":26,""ArrowUp,ArrowRight"":10,""ArrowDown,ArrowLeft"":5,""ArrowDown,ArrowRight"":17}","true","ArrowUp,ArrowLeft","false","revaluation","1","86","","",""
"html-keyboard-response","206","918140","0.0-4.0-2.0-1.43","spark_pilot_norest","8731","8","23","Female","","","","","","","null","<div style=""font-size:60px;"">+</div>","null","fixation","","","","","","","","","87","","",""
"revaluation","207","924162","0.0-4.0-2.0-0.44","spark_pilot_norest","8731","8","23","Female","","","false","","","","[667,732.1000000238419]","./assets/img/canyon/memory/11.jpg","[""ArrowUp"",""ArrowLeft""]","value training","canyon","26","{""ArrowUp,ArrowLeft"":26,""ArrowUp,ArrowRight"":10,""ArrowDown,ArrowLeft"":5,""ArrowDown,ArrowRight"":17}","true","ArrowUp,ArrowLeft","false","revaluation","1","88","","",""
"html-keyboard-response","208","924668","0.0-4.0-2.0-1.44","spark_pilot_norest","8731","8","23","Female","","","","","","","null","<div style=""font-size:60px;"">+</div>","null","fixation","","","","","","","","","89","","",""
"revaluation","209","930701","0.0-4.0-2.0-0.45","spark_pilot_norest","8731","8","23","Female","","","false","","","","[699.3000000715256,305.10000002384186]","./assets/img/canyon/memory/41.jpg","[""ArrowUp"",""ArrowLeft""]","value training","canyon","26","{""ArrowUp,ArrowLeft"":26,""ArrowUp,ArrowRight"":10,""ArrowDown,ArrowLeft"":5,""ArrowDown,ArrowRight"":17}","true","ArrowUp,ArrowLeft","false","revaluation","1","90","","",""
"html-keyboard-response","210","931212","0.0-4.0-2.0-1.45","spark_pilot_norest","8731","8","23","Female","","","","","","","null","<div style=""font-size:60px;"">+</div>","null","fixation","","","","","","","","","91","","",""
"revaluation","211","937234","0.0-4.0-2.0-0.46","spark_pilot_norest","8731","8","23","Female","","","false","","","","[615.2000000476837,259.60000002384186]","./assets/img/canyon/memory/1.jpg","[""ArrowUp"",""ArrowLeft""]","value training","canyon","26","{""ArrowUp,ArrowLeft"":26,""ArrowUp,ArrowRight"":10,""ArrowDown,ArrowLeft"":5,""ArrowDown,ArrowRight"":17}","true","ArrowUp,ArrowLeft","false","revaluation","1","92","","",""
"html-keyboard-response","212","937740","0.0-4.0-2.0-1.46","spark_pilot_norest","8731","8","23","Female","","","","","","","null","<div style=""font-size:60px;"">+</div>","null","fixation","","","","","","","","","93","","",""
"revaluation","213","943772","0.0-4.0-2.0-0.47","spark_pilot_norest","8731","8","23","Female","","","false","","","","[619.3000000715256,372.5]","./assets/img/canyon/memory/12.jpg","[""ArrowUp"",""ArrowLeft""]","value training","canyon","26","{""ArrowUp,ArrowLeft"":26,""ArrowUp,ArrowRight"":10,""ArrowDown,ArrowLeft"":5,""ArrowDown,ArrowRight"":17}","true","ArrowUp,ArrowLeft","false","revaluation","1","94","","",""
"html-keyboard-response","214","944284","0.0-4.0-2.0-1.47","spark_pilot_norest","8731","8","23","Female","","","","","","","null","<div style=""font-size:60px;"">+</div>","null","fixation","","","","","","","","","95","","",""
"revaluation","215","950306","0.0-4.0-2.0-0.48","spark_pilot_norest","8731","8","23","Female","","","false","","","","[787.9000000953674,1068.6000000238419]","./assets/img/canyon/memory/15.jpg","[""ArrowUp"",""ArrowLeft""]","value training","canyon","26","{""ArrowUp,ArrowLeft"":26,""ArrowUp,ArrowRight"":10,""ArrowDown,ArrowLeft"":5,""ArrowDown,ArrowRight"":17}","true","ArrowUp,ArrowLeft","false","revaluation","1","96","","",""
"html-keyboard-response","216","950812","0.0-4.0-2.0-1.48","spark_pilot_norest","8731","8","23","Female","","","","","","","null","<div style=""font-size:60px;"">+</div>","null","fixation","","","","","","","","","97","","",""
"revaluation","217","956834","0.0-4.0-2.0-0.49","spark_pilot_norest","8731","8","23","Female","","","false","","","","[493,213.79999995231628]","./assets/img/canyon/memory/35.jpg","[""ArrowUp"",""ArrowRight""]","value training","canyon","10","{""ArrowUp,ArrowLeft"":26,""ArrowUp,ArrowRight"":10,""ArrowDown,ArrowLeft"":5,""ArrowDown,ArrowRight"":17}","false","ArrowUp,ArrowRight","false","revaluation","1","98","","",""
"html-keyboard-response","218","957340","0.0-4.0-2.0-1.49","spark_pilot_norest","8731","8","23","Female","","","","","","","null","<div style=""font-size:60px;"">+</div>","null","fixation","","","","","","","","","99","","",""
"learning-instructions","219","971930","0.0-4.0-3.0-0.0","spark_pilot_norest","8731","8","23","Female","","","","","","","1668.7999999523163","<p> Now, you will travel with a friend who will choose whether you go up or down first. </p>
            <p> On these turns, you will just see the animal that they found. You will still get to choose which chest to search for treasure.</p>","","instructions","","","","","","","","","","","",""
"revaluation","220","975946","0.0-4.0-4.0-0.0","spark_pilot_norest","8731","8","23","Female","","","false","","","","[916.6999999284744]","./assets/img/canyon/animals/lion.jpg","[""ArrowLeft""]","revaluation","canyon","2","{""ArrowUp,ArrowLeft"":2,""ArrowUp,ArrowRight"":11,""ArrowDown,ArrowLeft"":8,""ArrowDown,ArrowRight"":27}","false","ArrowUp,ArrowLeft","","revaluation","1","0","","",""
"html-keyboard-response","221","976460","0.0-4.0-4.0-1.0","spark_pilot_norest","8731","8","23","Female","","","","","","","null","<div style=""font-size:60px;"">+</div>","null","fixation","","","","","","","","","1","","",""
"revaluation","222","980478","0.0-4.0-4.0-0.1","spark_pilot_norest","8731","8","23","Female","","","false","","","","[678.7000000476837]","./assets/img/canyon/animals/giraffe.jpg","[""ArrowRight""]","revaluation","canyon","27","{""ArrowUp,ArrowLeft"":2,""ArrowUp,ArrowRight"":11,""ArrowDown,ArrowLeft"":8,""ArrowDown,ArrowRight"":27}","true","ArrowDown,ArrowRight","","revaluation","1","2","","",""
"html-keyboard-response","223","980989","0.0-4.0-4.0-1.1","spark_pilot_norest","8731","8","23","Female","","","","","","","null","<div style=""font-size:60px;"">+</div>","null","fixation","","","","","","","","","3","","",""
"revaluation","224","985001","0.0-4.0-4.0-0.2","spark_pilot_norest","8731","8","23","Female","","","false","","","","[716.0999999046326]","./assets/img/canyon/animals/giraffe.jpg","[""ArrowLeft""]","revaluation","canyon","8","{""ArrowUp,ArrowLeft"":2,""ArrowUp,ArrowRight"":11,""ArrowDown,ArrowLeft"":8,""ArrowDown,ArrowRight"":27}","false","ArrowDown,ArrowLeft","","revaluation","1","4","","",""
"html-keyboard-response","225","985509","0.0-4.0-4.0-1.2","spark_pilot_norest","8731","8","23","Female","","","","","","","null","<div style=""font-size:60px;"">+</div>","null","fixation","","","","","","","","","5","","",""
"revaluation","226","989529","0.0-4.0-4.0-0.3","spark_pilot_norest","8731","8","23","Female","","","false","","","","[412.2999999523163]","./assets/img/canyon/animals/lion.jpg","[""ArrowRight""]","revaluation","canyon","11","{""ArrowUp,ArrowLeft"":2,""ArrowUp,ArrowRight"":11,""ArrowDown,ArrowLeft"":8,""ArrowDown,ArrowRight"":27}","true","ArrowUp,ArrowRight","","revaluation","1","6","","",""
"html-keyboard-response","227","990037","0.0-4.0-4.0-1.3","spark_pilot_norest","8731","8","23","Female","","","","","","","null","<div style=""font-size:60px;"">+</div>","null","fixation","","","","","","","","","7","","",""
"revaluation","228","994057","0.0-4.0-4.0-0.4","spark_pilot_norest","8731","8","23","Female","","","false","","","","[449.2999999523163]","./assets/img/canyon/animals/giraffe.jpg","[""ArrowRight""]","revaluation","canyon","27","{""ArrowUp,ArrowLeft"":2,""ArrowUp,ArrowRight"":11,""ArrowDown,ArrowLeft"":8,""ArrowDown,ArrowRight"":27}","true","ArrowDown,ArrowRight","","revaluation","1","8","","",""
"html-keyboard-response","229","994564","0.0-4.0-4.0-1.4","spark_pilot_norest","8731","8","23","Female","","","","","","","null","<div style=""font-size:60px;"">+</div>","null","fixation","","","","","","","","","9","","",""
"revaluation","230","998578","0.0-4.0-4.0-0.5","spark_pilot_norest","8731","8","23","Female","","","false","","","","[383.10000002384186]","./assets/img/canyon/animals/lion.jpg","[""ArrowRight""]","revaluation","canyon","11","{""ArrowUp,ArrowLeft"":2,""ArrowUp,ArrowRight"":11,""ArrowDown,ArrowLeft"":8,""ArrowDown,ArrowRight"":27}","true","ArrowUp,ArrowRight","","revaluation","1","10","","",""
"html-keyboard-response","231","999081","0.0-4.0-4.0-1.5","spark_pilot_norest","8731","8","23","Female","","","","","","","null","<div style=""font-size:60px;"">+</div>","null","fixation","","","","","","","","","11","","",""
"revaluation","232","1003098","0.0-4.0-4.0-0.6","spark_pilot_norest","8731","8","23","Female","","","false","","","","[357.2999999523163]","./assets/img/canyon/animals/giraffe.jpg","[""ArrowRight""]","revaluation","canyon","27","{""ArrowUp,ArrowLeft"":2,""ArrowUp,ArrowRight"":11,""ArrowDown,ArrowLeft"":8,""ArrowDown,ArrowRight"":27}","true","ArrowDown,ArrowRight","","revaluation","1","12","","",""
"html-keyboard-response","233","1003604","0.0-4.0-4.0-1.6","spark_pilot_norest","8731","8","23","Female","","","","","","","null","<div style=""font-size:60px;"">+</div>","null","fixation","","","","","","","","","13","","",""
"revaluation","234","1007626","0.0-4.0-4.0-0.7","spark_pilot_norest","8731","8","23","Female","","","false","","","","[575.4000000953674]","./assets/img/canyon/animals/lion.jpg","[""ArrowRight""]","revaluation","canyon","11","{""ArrowUp,ArrowLeft"":2,""ArrowUp,ArrowRight"":11,""ArrowDown,ArrowLeft"":8,""ArrowDown,ArrowRight"":27}","true","ArrowUp,ArrowRight","","revaluation","1","14","","",""
"html-keyboard-response","235","1008132","0.0-4.0-4.0-1.7","spark_pilot_norest","8731","8","23","Female","","","","","","","null","<div style=""font-size:60px;"">+</div>","null","fixation","","","","","","","","","15","","",""
"revaluation","236","1012148","0.0-4.0-4.0-0.8","spark_pilot_norest","8731","8","23","Female","","","false","","","","[554.7999999523163]","./assets/img/canyon/animals/giraffe.jpg","[""ArrowLeft""]","revaluation","canyon","8","{""ArrowUp,ArrowLeft"":2,""ArrowUp,ArrowRight"":11,""ArrowDown,ArrowLeft"":8,""ArrowDown,ArrowRight"":27}","false","ArrowDown,ArrowLeft","","revaluation","1","16","","",""
"html-keyboard-response","237","1012660","0.0-4.0-4.0-1.8","spark_pilot_norest","8731","8","23","Female","","","","","","","null","<div style=""font-size:60px;"">+</div>","null","fixation","","","","","","","","","17","","",""
"revaluation","238","1016682","0.0-4.0-4.0-0.9","spark_pilot_norest","8731","8","23","Female","","","false","","","","[369.5]","./assets/img/canyon/animals/lion.jpg","[""ArrowRight""]","revaluation","canyon","11","{""ArrowUp,ArrowLeft"":2,""ArrowUp,ArrowRight"":11,""ArrowDown,ArrowLeft"":8,""ArrowDown,ArrowRight"":27}","true","ArrowUp,ArrowRight","","revaluation","1","18","","",""
"html-keyboard-response","239","1017193","0.0-4.0-4.0-1.9","spark_pilot_norest","8731","8","23","Female","","","","","","","null","<div style=""font-size:60px;"">+</div>","null","fixation","","","","","","","","","19","","",""
"revaluation","240","1021210","0.0-4.0-4.0-0.10","spark_pilot_norest","8731","8","23","Female","","","false","","","","[267.3000000715256]","./assets/img/canyon/animals/lion.jpg","[""ArrowRight""]","revaluation","canyon","11","{""ArrowUp,ArrowLeft"":2,""ArrowUp,ArrowRight"":11,""ArrowDown,ArrowLeft"":8,""ArrowDown,ArrowRight"":27}","true","ArrowUp,ArrowRight","","revaluation","1","20","","",""
"html-keyboard-response","241","1021716","0.0-4.0-4.0-1.10","spark_pilot_norest","8731","8","23","Female","","","","","","","null","<div style=""font-size:60px;"">+</div>","null","fixation","","","","","","","","","21","","",""
"revaluation","242","1025738","0.0-4.0-4.0-0.11","spark_pilot_norest","8731","8","23","Female","","","false","","","","[732.7999999523163]","./assets/img/canyon/animals/lion.jpg","[""ArrowRight""]","revaluation","canyon","11","{""ArrowUp,ArrowLeft"":2,""ArrowUp,ArrowRight"":11,""ArrowDown,ArrowLeft"":8,""ArrowDown,ArrowRight"":27}","true","ArrowUp,ArrowRight","","revaluation","1","22","","",""
"html-keyboard-response","243","1026249","0.0-4.0-4.0-1.11","spark_pilot_norest","8731","8","23","Female","","","","","","","null","<div style=""font-size:60px;"">+</div>","null","fixation","","","","","","","","","23","","",""
"revaluation","244","1030266","0.0-4.0-4.0-0.12","spark_pilot_norest","8731","8","23","Female","","","false","","","","[515.7999999523163]","./assets/img/canyon/animals/lion.jpg","[""ArrowRight""]","revaluation","canyon","11","{""ArrowUp,ArrowLeft"":2,""ArrowUp,ArrowRight"":11,""ArrowDown,ArrowLeft"":8,""ArrowDown,ArrowRight"":27}","true","ArrowUp,ArrowRight","","revaluation","1","24","","",""
"html-keyboard-response","245","1030777","0.0-4.0-4.0-1.12","spark_pilot_norest","8731","8","23","Female","","","","","","","null","<div style=""font-size:60px;"">+</div>","null","fixation","","","","","","","","","25","","",""
"revaluation","246","1034794","0.0-4.0-4.0-0.13","spark_pilot_norest","8731","8","23","Female","","","false","","","","[446.7000000476837]","./assets/img/canyon/animals/giraffe.jpg","[""ArrowRight""]","revaluation","canyon","27","{""ArrowUp,ArrowLeft"":2,""ArrowUp,ArrowRight"":11,""ArrowDown,ArrowLeft"":8,""ArrowDown,ArrowRight"":27}","true","ArrowDown,ArrowRight","","revaluation","1","26","","",""
"html-keyboard-response","247","1035305","0.0-4.0-4.0-1.13","spark_pilot_norest","8731","8","23","Female","","","","","","","null","<div style=""font-size:60px;"">+</div>","null","fixation","","","","","","","","","27","","",""
"revaluation","248","1039322","0.0-4.0-4.0-0.14","spark_pilot_norest","8731","8","23","Female","","","false","","","","[602.5]","./assets/img/canyon/animals/lion.jpg","[""ArrowRight""]","revaluation","canyon","11","{""ArrowUp,ArrowLeft"":2,""ArrowUp,ArrowRight"":11,""ArrowDown,ArrowLeft"":8,""ArrowDown,ArrowRight"":27}","true","ArrowUp,ArrowRight","","revaluation","1","28","","",""
"html-keyboard-response","249","1039828","0.0-4.0-4.0-1.14","spark_pilot_norest","8731","8","23","Female","","","","","","","null","<div style=""font-size:60px;"">+</div>","null","fixation","","","","","","","","","29","","",""
"revaluation","250","1043850","0.0-4.0-4.0-0.15","spark_pilot_norest","8731","8","23","Female","","","false","","","","[373.5]","./assets/img/canyon/animals/giraffe.jpg","[""ArrowRight""]","revaluation","canyon","27","{""ArrowUp,ArrowLeft"":2,""ArrowUp,ArrowRight"":11,""ArrowDown,ArrowLeft"":8,""ArrowDown,ArrowRight"":27}","true","ArrowDown,ArrowRight","","revaluation","1","30","","",""
"html-keyboard-response","251","1044356","0.0-4.0-4.0-1.15","spark_pilot_norest","8731","8","23","Female","","","","","","","null","<div style=""font-size:60px;"">+</div>","null","fixation","","","","","","","","","31","","",""
"revaluation","252","1048373","0.0-4.0-4.0-0.16","spark_pilot_norest","8731","8","23","Female","","","false","","","","[532.2999999523163]","./assets/img/canyon/animals/giraffe.jpg","[""ArrowRight""]","revaluation","canyon","27","{""ArrowUp,ArrowLeft"":2,""ArrowUp,ArrowRight"":11,""ArrowDown,ArrowLeft"":8,""ArrowDown,ArrowRight"":27}","true","ArrowDown,ArrowRight","","revaluation","1","32","","",""
"html-keyboard-response","253","1048884","0.0-4.0-4.0-1.16","spark_pilot_norest","8731","8","23","Female","","","","","","","null","<div style=""font-size:60px;"">+</div>","null","fixation","","","","","","","","","33","","",""
"revaluation","254","1052907","0.0-4.0-4.0-0.17","spark_pilot_norest","8731","8","23","Female","","","false","","","","[439.2999999523163]","./assets/img/canyon/animals/giraffe.jpg","[""ArrowRight""]","revaluation","canyon","27","{""ArrowUp,ArrowLeft"":2,""ArrowUp,ArrowRight"":11,""ArrowDown,ArrowLeft"":8,""ArrowDown,ArrowRight"":27}","true","ArrowDown,ArrowRight","","revaluation","1","34","","",""
"html-keyboard-response","255","1053417","0.0-4.0-4.0-1.17","spark_pilot_norest","8731","8","23","Female","","","","","","","null","<div style=""font-size:60px;"">+</div>","null","fixation","","","","","","","","","35","","",""
"learning-instructions","256","1061564","0.0-4.0-5.0-0.0","spark_pilot_norest","8731","8","23","Female","","","","","","","null","<p> You have almost finished this part of the game! </p>
            <p> We are going to ask you to make a few more choices. </p>","","instructions","","","","","","","","","","","",""
"learning-instructions","257","1077546","0.0-4.0-5.0-0.1","spark_pilot_norest","8731","8","23","Female","","","","","","","null","<p> First, you need to decide whether to go up or down. When you see each picture, use the arrow keys to make your choice. </p>
            <p><b>You will not see which animal you found, but try to get to the one that will give you the most treasure.</b></p>","","instructions","","","","","","","","","","","",""
"html-keyboard-response","258","1078549","0.0-4.0-6.0-0.0","spark_pilot_norest","8731","8","23","Female","","","","","","","null","<div style=""font-size:100px;color:red;"">Starting in...</div>","null","","","","","","","","","","","","",""
"html-keyboard-response","259","1079559","0.0-4.0-6.0-1.0","spark_pilot_norest","8731","8","23","Female","","","","","","","null","<div style=""font-size:200px;color:red;"">3</div>","null","","","","","","","","","","","","",""
"html-keyboard-response","260","1080569","0.0-4.0-6.0-2.0","spark_pilot_norest","8731","8","23","Female","","","","","","","null","<div style=""font-size:200px;color:red;"">2</div>","null","","","","","","","","","","","","",""
"html-keyboard-response","261","1081573","0.0-4.0-6.0-3.0","spark_pilot_norest","8731","8","23","Female","","","","","","","null","<div style=""font-size:200px;color:red;"">1</div>","null","","","","","","","","","","","","",""
"revaluation","262","1082002","0.0-4.0-7.0-0.0","spark_pilot_norest","8731","8","23","Female","","","false","","","","[426.5]","./assets/img/canyon/test/2.jpg","[""ArrowDown""]","first stage test","canyon","0","{""ArrowUp,ArrowLeft"":2,""ArrowUp,ArrowRight"":11,""ArrowDown,ArrowLeft"":8,""ArrowDown,ArrowRight"":27}","true","ArrowDown","false","revaluation","1","","","",""
"html-keyboard-response","263","1082509","0.0-4.0-7.0-1.0","spark_pilot_norest","8731","8","23","Female","","","","","","","null","<div style=""font-size:60px;"">+</div>","null","fixation","","","","","","","","","","","",""
"revaluation","264","1083079","0.0-4.0-7.0-0.1","spark_pilot_norest","8731","8","23","Female","","","false","","","","[565.8999999761581]","./assets/img/canyon/test/1.jpg","[""ArrowDown""]","first stage test","canyon","0","{""ArrowUp,ArrowLeft"":2,""ArrowUp,ArrowRight"":11,""ArrowDown,ArrowLeft"":8,""ArrowDown,ArrowRight"":27}","true","ArrowDown","false","revaluation","1","","","",""
"html-keyboard-response","265","1083581","0.0-4.0-7.0-1.1","spark_pilot_norest","8731","8","23","Female","","","","","","","null","<div style=""font-size:60px;"">+</div>","null","fixation","","","","","","","","","","","",""
"revaluation","266","1083903","0.0-4.0-7.0-0.2","spark_pilot_norest","8731","8","23","Female","","","false","","","","[318.7000000476837]","./assets/img/canyon/test/0.jpg","[""ArrowDown""]","first stage test","canyon","0","{""ArrowUp,ArrowLeft"":2,""ArrowUp,ArrowRight"":11,""ArrowDown,ArrowLeft"":8,""ArrowDown,ArrowRight"":27}","true","ArrowDown","false","revaluation","1","","","",""
"html-keyboard-response","267","1084408","0.0-4.0-7.0-1.2","spark_pilot_norest","8731","8","23","Female","","","","","","","null","<div style=""font-size:60px;"">+</div>","null","fixation","","","","","","","","","","","",""
"revaluation","268","1084689","0.0-4.0-7.0-0.3","spark_pilot_norest","8731","8","23","Female","","","false","","","","[277.1999999284744]","./assets/img/canyon/test/3.jpg","[""ArrowDown""]","first stage test","canyon","0","{""ArrowUp,ArrowLeft"":2,""ArrowUp,ArrowRight"":11,""ArrowDown,ArrowLeft"":8,""ArrowDown,ArrowRight"":27}","true","ArrowDown","false","revaluation","1","","","",""
"html-keyboard-response","269","1085196","0.0-4.0-7.0-1.3","spark_pilot_norest","8731","8","23","Female","","","","","","","null","<div style=""font-size:60px;"">+</div>","null","fixation","","","","","","","","","","","",""
"learning-instructions","270","1098548","0.0-4.0-8.0-0.0","spark_pilot_norest","8731","8","23","Female","","","","","","","null","<p> Now you will see the animals again and can search their chests for treasure. </p>
            <p> This time, you will not see how much treasure you earned, but you will earn more bonus money for making better choices. </p>","","instructions","","","","","","","","","","","",""
"html-keyboard-response","271","1099559","0.0-4.0-9.0-0.0","spark_pilot_norest","8731","8","23","Female","","","","","","","null","<div style=""font-size:100px;color:red;"">Starting in...</div>","null","","","","","","","","","","","","",""
"html-keyboard-response","272","1100568","0.0-4.0-9.0-1.0","spark_pilot_norest","8731","8","23","Female","","","","","","","null","<div style=""font-size:200px;color:red;"">3</div>","null","","","","","","","","","","","","",""
"html-keyboard-response","273","1101572","0.0-4.0-9.0-2.0","spark_pilot_norest","8731","8","23","Female","","","","","","","null","<div style=""font-size:200px;color:red;"">2</div>","null","","","","","","","","","","","","",""
"html-keyboard-response","274","1102584","0.0-4.0-9.0-3.0","spark_pilot_norest","8731","8","23","Female","","","","","","","null","<div style=""font-size:200px;color:red;"">1</div>","null","","","","","","","","","","","","",""
"revaluation","275","1103216","0.0-4.0-10.0-0.0","spark_pilot_norest","8731","8","23","Female","","","false","","","","[627.6000000238419]","./assets/img/canyon/animals/lion.jpg","[""ArrowLeft""]","second stage test","canyon","0","{""ArrowUp,ArrowLeft"":2,""ArrowUp,ArrowRight"":11,""ArrowDown,ArrowLeft"":8,""ArrowDown,ArrowRight"":27}","false","ArrowUp,ArrowLeft","","revaluation","1","","","",""
"html-keyboard-response","276","1103723","0.0-4.0-10.0-1.0","spark_pilot_norest","8731","8","23","Female","","","","","","","null","<div style=""font-size:60px;"">+</div>","null","fixation","","","","","","","","","","","",""
"revaluation","277","1104566","0.0-4.0-10.0-0.1","spark_pilot_norest","8731","8","23","Female","","","false","","","","[838.2000000476837]","./assets/img/canyon/animals/lion.jpg","[""ArrowRight""]","second stage test","canyon","0","{""ArrowUp,ArrowLeft"":2,""ArrowUp,ArrowRight"":11,""ArrowDown,ArrowLeft"":8,""ArrowDown,ArrowRight"":27}","true","ArrowUp,ArrowRight","","revaluation","1","","","",""
"html-keyboard-response","278","1105067","0.0-4.0-10.0-1.1","spark_pilot_norest","8731","8","23","Female","","","","","","","null","<div style=""font-size:60px;"">+</div>","null","fixation","","","","","","","","","","","",""
"revaluation","279","1105996","0.0-4.0-10.0-0.2","spark_pilot_norest","8731","8","23","Female","","","false","","","","[923.5]","./assets/img/canyon/animals/lion.jpg","[""ArrowLeft""]","second stage test","canyon","0","{""ArrowUp,ArrowLeft"":2,""ArrowUp,ArrowRight"":11,""ArrowDown,ArrowLeft"":8,""ArrowDown,ArrowRight"":27}","false","ArrowUp,ArrowLeft","","revaluation","1","","","",""
"html-keyboard-response","280","1106503","0.0-4.0-10.0-1.2","spark_pilot_norest","8731","8","23","Female","","","","","","","null","<div style=""font-size:60px;"">+</div>","null","fixation","","","","","","","","","","","",""
"revaluation","281","1106770","0.0-4.0-10.0-0.3","spark_pilot_norest","8731","8","23","Female","","","false","","","","[262.60000002384186]","./assets/img/canyon/animals/lion.jpg","[""ArrowRight""]","second stage test","canyon","0","{""ArrowUp,ArrowLeft"":2,""ArrowUp,ArrowRight"":11,""ArrowDown,ArrowLeft"":8,""ArrowDown,ArrowRight"":27}","true","ArrowUp,ArrowRight","","revaluation","1","","","",""
"html-keyboard-response","282","1107279","0.0-4.0-10.0-1.3","spark_pilot_norest","8731","8","23","Female","","","","","","","null","<div style=""font-size:60px;"">+</div>","null","fixation","","","","","","","","","","","",""
"revaluation","283","1108088","0.0-4.0-10.0-0.4","spark_pilot_norest","8731","8","23","Female","","","false","","","","[804.6000000238419]","./assets/img/canyon/animals/giraffe.jpg","[""ArrowRight""]","second stage test","canyon","0","{""ArrowUp,ArrowLeft"":2,""ArrowUp,ArrowRight"":11,""ArrowDown,ArrowLeft"":8,""ArrowDown,ArrowRight"":27}","true","ArrowDown,ArrowRight","","revaluation","1","","","",""
"html-keyboard-response","284","1108595","0.0-4.0-10.0-1.4","spark_pilot_norest","8731","8","23","Female","","","","","","","null","<div style=""font-size:60px;"">+</div>","null","fixation","","","","","","","","","","","",""
"revaluation","285","1109128","0.0-4.0-10.0-0.5","spark_pilot_norest","8731","8","23","Female","","","false","","","","[530]","./assets/img/canyon/animals/giraffe.jpg","[""ArrowRight""]","second stage test","canyon","0","{""ArrowUp,ArrowLeft"":2,""ArrowUp,ArrowRight"":11,""ArrowDown,ArrowLeft"":8,""ArrowDown,ArrowRight"":27}","true","ArrowDown,ArrowRight","","revaluation","1","","","",""
"html-keyboard-response","286","1109635","0.0-4.0-10.0-1.5","spark_pilot_norest","8731","8","23","Female","","","","","","","null","<div style=""font-size:60px;"">+</div>","null","fixation","","","","","","","","","","","",""
"revaluation","287","1110130","0.0-4.0-10.0-0.6","spark_pilot_norest","8731","8","23","Female","","","false","","","","[490.2999999523163]","./assets/img/canyon/animals/giraffe.jpg","[""ArrowRight""]","second stage test","canyon","0","{""ArrowUp,ArrowLeft"":2,""ArrowUp,ArrowRight"":11,""ArrowDown,ArrowLeft"":8,""ArrowDown,ArrowRight"":27}","true","ArrowDown,ArrowRight","","revaluation","1","","","",""
"html-keyboard-response","288","1110635","0.0-4.0-10.0-1.6","spark_pilot_norest","8731","8","23","Female","","","","","","","null","<div style=""font-size:60px;"">+</div>","null","fixation","","","","","","","","","","","",""
"revaluation","289","1111006","0.0-4.0-10.0-0.7","spark_pilot_norest","8731","8","23","Female","","","false","","","","[366.59999990463257]","./assets/img/canyon/animals/giraffe.jpg","[""ArrowRight""]","second stage test","canyon","0","{""ArrowUp,ArrowLeft"":2,""ArrowUp,ArrowRight"":11,""ArrowDown,ArrowLeft"":8,""ArrowDown,ArrowRight"":27}","true","ArrowDown,ArrowRight","","revaluation","1","","","",""
"html-keyboard-response","290","1111516","0.0-4.0-10.0-1.7","spark_pilot_norest","8731","8","23","Female","","","","","","","null","<div style=""font-size:60px;"">+</div>","null","fixation","","","","","","","","","","","",""
"learning-instructions","291","1115374","0.0-4.0-0.1-0.2","spark_pilot_norest","8731","8","23","Female","","","","","","","1149.7000000476837","<p> This time you are searching for treasure in the <b>ocean</b>.</p>","","instructions","","","","","","","","","","","",""
"learning-instructions","292","1134173","0.0-4.0-0.1-0.3","spark_pilot_norest","8731","8","23","Female","","","","","","","1541","<p><b>New</b> animals with <b>new</b> treasure chests live here. You need to explore to discover where the animal with the best treasure chest is.</p>
                    <p> Like before, once you figure out which animal has the chest with the most treasure, you should try to get to that animal and select that chest! </p>","","instructions","","","","","","","","","","","",""
"learning-instructions","293","1151721","0.0-4.0-1.1-0.1","spark_pilot_norest","8731","8","23","Female","","","","","","","2820.1999999284744","<p> Remember, when you see a picture of the place, use the up and down keys to <b>find an animal</b>.</p>
            <p> When you encounter an animal, you should use the left and right keys to <b>select a treasure chest</b>.</p>
            <p> Don't forget to look out for the robber! </p>","","instructions","","","","","","","","","","","",""
"revaluation","294","1157746","0.0-4.0-2.1-0.50","spark_pilot_norest","8731","8","23","Female","","","false","","","","[1230.5,460.7999999523163]","./assets/img/ocean/memory/41.jpg","[""ArrowUp"",""ArrowLeft""]","value training","ocean","23","{""ArrowUp,ArrowLeft"":23,""ArrowUp,ArrowRight"":10,""ArrowDown,ArrowLeft"":8,""ArrowDown,ArrowRight"":30}","false","ArrowUp,ArrowLeft","false","original","2","0","","",""
"html-keyboard-response","295","1158255","0.0-4.0-2.1-1.50","spark_pilot_norest","8731","8","23","Female","","","","","","","null","<div style=""font-size:60px;"">+</div>","null","fixation","","","","","","","","","1","","",""
"revaluation","296","1164287","0.0-4.0-2.1-0.51","spark_pilot_norest","8731","8","23","Female","","","false","","","","[578.5,329.89999997615814]","./assets/img/ocean/memory/38.jpg","[""ArrowUp"",""ArrowRight""]","value training","ocean","10","{""ArrowUp,ArrowLeft"":23,""ArrowUp,ArrowRight"":10,""ArrowDown,ArrowLeft"":8,""ArrowDown,ArrowRight"":30}","false","ArrowUp,ArrowRight","false","original","2","2","","",""
"html-keyboard-response","297","1164799","0.0-4.0-2.1-1.51","spark_pilot_norest","8731","8","23","Female","","","","","","","null","<div style=""font-size:60px;"">+</div>","null","fixation","","","","","","","","","3","","",""
"revaluation","298","1170832","0.0-4.0-2.1-0.52","spark_pilot_norest","8731","8","23","Female","","","false","","","","[575.1999999284744,685.2000000476837]","./assets/img/ocean/memory/1.jpg","[""ArrowDown"",""ArrowLeft""]","value training","ocean","8","{""ArrowUp,ArrowLeft"":23,""ArrowUp,ArrowRight"":10,""ArrowDown,ArrowLeft"":8,""ArrowDown,ArrowRight"":30}","false","ArrowDown,ArrowLeft","false","original","2","4","","",""
"html-keyboard-response","299","1171342","0.0-4.0-2.1-1.52","spark_pilot_norest","8731","8","23","Female","","","","","","","null","<div style=""font-size:60px;"">+</div>","null","fixation","","","","","","","","","5","","",""
"revaluation","300","1177371","0.0-4.0-2.1-0.53","spark_pilot_norest","8731","8","23","Female","","","false","","","","[675.5,285.2000000476837]","./assets/img/ocean/memory/16.jpg","[""ArrowDown"",""ArrowRight""]","value training","ocean","30","{""ArrowUp,ArrowLeft"":23,""ArrowUp,ArrowRight"":10,""ArrowDown,ArrowLeft"":8,""ArrowDown,ArrowRight"":30}","true","ArrowDown,ArrowRight","false","original","2","6","","",""
"html-keyboard-response","301","1177874","0.0-4.0-2.1-1.53","spark_pilot_norest","8731","8","23","Female","","","","","","","null","<div style=""font-size:60px;"">+</div>","null","fixation","","","","","","","","","7","","",""
"revaluation","302","1183899","0.0-4.0-2.1-0.54","spark_pilot_norest","8731","8","23","Female","","","false","","","","[698.7000000476837,361.6999999284744]","./assets/img/ocean/memory/12.jpg","[""ArrowDown"",""ArrowRight""]","value training","ocean","30","{""ArrowUp,ArrowLeft"":23,""ArrowUp,ArrowRight"":10,""ArrowDown,ArrowLeft"":8,""ArrowDown,ArrowRight"":30}","true","ArrowDown,ArrowRight","false","original","2","8","","",""
"html-keyboard-response","303","1184405","0.0-4.0-2.1-1.54","spark_pilot_norest","8731","8","23","Female","","","","","","","null","<div style=""font-size:60px;"">+</div>","null","fixation","","","","","","","","","9","","",""
"revaluation","304","1190427","0.0-4.0-2.1-0.55","spark_pilot_norest","8731","8","23","Female","","","false","","","","[712.3999999761581,487.60000002384186]","./assets/img/ocean/memory/9.jpg","[""ArrowDown"",""ArrowRight""]","value training","ocean","30","{""ArrowUp,ArrowLeft"":23,""ArrowUp,ArrowRight"":10,""ArrowDown,ArrowLeft"":8,""ArrowDown,ArrowRight"":30}","true","ArrowDown,ArrowRight","false","original","2","10","","",""
"html-keyboard-response","305","1190933","0.0-4.0-2.1-1.55","spark_pilot_norest","8731","8","23","Female","","","","","","","null","<div style=""font-size:60px;"">+</div>","null","fixation","","","","","","","","","11","","",""
"revaluation","306","1196966","0.0-4.0-2.1-0.56","spark_pilot_norest","8731","8","23","Female","","","false","","","","[915.6000000238419,629.6000000238419]","./assets/img/ocean/memory/0.jpg","[""ArrowDown"",""ArrowRight""]","value training","ocean","30","{""ArrowUp,ArrowLeft"":23,""ArrowUp,ArrowRight"":10,""ArrowDown,ArrowLeft"":8,""ArrowDown,ArrowRight"":30}","true","ArrowDown,ArrowRight","false","original","2","12","","",""
"html-keyboard-response","307","1197477","0.0-4.0-2.1-1.56","spark_pilot_norest","8731","8","23","Female","","","","","","","null","<div style=""font-size:60px;"">+</div>","null","fixation","","","","","","","","","13","","",""
"revaluation","308","1203499","0.0-4.0-2.1-0.57","spark_pilot_norest","8731","8","23","Female","","","false","","","","[573.8999999761581,522.1000000238419]","./assets/img/ocean/memory/6.jpg","[""ArrowDown"",""ArrowRight""]","value training","ocean","30","{""ArrowUp,ArrowLeft"":23,""ArrowUp,ArrowRight"":10,""ArrowDown,ArrowLeft"":8,""ArrowDown,ArrowRight"":30}","true","ArrowDown,ArrowRight","false","original","2","14","","",""
"html-keyboard-response","309","1204004","0.0-4.0-2.1-1.57","spark_pilot_norest","8731","8","23","Female","","","","","","","null","<div style=""font-size:60px;"">+</div>","null","fixation","","","","","","","","","15","","",""
