"trial_type","trial_index","time_elapsed","internal_node_id","task_version","subject_id","assigned_condition","age","gender","success","timeout","failed_images","failed_audio","failed_video","browser_interaction","rt","stimulus","response","task_part","environment","score","rewardMap","correct","fullState","isCatch","condition","order","trial_num","key_press","ground_truth","bonus"
"pavlovia","0","1095","0.0-0.0","spark_pilot_norest","9147","5","8","Male","","","","","","","","","","","","","","","","","","","","","",""
"preload","1","53181","0.0-1.0","spark_pilot_norest","9147","5","8","Male","true","false","[]","[]","[]","[{""event"":""fullscreenenter"",""trial"":2,""time"":67205},{""event"":""blur"",""trial"":496,""time"":1796819},{""event"":""focus"",""trial"":498,""time"":1806569}]","","","","","","","","","","","","","","","",""
"fullscreen","2","68198","0.0-2.0","spark_pilot_norest","9147","5","8","Male","true","","","","","","","","","","","","","","","","","","","","",""
"audio-button-response","3","73310","0.0-3.0-0.0-0.0","spark_pilot_norest","9147","5","8","Male","","","","","","","5013","./assets/audio/audiotest/turtle.mp3","2","audio_test","","","","","","","","","","","",""
"learning-instructions","4","83483","0.0-3.0-1.0-0.0","spark_pilot_norest","9147","5","8","Male","","","","","","","3187.5","<p> Welcome! Please remember to stay in fullscreen mode and don't click away from the experiment. </p>","","instructions","","","","","","","","","","","",""
"learning-instructions","5","93766","0.0-3.0-1.0-0.1","spark_pilot_norest","9147","5","8","Male","","","","","","","1867.2999999998137","<p> Today you will be playing a game to earn treasure. </p>
            <p> At the end of the experiment, you will earn a bonus based on how much treasure you find. </p>
            <img src='./assets/img/instructions/treasure.jpg' class='instructions-image'>","","instructions","","","","","","","","","","","",""
"learning-instructions","6","103641","0.0-3.0-1.0-0.2","spark_pilot_norest","9147","5","8","Male","","","","","","","1607.6000000000931","<p> Animals have hidden treasure in treasure chests. </p>
            <p> You need to first find an animal and then choose which of their treasure chests to search. </p>
            <img src='./assets/img/space/animals/cat.jpg' class='instructions-image'>","","instructions","","","","","","","","","","","",""
"learning-instructions","7","117486","0.0-3.0-1.0-0.3","spark_pilot_norest","9147","5","8","Male","","","","","","","680.8999999999069","<p> In each round, you will search for treasure in a different place. In the real game, there will be two rounds. </p>
            <p> You will begin with a separate, practice round where you will search for treasure in outer space. </p>
            <img src='./assets/img/space/0.jpg' class='instructions-image'>","","instructions","","","","","","","","","","","",""
"learning-instructions","8","130550","0.0-3.0-1.0-0.4","spark_pilot_norest","9147","5","8","Male","","","","","","","1648","<p> On every turn, you will see a picture of the place that you are in, but the specific image may be different each time. </p>
            <p> For example, both of these images mean you are in outer space. </p>
            <img src='./assets/img/instructions/outerspace.jpg' class='instructions-image'>","","instructions","","","","","","","","","","","",""
"learning-instructions","9","139472","0.0-3.0-1.0-0.5","spark_pilot_norest","9147","5","8","Male","","","","","","","1077.5","<p> You need to decide which direction to travel in. </p>
            <p> You can choose between going <b>up or down</b> by using the arrow keys. </p>
            <img src='./assets/img/instructions/updown.jpg' class='instructions-image'>","","instructions","","","","","","","","","","","",""
"learning-instructions","10","149997","0.0-3.0-1.0-0.6","spark_pilot_norest","9147","5","8","Male","","","","","","","1703.8000000000466","<p> You will have <b>2 seconds</b> to make your choice. </p>
            <p> If you do not make a choice within 2 seconds, you will not find an animal or earn treasure. </p>
            <img src='./assets/img/instructions/2seconds.jpg' class='instructions-image'>","","instructions","","","","","","","","","","","",""
"learning-instructions","11","158525","0.0-3.0-1.0-0.7","spark_pilot_norest","9147","5","8","Male","","","","","","","1484.8000000000466","<p> Let’s try practicing that now! </p>
            <p> When you see a picture of the place you are in, press the <b>up</b> key to travel up. </p>
            <img src='./assets/img/instructions/pressUp.jpg' class='instructions-image'>","","instructions","","","","","","","","","","","",""
"revaluation","12","162543","0.0-3.0-2.0-0.0","spark_pilot_norest","9147","5","8","Male","","true","","","","","[]","./assets/img/space/0.jpg","[]","first stage practice","space","-5","null","null","","false","","","","","",""
"html-keyboard-response","13","163046","0.0-3.0-2.0-1.0","spark_pilot_norest","9147","5","8","Male","","","","","","","null","<div style=""font-size:60px;"">+</div>","null","fixation","","","","","","","","","","","",""
"revaluation","14","167063","0.0-3.0-2.0-0.1","spark_pilot_norest","9147","5","8","Male","","true","","","","","[]","./assets/img/space/1.jpg","[]","first stage practice","space","-5","null","null","","false","","","","","",""
"html-keyboard-response","15","167567","0.0-3.0-2.0-1.1","spark_pilot_norest","9147","5","8","Male","","","","","","","null","<div style=""font-size:60px;"">+</div>","null","fixation","","","","","","","","","","","",""
"revaluation","16","171583","0.0-3.0-2.0-0.2","spark_pilot_norest","9147","5","8","Male","","false","","","","","[421.0999999998603]","./assets/img/space/2.jpg","[""ArrowUp""]","first stage practice","space","0","null","null","ArrowUp","false","","","","","",""
"html-keyboard-response","17","172086","0.0-3.0-2.0-1.2","spark_pilot_norest","9147","5","8","Male","","","","","","","null","<div style=""font-size:60px;"">+</div>","null","fixation","","","","","","","","","","","",""
"learning-instructions","18","179622","0.0-3.0-3.0-0.0","spark_pilot_norest","9147","5","8","Male","","","","","","","2827.399999999907","<p> Great job! Now try pressing the <b>down</b> key to travel down. </p>
            <img src='./assets/img/instructions/pressDown.jpg' class='instructions-image'>","","instructions","","","","","","","","","","","",""
"revaluation","19","183638","0.0-3.0-4.0-0.0","spark_pilot_norest","9147","5","8","Male","","false","","","","","[875]","./assets/img/space/3.jpg","[""ArrowDown""]","first stage practice","space","0","null","null","ArrowDown","false","","","","","",""
"html-keyboard-response","20","184143","0.0-3.0-4.0-1.0","spark_pilot_norest","9147","5","8","Male","","","","","","","null","<div style=""font-size:60px;"">+</div>","null","fixation","","","","","","","","","","","",""
"revaluation","21","188158","0.0-3.0-4.0-0.1","spark_pilot_norest","9147","5","8","Male","","false","","","","","[1528.1000000000931]","./assets/img/space/4.jpg","[""ArrowDown""]","first stage practice","space","0","null","null","ArrowDown","false","","","","","",""
"html-keyboard-response","22","188662","0.0-3.0-4.0-1.1","spark_pilot_norest","9147","5","8","Male","","","","","","","null","<div style=""font-size:60px;"">+</div>","null","fixation","","","","","","","","","","","",""
"revaluation","23","192678","0.0-3.0-4.0-0.2","spark_pilot_norest","9147","5","8","Male","","false","","","","","[1181.6000000000931]","./assets/img/space/5.jpg","[""ArrowDown""]","first stage practice","space","0","null","null","ArrowDown","false","","","","","",""
"html-keyboard-response","24","193182","0.0-3.0-4.0-1.2","spark_pilot_norest","9147","5","8","Male","","","","","","","null","<div style=""font-size:60px;"">+</div>","null","fixation","","","","","","","","","","","",""
"learning-instructions","25","205063","0.0-3.0-5.0-0.0","spark_pilot_norest","9147","5","8","Male","","","","","","","2018","<p> The animals don’t move, so the animal in the upper part of a place will stay in the upper part of a place, and the animal in the lower part of a place will stay in the lower part of a place. </p>","","instructions","","","","","","","","","","","",""
"learning-instructions","26","215530","0.0-3.0-5.0-0.1","spark_pilot_norest","9147","5","8","Male","","","","","","","1317.1999999999534","<p> Each animal has two treasure chests for you to choose from. </p>
            <p> The amount of treasure in each chest can range from <b> 0 to 40 pieces.</b></p>","","instructions","","","","","","","","","","","",""
"learning-instructions","27","228090","0.0-3.0-5.0-0.2","spark_pilot_norest","9147","5","8","Male","","","","","","","1364.6999999999534","<p> You should decide which chest to search for treasure by using the <b>left</b> and <b>right</b> arrow keys. </p>
            <p><b> Pay attention to which animal is on the screen, as the animals have different treasure chests. </b></p>
            <img src='./assets/img/instructions/leftright.jpg' class='instructions-image'>","","instructions","","","","","","","","","","","",""
"learning-instructions","28","236074","0.0-3.0-5.0-0.3","spark_pilot_norest","9147","5","8","Male","","","","","","","1615.0999999998603","<p> Let’s try practicing that now. </p>
            <p> When you see an animal, choose which chest to search for treasure. </p>
            <img src='./assets/img/instructions/chooseChest.jpg' class='instructions-image'>","","instructions","","","","","","","","","","","",""
"revaluation","29","240089","0.0-3.0-6.0-0.0","spark_pilot_norest","9147","5","8","Male","","false","","","","","[1066.6000000000931]","./assets/img/space/animals/rabbit.jpg","[""ArrowLeft""]","second stage practice","space","15","{""ArrowUp,ArrowLeft"":3,""ArrowUp,ArrowRight"":36,""ArrowDown,ArrowLeft"":15,""ArrowDown,ArrowRight"":23}","false","ArrowDown,ArrowLeft","","","","","","",""
"html-keyboard-response","30","240598","0.0-3.0-6.0-1.0","spark_pilot_norest","9147","5","8","Male","","","","","","","null","<div style=""font-size:60px;"">+</div>","null","fixation","","","","","","","","","","","",""
"revaluation","31","244614","0.0-3.0-6.0-0.1","spark_pilot_norest","9147","5","8","Male","","false","","","","","[847.5999999998603]","./assets/img/space/animals/rabbit.jpg","[""ArrowLeft""]","second stage practice","space","15","{""ArrowUp,ArrowLeft"":3,""ArrowUp,ArrowRight"":36,""ArrowDown,ArrowLeft"":15,""ArrowDown,ArrowRight"":23}","false","ArrowDown,ArrowLeft","","","","","","",""
"html-keyboard-response","32","245118","0.0-3.0-6.0-1.1","spark_pilot_norest","9147","5","8","Male","","","","","","","null","<div style=""font-size:60px;"">+</div>","null","fixation","","","","","","","","","","","",""
"revaluation","33","249135","0.0-3.0-6.0-0.2","spark_pilot_norest","9147","5","8","Male","","false","","","","","[670.8000000000466]","./assets/img/space/animals/cat.jpg","[""ArrowRight""]","second stage practice","space","36","{""ArrowUp,ArrowLeft"":3,""ArrowUp,ArrowRight"":36,""ArrowDown,ArrowLeft"":15,""ArrowDown,ArrowRight"":23}","true","ArrowUp,ArrowRight","","","","","","",""
"html-keyboard-response","34","249639","0.0-3.0-6.0-1.2","spark_pilot_norest","9147","5","8","Male","","","","","","","null","<div style=""font-size:60px;"">+</div>","null","fixation","","","","","","","","","","","",""
"revaluation","35","253654","0.0-3.0-6.0-0.3","spark_pilot_norest","9147","5","8","Male","","false","","","","","[698.8000000000466]","./assets/img/space/animals/cat.jpg","[""ArrowRight""]","second stage practice","space","36","{""ArrowUp,ArrowLeft"":3,""ArrowUp,ArrowRight"":36,""ArrowDown,ArrowLeft"":15,""ArrowDown,ArrowRight"":23}","true","ArrowUp,ArrowRight","","","","","","",""
"html-keyboard-response","36","254158","0.0-3.0-6.0-1.3","spark_pilot_norest","9147","5","8","Male","","","","","","","null","<div style=""font-size:60px;"">+</div>","null","fixation","","","","","","","","","","","",""
"learning-instructions","37","274089","0.0-3.0-7.0-0.0","spark_pilot_norest","9147","5","8","Male","","","","","","","3108.4000000001397","<p> Great job. Now let’s try putting it together. </p>
            <p> On each turn, you will first see a picture to remind you of the place you are in, and you need to choose whether to go up or down. </p>
            <p> Then you will see an animal and choose which of its chests to search for treasure. </p>","","instructions","","","","","","","","","","","",""
"learning-instructions","38","283199","0.0-3.0-7.0-0.1","spark_pilot_norest","9147","5","8","Male","","","","","","","836.8999999999069","<p> When you choose whether to go up or down, try to go to the animal with the chest with the most treasure. </p>
            <p> Try practicing that now! </p>","","instructions","","","","","","","","","","","",""
"revaluation","39","289223","0.0-3.0-8.0-0.0","spark_pilot_norest","9147","5","8","Male","","false","","","","","[1105.1999999999534,797.9000000001397]","./assets/img/space/6.jpg","[""ArrowUp"",""ArrowRight""]","full practice","space","36","{""ArrowUp,ArrowLeft"":3,""ArrowUp,ArrowRight"":36,""ArrowDown,ArrowLeft"":15,""ArrowDown,ArrowRight"":23}","true","ArrowUp,ArrowRight","false","","","","","",""
"html-keyboard-response","40","289726","0.0-3.0-8.0-1.0","spark_pilot_norest","9147","5","8","Male","","","","","","","null","<div style=""font-size:60px;"">+</div>","null","fixation","","","","","","","","","","","",""
"revaluation","41","295751","0.0-3.0-8.0-0.1","spark_pilot_norest","9147","5","8","Male","","false","","","","","[415.5999999998603,980]","./assets/img/space/7.jpg","[""ArrowDown"",""ArrowRight""]","full practice","space","23","{""ArrowUp,ArrowLeft"":3,""ArrowUp,ArrowRight"":36,""ArrowDown,ArrowLeft"":15,""ArrowDown,ArrowRight"":23}","false","ArrowDown,ArrowRight","false","","","","","",""
"html-keyboard-response","42","296254","0.0-3.0-8.0-1.1","spark_pilot_norest","9147","5","8","Male","","","","","","","null","<div style=""font-size:60px;"">+</div>","null","fixation","","","","","","","","","","","",""
"revaluation","43","302278","0.0-3.0-8.0-0.2","spark_pilot_norest","9147","5","8","Male","","false","","","","","[889.2999999998137,659.5]","./assets/img/space/8.jpg","[""ArrowDown"",""ArrowLeft""]","full practice","space","15","{""ArrowUp,ArrowLeft"":3,""ArrowUp,ArrowRight"":36,""ArrowDown,ArrowLeft"":15,""ArrowDown,ArrowRight"":23}","false","ArrowDown,ArrowLeft","false","","","","","",""
"html-keyboard-response","44","302782","0.0-3.0-8.0-1.2","spark_pilot_norest","9147","5","8","Male","","","","","","","null","<div style=""font-size:60px;"">+</div>","null","fixation","","","","","","","","","","","",""
"revaluation","45","308807","0.0-3.0-8.0-0.3","spark_pilot_norest","9147","5","8","Male","","false","","","","","[908,811]","./assets/img/space/9.jpg","[""ArrowUp"",""ArrowRight""]","full practice","space","36","{""ArrowUp,ArrowLeft"":3,""ArrowUp,ArrowRight"":36,""ArrowDown,ArrowLeft"":15,""ArrowDown,ArrowRight"":23}","true","ArrowUp,ArrowRight","false","","","","","",""
"html-keyboard-response","46","309310","0.0-3.0-8.0-1.3","spark_pilot_norest","9147","5","8","Male","","","","","","","null","<div style=""font-size:60px;"">+</div>","null","fixation","","","","","","","","","","","",""
"revaluation","47","315334","0.0-3.0-8.0-0.4","spark_pilot_norest","9147","5","8","Male","","false","","","","","[1809.1000000000931,1366]","./assets/img/space/10.jpg","[""ArrowDown"",""ArrowLeft""]","full practice","space","15","{""ArrowUp,ArrowLeft"":3,""ArrowUp,ArrowRight"":36,""ArrowDown,ArrowLeft"":15,""ArrowDown,ArrowRight"":23}","false","ArrowDown,ArrowLeft","false","","","","","",""
"html-keyboard-response","48","315838","0.0-3.0-8.0-1.4","spark_pilot_norest","9147","5","8","Male","","","","","","","null","<div style=""font-size:60px;"">+</div>","null","fixation","","","","","","","","","","","",""
"learning-instructions","49","328350","0.0-3.0-9.0-0.0","spark_pilot_norest","9147","5","8","Male","","","","","","","2208.6999999999534","<p> One last thing: sometimes, you will see a robber. The robber can be anywhere in the picture. </p>
            <p> If you do not stop them, you will lose treasure. </p>
            <img src='./assets/img/instructions/robber.jpg' class='instructions-image'>","","instructions","","","","","","","","","","","",""
"learning-instructions","50","336207","0.0-3.0-9.0-0.1","spark_pilot_norest","9147","5","8","Male","","","","","","","678.8000000000466","<p> If you see the robber, you should <b>press the space bar</b> rather than using the arrow keys. </p>
            <p> Try practicing that now! </p>","","instructions","","","","","","","","","","","",""
"revaluation","51","340223","0.0-3.0-10.0-0.0","spark_pilot_norest","9147","5","8","Male","","false","","","","","[1163.1999999999534]","./assets/img/space/catch/0.jpg","[""spaceBar""]","catch practice","space","0","{""ArrowUp,ArrowLeft"":3,""ArrowUp,ArrowRight"":36,""ArrowDown,ArrowLeft"":15,""ArrowDown,ArrowRight"":23}","true","spaceBar","true","","","","","",""
"html-keyboard-response","52","340726","0.0-3.0-10.0-1.0","spark_pilot_norest","9147","5","8","Male","","","","","","","null","<div style=""font-size:60px;"">+</div>","null","fixation","","","","","","","","","","","",""
"revaluation","53","344743","0.0-3.0-10.0-0.1","spark_pilot_norest","9147","5","8","Male","","false","","","","","[927.5]","./assets/img/space/catch/1.jpg","[""spaceBar""]","catch practice","space","0","{""ArrowUp,ArrowLeft"":3,""ArrowUp,ArrowRight"":36,""ArrowDown,ArrowLeft"":15,""ArrowDown,ArrowRight"":23}","true","spaceBar","true","","","","","",""
"html-keyboard-response","54","345246","0.0-3.0-10.0-1.1","spark_pilot_norest","9147","5","8","Male","","","","","","","null","<div style=""font-size:60px;"">+</div>","null","fixation","","","","","","","","","","","",""
"revaluation","55","349262","0.0-3.0-10.0-0.2","spark_pilot_norest","9147","5","8","Male","","false","","","","","[597.3000000000466]","./assets/img/space/catch/2.jpg","[""spaceBar""]","catch practice","space","0","{""ArrowUp,ArrowLeft"":3,""ArrowUp,ArrowRight"":36,""ArrowDown,ArrowLeft"":15,""ArrowDown,ArrowRight"":23}","true","spaceBar","true","","","","","",""
"html-keyboard-response","56","349767","0.0-3.0-10.0-1.2","spark_pilot_norest","9147","5","8","Male","","","","","","","null","<div style=""font-size:60px;"">+</div>","null","fixation","","","","","","","","","","","",""
"learning-instructions","57","356862","0.0-3.0-11.0-0.0-0.0","spark_pilot_norest","9147","5","8","Male","","","","","","","1825.1999999999534","<p> Now, you will practice a shortened version of the game to get a sense of how it all fits together. </p>","","instructions","","","","","","","","","","","",""
"learning-instructions","58","360996","0.0-3.0-11.0-0.0-0.1","spark_pilot_norest","9147","5","8","Male","","","","","","","935.2000000001863","<p>This time you are searching for treasure in outer space.</p>","","instructions","","","","","","","","","","","",""
"learning-instructions","59","377075","0.0-3.0-11.0-1.0-0.0","spark_pilot_norest","9147","5","8","Male","","","","","","","1302.3000000000466","<p> Remember, when you see a picture of the place, use the up and down keys to <b>find an animal</b>.</p>
            <p> When you encounter an animal, you should use the left and right keys to <b>select a treasure chest</b>.</p>
            <p> Don't forget to look out for the robber! </p>","","instructions","","","","","","","","","","","",""
"revaluation","60","383102","0.0-3.0-11.0-2.0-0.0","spark_pilot_norest","9147","5","8","Male","","false","","","","","[1808,1186.1000000000931]","./assets/img/space/11.jpg","[""ArrowDown"",""ArrowLeft""]","practice block","space","15","{""ArrowUp,ArrowLeft"":3,""ArrowUp,ArrowRight"":36,""ArrowDown,ArrowLeft"":15,""ArrowDown,ArrowRight"":23}","false","ArrowDown,ArrowLeft","false","","","","","",""
"html-keyboard-response","61","383606","0.0-3.0-11.0-2.0-1.0","spark_pilot_norest","9147","5","8","Male","","","","","","","null","<div style=""font-size:60px;"">+</div>","null","fixation","","","","","","","","","","","",""
"revaluation","62","389630","0.0-3.0-11.0-2.0-0.1","spark_pilot_norest","9147","5","8","Male","","false","","","","","[1088.6999999999534,674.3999999999069]","./assets/img/space/12.jpg","[""ArrowDown"",""ArrowRight""]","practice block","space","23","{""ArrowUp,ArrowLeft"":3,""ArrowUp,ArrowRight"":36,""ArrowDown,ArrowLeft"":15,""ArrowDown,ArrowRight"":23}","false","ArrowDown,ArrowRight","false","","","","","",""
"html-keyboard-response","63","390134","0.0-3.0-11.0-2.0-1.1","spark_pilot_norest","9147","5","8","Male","","","","","","","null","<div style=""font-size:60px;"">+</div>","null","fixation","","","","","","","","","","","",""
"revaluation","64","396159","0.0-3.0-11.0-2.0-0.2","spark_pilot_norest","9147","5","8","Male","","false","","","","","[831.5999999998603,638.1999999999534]","./assets/img/space/13.jpg","[""ArrowUp"",""ArrowRight""]","practice block","space","36","{""ArrowUp,ArrowLeft"":3,""ArrowUp,ArrowRight"":36,""ArrowDown,ArrowLeft"":15,""ArrowDown,ArrowRight"":23}","true","ArrowUp,ArrowRight","false","","","","","",""
"html-keyboard-response","65","396662","0.0-3.0-11.0-2.0-1.2","spark_pilot_norest","9147","5","8","Male","","","","","","","null","<div style=""font-size:60px;"">+</div>","null","fixation","","","","","","","","","","","",""
"revaluation","66","402687","0.0-3.0-11.0-2.0-0.3","spark_pilot_norest","9147","5","8","Male","","false","","","","","[699,545.5999999998603]","./assets/img/space/14.jpg","[""ArrowUp"",""ArrowRight""]","practice block","space","36","{""ArrowUp,ArrowLeft"":3,""ArrowUp,ArrowRight"":36,""ArrowDown,ArrowLeft"":15,""ArrowDown,ArrowRight"":23}","true","ArrowUp,ArrowRight","false","","","","","",""
"html-keyboard-response","67","403190","0.0-3.0-11.0-2.0-1.3","spark_pilot_norest","9147","5","8","Male","","","","","","","null","<div style=""font-size:60px;"">+</div>","null","fixation","","","","","","","","","","","",""
"revaluation","68","409214","0.0-3.0-11.0-2.0-0.4","spark_pilot_norest","9147","5","8","Male","","false","","","","","[1051.5,615.0999999998603]","./assets/img/space/11.jpg","[""ArrowUp"",""ArrowRight""]","practice block","space","36","{""ArrowUp,ArrowLeft"":3,""ArrowUp,ArrowRight"":36,""ArrowDown,ArrowLeft"":15,""ArrowDown,ArrowRight"":23}","true","ArrowUp,ArrowRight","false","","","","","",""
"html-keyboard-response","69","409718","0.0-3.0-11.0-2.0-1.4","spark_pilot_norest","9147","5","8","Male","","","","","","","null","<div style=""font-size:60px;"">+</div>","null","fixation","","","","","","","","","","","",""
"revaluation","70","415742","0.0-3.0-11.0-2.0-0.5","spark_pilot_norest","9147","5","8","Male","","false","","","","","[526.6999999999534,766.1999999999534]","./assets/img/space/12.jpg","[""ArrowUp"",""ArrowRight""]","practice block","space","36","{""ArrowUp,ArrowLeft"":3,""ArrowUp,ArrowRight"":36,""ArrowDown,ArrowLeft"":15,""ArrowDown,ArrowRight"":23}","true","ArrowUp,ArrowRight","false","","","","","",""
"html-keyboard-response","71","416246","0.0-3.0-11.0-2.0-1.5","spark_pilot_norest","9147","5","8","Male","","","","","","","null","<div style=""font-size:60px;"">+</div>","null","fixation","","","","","","","","","","","",""
"revaluation","72","422271","0.0-3.0-11.0-2.0-0.6","spark_pilot_norest","9147","5","8","Male","","false","","","","","[628.3999999999069,724.6999999999534]","./assets/img/space/13.jpg","[""ArrowUp"",""ArrowRight""]","practice block","space","36","{""ArrowUp,ArrowLeft"":3,""ArrowUp,ArrowRight"":36,""ArrowDown,ArrowLeft"":15,""ArrowDown,ArrowRight"":23}","true","ArrowUp,ArrowRight","false","","","","","",""
"html-keyboard-response","73","422774","0.0-3.0-11.0-2.0-1.6","spark_pilot_norest","9147","5","8","Male","","","","","","","null","<div style=""font-size:60px;"">+</div>","null","fixation","","","","","","","","","","","",""
"revaluation","74","428798","0.0-3.0-11.0-2.0-0.7","spark_pilot_norest","9147","5","8","Male","","false","","","","","[1018.6999999999534,1295.9000000001397]","./assets/img/space/14.jpg","[""ArrowUp"",""ArrowRight""]","practice block","space","36","{""ArrowUp,ArrowLeft"":3,""ArrowUp,ArrowRight"":36,""ArrowDown,ArrowLeft"":15,""ArrowDown,ArrowRight"":23}","true","ArrowUp,ArrowRight","false","","","","","",""
"html-keyboard-response","75","429302","0.0-3.0-11.0-2.0-1.7","spark_pilot_norest","9147","5","8","Male","","","","","","","null","<div style=""font-size:60px;"">+</div>","null","fixation","","","","","","","","","","","",""
"revaluation","76","433319","0.0-3.0-11.0-2.0-0.8","spark_pilot_norest","9147","5","8","Male","","false","","","","","[1033.6999999999534]","./assets/img/space/catch/3.jpg","[""spaceBar""]","practice block","space","0","{""ArrowUp,ArrowLeft"":3,""ArrowUp,ArrowRight"":36,""ArrowDown,ArrowLeft"":15,""ArrowDown,ArrowRight"":23}","true","spaceBar","true","","","","","",""
"html-keyboard-response","77","433822","0.0-3.0-11.0-2.0-1.8","spark_pilot_norest","9147","5","8","Male","","","","","","","null","<div style=""font-size:60px;"">+</div>","null","fixation","","","","","","","","","","","",""
"learning-instructions","78","448923","0.0-3.0-11.0-3.0-0.0","spark_pilot_norest","9147","5","8","Male","","","","","","","2094.5","<p> Now, you will travel with a friend who will choose whether you go up or down first. </p>
            <p> On these turns, you will just see the animal that they found. You will still get to choose which chest to search for treasure.</p>","","instructions","","","","","","","","","","","",""
"revaluation","79","452934","0.0-3.0-11.0-4.0-0.0","spark_pilot_norest","9147","5","8","Male","","false","","","","","[1617.6000000000931]","./assets/img/space/animals/cat.jpg","[""ArrowLeft""]","practice block","space","3","{""ArrowUp,ArrowLeft"":3,""ArrowUp,ArrowRight"":36,""ArrowDown,ArrowLeft"":15,""ArrowDown,ArrowRight"":23}","false","ArrowUp,ArrowLeft","","","","","","",""
"html-keyboard-response","80","453438","0.0-3.0-11.0-4.0-1.0","spark_pilot_norest","9147","5","8","Male","","","","","","","null","<div style=""font-size:60px;"">+</div>","null","fixation","","","","","","","","","","","",""
"revaluation","81","457454","0.0-3.0-11.0-4.0-0.1","spark_pilot_norest","9147","5","8","Male","","false","","","","","[1181.2999999998137]","./assets/img/space/animals/rabbit.jpg","[""ArrowRight""]","practice block","space","23","{""ArrowUp,ArrowLeft"":3,""ArrowUp,ArrowRight"":36,""ArrowDown,ArrowLeft"":15,""ArrowDown,ArrowRight"":23}","true","ArrowDown,ArrowRight","","","","","","",""
"html-keyboard-response","82","457958","0.0-3.0-11.0-4.0-1.1","spark_pilot_norest","9147","5","8","Male","","","","","","","null","<div style=""font-size:60px;"">+</div>","null","fixation","","","","","","","","","","","",""
"revaluation","83","461975","0.0-3.0-11.0-4.0-0.2","spark_pilot_norest","9147","5","8","Male","","false","","","","","[841.9000000001397]","./assets/img/space/animals/rabbit.jpg","[""ArrowLeft""]","practice block","space","15","{""ArrowUp,ArrowLeft"":3,""ArrowUp,ArrowRight"":36,""ArrowDown,ArrowLeft"":15,""ArrowDown,ArrowRight"":23}","false","ArrowDown,ArrowLeft","","","","","","",""
"html-keyboard-response","84","462478","0.0-3.0-11.0-4.0-1.2","spark_pilot_norest","9147","5","8","Male","","","","","","","null","<div style=""font-size:60px;"">+</div>","null","fixation","","","","","","","","","","","",""
"revaluation","85","466495","0.0-3.0-11.0-4.0-0.3","spark_pilot_norest","9147","5","8","Male","","false","","","","","[1841.5]","./assets/img/space/animals/cat.jpg","[""ArrowRight""]","practice block","space","36","{""ArrowUp,ArrowLeft"":3,""ArrowUp,ArrowRight"":36,""ArrowDown,ArrowLeft"":15,""ArrowDown,ArrowRight"":23}","true","ArrowUp,ArrowRight","","","","","","",""
"html-keyboard-response","86","466998","0.0-3.0-11.0-4.0-1.3","spark_pilot_norest","9147","5","8","Male","","","","","","","null","<div style=""font-size:60px;"">+</div>","null","fixation","","","","","","","","","","","",""
"learning-instructions","87","475126","0.0-3.0-11.0-5.0-0.0","spark_pilot_norest","9147","5","8","Male","","","","","","","null","<p> You have almost finished this part of the game! </p>
            <p> We are going to ask you to make a few more choices. </p>","","instructions","","","","","","","","","","","",""
"learning-instructions","88","491158","0.0-3.0-11.0-5.0-0.1","spark_pilot_norest","9147","5","8","Male","","","","","","","null","<p> First, you need to decide whether to go up or down. When you see each picture, use the arrow keys to make your choice. </p>
            <p><b>You will not see which animal you found, but try to get to the one that will give you the most treasure.</b></p>","","instructions","","","","","","","","","","","",""
"html-keyboard-response","89","492166","0.0-3.0-11.0-6.0-0.0","spark_pilot_norest","9147","5","8","Male","","","","","","","null","<div style=""font-size:100px;color:red;"">Starting in...</div>","null","","","","","","","","","","","","",""
"html-keyboard-response","90","493174","0.0-3.0-11.0-6.0-1.0","spark_pilot_norest","9147","5","8","Male","","","","","","","null","<div style=""font-size:200px;color:red;"">3</div>","null","","","","","","","","","","","","",""
"html-keyboard-response","91","494182","0.0-3.0-11.0-6.0-2.0","spark_pilot_norest","9147","5","8","Male","","","","","","","null","<div style=""font-size:200px;color:red;"">2</div>","null","","","","","","","","","","","","",""
"html-keyboard-response","92","495190","0.0-3.0-11.0-6.0-3.0","spark_pilot_norest","9147","5","8","Male","","","","","","","null","<div style=""font-size:200px;color:red;"">1</div>","null","","","","","","","","","","","","",""
"revaluation","93","496090","0.0-3.0-11.0-7.0","spark_pilot_norest","9147","5","8","Male","","false","","","","","[896]","./assets/img/space/15.jpg","[""ArrowUp""]","practice block","space","0","{""ArrowUp,ArrowLeft"":3,""ArrowUp,ArrowRight"":36,""ArrowDown,ArrowLeft"":15,""ArrowDown,ArrowRight"":23}","true","ArrowUp","false","","","","","",""
"html-keyboard-response","94","496598","0.0-3.0-11.0-8.0","spark_pilot_norest","9147","5","8","Male","","","","","","","null","<div style=""font-size:60px;"">+</div>","null","fixation","","","","","","","","","","","",""
"learning-instructions","95","509982","0.0-3.0-11.0-9.0-0.0","spark_pilot_norest","9147","5","8","Male","","","","","","","null","<p> Now you will see the animals again and can search their chests for treasure. </p>
            <p> This time, you will not see how much treasure you earned, but you will earn more bonus money for making better choices. </p>","","instructions","","","","","","","","","","","",""
"html-keyboard-response","96","510991","0.0-3.0-11.0-10.0-0.0","spark_pilot_norest","9147","5","8","Male","","","","","","","null","<div style=""font-size:100px;color:red;"">Starting in...</div>","null","","","","","","","","","","","","",""
"html-keyboard-response","97","511998","0.0-3.0-11.0-10.0-1.0","spark_pilot_norest","9147","5","8","Male","","","","","","","null","<div style=""font-size:200px;color:red;"">3</div>","null","","","","","","","","","","","","",""
"html-keyboard-response","98","513007","0.0-3.0-11.0-10.0-2.0","spark_pilot_norest","9147","5","8","Male","","","","","","","null","<div style=""font-size:200px;color:red;"">2</div>","null","","","","","","","","","","","","",""
"html-keyboard-response","99","514016","0.0-3.0-11.0-10.0-3.0","spark_pilot_norest","9147","5","8","Male","","","","","","","null","<div style=""font-size:200px;color:red;"">1</div>","null","","","","","","","","","","","","",""
"revaluation","100","515053","0.0-3.0-11.0-11.0-0.0","spark_pilot_norest","9147","5","8","Male","","false","","","","","[1029.9000000001397]","./assets/img/space/animals/cat.jpg","[""ArrowRight""]","practice block","space","0","{""ArrowUp,ArrowLeft"":3,""ArrowUp,ArrowRight"":36,""ArrowDown,ArrowLeft"":15,""ArrowDown,ArrowRight"":23}","true","ArrowUp,ArrowRight","","","","","","",""
"html-keyboard-response","101","515558","0.0-3.0-11.0-11.0-1.0","spark_pilot_norest","9147","5","8","Male","","","","","","","null","<div style=""font-size:60px;"">+</div>","null","fixation","","","","","","","","","","","",""
"revaluation","102","516523","0.0-3.0-11.0-11.0-0.1","spark_pilot_norest","9147","5","8","Male","","false","","","","","[959.8000000000466]","./assets/img/space/animals/rabbit.jpg","[""ArrowLeft""]","practice block","space","0","{""ArrowUp,ArrowLeft"":3,""ArrowUp,ArrowRight"":36,""ArrowDown,ArrowLeft"":15,""ArrowDown,ArrowRight"":23}","false","ArrowDown,ArrowLeft","","","","","","",""
"html-keyboard-response","103","517030","0.0-3.0-11.0-11.0-1.1","spark_pilot_norest","9147","5","8","Male","","","","","","","null","<div style=""font-size:60px;"">+</div>","null","fixation","","","","","","","","","","","",""
"learning-instructions","104","523768","0.0-3.0-12.0-0.0","spark_pilot_norest","9147","5","8","Male","","","","","","","2155.3000000000466","<p> Before you start, we're going to ask you a few questions about how the game works. </p>","","instructions","","","","","","","","","","","",""
"comp-q","105","531621","0.0-3.0-13.0-0.0-0.0","spark_pilot_norest","9147","5","8","Male","","","","","","","2250.4000000001397","<p> <b> True or False? </b> </p>
            <p> There can be 50 pieces of treasure in a given animal's chest. </p>","1","comp_question","","","","true","","","","","","","",""
"comp-q","106","539633","0.0-3.0-13.0-0.0-1.0","spark_pilot_norest","9147","5","8","Male","","","","","","","1348.5","<p> <b> That's right! </b> The amount of treasure in each chest can range from 0 to 40 pieces. </p>","0","comp_answer","","","","","","","","","","","",""
"comp-q","107","549420","0.0-3.0-13.0-0.1-0.1","spark_pilot_norest","9147","5","8","Male","","","","","","","2666.9000000001397","<p> <b> True or False? </b> </p><p> In this game, all animals have the same amount of treasure in their left and right chests. </p>","1","comp_question","","","","true","","","","","","","",""
"comp-q","108","556217","0.0-3.0-13.0-0.1-1.1","spark_pilot_norest","9147","5","8","Male","","","","","","","1559.1999999999534","<p> <b> That's right! </b> Animals have different amounts of treasure in their treasure chests. </p>","0","comp_answer","","","","","","","","","","","",""
"comp-q","109","563598","0.0-3.0-13.0-0.2-0.2","spark_pilot_norest","9147","5","8","Male","","","","","","","1536.8000000000466","<p> <b> True or False? </b> </p><p> The same animal will always be there if you go up in the same place. </p>","0","comp_question","","","","true","","","","","","","",""
"comp-q","110","572022","0.0-3.0-13.0-0.2-1.2","spark_pilot_norest","9147","5","8","Male","","","","","","","1972.3000000000466","<p> <b> That's right! </b> One animal lives in the upper part and one lives in the lower part of every place. </p>","0","comp_answer","","","","","","","","","","","",""
"comp-q","111","579020","0.0-3.0-13.0-0.3-0.3","spark_pilot_norest","9147","5","8","Male","","","","","","","1470.8000000000466","<p> <b> True or False? </b> </p><p> If you see a different picture, it means you are in a new place. </p>","0","comp_question","","","","false","","","","","","","",""
"comp-q","112","592267","0.0-3.0-13.0-0.3-1.3","spark_pilot_norest","9147","5","8","Male","","","","","","","2153.1999999999534","<p> <b>Incorrect.</b> Lots of different images may show the same place. For example,  you may see three different images that all remind you that you are in outer space. </p>","0","comp_answer","","","","","","","","","","","",""
"comp-q","113","601760","0.0-3.0-13.0-0.4-0.4","spark_pilot_norest","9147","5","8","Male","","","","","","","3987.7000000001863","<p> <b> True or False? </b> </p><p> If you see a different picture, it means you are in a new place. </p>","1","comp_question","","","","true","","","","","","","",""
"comp-q","114","614418","0.0-3.0-13.0-0.4-1.4","spark_pilot_norest","9147","5","8","Male","","","","","","","1413.6999999999534","<p> <b> That's right! </b> Lots of different images may show the same place. For example,  you may see three different images that all remind you that you are in outer space. </p>","0","comp_answer","","","","","","","","","","","",""
"learning-instructions","115","628768","0.0-3.0-14.0-0.0","spark_pilot_norest","9147","5","8","Male","","","","","","","4489.200000000186","<p> Good job. Remember to do your best because the amount of treasure you earn will be converted into bonus money. </p>
            <p> It’s time to start the real game! </p>","","instructions","","","","","","","","","","","",""
"learning-instructions","116","634091","0.0-4.0-0.0-0.0","spark_pilot_norest","9147","5","8","Male","","","","","","","2558.6999999999534","<p> This time you are searching for treasure in the <b>canyon</b>.</p>","","instructions","","","","","","","","","","","",""
"learning-instructions","117","652835","0.0-4.0-0.0-0.1","spark_pilot_norest","9147","5","8","Male","","","","","","","1431.1999999999534","<p><b>New</b> animals with <b>new</b> treasure chests live here. You need to explore to discover where the animal with the best treasure chest is.</p>
                    <p> Like before, once you figure out which animal has the chest with the most treasure, you should try to get to that animal and select that chest! </p>","","instructions","","","","","","","","","","","",""
"learning-instructions","118","670493","0.0-4.0-1.0-0.0","spark_pilot_norest","9147","5","8","Male","","","","","","","2928.1999999999534","<p> Remember, when you see a picture of the place, use the up and down keys to <b>find an animal</b>.</p>
            <p> When you encounter an animal, you should use the left and right keys to <b>select a treasure chest</b>.</p>
            <p> Don't forget to look out for the robber! </p>","","instructions","","","","","","","","","","","",""
"revaluation","119","674511","0.0-4.0-2.0-0.0","spark_pilot_norest","9147","5","8","Male","","false","","","","","[1872.5]","./assets/img/canyon/catch/3.jpg","[""spaceBar""]","value training","canyon","0","{""ArrowUp,ArrowLeft"":26,""ArrowUp,ArrowRight"":10,""ArrowDown,ArrowLeft"":5,""ArrowDown,ArrowRight"":17}","true","spaceBar","true","original","1","0","","",""
"html-keyboard-response","120","675022","0.0-4.0-2.0-1.0","spark_pilot_norest","9147","5","8","Male","","","","","","","null","<div style=""font-size:60px;"">+</div>","null","fixation","","","","","","","","","1","","",""
"revaluation","121","681047","0.0-4.0-2.0-0.1","spark_pilot_norest","9147","5","8","Male","","false","","","","","[419.30000000004657,832.7999999998137]","./assets/img/canyon/memory/10.jpg","[""ArrowUp"",""ArrowRight""]","value training","canyon","10","{""ArrowUp,ArrowLeft"":26,""ArrowUp,ArrowRight"":10,""ArrowDown,ArrowLeft"":5,""ArrowDown,ArrowRight"":17}","false","ArrowUp,ArrowRight","false","original","1","2","","",""
"html-keyboard-response","122","681550","0.0-4.0-2.0-1.1","spark_pilot_norest","9147","5","8","Male","","","","","","","null","<div style=""font-size:60px;"">+</div>","null","fixation","","","","","","","","","3","","",""
"revaluation","123","687575","0.0-4.0-2.0-0.2","spark_pilot_norest","9147","5","8","Male","","false","","","","","[395.5,478.80000000004657]","./assets/img/canyon/memory/9.jpg","[""ArrowUp"",""ArrowLeft""]","value training","canyon","26","{""ArrowUp,ArrowLeft"":26,""ArrowUp,ArrowRight"":10,""ArrowDown,ArrowLeft"":5,""ArrowDown,ArrowRight"":17}","true","ArrowUp,ArrowLeft","false","original","1","4","","",""
"html-keyboard-response","124","688086","0.0-4.0-2.0-1.2","spark_pilot_norest","9147","5","8","Male","","","","","","","null","<div style=""font-size:60px;"">+</div>","null","fixation","","","","","","","","","5","","",""
"revaluation","125","694111","0.0-4.0-2.0-0.3","spark_pilot_norest","9147","5","8","Male","","false","","","","","[426.5999999998603,672.3999999999069]","./assets/img/canyon/memory/18.jpg","[""ArrowDown"",""ArrowRight""]","value training","canyon","17","{""ArrowUp,ArrowLeft"":26,""ArrowUp,ArrowRight"":10,""ArrowDown,ArrowLeft"":5,""ArrowDown,ArrowRight"":17}","false","ArrowDown,ArrowRight","false","original","1","6","","",""
"html-keyboard-response","126","694614","0.0-4.0-2.0-1.3","spark_pilot_norest","9147","5","8","Male","","","","","","","null","<div style=""font-size:60px;"">+</div>","null","fixation","","","","","","","","","7","","",""
"revaluation","127","698631","0.0-4.0-2.0-0.4","spark_pilot_norest","9147","5","8","Male","","false","","","","","[1180]","./assets/img/canyon/catch/6.jpg","[""spaceBar""]","value training","canyon","0","{""ArrowUp,ArrowLeft"":26,""ArrowUp,ArrowRight"":10,""ArrowDown,ArrowLeft"":5,""ArrowDown,ArrowRight"":17}","true","spaceBar","true","original","1","8","","",""
"html-keyboard-response","128","699134","0.0-4.0-2.0-1.4","spark_pilot_norest","9147","5","8","Male","","","","","","","null","<div style=""font-size:60px;"">+</div>","null","fixation","","","","","","","","","9","","",""
"revaluation","129","705159","0.0-4.0-2.0-0.5","spark_pilot_norest","9147","5","8","Male","","false","","","","","[371.9000000001397,570.8999999999069]","./assets/img/canyon/memory/32.jpg","[""ArrowDown"",""ArrowLeft""]","value training","canyon","5","{""ArrowUp,ArrowLeft"":26,""ArrowUp,ArrowRight"":10,""ArrowDown,ArrowLeft"":5,""ArrowDown,ArrowRight"":17}","false","ArrowDown,ArrowLeft","false","original","1","10","","",""
"html-keyboard-response","130","705662","0.0-4.0-2.0-1.5","spark_pilot_norest","9147","5","8","Male","","","","","","","null","<div style=""font-size:60px;"">+</div>","null","fixation","","","","","","","","","11","","",""
"revaluation","131","711687","0.0-4.0-2.0-0.6","spark_pilot_norest","9147","5","8","Male","","false","","","","","[739.6000000000931,659.1999999999534]","./assets/img/canyon/memory/3.jpg","[""ArrowUp"",""ArrowLeft""]","value training","canyon","26","{""ArrowUp,ArrowLeft"":26,""ArrowUp,ArrowRight"":10,""ArrowDown,ArrowLeft"":5,""ArrowDown,ArrowRight"":17}","true","ArrowUp,ArrowLeft","false","original","1","12","","",""
"html-keyboard-response","132","712190","0.0-4.0-2.0-1.6","spark_pilot_norest","9147","5","8","Male","","","","","","","null","<div style=""font-size:60px;"">+</div>","null","fixation","","","","","","","","","13","","",""
"revaluation","133","718214","0.0-4.0-2.0-0.7","spark_pilot_norest","9147","5","8","Male","","false","","","","","[904.5,668.6999999999534]","./assets/img/canyon/memory/35.jpg","[""ArrowUp"",""ArrowLeft""]","value training","canyon","26","{""ArrowUp,ArrowLeft"":26,""ArrowUp,ArrowRight"":10,""ArrowDown,ArrowLeft"":5,""ArrowDown,ArrowRight"":17}","true","ArrowUp,ArrowLeft","false","original","1","14","","",""
"html-keyboard-response","134","718718","0.0-4.0-2.0-1.7","spark_pilot_norest","9147","5","8","Male","","","","","","","null","<div style=""font-size:60px;"">+</div>","null","fixation","","","","","","","","","15","","",""
"revaluation","135","722735","0.0-4.0-2.0-0.8","spark_pilot_norest","9147","5","8","Male","","false","","","","","[1045.3000000000466]","./assets/img/canyon/catch/1.jpg","[""spaceBar""]","value training","canyon","0","{""ArrowUp,ArrowLeft"":26,""ArrowUp,ArrowRight"":10,""ArrowDown,ArrowLeft"":5,""ArrowDown,ArrowRight"":17}","true","spaceBar","true","original","1","16","","",""
"html-keyboard-response","136","723238","0.0-4.0-2.0-1.8","spark_pilot_norest","9147","5","8","Male","","","","","","","null","<div style=""font-size:60px;"">+</div>","null","fixation","","","","","","","","","17","","",""
"revaluation","137","727254","0.0-4.0-2.0-0.9","spark_pilot_norest","9147","5","8","Male","","false","","","","","[363.30000000004657]","./assets/img/canyon/catch/7.jpg","[""ArrowUp""]","value training","canyon","-10","{""ArrowUp,ArrowLeft"":26,""ArrowUp,ArrowRight"":10,""ArrowDown,ArrowLeft"":5,""ArrowDown,ArrowRight"":17}","false","ArrowUp","true","original","1","18","","",""
"html-keyboard-response","138","727758","0.0-4.0-2.0-1.9","spark_pilot_norest","9147","5","8","Male","","","","","","","null","<div style=""font-size:60px;"">+</div>","null","fixation","","","","","","","","","19","","",""
"revaluation","139","733783","0.0-4.0-2.0-0.10","spark_pilot_norest","9147","5","8","Male","","false","","","","","[1824.3000000000466,810.5]","./assets/img/canyon/memory/23.jpg","[""ArrowUp"",""ArrowLeft""]","value training","canyon","26","{""ArrowUp,ArrowLeft"":26,""ArrowUp,ArrowRight"":10,""ArrowDown,ArrowLeft"":5,""ArrowDown,ArrowRight"":17}","true","ArrowUp,ArrowLeft","false","original","1","20","","",""
"html-keyboard-response","140","734286","0.0-4.0-2.0-1.10","spark_pilot_norest","9147","5","8","Male","","","","","","","null","<div style=""font-size:60px;"">+</div>","null","fixation","","","","","","","","","21","","",""
"revaluation","141","740310","0.0-4.0-2.0-0.11","spark_pilot_norest","9147","5","8","Male","","false","","","","","[1015.5999999998603,844.8999999999069]","./assets/img/canyon/memory/41.jpg","[""ArrowUp"",""ArrowLeft""]","value training","canyon","26","{""ArrowUp,ArrowLeft"":26,""ArrowUp,ArrowRight"":10,""ArrowDown,ArrowLeft"":5,""ArrowDown,ArrowRight"":17}","true","ArrowUp,ArrowLeft","false","original","1","22","","",""
"html-keyboard-response","142","740814","0.0-4.0-2.0-1.11","spark_pilot_norest","9147","5","8","Male","","","","","","","null","<div style=""font-size:60px;"">+</div>","null","fixation","","","","","","","","","23","","",""
"revaluation","143","746839","0.0-4.0-2.0-0.12","spark_pilot_norest","9147","5","8","Male","","false","","","","","[1160.6999999999534,635.8999999999069]","./assets/img/canyon/memory/33.jpg","[""ArrowUp"",""ArrowLeft""]","value training","canyon","26","{""ArrowUp,ArrowLeft"":26,""ArrowUp,ArrowRight"":10,""ArrowDown,ArrowLeft"":5,""ArrowDown,ArrowRight"":17}","true","ArrowUp,ArrowLeft","false","original","1","24","","",""
"html-keyboard-response","144","747342","0.0-4.0-2.0-1.12","spark_pilot_norest","9147","5","8","Male","","","","","","","null","<div style=""font-size:60px;"">+</div>","null","fixation","","","","","","","","","25","","",""
"revaluation","145","753367","0.0-4.0-2.0-0.13","spark_pilot_norest","9147","5","8","Male","","false","","","","","[1158.6999999999534,1022.5]","./assets/img/canyon/memory/40.jpg","[""ArrowUp"",""ArrowLeft""]","value training","canyon","26","{""ArrowUp,ArrowLeft"":26,""ArrowUp,ArrowRight"":10,""ArrowDown,ArrowLeft"":5,""ArrowDown,ArrowRight"":17}","true","ArrowUp,ArrowLeft","false","original","1","26","","",""
"html-keyboard-response","146","753870","0.0-4.0-2.0-1.13","spark_pilot_norest","9147","5","8","Male","","","","","","","null","<div style=""font-size:60px;"">+</div>","null","fixation","","","","","","","","","27","","",""
"revaluation","147","759895","0.0-4.0-2.0-0.14","spark_pilot_norest","9147","5","8","Male","","false","","","","","[826.3999999999069,555.5]","./assets/img/canyon/memory/6.jpg","[""ArrowUp"",""ArrowLeft""]","value training","canyon","26","{""ArrowUp,ArrowLeft"":26,""ArrowUp,ArrowRight"":10,""ArrowDown,ArrowLeft"":5,""ArrowDown,ArrowRight"":17}","true","ArrowUp,ArrowLeft","false","original","1","28","","",""
"html-keyboard-response","148","760398","0.0-4.0-2.0-1.14","spark_pilot_norest","9147","5","8","Male","","","","","","","null","<div style=""font-size:60px;"">+</div>","null","fixation","","","","","","","","","29","","",""
"revaluation","149","766422","0.0-4.0-2.0-0.15","spark_pilot_norest","9147","5","8","Male","","false","","","","","[830.8999999999069,445.30000000004657]","./assets/img/canyon/memory/23.jpg","[""ArrowUp"",""ArrowLeft""]","value training","canyon","26","{""ArrowUp,ArrowLeft"":26,""ArrowUp,ArrowRight"":10,""ArrowDown,ArrowLeft"":5,""ArrowDown,ArrowRight"":17}","true","ArrowUp,ArrowLeft","false","original","1","30","","",""
"html-keyboard-response","150","766926","0.0-4.0-2.0-1.15","spark_pilot_norest","9147","5","8","Male","","","","","","","null","<div style=""font-size:60px;"">+</div>","null","fixation","","","","","","","","","31","","",""
"revaluation","151","772951","0.0-4.0-2.0-0.16","spark_pilot_norest","9147","5","8","Male","","false","","","","","[781.3000000000466,588.6999999999534]","./assets/img/canyon/memory/17.jpg","[""ArrowUp"",""ArrowLeft""]","value training","canyon","26","{""ArrowUp,ArrowLeft"":26,""ArrowUp,ArrowRight"":10,""ArrowDown,ArrowLeft"":5,""ArrowDown,ArrowRight"":17}","true","ArrowUp,ArrowLeft","false","original","1","32","","",""
"html-keyboard-response","152","773454","0.0-4.0-2.0-1.16","spark_pilot_norest","9147","5","8","Male","","","","","","","null","<div style=""font-size:60px;"">+</div>","null","fixation","","","","","","","","","33","","",""
"revaluation","153","779479","0.0-4.0-2.0-0.17","spark_pilot_norest","9147","5","8","Male","","false","","","","","[866.2999999998137,417.60000000009313]","./assets/img/canyon/memory/18.jpg","[""ArrowUp"",""ArrowLeft""]","value training","canyon","26","{""ArrowUp,ArrowLeft"":26,""ArrowUp,ArrowRight"":10,""ArrowDown,ArrowLeft"":5,""ArrowDown,ArrowRight"":17}","true","ArrowUp,ArrowLeft","false","original","1","34","","",""
"html-keyboard-response","154","779982","0.0-4.0-2.0-1.17","spark_pilot_norest","9147","5","8","Male","","","","","","","null","<div style=""font-size:60px;"">+</div>","null","fixation","","","","","","","","","35","","",""
"revaluation","155","786006","0.0-4.0-2.0-0.18","spark_pilot_norest","9147","5","8","Male","","false","","","","","[774.8999999999069,584.3000000000466]","./assets/img/canyon/memory/39.jpg","[""ArrowUp"",""ArrowLeft""]","value training","canyon","26","{""ArrowUp,ArrowLeft"":26,""ArrowUp,ArrowRight"":10,""ArrowDown,ArrowLeft"":5,""ArrowDown,ArrowRight"":17}","true","ArrowUp,ArrowLeft","false","original","1","36","","",""
"html-keyboard-response","156","786510","0.0-4.0-2.0-1.18","spark_pilot_norest","9147","5","8","Male","","","","","","","null","<div style=""font-size:60px;"">+</div>","null","fixation","","","","","","","","","37","","",""
"revaluation","157","792535","0.0-4.0-2.0-0.19","spark_pilot_norest","9147","5","8","Male","","false","","","","","[860.1000000000931,399.80000000004657]","./assets/img/canyon/memory/10.jpg","[""ArrowUp"",""ArrowLeft""]","value training","canyon","26","{""ArrowUp,ArrowLeft"":26,""ArrowUp,ArrowRight"":10,""ArrowDown,ArrowLeft"":5,""ArrowDown,ArrowRight"":17}","true","ArrowUp,ArrowLeft","false","original","1","38","","",""
"html-keyboard-response","158","793038","0.0-4.0-2.0-1.19","spark_pilot_norest","9147","5","8","Male","","","","","","","null","<div style=""font-size:60px;"">+</div>","null","fixation","","","","","","","","","39","","",""
"revaluation","159","799062","0.0-4.0-2.0-0.20","spark_pilot_norest","9147","5","8","Male","","false","","","","","[860.6999999999534,589.1000000000931]","./assets/img/canyon/memory/17.jpg","[""ArrowUp"",""ArrowLeft""]","value training","canyon","26","{""ArrowUp,ArrowLeft"":26,""ArrowUp,ArrowRight"":10,""ArrowDown,ArrowLeft"":5,""ArrowDown,ArrowRight"":17}","true","ArrowUp,ArrowLeft","false","original","1","40","","",""
"html-keyboard-response","160","799566","0.0-4.0-2.0-1.20","spark_pilot_norest","9147","5","8","Male","","","","","","","null","<div style=""font-size:60px;"">+</div>","null","fixation","","","","","","","","","41","","",""
"revaluation","161","805591","0.0-4.0-2.0-0.21","spark_pilot_norest","9147","5","8","Male","","false","","","","","[632.1000000000931,535.3000000000466]","./assets/img/canyon/memory/35.jpg","[""ArrowUp"",""ArrowLeft""]","value training","canyon","26","{""ArrowUp,ArrowLeft"":26,""ArrowUp,ArrowRight"":10,""ArrowDown,ArrowLeft"":5,""ArrowDown,ArrowRight"":17}","true","ArrowUp,ArrowLeft","false","original","1","42","","",""
"html-keyboard-response","162","806094","0.0-4.0-2.0-1.21","spark_pilot_norest","9147","5","8","Male","","","","","","","null","<div style=""font-size:60px;"">+</div>","null","fixation","","","","","","","","","43","","",""
"revaluation","163","812118","0.0-4.0-2.0-0.22","spark_pilot_norest","9147","5","8","Male","","false","","","","","[1217,575.6999999999534]","./assets/img/canyon/memory/22.jpg","[""ArrowUp"",""ArrowLeft""]","value training","canyon","26","{""ArrowUp,ArrowLeft"":26,""ArrowUp,ArrowRight"":10,""ArrowDown,ArrowLeft"":5,""ArrowDown,ArrowRight"":17}","true","ArrowUp,ArrowLeft","false","original","1","44","","",""
"html-keyboard-response","164","812622","0.0-4.0-2.0-1.22","spark_pilot_norest","9147","5","8","Male","","","","","","","null","<div style=""font-size:60px;"">+</div>","null","fixation","","","","","","","","","45","","",""
"revaluation","165","818647","0.0-4.0-2.0-0.23","spark_pilot_norest","9147","5","8","Male","","false","","","","","[995.3999999999069,593.6000000000931]","./assets/img/canyon/memory/8.jpg","[""ArrowUp"",""ArrowLeft""]","value training","canyon","26","{""ArrowUp,ArrowLeft"":26,""ArrowUp,ArrowRight"":10,""ArrowDown,ArrowLeft"":5,""ArrowDown,ArrowRight"":17}","true","ArrowUp,ArrowLeft","false","original","1","46","","",""
"html-keyboard-response","166","819150","0.0-4.0-2.0-1.23","spark_pilot_norest","9147","5","8","Male","","","","","","","null","<div style=""font-size:60px;"">+</div>","null","fixation","","","","","","","","","47","","",""
"revaluation","167","825175","0.0-4.0-2.0-0.24","spark_pilot_norest","9147","5","8","Male","","false","","","","","[748.3999999999069,511.39999999990687]","./assets/img/canyon/memory/13.jpg","[""ArrowUp"",""ArrowLeft""]","value training","canyon","26","{""ArrowUp,ArrowLeft"":26,""ArrowUp,ArrowRight"":10,""ArrowDown,ArrowLeft"":5,""ArrowDown,ArrowRight"":17}","true","ArrowUp,ArrowLeft","false","original","1","48","","",""
"html-keyboard-response","168","825678","0.0-4.0-2.0-1.24","spark_pilot_norest","9147","5","8","Male","","","","","","","null","<div style=""font-size:60px;"">+</div>","null","fixation","","","","","","","","","49","","",""
"revaluation","169","831702","0.0-4.0-2.0-0.25","spark_pilot_norest","9147","5","8","Male","","false","","","","","[742.6000000000931,582.4000000001397]","./assets/img/canyon/memory/40.jpg","[""ArrowUp"",""ArrowLeft""]","value training","canyon","26","{""ArrowUp,ArrowLeft"":26,""ArrowUp,ArrowRight"":10,""ArrowDown,ArrowLeft"":5,""ArrowDown,ArrowRight"":17}","true","ArrowUp,ArrowLeft","false","original","1","50","","",""
"html-keyboard-response","170","832206","0.0-4.0-2.0-1.25","spark_pilot_norest","9147","5","8","Male","","","","","","","null","<div style=""font-size:60px;"">+</div>","null","fixation","","","","","","","","","51","","",""
"revaluation","171","838231","0.0-4.0-2.0-0.26","spark_pilot_norest","9147","5","8","Male","","false","","","","","[546,363]","./assets/img/canyon/memory/8.jpg","[""ArrowUp"",""ArrowLeft""]","value training","canyon","26","{""ArrowUp,ArrowLeft"":26,""ArrowUp,ArrowRight"":10,""ArrowDown,ArrowLeft"":5,""ArrowDown,ArrowRight"":17}","true","ArrowUp,ArrowLeft","false","original","1","52","","",""
"html-keyboard-response","172","838734","0.0-4.0-2.0-1.26","spark_pilot_norest","9147","5","8","Male","","","","","","","null","<div style=""font-size:60px;"">+</div>","null","fixation","","","","","","","","","53","","",""
"revaluation","173","844758","0.0-4.0-2.0-0.27","spark_pilot_norest","9147","5","8","Male","","false","","","","","[602.9000000001397,642.1999999999534]","./assets/img/canyon/memory/7.jpg","[""ArrowUp"",""ArrowLeft""]","value training","canyon","26","{""ArrowUp,ArrowLeft"":26,""ArrowUp,ArrowRight"":10,""ArrowDown,ArrowLeft"":5,""ArrowDown,ArrowRight"":17}","true","ArrowUp,ArrowLeft","false","original","1","54","","",""
"html-keyboard-response","174","845262","0.0-4.0-2.0-1.27","spark_pilot_norest","9147","5","8","Male","","","","","","","null","<div style=""font-size:60px;"">+</div>","null","fixation","","","","","","","","","55","","",""
"revaluation","175","851287","0.0-4.0-2.0-0.28","spark_pilot_norest","9147","5","8","Male","","false","","","","","[906.5,451.60000000009313]","./assets/img/canyon/memory/32.jpg","[""ArrowUp"",""ArrowLeft""]","value training","canyon","26","{""ArrowUp,ArrowLeft"":26,""ArrowUp,ArrowRight"":10,""ArrowDown,ArrowLeft"":5,""ArrowDown,ArrowRight"":17}","true","ArrowUp,ArrowLeft","false","original","1","56","","",""
"html-keyboard-response","176","851790","0.0-4.0-2.0-1.28","spark_pilot_norest","9147","5","8","Male","","","","","","","null","<div style=""font-size:60px;"">+</div>","null","fixation","","","","","","","","","57","","",""
"revaluation","177","855807","0.0-4.0-2.0-0.29","spark_pilot_norest","9147","5","8","Male","","false","","","","","[1143.8000000000466]","./assets/img/canyon/catch/0.jpg","[""spaceBar""]","value training","canyon","0","{""ArrowUp,ArrowLeft"":26,""ArrowUp,ArrowRight"":10,""ArrowDown,ArrowLeft"":5,""ArrowDown,ArrowRight"":17}","true","spaceBar","true","original","1","58","","",""
"html-keyboard-response","178","856310","0.0-4.0-2.0-1.29","spark_pilot_norest","9147","5","8","Male","","","","","","","null","<div style=""font-size:60px;"">+</div>","null","fixation","","","","","","","","","59","","",""
"revaluation","179","862335","0.0-4.0-2.0-0.30","spark_pilot_norest","9147","5","8","Male","","false","","","","","[494.19999999995343,447.10000000009313]","./assets/img/canyon/memory/33.jpg","[""ArrowUp"",""ArrowLeft""]","value training","canyon","26","{""ArrowUp,ArrowLeft"":26,""ArrowUp,ArrowRight"":10,""ArrowDown,ArrowLeft"":5,""ArrowDown,ArrowRight"":17}","true","ArrowUp,ArrowLeft","false","original","1","60","","",""
"html-keyboard-response","180","862838","0.0-4.0-2.0-1.30","spark_pilot_norest","9147","5","8","Male","","","","","","","null","<div style=""font-size:60px;"">+</div>","null","fixation","","","","","","","","","61","","",""
"revaluation","181","868863","0.0-4.0-2.0-0.31","spark_pilot_norest","9147","5","8","Male","","false","","","","","[1069.5,661.6000000000931]","./assets/img/canyon/memory/0.jpg","[""ArrowUp"",""ArrowLeft""]","value training","canyon","26","{""ArrowUp,ArrowLeft"":26,""ArrowUp,ArrowRight"":10,""ArrowDown,ArrowLeft"":5,""ArrowDown,ArrowRight"":17}","true","ArrowUp,ArrowLeft","false","original","1","62","","",""
"html-keyboard-response","182","869366","0.0-4.0-2.0-1.31","spark_pilot_norest","9147","5","8","Male","","","","","","","null","<div style=""font-size:60px;"">+</div>","null","fixation","","","","","","","","","63","","",""
"revaluation","183","873382","0.0-4.0-2.0-0.32","spark_pilot_norest","9147","5","8","Male","","false","","","","","[1048.4000000001397]","./assets/img/canyon/catch/4.jpg","[""spaceBar""]","value training","canyon","0","{""ArrowUp,ArrowLeft"":26,""ArrowUp,ArrowRight"":10,""ArrowDown,ArrowLeft"":5,""ArrowDown,ArrowRight"":17}","true","spaceBar","true","original","1","64","","",""
"html-keyboard-response","184","873886","0.0-4.0-2.0-1.32","spark_pilot_norest","9147","5","8","Male","","","","","","","null","<div style=""font-size:60px;"">+</div>","null","fixation","","","","","","","","","65","","",""
"revaluation","185","879911","0.0-4.0-2.0-0.33","spark_pilot_norest","9147","5","8","Male","","false","","","","","[509.80000000004657,445.10000000009313]","./assets/img/canyon/memory/39.jpg","[""ArrowUp"",""ArrowLeft""]","value training","canyon","26","{""ArrowUp,ArrowLeft"":26,""ArrowUp,ArrowRight"":10,""ArrowDown,ArrowLeft"":5,""ArrowDown,ArrowRight"":17}","true","ArrowUp,ArrowLeft","false","original","1","66","","",""
"html-keyboard-response","186","880414","0.0-4.0-2.0-1.33","spark_pilot_norest","9147","5","8","Male","","","","","","","null","<div style=""font-size:60px;"">+</div>","null","fixation","","","","","","","","","67","","",""
"revaluation","187","886439","0.0-4.0-2.0-0.34","spark_pilot_norest","9147","5","8","Male","","false","","","","","[1449,700.1000000000931]","./assets/img/canyon/memory/0.jpg","[""ArrowUp"",""ArrowLeft""]","value training","canyon","26","{""ArrowUp,ArrowLeft"":26,""ArrowUp,ArrowRight"":10,""ArrowDown,ArrowLeft"":5,""ArrowDown,ArrowRight"":17}","true","ArrowUp,ArrowLeft","false","original","1","68","","",""
"html-keyboard-response","188","886942","0.0-4.0-2.0-1.34","spark_pilot_norest","9147","5","8","Male","","","","","","","null","<div style=""font-size:60px;"">+</div>","null","fixation","","","","","","","","","69","","",""
"revaluation","189","892967","0.0-4.0-2.0-0.35","spark_pilot_norest","9147","5","8","Male","","false","","","","","[804.3000000000466,627.6000000000931]","./assets/img/canyon/memory/41.jpg","[""ArrowUp"",""ArrowLeft""]","value training","canyon","26","{""ArrowUp,ArrowLeft"":26,""ArrowUp,ArrowRight"":10,""ArrowDown,ArrowLeft"":5,""ArrowDown,ArrowRight"":17}","true","ArrowUp,ArrowLeft","false","original","1","70","","",""
"html-keyboard-response","190","893470","0.0-4.0-2.0-1.35","spark_pilot_norest","9147","5","8","Male","","","","","","","null","<div style=""font-size:60px;"">+</div>","null","fixation","","","","","","","","","71","","",""
"revaluation","191","899495","0.0-4.0-2.0-0.36","spark_pilot_norest","9147","5","8","Male","","false","","","","","[961.9000000001397,743.6999999999534]","./assets/img/canyon/memory/31.jpg","[""ArrowUp"",""ArrowLeft""]","value training","canyon","26","{""ArrowUp,ArrowLeft"":26,""ArrowUp,ArrowRight"":10,""ArrowDown,ArrowLeft"":5,""ArrowDown,ArrowRight"":17}","true","ArrowUp,ArrowLeft","false","original","1","72","","",""
"html-keyboard-response","192","899998","0.0-4.0-2.0-1.36","spark_pilot_norest","9147","5","8","Male","","","","","","","null","<div style=""font-size:60px;"">+</div>","null","fixation","","","","","","","","","73","","",""
"revaluation","193","906015","0.0-4.0-2.0-0.37","spark_pilot_norest","9147","5","8","Male","","false","","","","","[894.7999999998137,904.3999999999069]","./assets/img/canyon/memory/6.jpg","[""ArrowUp"",""ArrowLeft""]","value training","canyon","26","{""ArrowUp,ArrowLeft"":26,""ArrowUp,ArrowRight"":10,""ArrowDown,ArrowLeft"":5,""ArrowDown,ArrowRight"":17}","true","ArrowUp,ArrowLeft","false","original","1","74","","",""
"html-keyboard-response","194","906518","0.0-4.0-2.0-1.37","spark_pilot_norest","9147","5","8","Male","","","","","","","null","<div style=""font-size:60px;"">+</div>","null","fixation","","","","","","","","","75","","",""
"revaluation","195","910534","0.0-4.0-2.0-0.38","spark_pilot_norest","9147","5","8","Male","","false","","","","","[1239.7999999998137]","./assets/img/canyon/catch/2.jpg","[""spaceBar""]","value training","canyon","0","{""ArrowUp,ArrowLeft"":26,""ArrowUp,ArrowRight"":10,""ArrowDown,ArrowLeft"":5,""ArrowDown,ArrowRight"":17}","true","spaceBar","true","original","1","76","","",""
"html-keyboard-response","196","911038","0.0-4.0-2.0-1.38","spark_pilot_norest","9147","5","8","Male","","","","","","","null","<div style=""font-size:60px;"">+</div>","null","fixation","","","","","","","","","77","","",""
"revaluation","197","917062","0.0-4.0-2.0-0.39","spark_pilot_norest","9147","5","8","Male","","false","","","","","[586.5999999998603,533.5]","./assets/img/canyon/memory/13.jpg","[""ArrowUp"",""ArrowLeft""]","value training","canyon","26","{""ArrowUp,ArrowLeft"":26,""ArrowUp,ArrowRight"":10,""ArrowDown,ArrowLeft"":5,""ArrowDown,ArrowRight"":17}","true","ArrowUp,ArrowLeft","false","original","1","78","","",""
"html-keyboard-response","198","917566","0.0-4.0-2.0-1.39","spark_pilot_norest","9147","5","8","Male","","","","","","","null","<div style=""font-size:60px;"">+</div>","null","fixation","","","","","","","","","79","","",""
"revaluation","199","923590","0.0-4.0-2.0-0.40","spark_pilot_norest","9147","5","8","Male","","false","","","","","[913.1999999999534,588.3000000000466]","./assets/img/canyon/memory/7.jpg","[""ArrowUp"",""ArrowLeft""]","value training","canyon","26","{""ArrowUp,ArrowLeft"":26,""ArrowUp,ArrowRight"":10,""ArrowDown,ArrowLeft"":5,""ArrowDown,ArrowRight"":17}","true","ArrowUp,ArrowLeft","false","original","1","80","","",""
"html-keyboard-response","200","924094","0.0-4.0-2.0-1.40","spark_pilot_norest","9147","5","8","Male","","","","","","","null","<div style=""font-size:60px;"">+</div>","null","fixation","","","","","","","","","81","","",""
"revaluation","201","930119","0.0-4.0-2.0-0.41","spark_pilot_norest","9147","5","8","Male","","false","","","","","[933.6999999999534,617.5]","./assets/img/canyon/memory/3.jpg","[""ArrowUp"",""ArrowLeft""]","value training","canyon","26","{""ArrowUp,ArrowLeft"":26,""ArrowUp,ArrowRight"":10,""ArrowDown,ArrowLeft"":5,""ArrowDown,ArrowRight"":17}","true","ArrowUp,ArrowLeft","false","original","1","82","","",""
"html-keyboard-response","202","930622","0.0-4.0-2.0-1.41","spark_pilot_norest","9147","5","8","Male","","","","","","","null","<div style=""font-size:60px;"">+</div>","null","fixation","","","","","","","","","83","","",""
"revaluation","203","936647","0.0-4.0-2.0-0.42","spark_pilot_norest","9147","5","8","Male","","false","","","","","[752.8000000000466,562.3000000000466]","./assets/img/canyon/memory/20.jpg","[""ArrowUp"",""ArrowLeft""]","value training","canyon","26","{""ArrowUp,ArrowLeft"":26,""ArrowUp,ArrowRight"":10,""ArrowDown,ArrowLeft"":5,""ArrowDown,ArrowRight"":17}","true","ArrowUp,ArrowLeft","false","original","1","84","","",""
"html-keyboard-response","204","937150","0.0-4.0-2.0-1.42","spark_pilot_norest","9147","5","8","Male","","","","","","","null","<div style=""font-size:60px;"">+</div>","null","fixation","","","","","","","","","85","","",""
"revaluation","205","943175","0.0-4.0-2.0-0.43","spark_pilot_norest","9147","5","8","Male","","false","","","","","[1396.8999999999069,708.1000000000931]","./assets/img/canyon/memory/37.jpg","[""ArrowUp"",""ArrowLeft""]","value training","canyon","26","{""ArrowUp,ArrowLeft"":26,""ArrowUp,ArrowRight"":10,""ArrowDown,ArrowLeft"":5,""ArrowDown,ArrowRight"":17}","true","ArrowUp,ArrowLeft","false","original","1","86","","",""
"html-keyboard-response","206","943678","0.0-4.0-2.0-1.43","spark_pilot_norest","9147","5","8","Male","","","","","","","null","<div style=""font-size:60px;"">+</div>","null","fixation","","","","","","","","","87","","",""
"revaluation","207","947695","0.0-4.0-2.0-0.44","spark_pilot_norest","9147","5","8","Male","","true","","","","","[]","./assets/img/canyon/memory/9.jpg","[]","value training","canyon","-5","{""ArrowUp,ArrowLeft"":26,""ArrowUp,ArrowRight"":10,""ArrowDown,ArrowLeft"":5,""ArrowDown,ArrowRight"":17}","false","","false","original","1","88","","",""
"html-keyboard-response","208","948198","0.0-4.0-2.0-1.44","spark_pilot_norest","9147","5","8","Male","","","","","","","null","<div style=""font-size:60px;"">+</div>","null","fixation","","","","","","","","","89","","",""
"revaluation","209","952215","0.0-4.0-2.0-0.45","spark_pilot_norest","9147","5","8","Male","","false","","","","","[1326.7000000001863]","./assets/img/canyon/catch/5.jpg","[""spaceBar""]","value training","canyon","0","{""ArrowUp,ArrowLeft"":26,""ArrowUp,ArrowRight"":10,""ArrowDown,ArrowLeft"":5,""ArrowDown,ArrowRight"":17}","true","spaceBar","true","original","1","90","","",""
"html-keyboard-response","210","952718","0.0-4.0-2.0-1.45","spark_pilot_norest","9147","5","8","Male","","","","","","","null","<div style=""font-size:60px;"">+</div>","null","fixation","","","","","","","","","91","","",""
"revaluation","211","958742","0.0-4.0-2.0-0.46","spark_pilot_norest","9147","5","8","Male","","false","","","","","[647.1000000000931,311.30000000004657]","./assets/img/canyon/memory/31.jpg","[""ArrowUp"",""ArrowLeft""]","value training","canyon","26","{""ArrowUp,ArrowLeft"":26,""ArrowUp,ArrowRight"":10,""ArrowDown,ArrowLeft"":5,""ArrowDown,ArrowRight"":17}","true","ArrowUp,ArrowLeft","false","original","1","92","","",""
"html-keyboard-response","212","959246","0.0-4.0-2.0-1.46","spark_pilot_norest","9147","5","8","Male","","","","","","","null","<div style=""font-size:60px;"">+</div>","null","fixation","","","","","","","","","93","","",""
"revaluation","213","965270","0.0-4.0-2.0-0.47","spark_pilot_norest","9147","5","8","Male","","false","","","","","[459.39999999990687,299.19999999995343]","./assets/img/canyon/memory/22.jpg","[""ArrowUp"",""ArrowLeft""]","value training","canyon","26","{""ArrowUp,ArrowLeft"":26,""ArrowUp,ArrowRight"":10,""ArrowDown,ArrowLeft"":5,""ArrowDown,ArrowRight"":17}","true","ArrowUp,ArrowLeft","false","original","1","94","","",""
"html-keyboard-response","214","965774","0.0-4.0-2.0-1.47","spark_pilot_norest","9147","5","8","Male","","","","","","","null","<div style=""font-size:60px;"">+</div>","null","fixation","","","","","","","","","95","","",""
"revaluation","215","971799","0.0-4.0-2.0-0.48","spark_pilot_norest","9147","5","8","Male","","false","","","","","[579.3000000000466,427.89999999990687]","./assets/img/canyon/memory/37.jpg","[""ArrowUp"",""ArrowLeft""]","value training","canyon","26","{""ArrowUp,ArrowLeft"":26,""ArrowUp,ArrowRight"":10,""ArrowDown,ArrowLeft"":5,""ArrowDown,ArrowRight"":17}","true","ArrowUp,ArrowLeft","false","original","1","96","","",""
"html-keyboard-response","216","972302","0.0-4.0-2.0-1.48","spark_pilot_norest","9147","5","8","Male","","","","","","","null","<div style=""font-size:60px;"">+</div>","null","fixation","","","","","","","","","97","","",""
"revaluation","217","978327","0.0-4.0-2.0-0.49","spark_pilot_norest","9147","5","8","Male","","false","","","","","[845,249.10000000009313]","./assets/img/canyon/memory/20.jpg","[""ArrowUp"",""ArrowLeft""]","value training","canyon","26","{""ArrowUp,ArrowLeft"":26,""ArrowUp,ArrowRight"":10,""ArrowDown,ArrowLeft"":5,""ArrowDown,ArrowRight"":17}","true","ArrowUp,ArrowLeft","false","original","1","98","","",""
"html-keyboard-response","218","978830","0.0-4.0-2.0-1.49","spark_pilot_norest","9147","5","8","Male","","","","","","","null","<div style=""font-size:60px;"">+</div>","null","fixation","","","","","","","","","99","","",""
"learning-instructions","219","996128","0.0-4.0-3.0-0.0","spark_pilot_norest","9147","5","8","Male","","","","","","","4326.200000000186","<p> Now, you will travel with a friend who will choose whether you go up or down first. </p>
            <p> On these turns, you will just see the animal that they found. You will still get to choose which chest to search for treasure.</p>","","instructions","","","","","","","","","","","",""
"revaluation","220","1000146","0.0-4.0-4.0-0.0","spark_pilot_norest","9147","5","8","Male","","false","","","","","[1378]","./assets/img/canyon/animals/lion.jpg","[""ArrowLeft""]","revaluation","canyon","26","{""ArrowUp,ArrowLeft"":26,""ArrowUp,ArrowRight"":10,""ArrowDown,ArrowLeft"":5,""ArrowDown,ArrowRight"":17}","true","ArrowUp,ArrowLeft","","original","1","0","","",""
"html-keyboard-response","221","1000654","0.0-4.0-4.0-1.0","spark_pilot_norest","9147","5","8","Male","","","","","","","null","<div style=""font-size:60px;"">+</div>","null","fixation","","","","","","","","","1","","",""
"revaluation","222","1004670","0.0-4.0-4.0-0.1","spark_pilot_norest","9147","5","8","Male","","false","","","","","[732.3999999999069]","./assets/img/canyon/animals/giraffe.jpg","[""ArrowLeft""]","revaluation","canyon","5","{""ArrowUp,ArrowLeft"":26,""ArrowUp,ArrowRight"":10,""ArrowDown,ArrowLeft"":5,""ArrowDown,ArrowRight"":17}","false","ArrowDown,ArrowLeft","","original","1","2","","",""
"html-keyboard-response","223","1005174","0.0-4.0-4.0-1.1","spark_pilot_norest","9147","5","8","Male","","","","","","","null","<div style=""font-size:60px;"">+</div>","null","fixation","","","","","","","","","3","","",""
"revaluation","224","1009191","0.0-4.0-4.0-0.2","spark_pilot_norest","9147","5","8","Male","","false","","","","","[571.2000000001863]","./assets/img/canyon/animals/lion.jpg","[""ArrowRight""]","revaluation","canyon","10","{""ArrowUp,ArrowLeft"":26,""ArrowUp,ArrowRight"":10,""ArrowDown,ArrowLeft"":5,""ArrowDown,ArrowRight"":17}","false","ArrowUp,ArrowRight","","original","1","4","","",""
"html-keyboard-response","225","1009694","0.0-4.0-4.0-1.2","spark_pilot_norest","9147","5","8","Male","","","","","","","null","<div style=""font-size:60px;"">+</div>","null","fixation","","","","","","","","","5","","",""
"revaluation","226","1013711","0.0-4.0-4.0-0.3","spark_pilot_norest","9147","5","8","Male","","false","","","","","[726.5]","./assets/img/canyon/animals/giraffe.jpg","[""ArrowRight""]","revaluation","canyon","17","{""ArrowUp,ArrowLeft"":26,""ArrowUp,ArrowRight"":10,""ArrowDown,ArrowLeft"":5,""ArrowDown,ArrowRight"":17}","true","ArrowDown,ArrowRight","","original","1","6","","",""
"html-keyboard-response","227","1014215","0.0-4.0-4.0-1.3","spark_pilot_norest","9147","5","8","Male","","","","","","","null","<div style=""font-size:60px;"">+</div>","null","fixation","","","","","","","","","7","","",""
"revaluation","228","1018231","0.0-4.0-4.0-0.4","spark_pilot_norest","9147","5","8","Male","","false","","","","","[695.1000000000931]","./assets/img/canyon/animals/lion.jpg","[""ArrowLeft""]","revaluation","canyon","26","{""ArrowUp,ArrowLeft"":26,""ArrowUp,ArrowRight"":10,""ArrowDown,ArrowLeft"":5,""ArrowDown,ArrowRight"":17}","true","ArrowUp,ArrowLeft","","original","1","8","","",""
"html-keyboard-response","229","1018735","0.0-4.0-4.0-1.4","spark_pilot_norest","9147","5","8","Male","","","","","","","null","<div style=""font-size:60px;"">+</div>","null","fixation","","","","","","","","","9","","",""
"revaluation","230","1022751","0.0-4.0-4.0-0.5","spark_pilot_norest","9147","5","8","Male","","false","","","","","[616.7000000001863]","./assets/img/canyon/animals/lion.jpg","[""ArrowLeft""]","revaluation","canyon","26","{""ArrowUp,ArrowLeft"":26,""ArrowUp,ArrowRight"":10,""ArrowDown,ArrowLeft"":5,""ArrowDown,ArrowRight"":17}","true","ArrowUp,ArrowLeft","","original","1","10","","",""
"html-keyboard-response","231","1023254","0.0-4.0-4.0-1.5","spark_pilot_norest","9147","5","8","Male","","","","","","","null","<div style=""font-size:60px;"">+</div>","null","fixation","","","","","","","","","11","","",""
"revaluation","232","1027270","0.0-4.0-4.0-0.6","spark_pilot_norest","9147","5","8","Male","","false","","","","","[773.7999999998137]","./assets/img/canyon/animals/giraffe.jpg","[""ArrowRight""]","revaluation","canyon","17","{""ArrowUp,ArrowLeft"":26,""ArrowUp,ArrowRight"":10,""ArrowDown,ArrowLeft"":5,""ArrowDown,ArrowRight"":17}","true","ArrowDown,ArrowRight","","original","1","12","","",""
"html-keyboard-response","233","1027774","0.0-4.0-4.0-1.6","spark_pilot_norest","9147","5","8","Male","","","","","","","null","<div style=""font-size:60px;"">+</div>","null","fixation","","","","","","","","","13","","",""
"revaluation","234","1031790","0.0-4.0-4.0-0.7","spark_pilot_norest","9147","5","8","Male","","false","","","","","[810.9000000003725]","./assets/img/canyon/animals/giraffe.jpg","[""ArrowLeft""]","revaluation","canyon","5","{""ArrowUp,ArrowLeft"":26,""ArrowUp,ArrowRight"":10,""ArrowDown,ArrowLeft"":5,""ArrowDown,ArrowRight"":17}","false","ArrowDown,ArrowLeft","","original","1","14","","",""
"html-keyboard-response","235","1032294","0.0-4.0-4.0-1.7","spark_pilot_norest","9147","5","8","Male","","","","","","","null","<div style=""font-size:60px;"">+</div>","null","fixation","","","","","","","","","15","","",""
"revaluation","236","1036310","0.0-4.0-4.0-0.8","spark_pilot_norest","9147","5","8","Male","","false","","","","","[1047.8999999999069]","./assets/img/canyon/animals/lion.jpg","[""ArrowLeft""]","revaluation","canyon","26","{""ArrowUp,ArrowLeft"":26,""ArrowUp,ArrowRight"":10,""ArrowDown,ArrowLeft"":5,""ArrowDown,ArrowRight"":17}","true","ArrowUp,ArrowLeft","","original","1","16","","",""
"html-keyboard-response","237","1036814","0.0-4.0-4.0-1.8","spark_pilot_norest","9147","5","8","Male","","","","","","","null","<div style=""font-size:60px;"">+</div>","null","fixation","","","","","","","","","17","","",""
"revaluation","238","1040822","0.0-4.0-4.0-0.9","spark_pilot_norest","9147","5","8","Male","","false","","","","","[603.8999999999069]","./assets/img/canyon/animals/giraffe.jpg","[""ArrowRight""]","revaluation","canyon","17","{""ArrowUp,ArrowLeft"":26,""ArrowUp,ArrowRight"":10,""ArrowDown,ArrowLeft"":5,""ArrowDown,ArrowRight"":17}","true","ArrowDown,ArrowRight","","original","1","18","","",""
"html-keyboard-response","239","1041326","0.0-4.0-4.0-1.9","spark_pilot_norest","9147","5","8","Male","","","","","","","null","<div style=""font-size:60px;"">+</div>","null","fixation","","","","","","","","","19","","",""
"revaluation","240","1045343","0.0-4.0-4.0-0.10","spark_pilot_norest","9147","5","8","Male","","false","","","","","[774.1000000000931]","./assets/img/canyon/animals/lion.jpg","[""ArrowLeft""]","revaluation","canyon","26","{""ArrowUp,ArrowLeft"":26,""ArrowUp,ArrowRight"":10,""ArrowDown,ArrowLeft"":5,""ArrowDown,ArrowRight"":17}","true","ArrowUp,ArrowLeft","","original","1","20","","",""
"html-keyboard-response","241","1045846","0.0-4.0-4.0-1.10","spark_pilot_norest","9147","5","8","Male","","","","","","","null","<div style=""font-size:60px;"">+</div>","null","fixation","","","","","","","","","21","","",""
"revaluation","242","1049862","0.0-4.0-4.0-0.11","spark_pilot_norest","9147","5","8","Male","","false","","","","","[924.8000000002794]","./assets/img/canyon/animals/lion.jpg","[""ArrowLeft""]","revaluation","canyon","26","{""ArrowUp,ArrowLeft"":26,""ArrowUp,ArrowRight"":10,""ArrowDown,ArrowLeft"":5,""ArrowDown,ArrowRight"":17}","true","ArrowUp,ArrowLeft","","original","1","22","","",""
"html-keyboard-response","243","1050366","0.0-4.0-4.0-1.11","spark_pilot_norest","9147","5","8","Male","","","","","","","null","<div style=""font-size:60px;"">+</div>","null","fixation","","","","","","","","","23","","",""
"revaluation","244","1054383","0.0-4.0-4.0-0.12","spark_pilot_norest","9147","5","8","Male","","false","","","","","[1071.5]","./assets/img/canyon/animals/lion.jpg","[""ArrowLeft""]","revaluation","canyon","26","{""ArrowUp,ArrowLeft"":26,""ArrowUp,ArrowRight"":10,""ArrowDown,ArrowLeft"":5,""ArrowDown,ArrowRight"":17}","true","ArrowUp,ArrowLeft","","original","1","24","","",""
"html-keyboard-response","245","1054886","0.0-4.0-4.0-1.12","spark_pilot_norest","9147","5","8","Male","","","","","","","null","<div style=""font-size:60px;"">+</div>","null","fixation","","","","","","","","","25","","",""
"revaluation","246","1058903","0.0-4.0-4.0-0.13","spark_pilot_norest","9147","5","8","Male","","false","","","","","[694.8999999999069]","./assets/img/canyon/animals/lion.jpg","[""ArrowLeft""]","revaluation","canyon","26","{""ArrowUp,ArrowLeft"":26,""ArrowUp,ArrowRight"":10,""ArrowDown,ArrowLeft"":5,""ArrowDown,ArrowRight"":17}","true","ArrowUp,ArrowLeft","","original","1","26","","",""
"html-keyboard-response","247","1059406","0.0-4.0-4.0-1.13","spark_pilot_norest","9147","5","8","Male","","","","","","","null","<div style=""font-size:60px;"">+</div>","null","fixation","","","","","","","","","27","","",""
"revaluation","248","1063422","0.0-4.0-4.0-0.14","spark_pilot_norest","9147","5","8","Male","","false","","","","","[1347]","./assets/img/canyon/animals/giraffe.jpg","[""ArrowRight""]","revaluation","canyon","17","{""ArrowUp,ArrowLeft"":26,""ArrowUp,ArrowRight"":10,""ArrowDown,ArrowLeft"":5,""ArrowDown,ArrowRight"":17}","true","ArrowDown,ArrowRight","","original","1","28","","",""
"html-keyboard-response","249","1063926","0.0-4.0-4.0-1.14","spark_pilot_norest","9147","5","8","Male","","","","","","","null","<div style=""font-size:60px;"">+</div>","null","fixation","","","","","","","","","29","","",""
"revaluation","250","1067942","0.0-4.0-4.0-0.15","spark_pilot_norest","9147","5","8","Male","","false","","","","","[766]","./assets/img/canyon/animals/giraffe.jpg","[""ArrowRight""]","revaluation","canyon","17","{""ArrowUp,ArrowLeft"":26,""ArrowUp,ArrowRight"":10,""ArrowDown,ArrowLeft"":5,""ArrowDown,ArrowRight"":17}","true","ArrowDown,ArrowRight","","original","1","30","","",""
"html-keyboard-response","251","1068446","0.0-4.0-4.0-1.15","spark_pilot_norest","9147","5","8","Male","","","","","","","null","<div style=""font-size:60px;"">+</div>","null","fixation","","","","","","","","","31","","",""
"revaluation","252","1072454","0.0-4.0-4.0-0.16","spark_pilot_norest","9147","5","8","Male","","false","","","","","[935.4000000003725]","./assets/img/canyon/animals/giraffe.jpg","[""ArrowRight""]","revaluation","canyon","17","{""ArrowUp,ArrowLeft"":26,""ArrowUp,ArrowRight"":10,""ArrowDown,ArrowLeft"":5,""ArrowDown,ArrowRight"":17}","true","ArrowDown,ArrowRight","","original","1","32","","",""
"html-keyboard-response","253","1072958","0.0-4.0-4.0-1.16","spark_pilot_norest","9147","5","8","Male","","","","","","","null","<div style=""font-size:60px;"">+</div>","null","fixation","","","","","","","","","33","","",""
"revaluation","254","1076974","0.0-4.0-4.0-0.17","spark_pilot_norest","9147","5","8","Male","","false","","","","","[1006.3000000002794]","./assets/img/canyon/animals/giraffe.jpg","[""ArrowRight""]","revaluation","canyon","17","{""ArrowUp,ArrowLeft"":26,""ArrowUp,ArrowRight"":10,""ArrowDown,ArrowLeft"":5,""ArrowDown,ArrowRight"":17}","true","ArrowDown,ArrowRight","","original","1","34","","",""
"html-keyboard-response","255","1077478","0.0-4.0-4.0-1.17","spark_pilot_norest","9147","5","8","Male","","","","","","","null","<div style=""font-size:60px;"">+</div>","null","fixation","","","","","","","","","35","","",""
"learning-instructions","256","1085670","0.0-4.0-5.0-0.0","spark_pilot_norest","9147","5","8","Male","","","","","","","null","<p> You have almost finished this part of the game! </p>
            <p> We are going to ask you to make a few more choices. </p>","","instructions","","","","","","","","","","","",""
"learning-instructions","257","1101647","0.0-4.0-5.0-0.1","spark_pilot_norest","9147","5","8","Male","","","","","","","null","<p> First, you need to decide whether to go up or down. When you see each picture, use the arrow keys to make your choice. </p>
            <p><b>You will not see which animal you found, but try to get to the one that will give you the most treasure.</b></p>","","instructions","","","","","","","","","","","",""
"html-keyboard-response","258","1102654","0.0-4.0-6.0-0.0","spark_pilot_norest","9147","5","8","Male","","","","","","","null","<div style=""font-size:100px;color:red;"">Starting in...</div>","null","","","","","","","","","","","","",""
"html-keyboard-response","259","1103662","0.0-4.0-6.0-1.0","spark_pilot_norest","9147","5","8","Male","","","","","","","null","<div style=""font-size:200px;color:red;"">3</div>","null","","","","","","","","","","","","",""
"html-keyboard-response","260","1104670","0.0-4.0-6.0-2.0","spark_pilot_norest","9147","5","8","Male","","","","","","","null","<div style=""font-size:200px;color:red;"">2</div>","null","","","","","","","","","","","","",""
"html-keyboard-response","261","1105678","0.0-4.0-6.0-3.0","spark_pilot_norest","9147","5","8","Male","","","","","","","null","<div style=""font-size:200px;color:red;"">1</div>","null","","","","","","","","","","","","",""
"revaluation","262","1106772","0.0-4.0-7.0-0.0","spark_pilot_norest","9147","5","8","Male","","false","","","","","[1088.3000000002794]","./assets/img/canyon/test/0.jpg","[""ArrowUp""]","first stage test","canyon","0","{""ArrowUp,ArrowLeft"":26,""ArrowUp,ArrowRight"":10,""ArrowDown,ArrowLeft"":5,""ArrowDown,ArrowRight"":17}","true","ArrowUp","false","original","1","","","",""
"html-keyboard-response","263","1107278","0.0-4.0-7.0-1.0","spark_pilot_norest","9147","5","8","Male","","","","","","","null","<div style=""font-size:60px;"">+</div>","null","fixation","","","","","","","","","","","",""
"revaluation","264","1108202","0.0-4.0-7.0-0.1","spark_pilot_norest","9147","5","8","Male","","false","","","","","[919.3999999999069]","./assets/img/canyon/test/3.jpg","[""ArrowUp""]","first stage test","canyon","0","{""ArrowUp,ArrowLeft"":26,""ArrowUp,ArrowRight"":10,""ArrowDown,ArrowLeft"":5,""ArrowDown,ArrowRight"":17}","true","ArrowUp","false","original","1","","","",""
"html-keyboard-response","265","1108711","0.0-4.0-7.0-1.1","spark_pilot_norest","9147","5","8","Male","","","","","","","null","<div style=""font-size:60px;"">+</div>","null","fixation","","","","","","","","","","","",""
"revaluation","266","1109584","0.0-4.0-7.0-0.2","spark_pilot_norest","9147","5","8","Male","","false","","","","","[869]","./assets/img/canyon/test/1.jpg","[""ArrowUp""]","first stage test","canyon","0","{""ArrowUp,ArrowLeft"":26,""ArrowUp,ArrowRight"":10,""ArrowDown,ArrowLeft"":5,""ArrowDown,ArrowRight"":17}","true","ArrowUp","false","original","1","","","",""
"html-keyboard-response","267","1110086","0.0-4.0-7.0-1.2","spark_pilot_norest","9147","5","8","Male","","","","","","","null","<div style=""font-size:60px;"">+</div>","null","fixation","","","","","","","","","","","",""
"revaluation","268","1110862","0.0-4.0-7.0-0.3","spark_pilot_norest","9147","5","8","Male","","false","","","","","[771.7999999998137]","./assets/img/canyon/test/2.jpg","[""ArrowUp""]","first stage test","canyon","0","{""ArrowUp,ArrowLeft"":26,""ArrowUp,ArrowRight"":10,""ArrowDown,ArrowLeft"":5,""ArrowDown,ArrowRight"":17}","true","ArrowUp","false","original","1","","","",""
"html-keyboard-response","269","1111366","0.0-4.0-7.0-1.3","spark_pilot_norest","9147","5","8","Male","","","","","","","null","<div style=""font-size:60px;"">+</div>","null","fixation","","","","","","","","","","","",""
"learning-instructions","270","1124718","0.0-4.0-8.0-0.0","spark_pilot_norest","9147","5","8","Male","","","","","","","null","<p> Now you will see the animals again and can search their chests for treasure. </p>
            <p> This time, you will not see how much treasure you earned, but you will earn more bonus money for making better choices. </p>","","instructions","","","","","","","","","","","",""
"html-keyboard-response","271","1125726","0.0-4.0-9.0-0.0","spark_pilot_norest","9147","5","8","Male","","","","","","","null","<div style=""font-size:100px;color:red;"">Starting in...</div>","null","","","","","","","","","","","","",""
"html-keyboard-response","272","1126734","0.0-4.0-9.0-1.0","spark_pilot_norest","9147","5","8","Male","","","","","","","null","<div style=""font-size:200px;color:red;"">3</div>","null","","","","","","","","","","","","",""
"html-keyboard-response","273","1127742","0.0-4.0-9.0-2.0","spark_pilot_norest","9147","5","8","Male","","","","","","","null","<div style=""font-size:200px;color:red;"">2</div>","null","","","","","","","","","","","","",""
"html-keyboard-response","274","1128750","0.0-4.0-9.0-3.0","spark_pilot_norest","9147","5","8","Male","","","","","","","null","<div style=""font-size:200px;color:red;"">1</div>","null","","","","","","","","","","","","",""
"revaluation","275","1130242","0.0-4.0-10.0-0.0","spark_pilot_norest","9147","5","8","Male","","false","","","","","[1487]","./assets/img/canyon/animals/lion.jpg","[""ArrowLeft""]","second stage test","canyon","0","{""ArrowUp,ArrowLeft"":26,""ArrowUp,ArrowRight"":10,""ArrowDown,ArrowLeft"":5,""ArrowDown,ArrowRight"":17}","true","ArrowUp,ArrowLeft","","original","1","","","",""
"html-keyboard-response","276","1130751","0.0-4.0-10.0-1.0","spark_pilot_norest","9147","5","8","Male","","","","","","","null","<div style=""font-size:60px;"">+</div>","null","fixation","","","","","","","","","","","",""
"revaluation","277","1131647","0.0-4.0-10.0-0.1","spark_pilot_norest","9147","5","8","Male","","false","","","","","[892.3000000002794]","./assets/img/canyon/animals/lion.jpg","[""ArrowRight""]","second stage test","canyon","0","{""ArrowUp,ArrowLeft"":26,""ArrowUp,ArrowRight"":10,""ArrowDown,ArrowLeft"":5,""ArrowDown,ArrowRight"":17}","false","ArrowUp,ArrowRight","","original","1","","","",""
"html-keyboard-response","278","1132150","0.0-4.0-10.0-1.1","spark_pilot_norest","9147","5","8","Male","","","","","","","null","<div style=""font-size:60px;"">+</div>","null","fixation","","","","","","","","","","","",""
"revaluation","279","1132831","0.0-4.0-10.0-0.2","spark_pilot_norest","9147","5","8","Male","","false","","","","","[676.2999999998137]","./assets/img/canyon/animals/lion.jpg","[""ArrowRight""]","second stage test","canyon","0","{""ArrowUp,ArrowLeft"":26,""ArrowUp,ArrowRight"":10,""ArrowDown,ArrowLeft"":5,""ArrowDown,ArrowRight"":17}","false","ArrowUp,ArrowRight","","original","1","","","",""
"html-keyboard-response","280","1133335","0.0-4.0-10.0-1.2","spark_pilot_norest","9147","5","8","Male","","","","","","","null","<div style=""font-size:60px;"">+</div>","null","fixation","","","","","","","","","","","",""
"revaluation","281","1134826","0.0-4.0-10.0-0.3","spark_pilot_norest","9147","5","8","Male","","false","","","","","[1487.1000000000931]","./assets/img/canyon/animals/lion.jpg","[""ArrowLeft""]","second stage test","canyon","0","{""ArrowUp,ArrowLeft"":26,""ArrowUp,ArrowRight"":10,""ArrowDown,ArrowLeft"":5,""ArrowDown,ArrowRight"":17}","true","ArrowUp,ArrowLeft","","original","1","","","",""
"html-keyboard-response","282","1135335","0.0-4.0-10.0-1.3","spark_pilot_norest","9147","5","8","Male","","","","","","","null","<div style=""font-size:60px;"">+</div>","null","fixation","","","","","","","","","","","",""
"revaluation","283","1136363","0.0-4.0-10.0-0.4","spark_pilot_norest","9147","5","8","Male","","false","","","","","[1023.2000000001863]","./assets/img/canyon/animals/giraffe.jpg","[""ArrowRight""]","second stage test","canyon","0","{""ArrowUp,ArrowLeft"":26,""ArrowUp,ArrowRight"":10,""ArrowDown,ArrowLeft"":5,""ArrowDown,ArrowRight"":17}","true","ArrowDown,ArrowRight","","original","1","","","",""
"html-keyboard-response","284","1136870","0.0-4.0-10.0-1.4","spark_pilot_norest","9147","5","8","Male","","","","","","","null","<div style=""font-size:60px;"">+</div>","null","fixation","","","","","","","","","","","",""
"revaluation","285","1137442","0.0-4.0-10.0-0.5","spark_pilot_norest","9147","5","8","Male","","false","","","","","[568]","./assets/img/canyon/animals/giraffe.jpg","[""ArrowLeft""]","second stage test","canyon","0","{""ArrowUp,ArrowLeft"":26,""ArrowUp,ArrowRight"":10,""ArrowDown,ArrowLeft"":5,""ArrowDown,ArrowRight"":17}","false","ArrowDown,ArrowLeft","","original","1","","","",""
"html-keyboard-response","286","1137950","0.0-4.0-10.0-1.5","spark_pilot_norest","9147","5","8","Male","","","","","","","null","<div style=""font-size:60px;"">+</div>","null","fixation","","","","","","","","","","","",""
"revaluation","287","1138392","0.0-4.0-10.0-0.6","spark_pilot_norest","9147","5","8","Male","","false","","","","","[437.70000000018626]","./assets/img/canyon/animals/giraffe.jpg","[""ArrowRight""]","second stage test","canyon","0","{""ArrowUp,ArrowLeft"":26,""ArrowUp,ArrowRight"":10,""ArrowDown,ArrowLeft"":5,""ArrowDown,ArrowRight"":17}","true","ArrowDown,ArrowRight","","original","1","","","",""
"html-keyboard-response","288","1138894","0.0-4.0-10.0-1.6","spark_pilot_norest","9147","5","8","Male","","","","","","","null","<div style=""font-size:60px;"">+</div>","null","fixation","","","","","","","","","","","",""
"revaluation","289","1139511","0.0-4.0-10.0-0.7","spark_pilot_norest","9147","5","8","Male","","false","","","","","[613.1000000000931]","./assets/img/canyon/animals/giraffe.jpg","[""ArrowLeft""]","second stage test","canyon","0","{""ArrowUp,ArrowLeft"":26,""ArrowUp,ArrowRight"":10,""ArrowDown,ArrowLeft"":5,""ArrowDown,ArrowRight"":17}","false","ArrowDown,ArrowLeft","","original","1","","","",""
"html-keyboard-response","290","1140015","0.0-4.0-10.0-1.7","spark_pilot_norest","9147","5","8","Male","","","","","","","null","<div style=""font-size:60px;"">+</div>","null","fixation","","","","","","","","","","","",""
"learning-instructions","291","1148182","0.0-4.0-0.1-0.2","spark_pilot_norest","9147","5","8","Male","","","","","","","5454.600000000093","<p> This time you are searching for treasure in the <b>ocean</b>.</p>","","instructions","","","","","","","","","","","",""
"learning-instructions","292","1167007","0.0-4.0-0.1-0.3","spark_pilot_norest","9147","5","8","Male","","","","","","","1569.3999999999069","<p><b>New</b> animals with <b>new</b> treasure chests live here. You need to explore to discover where the animal with the best treasure chest is.</p>
                    <p> Like before, once you figure out which animal has the chest with the most treasure, you should try to get to that animal and select that chest! </p>","","instructions","","","","","","","","","","","",""
"learning-instructions","293","1183410","0.0-4.0-1.1-0.1","spark_pilot_norest","9147","5","8","Male","","","","","","","1674.3999999999069","<p> Remember, when you see a picture of the place, use the up and down keys to <b>find an animal</b>.</p>
            <p> When you encounter an animal, you should use the left and right keys to <b>select a treasure chest</b>.</p>
            <p> Don't forget to look out for the robber! </p>","","instructions","","","","","","","","","","","",""
"revaluation","294","1187415","0.0-4.0-2.1-0.50","spark_pilot_norest","9147","5","8","Male","","false","","","","","[1987.5]","./assets/img/ocean/catch/1.jpg","[""ArrowDown""]","value training","ocean","-10","{""ArrowUp,ArrowLeft"":23,""ArrowUp,ArrowRight"":10,""ArrowDown,ArrowLeft"":8,""ArrowDown,ArrowRight"":30}","false","ArrowDown","true","revaluation","2","0","","",""
"html-keyboard-response","295","1187918","0.0-4.0-2.1-1.50","spark_pilot_norest","9147","5","8","Male","","","","","","","null","<div style=""font-size:60px;"">+</div>","null","fixation","","","","","","","","","1","","",""
"revaluation","296","1193942","0.0-4.0-2.1-0.51","spark_pilot_norest","9147","5","8","Male","","false","","","","","[1691.5,840.6999999997206]","./assets/img/ocean/memory/41.jpg","[""ArrowDown"",""ArrowRight""]","value training","ocean","30","{""ArrowUp,ArrowLeft"":23,""ArrowUp,ArrowRight"":10,""ArrowDown,ArrowLeft"":8,""ArrowDown,ArrowRight"":30}","true","ArrowDown,ArrowRight","false","revaluation","2","2","","",""
"html-keyboard-response","297","1194446","0.0-4.0-2.1-1.51","spark_pilot_norest","9147","5","8","Male","","","","","","","null","<div style=""font-size:60px;"">+</div>","null","fixation","","","","","","","","","3","","",""
"revaluation","298","1200471","0.0-4.0-2.1-0.52","spark_pilot_norest","9147","5","8","Male","","false","","","","","[922.1000000000931,640.5]","./assets/img/ocean/memory/37.jpg","[""ArrowDown"",""ArrowLeft""]","value training","ocean","8","{""ArrowUp,ArrowLeft"":23,""ArrowUp,ArrowRight"":10,""ArrowDown,ArrowLeft"":8,""ArrowDown,ArrowRight"":30}","false","ArrowDown,ArrowLeft","false","revaluation","2","4","","",""
"html-keyboard-response","299","1200975","0.0-4.0-2.1-1.52","spark_pilot_norest","9147","5","8","Male","","","","","","","null","<div style=""font-size:60px;"">+</div>","null","fixation","","","","","","","","","5","","",""
"revaluation","300","1206999","0.0-4.0-2.1-0.53","spark_pilot_norest","9147","5","8","Male","","false","","","","","[370.8000000002794,656.7000000001863]","./assets/img/ocean/memory/9.jpg","[""ArrowUp"",""ArrowRight""]","value training","ocean","10","{""ArrowUp,ArrowLeft"":23,""ArrowUp,ArrowRight"":10,""ArrowDown,ArrowLeft"":8,""ArrowDown,ArrowRight"":30}","false","ArrowUp,ArrowRight","false","revaluation","2","6","","",""
"html-keyboard-response","301","1207502","0.0-4.0-2.1-1.53","spark_pilot_norest","9147","5","8","Male","","","","","","","null","<div style=""font-size:60px;"">+</div>","null","fixation","","","","","","","","","7","","",""
"revaluation","302","1213527","0.0-4.0-2.1-0.54","spark_pilot_norest","9147","5","8","Male","","false","","","","","[549.8000000002794,508.5]","./assets/img/ocean/memory/18.jpg","[""ArrowUp"",""ArrowLeft""]","value training","ocean","23","{""ArrowUp,ArrowLeft"":23,""ArrowUp,ArrowRight"":10,""ArrowDown,ArrowLeft"":8,""ArrowDown,ArrowRight"":30}","false","ArrowUp,ArrowLeft","false","revaluation","2","8","","",""
"html-keyboard-response","303","1214030","0.0-4.0-2.1-1.54","spark_pilot_norest","9147","5","8","Male","","","","","","","null","<div style=""font-size:60px;"">+</div>","null","fixation","","","","","","","","","9","","",""
"revaluation","304","1218046","0.0-4.0-2.1-0.55","spark_pilot_norest","9147","5","8","Male","","false","","","","","[1107.3999999999069]","./assets/img/ocean/catch/0.jpg","[""spaceBar""]","value training","ocean","0","{""ArrowUp,ArrowLeft"":23,""ArrowUp,ArrowRight"":10,""ArrowDown,ArrowLeft"":8,""ArrowDown,ArrowRight"":30}","true","spaceBar","true","revaluation","2","10","","",""
"html-keyboard-response","305","1218550","0.0-4.0-2.1-1.55","spark_pilot_norest","9147","5","8","Male","","","","","","","null","<div style=""font-size:60px;"">+</div>","null","fixation","","","","","","","","","11","","",""
"revaluation","306","1224574","0.0-4.0-2.1-0.56","spark_pilot_norest","9147","5","8","Male","","false","","","","","[403.8000000002794,517.1000000000931]","./assets/img/ocean/memory/3.jpg","[""ArrowDown"",""ArrowRight""]","value training","ocean","30","{""ArrowUp,ArrowLeft"":23,""ArrowUp,ArrowRight"":10,""ArrowDown,ArrowLeft"":8,""ArrowDown,ArrowRight"":30}","true","ArrowDown,ArrowRight","false","revaluation","2","12","","",""
"html-keyboard-response","307","1225078","0.0-4.0-2.1-1.56","spark_pilot_norest","9147","5","8","Male","","","","","","","null","<div style=""font-size:60px;"">+</div>","null","fixation","","","","","","","","","13","","",""
"revaluation","308","1229094","0.0-4.0-2.1-0.57","spark_pilot_norest","9147","5","8","Male","","false","","","","","[799.2999999998137]","./assets/img/ocean/catch/4.jpg","[""spaceBar""]","value training","ocean","0","{""ArrowUp,ArrowLeft"":23,""ArrowUp,ArrowRight"":10,""ArrowDown,ArrowLeft"":8,""ArrowDown,ArrowRight"":30}","true","spaceBar","true","revaluation","2","14","","",""
"html-keyboard-response","309","1229598","0.0-4.0-2.1-1.57","spark_pilot_norest","9147","5","8","Male","","","","","","","null","<div style=""font-size:60px;"">+</div>","null","fixation","","","","","","","","","15","","",""
"revaluation","310","1235623","0.0-4.0-2.1-0.58","spark_pilot_norest","9147","5","8","Male","","false","","","","","[791,493.20000000018626]","./assets/img/ocean/memory/20.jpg","[""ArrowDown"",""ArrowRight""]","value training","ocean","30","{""ArrowUp,ArrowLeft"":23,""ArrowUp,ArrowRight"":10,""ArrowDown,ArrowLeft"":8,""ArrowDown,ArrowRight"":30}","true","ArrowDown,ArrowRight","false","revaluation","2","16","","",""
"html-keyboard-response","311","1236126","0.0-4.0-2.1-1.58","spark_pilot_norest","9147","5","8","Male","","","","","","","null","<div style=""font-size:60px;"">+</div>","null","fixation","","","","","","","","","17","","",""
"revaluation","312","1242151","0.0-4.0-2.1-0.59","spark_pilot_norest","9147","5","8","Male","","false","","","","","[1085.8999999999069,614.2999999998137]","./assets/img/ocean/memory/32.jpg","[""ArrowDown"",""ArrowRight""]","value training","ocean","30","{""ArrowUp,ArrowLeft"":23,""ArrowUp,ArrowRight"":10,""ArrowDown,ArrowLeft"":8,""ArrowDown,ArrowRight"":30}","true","ArrowDown,ArrowRight","false","revaluation","2","18","","",""
"html-keyboard-response","313","1242654","0.0-4.0-2.1-1.59","spark_pilot_norest","9147","5","8","Male","","","","","","","null","<div style=""font-size:60px;"">+</div>","null","fixation","","","","","","","","","19","","",""
"revaluation","314","1248678","0.0-4.0-2.1-0.60","spark_pilot_norest","9147","5","8","Male","","false","","","","","[658.5,287.39999999990687]","./assets/img/ocean/memory/7.jpg","[""ArrowDown"",""ArrowRight""]","value training","ocean","30","{""ArrowUp,ArrowLeft"":23,""ArrowUp,ArrowRight"":10,""ArrowDown,ArrowLeft"":8,""ArrowDown,ArrowRight"":30}","true","ArrowDown,ArrowRight","false","revaluation","2","20","","",""
