"trial_type","trial_index","time_elapsed","internal_node_id","task_version","subject_id","assigned_condition","age","gender","success","timeout","failed_images","failed_audio","failed_video","browser_interaction","rt","stimulus","response","task_part","environment","score","rewardMap","correct","fullState","isCatch","condition","order","trial_num","key_press","ground_truth","bonus"
"pavlovia","0","1434","0.0-0.0","spark_pilot_norest","10031","7","8","Female","","","","","","","","","","","","","","","","","","","","","",""
"preload","1","30723","0.0-1.0","spark_pilot_norest","10031","7","8","Female","true","false","[]","[]","[]","[{""event"":""fullscreenenter"",""trial"":2,""time"":37353}]","","","","","","","","","","","","","","","",""
"fullscreen","2","38326","0.0-2.0","spark_pilot_norest","10031","7","8","Female","true","","","","","","","","","","","","","","","","","","","","",""
"audio-button-response","3","41083","0.0-3.0-0.0-0.0","spark_pilot_norest","10031","7","8","Female","","","","","","","2571","./assets/audio/audiotest/turtle.mp3","2","audio_test","","","","","","","","","","","",""
"learning-instructions","4","50629","0.0-3.0-1.0-0.0","spark_pilot_norest","10031","7","8","Female","","","","","","","2554.400000035763","<p> Welcome! Please remember to stay in fullscreen mode and don't click away from the experiment. </p>","","instructions","","","","","","","","","","","",""
"learning-instructions","5","60803","0.0-3.0-1.0-0.1","spark_pilot_norest","10031","7","8","Female","","","","","","","1758","<p> Today you will be playing a game to earn treasure. </p>
            <p> At the end of the experiment, you will earn a bonus based on how much treasure you find. </p>
            <img src='./assets/img/instructions/treasure.jpg' class='instructions-image'>","","instructions","","","","","","","","","","","",""
"learning-instructions","6","81681","0.0-3.0-1.0-0.2","spark_pilot_norest","10031","7","8","Female","","","","","","","12605.600000023842","<p> Animals have hidden treasure in treasure chests. </p>
            <p> You need to first find an animal and then choose which of their treasure chests to search. </p>
            <img src='./assets/img/space/animals/cat.jpg' class='instructions-image'>","","instructions","","","","","","","","","","","",""
"learning-instructions","7","97153","0.0-3.0-1.0-0.3","spark_pilot_norest","10031","7","8","Female","","","","","","","2307.599999964237","<p> In each round, you will search for treasure in a different place. In the real game, there will be two rounds. </p>
            <p> You will begin with a separate, practice round where you will search for treasure in outer space. </p>
            <img src='./assets/img/space/0.jpg' class='instructions-image'>","","instructions","","","","","","","","","","","",""
"learning-instructions","8","110082","0.0-3.0-1.0-0.4","spark_pilot_norest","10031","7","8","Female","","","","","","","1496","<p> On every turn, you will see a picture of the place that you are in, but the specific image may be different each time. </p>
            <p> For example, both of these images mean you are in outer space. </p>
            <img src='./assets/img/instructions/outerspace.jpg' class='instructions-image'>","","instructions","","","","","","","","","","","",""
"learning-instructions","9","119151","0.0-3.0-1.0-0.5","spark_pilot_norest","10031","7","8","Female","","","","","","","1236.5","<p> You need to decide which direction to travel in. </p>
            <p> You can choose between going <b>up or down</b> by using the arrow keys. </p>
            <img src='./assets/img/instructions/updown.jpg' class='instructions-image'>","","instructions","","","","","","","","","","","",""
"learning-instructions","10","129747","0.0-3.0-1.0-0.6","spark_pilot_norest","10031","7","8","Female","","","","","","","1782.1000000238419","<p> You will have <b>2 seconds</b> to make your choice. </p>
            <p> If you do not make a choice within 2 seconds, you will not find an animal or earn treasure. </p>
            <img src='./assets/img/instructions/2seconds.jpg' class='instructions-image'>","","instructions","","","","","","","","","","","",""
"learning-instructions","11","182742","0.0-3.0-1.0-0.7","spark_pilot_norest","10031","7","8","Female","","","","","","","45956.60000002384","<p> Let’s try practicing that now! </p>
            <p> When you see a picture of the place you are in, press the <b>up</b> key to travel up. </p>
            <img src='./assets/img/instructions/pressUp.jpg' class='instructions-image'>","","instructions","","","","","","","","","","","",""
"revaluation","12","186757","0.0-3.0-2.0-0.0","spark_pilot_norest","10031","7","8","Female","","true","","","","","[]","./assets/img/space/0.jpg","[]","first stage practice","space","-5","null","null","","false","","","","","",""
"html-keyboard-response","13","187260","0.0-3.0-2.0-1.0","spark_pilot_norest","10031","7","8","Female","","","","","","","null","<div style=""font-size:60px;"">+</div>","null","fixation","","","","","","","","","","","",""
"revaluation","14","191268","0.0-3.0-2.0-0.1","spark_pilot_norest","10031","7","8","Female","","false","","","","","[1803]","./assets/img/space/1.jpg","[""ArrowUp""]","first stage practice","space","0","null","null","ArrowUp","false","","","","","",""
"html-keyboard-response","15","191770","0.0-3.0-2.0-1.1","spark_pilot_norest","10031","7","8","Female","","","","","","","null","<div style=""font-size:60px;"">+</div>","null","fixation","","","","","","","","","","","",""
"revaluation","16","195789","0.0-3.0-2.0-0.2","spark_pilot_norest","10031","7","8","Female","","false","","","","","[1329.5]","./assets/img/space/2.jpg","[""ArrowUp""]","first stage practice","space","0","null","null","ArrowUp","false","","","","","",""
"html-keyboard-response","17","196292","0.0-3.0-2.0-1.2","spark_pilot_norest","10031","7","8","Female","","","","","","","null","<div style=""font-size:60px;"">+</div>","null","fixation","","","","","","","","","","","",""
"learning-instructions","18","202442","0.0-3.0-3.0-0.0","spark_pilot_norest","10031","7","8","Female","","","","","","","1365.300000011921","<p> Great job! Now try pressing the <b>down</b> key to travel down. </p>
            <img src='./assets/img/instructions/pressDown.jpg' class='instructions-image'>","","instructions","","","","","","","","","","","",""
"revaluation","19","206447","0.0-3.0-4.0-0.0","spark_pilot_norest","10031","7","8","Female","","false","","","","","[669.8000000119209]","./assets/img/space/3.jpg","[""ArrowDown""]","first stage practice","space","0","null","null","ArrowDown","false","","","","","",""
"html-keyboard-response","20","206948","0.0-3.0-4.0-1.0","spark_pilot_norest","10031","7","8","Female","","","","","","","null","<div style=""font-size:60px;"">+</div>","null","fixation","","","","","","","","","","","",""
"revaluation","21","210963","0.0-3.0-4.0-0.1","spark_pilot_norest","10031","7","8","Female","","false","","","","","[906.6999999880791]","./assets/img/space/4.jpg","[""ArrowDown""]","first stage practice","space","0","null","null","ArrowDown","false","","","","","",""
"html-keyboard-response","22","211465","0.0-3.0-4.0-1.1","spark_pilot_norest","10031","7","8","Female","","","","","","","null","<div style=""font-size:60px;"">+</div>","null","fixation","","","","","","","","","","","",""
"revaluation","23","215478","0.0-3.0-4.0-0.2","spark_pilot_norest","10031","7","8","Female","","false","","","","","[1294.1000000238419]","./assets/img/space/5.jpg","[""ArrowDown""]","first stage practice","space","0","null","null","ArrowDown","false","","","","","",""
"html-keyboard-response","24","215990","0.0-3.0-4.0-1.2","spark_pilot_norest","10031","7","8","Female","","","","","","","null","<div style=""font-size:60px;"">+</div>","null","fixation","","","","","","","","","","","",""
"learning-instructions","25","227413","0.0-3.0-5.0-0.0","spark_pilot_norest","10031","7","8","Female","","","","","","","1547.5","<p> The animals don’t move, so the animal in the upper part of a place will stay in the upper part of a place, and the animal in the lower part of a place will stay in the lower part of a place. </p>","","instructions","","","","","","","","","","","",""
"learning-instructions","26","237275","0.0-3.0-5.0-0.1","spark_pilot_norest","10031","7","8","Female","","","","","","","729.9000000357628","<p> Each animal has two treasure chests for you to choose from. </p>
            <p> The amount of treasure in each chest can range from <b> 0 to 40 pieces.</b></p>","","instructions","","","","","","","","","","","",""
"learning-instructions","27","249179","0.0-3.0-5.0-0.2","spark_pilot_norest","10031","7","8","Female","","","","","","","703.5999999642372","<p> You should decide which chest to search for treasure by using the <b>left</b> and <b>right</b> arrow keys. </p>
            <p><b> Pay attention to which animal is on the screen, as the animals have different treasure chests. </b></p>
            <img src='./assets/img/instructions/leftright.jpg' class='instructions-image'>","","instructions","","","","","","","","","","","",""
"learning-instructions","28","256477","0.0-3.0-5.0-0.3","spark_pilot_norest","10031","7","8","Female","","","","","","","931.8999999761581","<p> Let’s try practicing that now. </p>
            <p> When you see an animal, choose which chest to search for treasure. </p>
            <img src='./assets/img/instructions/chooseChest.jpg' class='instructions-image'>","","instructions","","","","","","","","","","","",""
"revaluation","29","260492","0.0-3.0-6.0-0.0","spark_pilot_norest","10031","7","8","Female","","false","","","","","[785]","./assets/img/space/animals/cat.jpg","[""ArrowRight""]","second stage practice","space","36","{""ArrowUp,ArrowLeft"":3,""ArrowUp,ArrowRight"":36,""ArrowDown,ArrowLeft"":15,""ArrowDown,ArrowRight"":23}","true","ArrowUp,ArrowRight","","","","","","",""
"html-keyboard-response","30","261008","0.0-3.0-6.0-1.0","spark_pilot_norest","10031","7","8","Female","","","","","","","null","<div style=""font-size:60px;"">+</div>","null","fixation","","","","","","","","","","","",""
"revaluation","31","265040","0.0-3.0-6.0-0.1","spark_pilot_norest","10031","7","8","Female","","false","","","","","[395.89999997615814]","./assets/img/space/animals/cat.jpg","[""ArrowLeft""]","second stage practice","space","3","{""ArrowUp,ArrowLeft"":3,""ArrowUp,ArrowRight"":36,""ArrowDown,ArrowLeft"":15,""ArrowDown,ArrowRight"":23}","false","ArrowUp,ArrowLeft","","","","","","",""
"html-keyboard-response","32","265542","0.0-3.0-6.0-1.1","spark_pilot_norest","10031","7","8","Female","","","","","","","null","<div style=""font-size:60px;"">+</div>","null","fixation","","","","","","","","","","","",""
"revaluation","33","269575","0.0-3.0-6.0-0.2","spark_pilot_norest","10031","7","8","Female","","false","","","","","[549.3000000119209]","./assets/img/space/animals/rabbit.jpg","[""ArrowRight""]","second stage practice","space","23","{""ArrowUp,ArrowLeft"":3,""ArrowUp,ArrowRight"":36,""ArrowDown,ArrowLeft"":15,""ArrowDown,ArrowRight"":23}","true","ArrowDown,ArrowRight","","","","","","",""
"html-keyboard-response","34","270079","0.0-3.0-6.0-1.2","spark_pilot_norest","10031","7","8","Female","","","","","","","null","<div style=""font-size:60px;"">+</div>","null","fixation","","","","","","","","","","","",""
"revaluation","35","274103","0.0-3.0-6.0-0.3","spark_pilot_norest","10031","7","8","Female","","false","","","","","[700.3999999761581]","./assets/img/space/animals/rabbit.jpg","[""ArrowRight""]","second stage practice","space","23","{""ArrowUp,ArrowLeft"":3,""ArrowUp,ArrowRight"":36,""ArrowDown,ArrowLeft"":15,""ArrowDown,ArrowRight"":23}","true","ArrowDown,ArrowRight","","","","","","",""
"html-keyboard-response","36","274604","0.0-3.0-6.0-1.3","spark_pilot_norest","10031","7","8","Female","","","","","","","null","<div style=""font-size:60px;"">+</div>","null","fixation","","","","","","","","","","","",""
"learning-instructions","37","296935","0.0-3.0-7.0-0.0","spark_pilot_norest","10031","7","8","Female","","","","","","","5500","<p> Great job. Now let’s try putting it together. </p>
            <p> On each turn, you will first see a picture to remind you of the place you are in, and you need to choose whether to go up or down. </p>
            <p> Then you will see an animal and choose which of its chests to search for treasure. </p>","","instructions","","","","","","","","","","","",""
"learning-instructions","38","315217","0.0-3.0-7.0-0.1","spark_pilot_norest","10031","7","8","Female","","","","","","","10022.200000047684","<p> When you choose whether to go up or down, try to go to the animal with the chest with the most treasure. </p>
            <p> Try practicing that now! </p>","","instructions","","","","","","","","","","","",""
"revaluation","39","321246","0.0-3.0-8.0-0.0","spark_pilot_norest","10031","7","8","Female","","false","","","","","[1323.9000000357628,965.3000000119209]","./assets/img/space/6.jpg","[""ArrowDown"",""ArrowRight""]","full practice","space","23","{""ArrowUp,ArrowLeft"":3,""ArrowUp,ArrowRight"":36,""ArrowDown,ArrowLeft"":15,""ArrowDown,ArrowRight"":23}","false","ArrowDown,ArrowRight","false","","","","","",""
"html-keyboard-response","40","321759","0.0-3.0-8.0-1.0","spark_pilot_norest","10031","7","8","Female","","","","","","","null","<div style=""font-size:60px;"">+</div>","null","fixation","","","","","","","","","","","",""
"revaluation","41","327800","0.0-3.0-8.0-0.1","spark_pilot_norest","10031","7","8","Female","","false","","","","","[587.8000000119209,694.1999999880791]","./assets/img/space/7.jpg","[""ArrowDown"",""ArrowLeft""]","full practice","space","15","{""ArrowUp,ArrowLeft"":3,""ArrowUp,ArrowRight"":36,""ArrowDown,ArrowLeft"":15,""ArrowDown,ArrowRight"":23}","false","ArrowDown,ArrowLeft","false","","","","","",""
"html-keyboard-response","42","328302","0.0-3.0-8.0-1.1","spark_pilot_norest","10031","7","8","Female","","","","","","","null","<div style=""font-size:60px;"">+</div>","null","fixation","","","","","","","","","","","",""
"revaluation","43","334339","0.0-3.0-8.0-0.2","spark_pilot_norest","10031","7","8","Female","","false","","","","","[957.6999999880791,596.5999999642372]","./assets/img/space/8.jpg","[""ArrowUp"",""ArrowRight""]","full practice","space","36","{""ArrowUp,ArrowLeft"":3,""ArrowUp,ArrowRight"":36,""ArrowDown,ArrowLeft"":15,""ArrowDown,ArrowRight"":23}","true","ArrowUp,ArrowRight","false","","","","","",""
"html-keyboard-response","44","334840","0.0-3.0-8.0-1.2","spark_pilot_norest","10031","7","8","Female","","","","","","","null","<div style=""font-size:60px;"">+</div>","null","fixation","","","","","","","","","","","",""
"revaluation","45","338845","0.0-3.0-8.0-0.3","spark_pilot_norest","10031","7","8","Female","","true","","","","","[]","./assets/img/space/9.jpg","[]","full practice","space","-5","{""ArrowUp,ArrowLeft"":3,""ArrowUp,ArrowRight"":36,""ArrowDown,ArrowLeft"":15,""ArrowDown,ArrowRight"":23}","false","","false","","","","","",""
"html-keyboard-response","46","339346","0.0-3.0-8.0-1.3","spark_pilot_norest","10031","7","8","Female","","","","","","","null","<div style=""font-size:60px;"">+</div>","null","fixation","","","","","","","","","","","",""
"revaluation","47","345353","0.0-3.0-8.0-0.4","spark_pilot_norest","10031","7","8","Female","","false","","","","","[305.7999999523163,410.69999998807907]","./assets/img/space/10.jpg","[""ArrowDown"",""ArrowRight""]","full practice","space","23","{""ArrowUp,ArrowLeft"":3,""ArrowUp,ArrowRight"":36,""ArrowDown,ArrowLeft"":15,""ArrowDown,ArrowRight"":23}","false","ArrowDown,ArrowRight","false","","","","","",""
"html-keyboard-response","48","345855","0.0-3.0-8.0-1.4","spark_pilot_norest","10031","7","8","Female","","","","","","","null","<div style=""font-size:60px;"">+</div>","null","fixation","","","","","","","","","","","",""
"learning-instructions","49","357031","0.0-3.0-9.0-0.0","spark_pilot_norest","10031","7","8","Female","","","","","","","769.9000000357628","<p> One last thing: sometimes, you will see a robber. The robber can be anywhere in the picture. </p>
            <p> If you do not stop them, you will lose treasure. </p>
            <img src='./assets/img/instructions/robber.jpg' class='instructions-image'>","","instructions","","","","","","","","","","","",""
"learning-instructions","50","365253","0.0-3.0-9.0-0.1","spark_pilot_norest","10031","7","8","Female","","","","","","","1041.5","<p> If you see the robber, you should <b>press the space bar</b> rather than using the arrow keys. </p>
            <p> Try practicing that now! </p>","","instructions","","","","","","","","","","","",""
"revaluation","51","369262","0.0-3.0-10.0-0.0","spark_pilot_norest","10031","7","8","Female","","false","","","","","[756.5]","./assets/img/space/catch/0.jpg","[""spaceBar""]","catch practice","space","0","{""ArrowUp,ArrowLeft"":3,""ArrowUp,ArrowRight"":36,""ArrowDown,ArrowLeft"":15,""ArrowDown,ArrowRight"":23}","true","spaceBar","true","","","","","",""
"html-keyboard-response","52","369764","0.0-3.0-10.0-1.0","spark_pilot_norest","10031","7","8","Female","","","","","","","null","<div style=""font-size:60px;"">+</div>","null","fixation","","","","","","","","","","","",""
"revaluation","53","373792","0.0-3.0-10.0-0.1","spark_pilot_norest","10031","7","8","Female","","false","","","","","[229.39999997615814]","./assets/img/space/catch/1.jpg","[""spaceBar""]","catch practice","space","0","{""ArrowUp,ArrowLeft"":3,""ArrowUp,ArrowRight"":36,""ArrowDown,ArrowLeft"":15,""ArrowDown,ArrowRight"":23}","true","spaceBar","true","","","","","",""
"html-keyboard-response","54","374304","0.0-3.0-10.0-1.1","spark_pilot_norest","10031","7","8","Female","","","","","","","null","<div style=""font-size:60px;"">+</div>","null","fixation","","","","","","","","","","","",""
"revaluation","55","378329","0.0-3.0-10.0-0.2","spark_pilot_norest","10031","7","8","Female","","false","","","","","[434.30000001192093]","./assets/img/space/catch/2.jpg","[""spaceBar""]","catch practice","space","0","{""ArrowUp,ArrowLeft"":3,""ArrowUp,ArrowRight"":36,""ArrowDown,ArrowLeft"":15,""ArrowDown,ArrowRight"":23}","true","spaceBar","true","","","","","",""
"html-keyboard-response","56","378831","0.0-3.0-10.0-1.2","spark_pilot_norest","10031","7","8","Female","","","","","","","null","<div style=""font-size:60px;"">+</div>","null","fixation","","","","","","","","","","","",""
"learning-instructions","57","387647","0.0-3.0-11.0-0.0-0.0","spark_pilot_norest","10031","7","8","Female","","","","","","","3545.7999999523163","<p> Now, you will practice a shortened version of the game to get a sense of how it all fits together. </p>","","instructions","","","","","","","","","","","",""
"learning-instructions","58","391721","0.0-3.0-11.0-0.0-0.1","spark_pilot_norest","10031","7","8","Female","","","","","","","889.3000000119209","<p>This time you are searching for treasure in outer space.</p>","","instructions","","","","","","","","","","","",""
"learning-instructions","59","407993","0.0-3.0-11.0-1.0-0.0","spark_pilot_norest","10031","7","8","Female","","","","","","","1491.800000011921","<p> Remember, when you see a picture of the place, use the up and down keys to <b>find an animal</b>.</p>
            <p> When you encounter an animal, you should use the left and right keys to <b>select a treasure chest</b>.</p>
            <p> Don't forget to look out for the robber! </p>","","instructions","","","","","","","","","","","",""
"revaluation","60","413997","0.0-3.0-11.0-2.0-0.0","spark_pilot_norest","10031","7","8","Female","","false","","","","","[1317.300000011921,505.9000000357628]","./assets/img/space/11.jpg","[""ArrowDown"",""ArrowRight""]","practice block","space","23","{""ArrowUp,ArrowLeft"":3,""ArrowUp,ArrowRight"":36,""ArrowDown,ArrowLeft"":15,""ArrowDown,ArrowRight"":23}","false","ArrowDown,ArrowRight","false","","","","","",""
"html-keyboard-response","61","414499","0.0-3.0-11.0-2.0-1.0","spark_pilot_norest","10031","7","8","Female","","","","","","","null","<div style=""font-size:60px;"">+</div>","null","fixation","","","","","","","","","","","",""
"revaluation","62","420523","0.0-3.0-11.0-2.0-0.1","spark_pilot_norest","10031","7","8","Female","","false","","","","","[1276.7999999523163,689.8999999761581]","./assets/img/space/12.jpg","[""ArrowDown"",""ArrowRight""]","practice block","space","23","{""ArrowUp,ArrowLeft"":3,""ArrowUp,ArrowRight"":36,""ArrowDown,ArrowLeft"":15,""ArrowDown,ArrowRight"":23}","false","ArrowDown,ArrowRight","false","","","","","",""
"html-keyboard-response","63","421025","0.0-3.0-11.0-2.0-1.1","spark_pilot_norest","10031","7","8","Female","","","","","","","null","<div style=""font-size:60px;"">+</div>","null","fixation","","","","","","","","","","","",""
"revaluation","64","427052","0.0-3.0-11.0-2.0-0.2","spark_pilot_norest","10031","7","8","Female","","false","","","","","[791.1999999880791,558.0999999642372]","./assets/img/space/13.jpg","[""ArrowDown"",""ArrowLeft""]","practice block","space","15","{""ArrowUp,ArrowLeft"":3,""ArrowUp,ArrowRight"":36,""ArrowDown,ArrowLeft"":15,""ArrowDown,ArrowRight"":23}","false","ArrowDown,ArrowLeft","false","","","","","",""
"html-keyboard-response","65","427567","0.0-3.0-11.0-2.0-1.2","spark_pilot_norest","10031","7","8","Female","","","","","","","null","<div style=""font-size:60px;"">+</div>","null","fixation","","","","","","","","","","","",""
"revaluation","66","433593","0.0-3.0-11.0-2.0-0.3","spark_pilot_norest","10031","7","8","Female","","false","","","","","[583.5,651]","./assets/img/space/14.jpg","[""ArrowUp"",""ArrowRight""]","practice block","space","36","{""ArrowUp,ArrowLeft"":3,""ArrowUp,ArrowRight"":36,""ArrowDown,ArrowLeft"":15,""ArrowDown,ArrowRight"":23}","true","ArrowUp,ArrowRight","false","","","","","",""
"html-keyboard-response","67","434105","0.0-3.0-11.0-2.0-1.3","spark_pilot_norest","10031","7","8","Female","","","","","","","null","<div style=""font-size:60px;"">+</div>","null","fixation","","","","","","","","","","","",""
"revaluation","68","440126","0.0-3.0-11.0-2.0-0.4","spark_pilot_norest","10031","7","8","Female","","false","","","","","[1299.9000000357628,689.3000000119209]","./assets/img/space/11.jpg","[""ArrowDown"",""ArrowRight""]","practice block","space","23","{""ArrowUp,ArrowLeft"":3,""ArrowUp,ArrowRight"":36,""ArrowDown,ArrowLeft"":15,""ArrowDown,ArrowRight"":23}","false","ArrowDown,ArrowRight","false","","","","","",""
"html-keyboard-response","69","440628","0.0-3.0-11.0-2.0-1.4","spark_pilot_norest","10031","7","8","Female","","","","","","","null","<div style=""font-size:60px;"">+</div>","null","fixation","","","","","","","","","","","",""
"revaluation","70","446636","0.0-3.0-11.0-2.0-0.5","spark_pilot_norest","10031","7","8","Female","","false","","","","","[495,963.8999999761581]","./assets/img/space/12.jpg","[""ArrowUp"",""ArrowLeft""]","practice block","space","3","{""ArrowUp,ArrowLeft"":3,""ArrowUp,ArrowRight"":36,""ArrowDown,ArrowLeft"":15,""ArrowDown,ArrowRight"":23}","false","ArrowUp,ArrowLeft","false","","","","","",""
"html-keyboard-response","71","447138","0.0-3.0-11.0-2.0-1.5","spark_pilot_norest","10031","7","8","Female","","","","","","","null","<div style=""font-size:60px;"">+</div>","null","fixation","","","","","","","","","","","",""
"revaluation","72","453149","0.0-3.0-11.0-2.0-0.6","spark_pilot_norest","10031","7","8","Female","","false","","","","","[1632.8999999761581,839.4000000357628]","./assets/img/space/13.jpg","[""ArrowDown"",""ArrowRight""]","practice block","space","23","{""ArrowUp,ArrowLeft"":3,""ArrowUp,ArrowRight"":36,""ArrowDown,ArrowLeft"":15,""ArrowDown,ArrowRight"":23}","false","ArrowDown,ArrowRight","false","","","","","",""
"html-keyboard-response","73","453650","0.0-3.0-11.0-2.0-1.6","spark_pilot_norest","10031","7","8","Female","","","","","","","null","<div style=""font-size:60px;"">+</div>","null","fixation","","","","","","","","","","","",""
"revaluation","74","459656","0.0-3.0-11.0-2.0-0.7","spark_pilot_norest","10031","7","8","Female","","false","","","","","[875.5,454.19999998807907]","./assets/img/space/14.jpg","[""ArrowUp"",""ArrowRight""]","practice block","space","36","{""ArrowUp,ArrowLeft"":3,""ArrowUp,ArrowRight"":36,""ArrowDown,ArrowLeft"":15,""ArrowDown,ArrowRight"":23}","true","ArrowUp,ArrowRight","false","","","","","",""
"html-keyboard-response","75","460159","0.0-3.0-11.0-2.0-1.7","spark_pilot_norest","10031","7","8","Female","","","","","","","null","<div style=""font-size:60px;"">+</div>","null","fixation","","","","","","","","","","","",""
"revaluation","76","464166","0.0-3.0-11.0-2.0-0.8","spark_pilot_norest","10031","7","8","Female","","false","","","","","[1142.699999988079]","./assets/img/space/catch/3.jpg","[""spaceBar""]","practice block","space","0","{""ArrowUp,ArrowLeft"":3,""ArrowUp,ArrowRight"":36,""ArrowDown,ArrowLeft"":15,""ArrowDown,ArrowRight"":23}","true","spaceBar","true","","","","","",""
"html-keyboard-response","77","464668","0.0-3.0-11.0-2.0-1.8","spark_pilot_norest","10031","7","8","Female","","","","","","","null","<div style=""font-size:60px;"">+</div>","null","fixation","","","","","","","","","","","",""
"learning-instructions","78","487431","0.0-3.0-11.0-3.0-0.0","spark_pilot_norest","10031","7","8","Female","","","","","","","9762.899999976158","<p> Now, you will travel with a friend who will choose whether you go up or down first. </p>
            <p> On these turns, you will just see the animal that they found. You will still get to choose which chest to search for treasure.</p>","","instructions","","","","","","","","","","","",""
"revaluation","79","491452","0.0-3.0-11.0-4.0-0.0","spark_pilot_norest","10031","7","8","Female","","false","","","","","[1395]","./assets/img/space/animals/rabbit.jpg","[""ArrowRight""]","practice block","space","23","{""ArrowUp,ArrowLeft"":3,""ArrowUp,ArrowRight"":36,""ArrowDown,ArrowLeft"":15,""ArrowDown,ArrowRight"":23}","true","ArrowDown,ArrowRight","","","","","","",""
"html-keyboard-response","80","491953","0.0-3.0-11.0-4.0-1.0","spark_pilot_norest","10031","7","8","Female","","","","","","","null","<div style=""font-size:60px;"">+</div>","null","fixation","","","","","","","","","","","",""
"revaluation","81","495960","0.0-3.0-11.0-4.0-0.1","spark_pilot_norest","10031","7","8","Female","","false","","","","","[339.2999999523163]","./assets/img/space/animals/rabbit.jpg","[""ArrowRight""]","practice block","space","23","{""ArrowUp,ArrowLeft"":3,""ArrowUp,ArrowRight"":36,""ArrowDown,ArrowLeft"":15,""ArrowDown,ArrowRight"":23}","true","ArrowDown,ArrowRight","","","","","","",""
"html-keyboard-response","82","496470","0.0-3.0-11.0-4.0-1.1","spark_pilot_norest","10031","7","8","Female","","","","","","","null","<div style=""font-size:60px;"">+</div>","null","fixation","","","","","","","","","","","",""
"revaluation","83","500491","0.0-3.0-11.0-4.0-0.2","spark_pilot_norest","10031","7","8","Female","","false","","","","","[474.4000000357628]","./assets/img/space/animals/cat.jpg","[""ArrowRight""]","practice block","space","36","{""ArrowUp,ArrowLeft"":3,""ArrowUp,ArrowRight"":36,""ArrowDown,ArrowLeft"":15,""ArrowDown,ArrowRight"":23}","true","ArrowUp,ArrowRight","","","","","","",""
"html-keyboard-response","84","501004","0.0-3.0-11.0-4.0-1.2","spark_pilot_norest","10031","7","8","Female","","","","","","","null","<div style=""font-size:60px;"">+</div>","null","fixation","","","","","","","","","","","",""
"revaluation","85","505022","0.0-3.0-11.0-4.0-0.3","spark_pilot_norest","10031","7","8","Female","","false","","","","","[422.69999998807907]","./assets/img/space/animals/cat.jpg","[""ArrowRight""]","practice block","space","36","{""ArrowUp,ArrowLeft"":3,""ArrowUp,ArrowRight"":36,""ArrowDown,ArrowLeft"":15,""ArrowDown,ArrowRight"":23}","true","ArrowUp,ArrowRight","","","","","","",""
"html-keyboard-response","86","505535","0.0-3.0-11.0-4.0-1.3","spark_pilot_norest","10031","7","8","Female","","","","","","","null","<div style=""font-size:60px;"">+</div>","null","fixation","","","","","","","","","","","",""
"learning-instructions","87","513673","0.0-3.0-11.0-5.0-0.0","spark_pilot_norest","10031","7","8","Female","","","","","","","null","<p> You have almost finished this part of the game! </p>
            <p> We are going to ask you to make a few more choices. </p>","","instructions","","","","","","","","","","","",""
"learning-instructions","88","529689","0.0-3.0-11.0-5.0-0.1","spark_pilot_norest","10031","7","8","Female","","","","","","","null","<p> First, you need to decide whether to go up or down. When you see each picture, use the arrow keys to make your choice. </p>
            <p><b>You will not see which animal you found, but try to get to the one that will give you the most treasure.</b></p>","","instructions","","","","","","","","","","","",""
"html-keyboard-response","89","530691","0.0-3.0-11.0-6.0-0.0","spark_pilot_norest","10031","7","8","Female","","","","","","","null","<div style=""font-size:100px;color:red;"">Starting in...</div>","null","","","","","","","","","","","","",""
"html-keyboard-response","90","531692","0.0-3.0-11.0-6.0-1.0","spark_pilot_norest","10031","7","8","Female","","","","","","","null","<div style=""font-size:200px;color:red;"">3</div>","null","","","","","","","","","","","","",""
"html-keyboard-response","91","532694","0.0-3.0-11.0-6.0-2.0","spark_pilot_norest","10031","7","8","Female","","","","","","","null","<div style=""font-size:200px;color:red;"">2</div>","null","","","","","","","","","","","","",""
"html-keyboard-response","92","533696","0.0-3.0-11.0-6.0-3.0","spark_pilot_norest","10031","7","8","Female","","","","","","","null","<div style=""font-size:200px;color:red;"">1</div>","null","","","","","","","","","","","","",""
"revaluation","93","534556","0.0-3.0-11.0-7.0","spark_pilot_norest","10031","7","8","Female","","false","","","","","[854.0999999642372]","./assets/img/space/15.jpg","[""ArrowDown""]","practice block","space","0","{""ArrowUp,ArrowLeft"":3,""ArrowUp,ArrowRight"":36,""ArrowDown,ArrowLeft"":15,""ArrowDown,ArrowRight"":23}","false","ArrowDown","false","","","","","",""
"html-keyboard-response","94","535060","0.0-3.0-11.0-8.0","spark_pilot_norest","10031","7","8","Female","","","","","","","null","<div style=""font-size:60px;"">+</div>","null","fixation","","","","","","","","","","","",""
"learning-instructions","95","548467","0.0-3.0-11.0-9.0-0.0","spark_pilot_norest","10031","7","8","Female","","","","","","","null","<p> Now you will see the animals again and can search their chests for treasure. </p>
            <p> This time, you will not see how much treasure you earned, but you will earn more bonus money for making better choices. </p>","","instructions","","","","","","","","","","","",""
"html-keyboard-response","96","549471","0.0-3.0-11.0-10.0-0.0","spark_pilot_norest","10031","7","8","Female","","","","","","","null","<div style=""font-size:100px;color:red;"">Starting in...</div>","null","","","","","","","","","","","","",""
"html-keyboard-response","97","550481","0.0-3.0-11.0-10.0-1.0","spark_pilot_norest","10031","7","8","Female","","","","","","","null","<div style=""font-size:200px;color:red;"">3</div>","null","","","","","","","","","","","","",""
"html-keyboard-response","98","551491","0.0-3.0-11.0-10.0-2.0","spark_pilot_norest","10031","7","8","Female","","","","","","","null","<div style=""font-size:200px;color:red;"">2</div>","null","","","","","","","","","","","","",""
"html-keyboard-response","99","552503","0.0-3.0-11.0-10.0-3.0","spark_pilot_norest","10031","7","8","Female","","","","","","","null","<div style=""font-size:200px;color:red;"">1</div>","null","","","","","","","","","","","","",""
"revaluation","100","553221","0.0-3.0-11.0-11.0-0.0","spark_pilot_norest","10031","7","8","Female","","false","","","","","[711.8999999761581]","./assets/img/space/animals/cat.jpg","[""ArrowRight""]","practice block","space","0","{""ArrowUp,ArrowLeft"":3,""ArrowUp,ArrowRight"":36,""ArrowDown,ArrowLeft"":15,""ArrowDown,ArrowRight"":23}","true","ArrowUp,ArrowRight","","","","","","",""
"html-keyboard-response","101","553723","0.0-3.0-11.0-11.0-1.0","spark_pilot_norest","10031","7","8","Female","","","","","","","null","<div style=""font-size:60px;"">+</div>","null","fixation","","","","","","","","","","","",""
"revaluation","102","555630","0.0-3.0-11.0-11.0-0.1","spark_pilot_norest","10031","7","8","Female","","false","","","","","[1900.300000011921]","./assets/img/space/animals/rabbit.jpg","[""ArrowRight""]","practice block","space","0","{""ArrowUp,ArrowLeft"":3,""ArrowUp,ArrowRight"":36,""ArrowDown,ArrowLeft"":15,""ArrowDown,ArrowRight"":23}","true","ArrowDown,ArrowRight","","","","","","",""
"html-keyboard-response","103","556137","0.0-3.0-11.0-11.0-1.1","spark_pilot_norest","10031","7","8","Female","","","","","","","null","<div style=""font-size:60px;"">+</div>","null","fixation","","","","","","","","","","","",""
"learning-instructions","104","562523","0.0-3.0-12.0-0.0","spark_pilot_norest","10031","7","8","Female","","","","","","","1805.2000000476837","<p> Before you start, we're going to ask you a few questions about how the game works. </p>","","instructions","","","","","","","","","","","",""
"comp-q","105","569378","0.0-3.0-13.0-0.0-0.0","spark_pilot_norest","10031","7","8","Female","","","","","","","1264.199999988079","<p> <b> True or False? </b> </p>
            <p> There can be 50 pieces of treasure in a given animal's chest. </p>","1","comp_question","","","","true","","","","","","","",""
"comp-q","106","577711","0.0-3.0-13.0-0.0-1.0","spark_pilot_norest","10031","7","8","Female","","","","","","","1663.6000000238419","<p> <b> That's right! </b> The amount of treasure in each chest can range from 0 to 40 pieces. </p>","0","comp_answer","","","","","","","","","","","",""
"comp-q","107","585621","0.0-3.0-13.0-0.1-0.1","spark_pilot_norest","10031","7","8","Female","","","","","","","783.4000000357628","<p> <b> True or False? </b> </p><p> In this game, all animals have the same amount of treasure in their left and right chests. </p>","1","comp_question","","","","true","","","","","","","",""
"comp-q","108","592357","0.0-3.0-13.0-0.1-1.1","spark_pilot_norest","10031","7","8","Female","","","","","","","1509.2999999523163","<p> <b> That's right! </b> Animals have different amounts of treasure in their treasure chests. </p>","0","comp_answer","","","","","","","","","","","",""
"comp-q","109","598993","0.0-3.0-13.0-0.2-0.2","spark_pilot_norest","10031","7","8","Female","","","","","","","785.7999999523163","<p> <b> True or False? </b> </p><p> The same animal will always be there if you go up in the same place. </p>","0","comp_question","","","","true","","","","","","","",""
"comp-q","110","607171","0.0-3.0-13.0-0.2-1.2","spark_pilot_norest","10031","7","8","Female","","","","","","","1722.5","<p> <b> That's right! </b> One animal lives in the upper part and one lives in the lower part of every place. </p>","0","comp_answer","","","","","","","","","","","",""
"comp-q","111","614493","0.0-3.0-13.0-0.3-0.3","spark_pilot_norest","10031","7","8","Female","","","","","","","1795.5","<p> <b> True or False? </b> </p><p> If you see a different picture, it means you are in a new place. </p>","0","comp_question","","","","false","","","","","","","",""
"comp-q","112","627424","0.0-3.0-13.0-0.3-1.3","spark_pilot_norest","10031","7","8","Female","","","","","","","1825.1000000238419","<p> <b>Incorrect.</b> Lots of different images may show the same place. For example,  you may see three different images that all remind you that you are in outer space. </p>","0","comp_answer","","","","","","","","","","","",""
"comp-q","113","634957","0.0-3.0-13.0-0.4-0.4","spark_pilot_norest","10031","7","8","Female","","","","","","","2029","<p> <b> True or False? </b> </p><p> If you see a different picture, it means you are in a new place. </p>","1","comp_question","","","","true","","","","","","","",""
"comp-q","114","649378","0.0-3.0-13.0-0.4-1.4","spark_pilot_norest","10031","7","8","Female","","","","","","","3180.400000035763","<p> <b> That's right! </b> Lots of different images may show the same place. For example,  you may see three different images that all remind you that you are in outer space. </p>","0","comp_answer","","","","","","","","","","","",""
"learning-instructions","115","661414","0.0-3.0-14.0-0.0","spark_pilot_norest","10031","7","8","Female","","","","","","","2165.900000035763","<p> Good job. Remember to do your best because the amount of treasure you earn will be converted into bonus money. </p>
            <p> It’s time to start the real game! </p>","","instructions","","","","","","","","","","","",""
"learning-instructions","116","665527","0.0-4.0-0.0-0.0","spark_pilot_norest","10031","7","8","Female","","","","","","","1349.300000011921","<p> This time you are searching for treasure in the <b>canyon</b>.</p>","","instructions","","","","","","","","","","","",""
"learning-instructions","117","691189","0.0-4.0-0.0-0.1","spark_pilot_norest","10031","7","8","Female","","","","","","","8341","<p><b>New</b> animals with <b>new</b> treasure chests live here. You need to explore to discover where the animal with the best treasure chest is.</p>
                    <p> Like before, once you figure out which animal has the chest with the most treasure, you should try to get to that animal and select that chest! </p>","","instructions","","","","","","","","","","","",""
"learning-instructions","118","707834","0.0-4.0-1.0-0.0","spark_pilot_norest","10031","7","8","Female","","","","","","","1915.5","<p> Remember, when you see a picture of the place, use the up and down keys to <b>find an animal</b>.</p>
            <p> When you encounter an animal, you should use the left and right keys to <b>select a treasure chest</b>.</p>
            <p> Don't forget to look out for the robber! </p>","","instructions","","","","","","","","","","","",""
"revaluation","119","713869","0.0-4.0-2.0-0.0","spark_pilot_norest","10031","7","8","Female","","false","","","","","[1168.199999988079,1229.699999988079]","./assets/img/canyon/memory/14.jpg","[""ArrowUp"",""ArrowRight""]","value training","canyon","10","{""ArrowUp,ArrowLeft"":23,""ArrowUp,ArrowRight"":10,""ArrowDown,ArrowLeft"":8,""ArrowDown,ArrowRight"":30}","false","ArrowUp,ArrowRight","false","original","1","0","","",""
"html-keyboard-response","120","714380","0.0-4.0-2.0-1.0","spark_pilot_norest","10031","7","8","Female","","","","","","","null","<div style=""font-size:60px;"">+</div>","null","fixation","","","","","","","","","1","","",""
"revaluation","121","720429","0.0-4.0-2.0-0.1","spark_pilot_norest","10031","7","8","Female","","false","","","","","[677.3999999761581,820.6999999880791]","./assets/img/canyon/memory/19.jpg","[""ArrowDown"",""ArrowLeft""]","value training","canyon","8","{""ArrowUp,ArrowLeft"":23,""ArrowUp,ArrowRight"":10,""ArrowDown,ArrowLeft"":8,""ArrowDown,ArrowRight"":30}","false","ArrowDown,ArrowLeft","false","original","1","2","","",""
"html-keyboard-response","122","720938","0.0-4.0-2.0-1.1","spark_pilot_norest","10031","7","8","Female","","","","","","","null","<div style=""font-size:60px;"">+</div>","null","fixation","","","","","","","","","3","","",""
"revaluation","123","726974","0.0-4.0-2.0-0.2","spark_pilot_norest","10031","7","8","Female","","false","","","","","[410.5,326.4000000357628]","./assets/img/canyon/memory/11.jpg","[""ArrowDown"",""ArrowRight""]","value training","canyon","30","{""ArrowUp,ArrowLeft"":23,""ArrowUp,ArrowRight"":10,""ArrowDown,ArrowLeft"":8,""ArrowDown,ArrowRight"":30}","true","ArrowDown,ArrowRight","false","original","1","4","","",""
"html-keyboard-response","124","727489","0.0-4.0-2.0-1.2","spark_pilot_norest","10031","7","8","Female","","","","","","","null","<div style=""font-size:60px;"">+</div>","null","fixation","","","","","","","","","5","","",""
"revaluation","125","733513","0.0-4.0-2.0-0.3","spark_pilot_norest","10031","7","8","Female","","true","","","","","[932.3000000119209]","./assets/img/canyon/memory/28.jpg","[""ArrowUp""]","value training","canyon","-5","{""ArrowUp,ArrowLeft"":23,""ArrowUp,ArrowRight"":10,""ArrowDown,ArrowLeft"":8,""ArrowDown,ArrowRight"":30}","false","ArrowUp","false","original","1","6","","",""
"html-keyboard-response","126","734019","0.0-4.0-2.0-1.3","spark_pilot_norest","10031","7","8","Female","","","","","","","null","<div style=""font-size:60px;"">+</div>","null","fixation","","","","","","","","","7","","",""
"revaluation","127","740030","0.0-4.0-2.0-0.4","spark_pilot_norest","10031","7","8","Female","","false","","","","","[1066.5,548]","./assets/img/canyon/memory/28.jpg","[""ArrowUp"",""ArrowLeft""]","value training","canyon","23","{""ArrowUp,ArrowLeft"":23,""ArrowUp,ArrowRight"":10,""ArrowDown,ArrowLeft"":8,""ArrowDown,ArrowRight"":30}","false","ArrowUp,ArrowLeft","false","original","1","8","","",""
"html-keyboard-response","128","740533","0.0-4.0-2.0-1.4","spark_pilot_norest","10031","7","8","Female","","","","","","","null","<div style=""font-size:60px;"">+</div>","null","fixation","","","","","","","","","9","","",""
"revaluation","129","746542","0.0-4.0-2.0-0.5","spark_pilot_norest","10031","7","8","Female","","false","","","","","[661.5999999642372,437.39999997615814]","./assets/img/canyon/memory/2.jpg","[""ArrowUp"",""ArrowRight""]","value training","canyon","10","{""ArrowUp,ArrowLeft"":23,""ArrowUp,ArrowRight"":10,""ArrowDown,ArrowLeft"":8,""ArrowDown,ArrowRight"":30}","false","ArrowUp,ArrowRight","false","original","1","10","","",""
"html-keyboard-response","130","747044","0.0-4.0-2.0-1.5","spark_pilot_norest","10031","7","8","Female","","","","","","","null","<div style=""font-size:60px;"">+</div>","null","fixation","","","","","","","","","11","","",""
"revaluation","131","753049","0.0-4.0-2.0-0.6","spark_pilot_norest","10031","7","8","Female","","false","","","","","[726.3000000119209,1106.9000000357628]","./assets/img/canyon/memory/1.jpg","[""ArrowDown"",""ArrowLeft""]","value training","canyon","8","{""ArrowUp,ArrowLeft"":23,""ArrowUp,ArrowRight"":10,""ArrowDown,ArrowLeft"":8,""ArrowDown,ArrowRight"":30}","false","ArrowDown,ArrowLeft","false","original","1","12","","",""
"html-keyboard-response","132","753551","0.0-4.0-2.0-1.6","spark_pilot_norest","10031","7","8","Female","","","","","","","null","<div style=""font-size:60px;"">+</div>","null","fixation","","","","","","","","","13","","",""
"revaluation","133","759558","0.0-4.0-2.0-0.7","spark_pilot_norest","10031","7","8","Female","","false","","","","","[355.5999999642372,418.30000001192093]","./assets/img/canyon/memory/13.jpg","[""ArrowDown"",""ArrowRight""]","value training","canyon","30","{""ArrowUp,ArrowLeft"":23,""ArrowUp,ArrowRight"":10,""ArrowDown,ArrowLeft"":8,""ArrowDown,ArrowRight"":30}","true","ArrowDown,ArrowRight","false","original","1","14","","",""
"html-keyboard-response","134","760060","0.0-4.0-2.0-1.7","spark_pilot_norest","10031","7","8","Female","","","","","","","null","<div style=""font-size:60px;"">+</div>","null","fixation","","","","","","","","","15","","",""
"revaluation","135","764066","0.0-4.0-2.0-0.8","spark_pilot_norest","10031","7","8","Female","","false","","","","","[1468.0999999642372]","./assets/img/canyon/catch/3.jpg","[""spaceBar""]","value training","canyon","0","{""ArrowUp,ArrowLeft"":23,""ArrowUp,ArrowRight"":10,""ArrowDown,ArrowLeft"":8,""ArrowDown,ArrowRight"":30}","true","spaceBar","true","original","1","16","","",""
"html-keyboard-response","136","764568","0.0-4.0-2.0-1.8","spark_pilot_norest","10031","7","8","Female","","","","","","","null","<div style=""font-size:60px;"">+</div>","null","fixation","","","","","","","","","17","","",""
"revaluation","137","768572","0.0-4.0-2.0-0.9","spark_pilot_norest","10031","7","8","Female","","false","","","","","[941.6999999880791]","./assets/img/canyon/catch/4.jpg","[""spaceBar""]","value training","canyon","0","{""ArrowUp,ArrowLeft"":23,""ArrowUp,ArrowRight"":10,""ArrowDown,ArrowLeft"":8,""ArrowDown,ArrowRight"":30}","true","spaceBar","true","original","1","18","","",""
"html-keyboard-response","138","769075","0.0-4.0-2.0-1.9","spark_pilot_norest","10031","7","8","Female","","","","","","","null","<div style=""font-size:60px;"">+</div>","null","fixation","","","","","","","","","19","","",""
"revaluation","139","775082","0.0-4.0-2.0-0.10","spark_pilot_norest","10031","7","8","Female","","false","","","","","[1494.9000000357628,1076.699999988079]","./assets/img/canyon/memory/21.jpg","[""ArrowDown"",""ArrowRight""]","value training","canyon","30","{""ArrowUp,ArrowLeft"":23,""ArrowUp,ArrowRight"":10,""ArrowDown,ArrowLeft"":8,""ArrowDown,ArrowRight"":30}","true","ArrowDown,ArrowRight","false","original","1","20","","",""
"html-keyboard-response","140","775583","0.0-4.0-2.0-1.10","spark_pilot_norest","10031","7","8","Female","","","","","","","null","<div style=""font-size:60px;"">+</div>","null","fixation","","","","","","","","","21","","",""
"revaluation","141","779592","0.0-4.0-2.0-0.11","spark_pilot_norest","10031","7","8","Female","","false","","","","","[600.5]","./assets/img/canyon/catch/7.jpg","[""spaceBar""]","value training","canyon","0","{""ArrowUp,ArrowLeft"":23,""ArrowUp,ArrowRight"":10,""ArrowDown,ArrowLeft"":8,""ArrowDown,ArrowRight"":30}","true","spaceBar","true","original","1","22","","",""
"html-keyboard-response","142","780094","0.0-4.0-2.0-1.11","spark_pilot_norest","10031","7","8","Female","","","","","","","null","<div style=""font-size:60px;"">+</div>","null","fixation","","","","","","","","","23","","",""
"revaluation","143","786101","0.0-4.0-2.0-0.12","spark_pilot_norest","10031","7","8","Female","","false","","","","","[1552.199999988079,1702.9000000357628]","./assets/img/canyon/memory/0.jpg","[""ArrowDown"",""ArrowRight""]","value training","canyon","30","{""ArrowUp,ArrowLeft"":23,""ArrowUp,ArrowRight"":10,""ArrowDown,ArrowLeft"":8,""ArrowDown,ArrowRight"":30}","true","ArrowDown,ArrowRight","false","original","1","24","","",""
"html-keyboard-response","144","786603","0.0-4.0-2.0-1.12","spark_pilot_norest","10031","7","8","Female","","","","","","","null","<div style=""font-size:60px;"">+</div>","null","fixation","","","","","","","","","25","","",""
"revaluation","145","792625","0.0-4.0-2.0-0.13","spark_pilot_norest","10031","7","8","Female","","false","","","","","[1509.300000011921,1089.1000000238419]","./assets/img/canyon/memory/32.jpg","[""ArrowUp"",""ArrowRight""]","value training","canyon","10","{""ArrowUp,ArrowLeft"":23,""ArrowUp,ArrowRight"":10,""ArrowDown,ArrowLeft"":8,""ArrowDown,ArrowRight"":30}","false","ArrowUp,ArrowRight","false","original","1","26","","",""
"html-keyboard-response","146","793129","0.0-4.0-2.0-1.13","spark_pilot_norest","10031","7","8","Female","","","","","","","null","<div style=""font-size:60px;"">+</div>","null","fixation","","","","","","","","","27","","",""
"revaluation","147","799138","0.0-4.0-2.0-0.14","spark_pilot_norest","10031","7","8","Female","","false","","","","","[356.2999999523163,631.5]","./assets/img/canyon/memory/31.jpg","[""ArrowDown"",""ArrowRight""]","value training","canyon","30","{""ArrowUp,ArrowLeft"":23,""ArrowUp,ArrowRight"":10,""ArrowDown,ArrowLeft"":8,""ArrowDown,ArrowRight"":30}","true","ArrowDown,ArrowRight","false","original","1","28","","",""
"html-keyboard-response","148","799641","0.0-4.0-2.0-1.14","spark_pilot_norest","10031","7","8","Female","","","","","","","null","<div style=""font-size:60px;"">+</div>","null","fixation","","","","","","","","","29","","",""
"revaluation","149","803648","0.0-4.0-2.0-0.15","spark_pilot_norest","10031","7","8","Female","","false","","","","","[805.7000000476837]","./assets/img/canyon/catch/1.jpg","[""spaceBar""]","value training","canyon","0","{""ArrowUp,ArrowLeft"":23,""ArrowUp,ArrowRight"":10,""ArrowDown,ArrowLeft"":8,""ArrowDown,ArrowRight"":30}","true","spaceBar","true","original","1","30","","",""
"html-keyboard-response","150","804150","0.0-4.0-2.0-1.15","spark_pilot_norest","10031","7","8","Female","","","","","","","null","<div style=""font-size:60px;"">+</div>","null","fixation","","","","","","","","","31","","",""
"revaluation","151","810157","0.0-4.0-2.0-0.16","spark_pilot_norest","10031","7","8","Female","","false","","","","","[1337.5999999642372,625.5]","./assets/img/canyon/memory/8.jpg","[""ArrowDown"",""ArrowRight""]","value training","canyon","30","{""ArrowUp,ArrowLeft"":23,""ArrowUp,ArrowRight"":10,""ArrowDown,ArrowLeft"":8,""ArrowDown,ArrowRight"":30}","true","ArrowDown,ArrowRight","false","original","1","32","","",""
"html-keyboard-response","152","810659","0.0-4.0-2.0-1.16","spark_pilot_norest","10031","7","8","Female","","","","","","","null","<div style=""font-size:60px;"">+</div>","null","fixation","","","","","","","","","33","","",""
"revaluation","153","816668","0.0-4.0-2.0-0.17","spark_pilot_norest","10031","7","8","Female","","false","","","","","[916.3000000119209,433.69999998807907]","./assets/img/canyon/memory/37.jpg","[""ArrowDown"",""ArrowRight""]","value training","canyon","30","{""ArrowUp,ArrowLeft"":23,""ArrowUp,ArrowRight"":10,""ArrowDown,ArrowLeft"":8,""ArrowDown,ArrowRight"":30}","true","ArrowDown,ArrowRight","false","original","1","34","","",""
"html-keyboard-response","154","817169","0.0-4.0-2.0-1.17","spark_pilot_norest","10031","7","8","Female","","","","","","","null","<div style=""font-size:60px;"">+</div>","null","fixation","","","","","","","","","35","","",""
"revaluation","155","823177","0.0-4.0-2.0-0.18","spark_pilot_norest","10031","7","8","Female","","false","","","","","[513.5,641.3000000119209]","./assets/img/canyon/memory/39.jpg","[""ArrowUp"",""ArrowRight""]","value training","canyon","10","{""ArrowUp,ArrowLeft"":23,""ArrowUp,ArrowRight"":10,""ArrowDown,ArrowLeft"":8,""ArrowDown,ArrowRight"":30}","false","ArrowUp,ArrowRight","false","original","1","36","","",""
"html-keyboard-response","156","823679","0.0-4.0-2.0-1.18","spark_pilot_norest","10031","7","8","Female","","","","","","","null","<div style=""font-size:60px;"">+</div>","null","fixation","","","","","","","","","37","","",""
"revaluation","157","829687","0.0-4.0-2.0-0.19","spark_pilot_norest","10031","7","8","Female","","false","","","","","[799.5999999642372,377.39999997615814]","./assets/img/canyon/memory/37.jpg","[""ArrowDown"",""ArrowRight""]","value training","canyon","30","{""ArrowUp,ArrowLeft"":23,""ArrowUp,ArrowRight"":10,""ArrowDown,ArrowLeft"":8,""ArrowDown,ArrowRight"":30}","true","ArrowDown,ArrowRight","false","original","1","38","","",""
"html-keyboard-response","158","830188","0.0-4.0-2.0-1.19","spark_pilot_norest","10031","7","8","Female","","","","","","","null","<div style=""font-size:60px;"">+</div>","null","fixation","","","","","","","","","39","","",""
"revaluation","159","836199","0.0-4.0-2.0-0.20","spark_pilot_norest","10031","7","8","Female","","false","","","","","[1414.300000011921,658.2000000476837]","./assets/img/canyon/memory/0.jpg","[""ArrowDown"",""ArrowRight""]","value training","canyon","30","{""ArrowUp,ArrowLeft"":23,""ArrowUp,ArrowRight"":10,""ArrowDown,ArrowLeft"":8,""ArrowDown,ArrowRight"":30}","true","ArrowDown,ArrowRight","false","original","1","40","","",""
"html-keyboard-response","160","836700","0.0-4.0-2.0-1.20","spark_pilot_norest","10031","7","8","Female","","","","","","","null","<div style=""font-size:60px;"">+</div>","null","fixation","","","","","","","","","41","","",""
"revaluation","161","842708","0.0-4.0-2.0-0.21","spark_pilot_norest","10031","7","8","Female","","false","","","","","[543.7999999523163,394.80000001192093]","./assets/img/canyon/memory/33.jpg","[""ArrowDown"",""ArrowRight""]","value training","canyon","30","{""ArrowUp,ArrowLeft"":23,""ArrowUp,ArrowRight"":10,""ArrowDown,ArrowLeft"":8,""ArrowDown,ArrowRight"":30}","true","ArrowDown,ArrowRight","false","original","1","42","","",""
"html-keyboard-response","162","843210","0.0-4.0-2.0-1.21","spark_pilot_norest","10031","7","8","Female","","","","","","","null","<div style=""font-size:60px;"">+</div>","null","fixation","","","","","","","","","43","","",""
"revaluation","163","849218","0.0-4.0-2.0-0.22","spark_pilot_norest","10031","7","8","Female","","false","","","","","[1494.9000000357628,399.19999998807907]","./assets/img/canyon/memory/39.jpg","[""ArrowDown"",""ArrowRight""]","value training","canyon","30","{""ArrowUp,ArrowLeft"":23,""ArrowUp,ArrowRight"":10,""ArrowDown,ArrowLeft"":8,""ArrowDown,ArrowRight"":30}","true","ArrowDown,ArrowRight","false","original","1","44","","",""
"html-keyboard-response","164","849721","0.0-4.0-2.0-1.22","spark_pilot_norest","10031","7","8","Female","","","","","","","null","<div style=""font-size:60px;"">+</div>","null","fixation","","","","","","","","","45","","",""
"revaluation","165","855731","0.0-4.0-2.0-0.23","spark_pilot_norest","10031","7","8","Female","","false","","","","","[1068.1000000238419,440.5]","./assets/img/canyon/memory/14.jpg","[""ArrowDown"",""ArrowRight""]","value training","canyon","30","{""ArrowUp,ArrowLeft"":23,""ArrowUp,ArrowRight"":10,""ArrowDown,ArrowLeft"":8,""ArrowDown,ArrowRight"":30}","true","ArrowDown,ArrowRight","false","original","1","46","","",""
"html-keyboard-response","166","856233","0.0-4.0-2.0-1.23","spark_pilot_norest","10031","7","8","Female","","","","","","","null","<div style=""font-size:60px;"">+</div>","null","fixation","","","","","","","","","47","","",""
"revaluation","167","862240","0.0-4.0-2.0-0.24","spark_pilot_norest","10031","7","8","Female","","false","","","","","[1476.300000011921,717.3000000119209]","./assets/img/canyon/memory/27.jpg","[""ArrowDown"",""ArrowRight""]","value training","canyon","30","{""ArrowUp,ArrowLeft"":23,""ArrowUp,ArrowRight"":10,""ArrowDown,ArrowLeft"":8,""ArrowDown,ArrowRight"":30}","true","ArrowDown,ArrowRight","false","original","1","48","","",""
"html-keyboard-response","168","862742","0.0-4.0-2.0-1.24","spark_pilot_norest","10031","7","8","Female","","","","","","","null","<div style=""font-size:60px;"">+</div>","null","fixation","","","","","","","","","49","","",""
"revaluation","169","868751","0.0-4.0-2.0-0.25","spark_pilot_norest","10031","7","8","Female","","false","","","","","[776.8000000119209,542.6999999880791]","./assets/img/canyon/memory/21.jpg","[""ArrowDown"",""ArrowRight""]","value training","canyon","30","{""ArrowUp,ArrowLeft"":23,""ArrowUp,ArrowRight"":10,""ArrowDown,ArrowLeft"":8,""ArrowDown,ArrowRight"":30}","true","ArrowDown,ArrowRight","false","original","1","50","","",""
"html-keyboard-response","170","869253","0.0-4.0-2.0-1.25","spark_pilot_norest","10031","7","8","Female","","","","","","","null","<div style=""font-size:60px;"">+</div>","null","fixation","","","","","","","","","51","","",""
"revaluation","171","875261","0.0-4.0-2.0-0.26","spark_pilot_norest","10031","7","8","Female","","false","","","","","[974.0999999642372,363.5]","./assets/img/canyon/memory/27.jpg","[""ArrowDown"",""ArrowRight""]","value training","canyon","30","{""ArrowUp,ArrowLeft"":23,""ArrowUp,ArrowRight"":10,""ArrowDown,ArrowLeft"":8,""ArrowDown,ArrowRight"":30}","true","ArrowDown,ArrowRight","false","original","1","52","","",""
"html-keyboard-response","172","875763","0.0-4.0-2.0-1.26","spark_pilot_norest","10031","7","8","Female","","","","","","","null","<div style=""font-size:60px;"">+</div>","null","fixation","","","","","","","","","53","","",""
"revaluation","173","881773","0.0-4.0-2.0-0.27","spark_pilot_norest","10031","7","8","Female","","false","","","","","[756.1000000238419,529.9000000357628]","./assets/img/canyon/memory/30.jpg","[""ArrowDown"",""ArrowRight""]","value training","canyon","30","{""ArrowUp,ArrowLeft"":23,""ArrowUp,ArrowRight"":10,""ArrowDown,ArrowLeft"":8,""ArrowDown,ArrowRight"":30}","true","ArrowDown,ArrowRight","false","original","1","54","","",""
"html-keyboard-response","174","882275","0.0-4.0-2.0-1.27","spark_pilot_norest","10031","7","8","Female","","","","","","","null","<div style=""font-size:60px;"">+</div>","null","fixation","","","","","","","","","55","","",""
"revaluation","175","888284","0.0-4.0-2.0-0.28","spark_pilot_norest","10031","7","8","Female","","false","","","","","[808.6999999880791,659.8999999761581]","./assets/img/canyon/memory/15.jpg","[""ArrowDown"",""ArrowRight""]","value training","canyon","30","{""ArrowUp,ArrowLeft"":23,""ArrowUp,ArrowRight"":10,""ArrowDown,ArrowLeft"":8,""ArrowDown,ArrowRight"":30}","true","ArrowDown,ArrowRight","false","original","1","56","","",""
"html-keyboard-response","176","888786","0.0-4.0-2.0-1.28","spark_pilot_norest","10031","7","8","Female","","","","","","","null","<div style=""font-size:60px;"">+</div>","null","fixation","","","","","","","","","57","","",""
"revaluation","177","894794","0.0-4.0-2.0-0.29","spark_pilot_norest","10031","7","8","Female","","false","","","","","[834.6000000238419,916.2000000476837]","./assets/img/canyon/memory/2.jpg","[""ArrowDown"",""ArrowRight""]","value training","canyon","30","{""ArrowUp,ArrowLeft"":23,""ArrowUp,ArrowRight"":10,""ArrowDown,ArrowLeft"":8,""ArrowDown,ArrowRight"":30}","true","ArrowDown,ArrowRight","false","original","1","58","","",""
"html-keyboard-response","178","895295","0.0-4.0-2.0-1.29","spark_pilot_norest","10031","7","8","Female","","","","","","","null","<div style=""font-size:60px;"">+</div>","null","fixation","","","","","","","","","59","","",""
"revaluation","179","901304","0.0-4.0-2.0-0.30","spark_pilot_norest","10031","7","8","Female","","false","","","","","[856.8000000119209,474.39999997615814]","./assets/img/canyon/memory/22.jpg","[""ArrowDown"",""ArrowRight""]","value training","canyon","30","{""ArrowUp,ArrowLeft"":23,""ArrowUp,ArrowRight"":10,""ArrowDown,ArrowLeft"":8,""ArrowDown,ArrowRight"":30}","true","ArrowDown,ArrowRight","false","original","1","60","","",""
"html-keyboard-response","180","901806","0.0-4.0-2.0-1.30","spark_pilot_norest","10031","7","8","Female","","","","","","","null","<div style=""font-size:60px;"">+</div>","null","fixation","","","","","","","","","61","","",""
"revaluation","181","907812","0.0-4.0-2.0-0.31","spark_pilot_norest","10031","7","8","Female","","false","","","","","[794.8999999761581,611.5999999642372]","./assets/img/canyon/memory/1.jpg","[""ArrowDown"",""ArrowRight""]","value training","canyon","30","{""ArrowUp,ArrowLeft"":23,""ArrowUp,ArrowRight"":10,""ArrowDown,ArrowLeft"":8,""ArrowDown,ArrowRight"":30}","true","ArrowDown,ArrowRight","false","original","1","62","","",""
"html-keyboard-response","182","908314","0.0-4.0-2.0-1.31","spark_pilot_norest","10031","7","8","Female","","","","","","","null","<div style=""font-size:60px;"">+</div>","null","fixation","","","","","","","","","63","","",""
"revaluation","183","912321","0.0-4.0-2.0-0.32","spark_pilot_norest","10031","7","8","Female","","false","","","","","[707.6000000238419]","./assets/img/canyon/catch/5.jpg","[""spaceBar""]","value training","canyon","0","{""ArrowUp,ArrowLeft"":23,""ArrowUp,ArrowRight"":10,""ArrowDown,ArrowLeft"":8,""ArrowDown,ArrowRight"":30}","true","spaceBar","true","original","1","64","","",""
"html-keyboard-response","184","912823","0.0-4.0-2.0-1.32","spark_pilot_norest","10031","7","8","Female","","","","","","","null","<div style=""font-size:60px;"">+</div>","null","fixation","","","","","","","","","65","","",""
"revaluation","185","918831","0.0-4.0-2.0-0.33","spark_pilot_norest","10031","7","8","Female","","false","","","","","[992.5,437.5]","./assets/img/canyon/memory/32.jpg","[""ArrowDown"",""ArrowRight""]","value training","canyon","30","{""ArrowUp,ArrowLeft"":23,""ArrowUp,ArrowRight"":10,""ArrowDown,ArrowLeft"":8,""ArrowDown,ArrowRight"":30}","true","ArrowDown,ArrowRight","false","original","1","66","","",""
"html-keyboard-response","186","919333","0.0-4.0-2.0-1.33","spark_pilot_norest","10031","7","8","Female","","","","","","","null","<div style=""font-size:60px;"">+</div>","null","fixation","","","","","","","","","67","","",""
"revaluation","187","925341","0.0-4.0-2.0-0.34","spark_pilot_norest","10031","7","8","Female","","false","","","","","[1086.6000000238419,895.8000000119209]","./assets/img/canyon/memory/11.jpg","[""ArrowDown"",""ArrowRight""]","value training","canyon","30","{""ArrowUp,ArrowLeft"":23,""ArrowUp,ArrowRight"":10,""ArrowDown,ArrowLeft"":8,""ArrowDown,ArrowRight"":30}","true","ArrowDown,ArrowRight","false","original","1","68","","",""
"html-keyboard-response","188","925843","0.0-4.0-2.0-1.34","spark_pilot_norest","10031","7","8","Female","","","","","","","null","<div style=""font-size:60px;"">+</div>","null","fixation","","","","","","","","","69","","",""
"revaluation","189","931852","0.0-4.0-2.0-0.35","spark_pilot_norest","10031","7","8","Female","","false","","","","","[875.6999999880791,312.80000001192093]","./assets/img/canyon/memory/19.jpg","[""ArrowDown"",""ArrowRight""]","value training","canyon","30","{""ArrowUp,ArrowLeft"":23,""ArrowUp,ArrowRight"":10,""ArrowDown,ArrowLeft"":8,""ArrowDown,ArrowRight"":30}","true","ArrowDown,ArrowRight","false","original","1","70","","",""
"html-keyboard-response","190","932353","0.0-4.0-2.0-1.35","spark_pilot_norest","10031","7","8","Female","","","","","","","null","<div style=""font-size:60px;"">+</div>","null","fixation","","","","","","","","","71","","",""
"revaluation","191","938362","0.0-4.0-2.0-0.36","spark_pilot_norest","10031","7","8","Female","","false","","","","","[760.3000000119209,475.10000002384186]","./assets/img/canyon/memory/8.jpg","[""ArrowDown"",""ArrowRight""]","value training","canyon","30","{""ArrowUp,ArrowLeft"":23,""ArrowUp,ArrowRight"":10,""ArrowDown,ArrowLeft"":8,""ArrowDown,ArrowRight"":30}","true","ArrowDown,ArrowRight","false","original","1","72","","",""
"html-keyboard-response","192","938864","0.0-4.0-2.0-1.36","spark_pilot_norest","10031","7","8","Female","","","","","","","null","<div style=""font-size:60px;"">+</div>","null","fixation","","","","","","","","","73","","",""
"revaluation","193","942870","0.0-4.0-2.0-0.37","spark_pilot_norest","10031","7","8","Female","","false","","","","","[858.3000000119209]","./assets/img/canyon/catch/2.jpg","[""spaceBar""]","value training","canyon","0","{""ArrowUp,ArrowLeft"":23,""ArrowUp,ArrowRight"":10,""ArrowDown,ArrowLeft"":8,""ArrowDown,ArrowRight"":30}","true","spaceBar","true","original","1","74","","",""
"html-keyboard-response","194","943372","0.0-4.0-2.0-1.37","spark_pilot_norest","10031","7","8","Female","","","","","","","null","<div style=""font-size:60px;"">+</div>","null","fixation","","","","","","","","","75","","",""
"revaluation","195","949377","0.0-4.0-2.0-0.38","spark_pilot_norest","10031","7","8","Female","","false","","","","","[720.3999999761581,788]","./assets/img/canyon/memory/24.jpg","[""ArrowDown"",""ArrowLeft""]","value training","canyon","8","{""ArrowUp,ArrowLeft"":23,""ArrowUp,ArrowRight"":10,""ArrowDown,ArrowLeft"":8,""ArrowDown,ArrowRight"":30}","false","ArrowDown,ArrowLeft","false","original","1","76","","",""
"html-keyboard-response","196","949879","0.0-4.0-2.0-1.38","spark_pilot_norest","10031","7","8","Female","","","","","","","null","<div style=""font-size:60px;"">+</div>","null","fixation","","","","","","","","","77","","",""
"revaluation","197","955888","0.0-4.0-2.0-0.39","spark_pilot_norest","10031","7","8","Female","","false","","","","","[541.5,912.4000000357628]","./assets/img/canyon/memory/22.jpg","[""ArrowDown"",""ArrowRight""]","value training","canyon","30","{""ArrowUp,ArrowLeft"":23,""ArrowUp,ArrowRight"":10,""ArrowDown,ArrowLeft"":8,""ArrowDown,ArrowRight"":30}","true","ArrowDown,ArrowRight","false","original","1","78","","",""
"html-keyboard-response","198","956391","0.0-4.0-2.0-1.39","spark_pilot_norest","10031","7","8","Female","","","","","","","null","<div style=""font-size:60px;"">+</div>","null","fixation","","","","","","","","","79","","",""
"revaluation","199","962400","0.0-4.0-2.0-0.40","spark_pilot_norest","10031","7","8","Female","","false","","","","","[616.4000000357628,573.2999999523163]","./assets/img/canyon/memory/10.jpg","[""ArrowDown"",""ArrowRight""]","value training","canyon","30","{""ArrowUp,ArrowLeft"":23,""ArrowUp,ArrowRight"":10,""ArrowDown,ArrowLeft"":8,""ArrowDown,ArrowRight"":30}","true","ArrowDown,ArrowRight","false","original","1","80","","",""
"html-keyboard-response","200","962904","0.0-4.0-2.0-1.40","spark_pilot_norest","10031","7","8","Female","","","","","","","null","<div style=""font-size:60px;"">+</div>","null","fixation","","","","","","","","","81","","",""
"revaluation","201","968911","0.0-4.0-2.0-0.41","spark_pilot_norest","10031","7","8","Female","","false","","","","","[638.4000000357628,440.89999997615814]","./assets/img/canyon/memory/31.jpg","[""ArrowDown"",""ArrowRight""]","value training","canyon","30","{""ArrowUp,ArrowLeft"":23,""ArrowUp,ArrowRight"":10,""ArrowDown,ArrowLeft"":8,""ArrowDown,ArrowRight"":30}","true","ArrowDown,ArrowRight","false","original","1","82","","",""
"html-keyboard-response","202","969412","0.0-4.0-2.0-1.41","spark_pilot_norest","10031","7","8","Female","","","","","","","null","<div style=""font-size:60px;"">+</div>","null","fixation","","","","","","","","","83","","",""
"revaluation","203","973420","0.0-4.0-2.0-0.42","spark_pilot_norest","10031","7","8","Female","","false","","","","","[722.4000000357628]","./assets/img/canyon/catch/0.jpg","[""spaceBar""]","value training","canyon","0","{""ArrowUp,ArrowLeft"":23,""ArrowUp,ArrowRight"":10,""ArrowDown,ArrowLeft"":8,""ArrowDown,ArrowRight"":30}","true","spaceBar","true","original","1","84","","",""
"html-keyboard-response","204","973921","0.0-4.0-2.0-1.42","spark_pilot_norest","10031","7","8","Female","","","","","","","null","<div style=""font-size:60px;"">+</div>","null","fixation","","","","","","","","","85","","",""
"revaluation","205","979929","0.0-4.0-2.0-0.43","spark_pilot_norest","10031","7","8","Female","","false","","","","","[700.1000000238419,831.7999999523163]","./assets/img/canyon/memory/10.jpg","[""ArrowDown"",""ArrowRight""]","value training","canyon","30","{""ArrowUp,ArrowLeft"":23,""ArrowUp,ArrowRight"":10,""ArrowDown,ArrowLeft"":8,""ArrowDown,ArrowRight"":30}","true","ArrowDown,ArrowRight","false","original","1","86","","",""
"html-keyboard-response","206","980432","0.0-4.0-2.0-1.43","spark_pilot_norest","10031","7","8","Female","","","","","","","null","<div style=""font-size:60px;"">+</div>","null","fixation","","","","","","","","","87","","",""
"revaluation","207","986441","0.0-4.0-2.0-0.44","spark_pilot_norest","10031","7","8","Female","","false","","","","","[639.8000000119209,589.3999999761581]","./assets/img/canyon/memory/13.jpg","[""ArrowDown"",""ArrowRight""]","value training","canyon","30","{""ArrowUp,ArrowLeft"":23,""ArrowUp,ArrowRight"":10,""ArrowDown,ArrowLeft"":8,""ArrowDown,ArrowRight"":30}","true","ArrowDown,ArrowRight","false","original","1","88","","",""
"html-keyboard-response","208","986943","0.0-4.0-2.0-1.44","spark_pilot_norest","10031","7","8","Female","","","","","","","null","<div style=""font-size:60px;"">+</div>","null","fixation","","","","","","","","","89","","",""
"revaluation","209","992952","0.0-4.0-2.0-0.45","spark_pilot_norest","10031","7","8","Female","","false","","","","","[693.5999999642372,895]","./assets/img/canyon/memory/30.jpg","[""ArrowDown"",""ArrowRight""]","value training","canyon","30","{""ArrowUp,ArrowLeft"":23,""ArrowUp,ArrowRight"":10,""ArrowDown,ArrowLeft"":8,""ArrowDown,ArrowRight"":30}","true","ArrowDown,ArrowRight","false","original","1","90","","",""
"html-keyboard-response","210","993454","0.0-4.0-2.0-1.45","spark_pilot_norest","10031","7","8","Female","","","","","","","null","<div style=""font-size:60px;"">+</div>","null","fixation","","","","","","","","","91","","",""
"revaluation","211","999460","0.0-4.0-2.0-0.46","spark_pilot_norest","10031","7","8","Female","","false","","","","","[771.4000000357628,629.3999999761581]","./assets/img/canyon/memory/15.jpg","[""ArrowDown"",""ArrowRight""]","value training","canyon","30","{""ArrowUp,ArrowLeft"":23,""ArrowUp,ArrowRight"":10,""ArrowDown,ArrowLeft"":8,""ArrowDown,ArrowRight"":30}","true","ArrowDown,ArrowRight","false","original","1","92","","",""
"html-keyboard-response","212","999962","0.0-4.0-2.0-1.46","spark_pilot_norest","10031","7","8","Female","","","","","","","null","<div style=""font-size:60px;"">+</div>","null","fixation","","","","","","","","","93","","",""
"revaluation","213","1005971","0.0-4.0-2.0-0.47","spark_pilot_norest","10031","7","8","Female","","false","","","","","[741.4000000357628,1225.5]","./assets/img/canyon/memory/24.jpg","[""ArrowDown"",""ArrowRight""]","value training","canyon","30","{""ArrowUp,ArrowLeft"":23,""ArrowUp,ArrowRight"":10,""ArrowDown,ArrowLeft"":8,""ArrowDown,ArrowRight"":30}","true","ArrowDown,ArrowRight","false","original","1","94","","",""
"html-keyboard-response","214","1006473","0.0-4.0-2.0-1.47","spark_pilot_norest","10031","7","8","Female","","","","","","","null","<div style=""font-size:60px;"">+</div>","null","fixation","","","","","","","","","95","","",""
"revaluation","215","1012481","0.0-4.0-2.0-0.48","spark_pilot_norest","10031","7","8","Female","","false","","","","","[568.6000000238419,1020.2999999523163]","./assets/img/canyon/memory/33.jpg","[""ArrowDown"",""ArrowRight""]","value training","canyon","30","{""ArrowUp,ArrowLeft"":23,""ArrowUp,ArrowRight"":10,""ArrowDown,ArrowLeft"":8,""ArrowDown,ArrowRight"":30}","true","ArrowDown,ArrowRight","false","original","1","96","","",""
"html-keyboard-response","216","1012983","0.0-4.0-2.0-1.48","spark_pilot_norest","10031","7","8","Female","","","","","","","null","<div style=""font-size:60px;"">+</div>","null","fixation","","","","","","","","","97","","",""
"revaluation","217","1016991","0.0-4.0-2.0-0.49","spark_pilot_norest","10031","7","8","Female","","false","","","","","[591.5]","./assets/img/canyon/catch/6.jpg","[""spaceBar""]","value training","canyon","0","{""ArrowUp,ArrowLeft"":23,""ArrowUp,ArrowRight"":10,""ArrowDown,ArrowLeft"":8,""ArrowDown,ArrowRight"":30}","true","spaceBar","true","original","1","98","","",""
"html-keyboard-response","218","1017493","0.0-4.0-2.0-1.49","spark_pilot_norest","10031","7","8","Female","","","","","","","null","<div style=""font-size:60px;"">+</div>","null","fixation","","","","","","","","","99","","",""
"learning-instructions","219","1035353","0.0-4.0-3.0-0.0","spark_pilot_norest","10031","7","8","Female","","","","","","","4906.700000047684","<p> Now, you will travel with a friend who will choose whether you go up or down first. </p>
            <p> On these turns, you will just see the animal that they found. You will still get to choose which chest to search for treasure.</p>","","instructions","","","","","","","","","","","",""
"revaluation","220","1039366","0.0-4.0-4.0-0.0","spark_pilot_norest","10031","7","8","Female","","false","","","","","[1623.5]","./assets/img/canyon/animals/giraffe.jpg","[""ArrowRight""]","revaluation","canyon","30","{""ArrowUp,ArrowLeft"":23,""ArrowUp,ArrowRight"":10,""ArrowDown,ArrowLeft"":8,""ArrowDown,ArrowRight"":30}","true","ArrowDown,ArrowRight","","original","1","0","","",""
"html-keyboard-response","221","1039880","0.0-4.0-4.0-1.0","spark_pilot_norest","10031","7","8","Female","","","","","","","null","<div style=""font-size:60px;"">+</div>","null","fixation","","","","","","","","","1","","",""
"revaluation","222","1043894","0.0-4.0-4.0-0.1","spark_pilot_norest","10031","7","8","Female","","false","","","","","[552.1999999880791]","./assets/img/canyon/animals/giraffe.jpg","[""ArrowRight""]","revaluation","canyon","30","{""ArrowUp,ArrowLeft"":23,""ArrowUp,ArrowRight"":10,""ArrowDown,ArrowLeft"":8,""ArrowDown,ArrowRight"":30}","true","ArrowDown,ArrowRight","","original","1","2","","",""
"html-keyboard-response","223","1044402","0.0-4.0-4.0-1.1","spark_pilot_norest","10031","7","8","Female","","","","","","","null","<div style=""font-size:60px;"">+</div>","null","fixation","","","","","","","","","3","","",""
"revaluation","224","1048431","0.0-4.0-4.0-0.2","spark_pilot_norest","10031","7","8","Female","","false","","","","","[354.69999998807907]","./assets/img/canyon/animals/giraffe.jpg","[""ArrowRight""]","revaluation","canyon","30","{""ArrowUp,ArrowLeft"":23,""ArrowUp,ArrowRight"":10,""ArrowDown,ArrowLeft"":8,""ArrowDown,ArrowRight"":30}","true","ArrowDown,ArrowRight","","original","1","4","","",""
"html-keyboard-response","225","1048940","0.0-4.0-4.0-1.2","spark_pilot_norest","10031","7","8","Female","","","","","","","null","<div style=""font-size:60px;"">+</div>","null","fixation","","","","","","","","","5","","",""
"revaluation","226","1052970","0.0-4.0-4.0-0.3","spark_pilot_norest","10031","7","8","Female","","false","","","","","[721.1999999880791]","./assets/img/canyon/animals/lion.jpg","[""ArrowRight""]","revaluation","canyon","10","{""ArrowUp,ArrowLeft"":23,""ArrowUp,ArrowRight"":10,""ArrowDown,ArrowLeft"":8,""ArrowDown,ArrowRight"":30}","false","ArrowUp,ArrowRight","","original","1","6","","",""
"html-keyboard-response","227","1053472","0.0-4.0-4.0-1.3","spark_pilot_norest","10031","7","8","Female","","","","","","","null","<div style=""font-size:60px;"">+</div>","null","fixation","","","","","","","","","7","","",""
"revaluation","228","1057488","0.0-4.0-4.0-0.4","spark_pilot_norest","10031","7","8","Female","","false","","","","","[439.80000001192093]","./assets/img/canyon/animals/lion.jpg","[""ArrowRight""]","revaluation","canyon","10","{""ArrowUp,ArrowLeft"":23,""ArrowUp,ArrowRight"":10,""ArrowDown,ArrowLeft"":8,""ArrowDown,ArrowRight"":30}","false","ArrowUp,ArrowRight","","original","1","8","","",""
"html-keyboard-response","229","1057991","0.0-4.0-4.0-1.4","spark_pilot_norest","10031","7","8","Female","","","","","","","null","<div style=""font-size:60px;"">+</div>","null","fixation","","","","","","","","","9","","",""
"revaluation","230","1061999","0.0-4.0-4.0-0.5","spark_pilot_norest","10031","7","8","Female","","false","","","","","[564]","./assets/img/canyon/animals/lion.jpg","[""ArrowRight""]","revaluation","canyon","10","{""ArrowUp,ArrowLeft"":23,""ArrowUp,ArrowRight"":10,""ArrowDown,ArrowLeft"":8,""ArrowDown,ArrowRight"":30}","false","ArrowUp,ArrowRight","","original","1","10","","",""
"html-keyboard-response","231","1062500","0.0-4.0-4.0-1.5","spark_pilot_norest","10031","7","8","Female","","","","","","","null","<div style=""font-size:60px;"">+</div>","null","fixation","","","","","","","","","11","","",""
"revaluation","232","1066508","0.0-4.0-4.0-0.6","spark_pilot_norest","10031","7","8","Female","","false","","","","","[469.19999998807907]","./assets/img/canyon/animals/lion.jpg","[""ArrowRight""]","revaluation","canyon","10","{""ArrowUp,ArrowLeft"":23,""ArrowUp,ArrowRight"":10,""ArrowDown,ArrowLeft"":8,""ArrowDown,ArrowRight"":30}","false","ArrowUp,ArrowRight","","original","1","12","","",""
"html-keyboard-response","233","1067020","0.0-4.0-4.0-1.6","spark_pilot_norest","10031","7","8","Female","","","","","","","null","<div style=""font-size:60px;"">+</div>","null","fixation","","","","","","","","","13","","",""
"revaluation","234","1071026","0.0-4.0-4.0-0.7","spark_pilot_norest","10031","7","8","Female","","false","","","","","[570.3000000119209]","./assets/img/canyon/animals/lion.jpg","[""ArrowRight""]","revaluation","canyon","10","{""ArrowUp,ArrowLeft"":23,""ArrowUp,ArrowRight"":10,""ArrowDown,ArrowLeft"":8,""ArrowDown,ArrowRight"":30}","false","ArrowUp,ArrowRight","","original","1","14","","",""
"html-keyboard-response","235","1071528","0.0-4.0-4.0-1.7","spark_pilot_norest","10031","7","8","Female","","","","","","","null","<div style=""font-size:60px;"">+</div>","null","fixation","","","","","","","","","15","","",""
"revaluation","236","1075534","0.0-4.0-4.0-0.8","spark_pilot_norest","10031","7","8","Female","","false","","","","","[781]","./assets/img/canyon/animals/giraffe.jpg","[""ArrowRight""]","revaluation","canyon","30","{""ArrowUp,ArrowLeft"":23,""ArrowUp,ArrowRight"":10,""ArrowDown,ArrowLeft"":8,""ArrowDown,ArrowRight"":30}","true","ArrowDown,ArrowRight","","original","1","16","","",""
"html-keyboard-response","237","1076036","0.0-4.0-4.0-1.8","spark_pilot_norest","10031","7","8","Female","","","","","","","null","<div style=""font-size:60px;"">+</div>","null","fixation","","","","","","","","","17","","",""
"revaluation","238","1080043","0.0-4.0-4.0-0.9","spark_pilot_norest","10031","7","8","Female","","false","","","","","[551.1999999880791]","./assets/img/canyon/animals/lion.jpg","[""ArrowRight""]","revaluation","canyon","10","{""ArrowUp,ArrowLeft"":23,""ArrowUp,ArrowRight"":10,""ArrowDown,ArrowLeft"":8,""ArrowDown,ArrowRight"":30}","false","ArrowUp,ArrowRight","","original","1","18","","",""
"html-keyboard-response","239","1080545","0.0-4.0-4.0-1.9","spark_pilot_norest","10031","7","8","Female","","","","","","","null","<div style=""font-size:60px;"">+</div>","null","fixation","","","","","","","","","19","","",""
"revaluation","240","1084552","0.0-4.0-4.0-0.10","spark_pilot_norest","10031","7","8","Female","","false","","","","","[454.30000001192093]","./assets/img/canyon/animals/giraffe.jpg","[""ArrowRight""]","revaluation","canyon","30","{""ArrowUp,ArrowLeft"":23,""ArrowUp,ArrowRight"":10,""ArrowDown,ArrowLeft"":8,""ArrowDown,ArrowRight"":30}","true","ArrowDown,ArrowRight","","original","1","20","","",""
"html-keyboard-response","241","1085053","0.0-4.0-4.0-1.10","spark_pilot_norest","10031","7","8","Female","","","","","","","null","<div style=""font-size:60px;"">+</div>","null","fixation","","","","","","","","","21","","",""
"revaluation","242","1089061","0.0-4.0-4.0-0.11","spark_pilot_norest","10031","7","8","Female","","false","","","","","[466.5]","./assets/img/canyon/animals/giraffe.jpg","[""ArrowRight""]","revaluation","canyon","30","{""ArrowUp,ArrowLeft"":23,""ArrowUp,ArrowRight"":10,""ArrowDown,ArrowLeft"":8,""ArrowDown,ArrowRight"":30}","true","ArrowDown,ArrowRight","","original","1","22","","",""
"html-keyboard-response","243","1089563","0.0-4.0-4.0-1.11","spark_pilot_norest","10031","7","8","Female","","","","","","","null","<div style=""font-size:60px;"">+</div>","null","fixation","","","","","","","","","23","","",""
"revaluation","244","1093571","0.0-4.0-4.0-0.12","spark_pilot_norest","10031","7","8","Female","","false","","","","","[506.10000002384186]","./assets/img/canyon/animals/lion.jpg","[""ArrowRight""]","revaluation","canyon","10","{""ArrowUp,ArrowLeft"":23,""ArrowUp,ArrowRight"":10,""ArrowDown,ArrowLeft"":8,""ArrowDown,ArrowRight"":30}","false","ArrowUp,ArrowRight","","original","1","24","","",""
"html-keyboard-response","245","1094072","0.0-4.0-4.0-1.12","spark_pilot_norest","10031","7","8","Female","","","","","","","null","<div style=""font-size:60px;"">+</div>","null","fixation","","","","","","","","","25","","",""
"revaluation","246","1098081","0.0-4.0-4.0-0.13","spark_pilot_norest","10031","7","8","Female","","false","","","","","[392.30000001192093]","./assets/img/canyon/animals/giraffe.jpg","[""ArrowRight""]","revaluation","canyon","30","{""ArrowUp,ArrowLeft"":23,""ArrowUp,ArrowRight"":10,""ArrowDown,ArrowLeft"":8,""ArrowDown,ArrowRight"":30}","true","ArrowDown,ArrowRight","","original","1","26","","",""
"html-keyboard-response","247","1098583","0.0-4.0-4.0-1.13","spark_pilot_norest","10031","7","8","Female","","","","","","","null","<div style=""font-size:60px;"">+</div>","null","fixation","","","","","","","","","27","","",""
"revaluation","248","1102590","0.0-4.0-4.0-0.14","spark_pilot_norest","10031","7","8","Female","","false","","","","","[345.5999999642372]","./assets/img/canyon/animals/lion.jpg","[""ArrowRight""]","revaluation","canyon","10","{""ArrowUp,ArrowLeft"":23,""ArrowUp,ArrowRight"":10,""ArrowDown,ArrowLeft"":8,""ArrowDown,ArrowRight"":30}","false","ArrowUp,ArrowRight","","original","1","28","","",""
"html-keyboard-response","249","1103091","0.0-4.0-4.0-1.14","spark_pilot_norest","10031","7","8","Female","","","","","","","null","<div style=""font-size:60px;"">+</div>","null","fixation","","","","","","","","","29","","",""
"revaluation","250","1107100","0.0-4.0-4.0-0.15","spark_pilot_norest","10031","7","8","Female","","false","","","","","[348.19999998807907]","./assets/img/canyon/animals/giraffe.jpg","[""ArrowRight""]","revaluation","canyon","30","{""ArrowUp,ArrowLeft"":23,""ArrowUp,ArrowRight"":10,""ArrowDown,ArrowLeft"":8,""ArrowDown,ArrowRight"":30}","true","ArrowDown,ArrowRight","","original","1","30","","",""
"html-keyboard-response","251","1107602","0.0-4.0-4.0-1.15","spark_pilot_norest","10031","7","8","Female","","","","","","","null","<div style=""font-size:60px;"">+</div>","null","fixation","","","","","","","","","31","","",""
"revaluation","252","1111609","0.0-4.0-4.0-0.16","spark_pilot_norest","10031","7","8","Female","","false","","","","","[558.6999999880791]","./assets/img/canyon/animals/giraffe.jpg","[""ArrowRight""]","revaluation","canyon","30","{""ArrowUp,ArrowLeft"":23,""ArrowUp,ArrowRight"":10,""ArrowDown,ArrowLeft"":8,""ArrowDown,ArrowRight"":30}","true","ArrowDown,ArrowRight","","original","1","32","","",""
"html-keyboard-response","253","1112111","0.0-4.0-4.0-1.16","spark_pilot_norest","10031","7","8","Female","","","","","","","null","<div style=""font-size:60px;"">+</div>","null","fixation","","","","","","","","","33","","",""
"revaluation","254","1116117","0.0-4.0-4.0-0.17","spark_pilot_norest","10031","7","8","Female","","false","","","","","[478]","./assets/img/canyon/animals/lion.jpg","[""ArrowRight""]","revaluation","canyon","10","{""ArrowUp,ArrowLeft"":23,""ArrowUp,ArrowRight"":10,""ArrowDown,ArrowLeft"":8,""ArrowDown,ArrowRight"":30}","false","ArrowUp,ArrowRight","","original","1","34","","",""
"html-keyboard-response","255","1116620","0.0-4.0-4.0-1.17","spark_pilot_norest","10031","7","8","Female","","","","","","","null","<div style=""font-size:60px;"">+</div>","null","fixation","","","","","","","","","35","","",""
"learning-instructions","256","1124823","0.0-4.0-5.0-0.0","spark_pilot_norest","10031","7","8","Female","","","","","","","null","<p> You have almost finished this part of the game! </p>
            <p> We are going to ask you to make a few more choices. </p>","","instructions","","","","","","","","","","","",""
"learning-instructions","257","1140804","0.0-4.0-5.0-0.1","spark_pilot_norest","10031","7","8","Female","","","","","","","null","<p> First, you need to decide whether to go up or down. When you see each picture, use the arrow keys to make your choice. </p>
            <p><b>You will not see which animal you found, but try to get to the one that will give you the most treasure.</b></p>","","instructions","","","","","","","","","","","",""
"html-keyboard-response","258","1141809","0.0-4.0-6.0-0.0","spark_pilot_norest","10031","7","8","Female","","","","","","","null","<div style=""font-size:100px;color:red;"">Starting in...</div>","null","","","","","","","","","","","","",""
"html-keyboard-response","259","1142811","0.0-4.0-6.0-1.0","spark_pilot_norest","10031","7","8","Female","","","","","","","null","<div style=""font-size:200px;color:red;"">3</div>","null","","","","","","","","","","","","",""
"html-keyboard-response","260","1143813","0.0-4.0-6.0-2.0","spark_pilot_norest","10031","7","8","Female","","","","","","","null","<div style=""font-size:200px;color:red;"">2</div>","null","","","","","","","","","","","","",""
"html-keyboard-response","261","1144815","0.0-4.0-6.0-3.0","spark_pilot_norest","10031","7","8","Female","","","","","","","null","<div style=""font-size:200px;color:red;"">1</div>","null","","","","","","","","","","","","",""
"revaluation","262","1145653","0.0-4.0-7.0-0.0","spark_pilot_norest","10031","7","8","Female","","false","","","","","[832.1999999880791]","./assets/img/canyon/test/2.jpg","[""ArrowDown""]","first stage test","canyon","0","{""ArrowUp,ArrowLeft"":23,""ArrowUp,ArrowRight"":10,""ArrowDown,ArrowLeft"":8,""ArrowDown,ArrowRight"":30}","true","ArrowDown","false","original","1","","","",""
"html-keyboard-response","263","1146168","0.0-4.0-7.0-1.0","spark_pilot_norest","10031","7","8","Female","","","","","","","null","<div style=""font-size:60px;"">+</div>","null","fixation","","","","","","","","","","","",""
"revaluation","264","1147106","0.0-4.0-7.0-0.1","spark_pilot_norest","10031","7","8","Female","","false","","","","","[932.6999999880791]","./assets/img/canyon/test/3.jpg","[""ArrowDown""]","first stage test","canyon","0","{""ArrowUp,ArrowLeft"":23,""ArrowUp,ArrowRight"":10,""ArrowDown,ArrowLeft"":8,""ArrowDown,ArrowRight"":30}","true","ArrowDown","false","original","1","","","",""
"html-keyboard-response","265","1147611","0.0-4.0-7.0-1.1","spark_pilot_norest","10031","7","8","Female","","","","","","","null","<div style=""font-size:60px;"">+</div>","null","fixation","","","","","","","","","","","",""
"revaluation","266","1148197","0.0-4.0-7.0-0.2","spark_pilot_norest","10031","7","8","Female","","false","","","","","[581.1000000238419]","./assets/img/canyon/test/0.jpg","[""ArrowDown""]","first stage test","canyon","0","{""ArrowUp,ArrowLeft"":23,""ArrowUp,ArrowRight"":10,""ArrowDown,ArrowLeft"":8,""ArrowDown,ArrowRight"":30}","true","ArrowDown","false","original","1","","","",""
"html-keyboard-response","267","1148701","0.0-4.0-7.0-1.2","spark_pilot_norest","10031","7","8","Female","","","","","","","null","<div style=""font-size:60px;"">+</div>","null","fixation","","","","","","","","","","","",""
"revaluation","268","1149171","0.0-4.0-7.0-0.3","spark_pilot_norest","10031","7","8","Female","","false","","","","","[465.5]","./assets/img/canyon/test/1.jpg","[""ArrowDown""]","first stage test","canyon","0","{""ArrowUp,ArrowLeft"":23,""ArrowUp,ArrowRight"":10,""ArrowDown,ArrowLeft"":8,""ArrowDown,ArrowRight"":30}","true","ArrowDown","false","original","1","","","",""
"html-keyboard-response","269","1149676","0.0-4.0-7.0-1.3","spark_pilot_norest","10031","7","8","Female","","","","","","","null","<div style=""font-size:60px;"">+</div>","null","fixation","","","","","","","","","","","",""
"learning-instructions","270","1163030","0.0-4.0-8.0-0.0","spark_pilot_norest","10031","7","8","Female","","","","","","","null","<p> Now you will see the animals again and can search their chests for treasure. </p>
            <p> This time, you will not see how much treasure you earned, but you will earn more bonus money for making better choices. </p>","","instructions","","","","","","","","","","","",""
"html-keyboard-response","271","1164031","0.0-4.0-9.0-0.0","spark_pilot_norest","10031","7","8","Female","","","","","","","null","<div style=""font-size:100px;color:red;"">Starting in...</div>","null","","","","","","","","","","","","",""
"html-keyboard-response","272","1165034","0.0-4.0-9.0-1.0","spark_pilot_norest","10031","7","8","Female","","","","","","","null","<div style=""font-size:200px;color:red;"">3</div>","null","","","","","","","","","","","","",""
"html-keyboard-response","273","1166035","0.0-4.0-9.0-2.0","spark_pilot_norest","10031","7","8","Female","","","","","","","null","<div style=""font-size:200px;color:red;"">2</div>","null","","","","","","","","","","","","",""
"html-keyboard-response","274","1167037","0.0-4.0-9.0-3.0","spark_pilot_norest","10031","7","8","Female","","","","","","","null","<div style=""font-size:200px;color:red;"">1</div>","null","","","","","","","","","","","","",""
"revaluation","275","1167739","0.0-4.0-10.0-0.0","spark_pilot_norest","10031","7","8","Female","","false","","","","","[698.3000000119209]","./assets/img/canyon/animals/lion.jpg","[""ArrowRight""]","second stage test","canyon","0","{""ArrowUp,ArrowLeft"":23,""ArrowUp,ArrowRight"":10,""ArrowDown,ArrowLeft"":8,""ArrowDown,ArrowRight"":30}","false","ArrowUp,ArrowRight","","original","1","","","",""
"html-keyboard-response","276","1168254","0.0-4.0-10.0-1.0","spark_pilot_norest","10031","7","8","Female","","","","","","","null","<div style=""font-size:60px;"">+</div>","null","fixation","","","","","","","","","","","",""
"revaluation","277","1168773","0.0-4.0-10.0-0.1","spark_pilot_norest","10031","7","8","Female","","false","","","","","[513]","./assets/img/canyon/animals/lion.jpg","[""ArrowRight""]","second stage test","canyon","0","{""ArrowUp,ArrowLeft"":23,""ArrowUp,ArrowRight"":10,""ArrowDown,ArrowLeft"":8,""ArrowDown,ArrowRight"":30}","false","ArrowUp,ArrowRight","","original","1","","","",""
"html-keyboard-response","278","1169275","0.0-4.0-10.0-1.1","spark_pilot_norest","10031","7","8","Female","","","","","","","null","<div style=""font-size:60px;"">+</div>","null","fixation","","","","","","","","","","","",""
"revaluation","279","1169637","0.0-4.0-10.0-0.2","spark_pilot_norest","10031","7","8","Female","","false","","","","","[357.19999998807907]","./assets/img/canyon/animals/lion.jpg","[""ArrowRight""]","second stage test","canyon","0","{""ArrowUp,ArrowLeft"":23,""ArrowUp,ArrowRight"":10,""ArrowDown,ArrowLeft"":8,""ArrowDown,ArrowRight"":30}","false","ArrowUp,ArrowRight","","original","1","","","",""
"html-keyboard-response","280","1170143","0.0-4.0-10.0-1.2","spark_pilot_norest","10031","7","8","Female","","","","","","","null","<div style=""font-size:60px;"">+</div>","null","fixation","","","","","","","","","","","",""
"revaluation","281","1170471","0.0-4.0-10.0-0.3","spark_pilot_norest","10031","7","8","Female","","false","","","","","[323]","./assets/img/canyon/animals/lion.jpg","[""ArrowRight""]","second stage test","canyon","0","{""ArrowUp,ArrowLeft"":23,""ArrowUp,ArrowRight"":10,""ArrowDown,ArrowLeft"":8,""ArrowDown,ArrowRight"":30}","false","ArrowUp,ArrowRight","","original","1","","","",""
"html-keyboard-response","282","1170979","0.0-4.0-10.0-1.3","spark_pilot_norest","10031","7","8","Female","","","","","","","null","<div style=""font-size:60px;"">+</div>","null","fixation","","","","","","","","","","","",""
"revaluation","283","1171357","0.0-4.0-10.0-0.4","spark_pilot_norest","10031","7","8","Female","","false","","","","","[371.60000002384186]","./assets/img/canyon/animals/giraffe.jpg","[""ArrowRight""]","second stage test","canyon","0","{""ArrowUp,ArrowLeft"":23,""ArrowUp,ArrowRight"":10,""ArrowDown,ArrowLeft"":8,""ArrowDown,ArrowRight"":30}","true","ArrowDown,ArrowRight","","original","1","","","",""
"html-keyboard-response","284","1171871","0.0-4.0-10.0-1.4","spark_pilot_norest","10031","7","8","Female","","","","","","","null","<div style=""font-size:60px;"">+</div>","null","fixation","","","","","","","","","","","",""
"revaluation","285","1172152","0.0-4.0-10.0-0.5","spark_pilot_norest","10031","7","8","Female","","false","","","","","[274.89999997615814]","./assets/img/canyon/animals/giraffe.jpg","[""ArrowRight""]","second stage test","canyon","0","{""ArrowUp,ArrowLeft"":23,""ArrowUp,ArrowRight"":10,""ArrowDown,ArrowLeft"":8,""ArrowDown,ArrowRight"":30}","true","ArrowDown,ArrowRight","","original","1","","","",""
"html-keyboard-response","286","1172661","0.0-4.0-10.0-1.5","spark_pilot_norest","10031","7","8","Female","","","","","","","null","<div style=""font-size:60px;"">+</div>","null","fixation","","","","","","","","","","","",""
"revaluation","287","1172947","0.0-4.0-10.0-0.6","spark_pilot_norest","10031","7","8","Female","","false","","","","","[280]","./assets/img/canyon/animals/giraffe.jpg","[""ArrowRight""]","second stage test","canyon","0","{""ArrowUp,ArrowLeft"":23,""ArrowUp,ArrowRight"":10,""ArrowDown,ArrowLeft"":8,""ArrowDown,ArrowRight"":30}","true","ArrowDown,ArrowRight","","original","1","","","",""
"html-keyboard-response","288","1173448","0.0-4.0-10.0-1.6","spark_pilot_norest","10031","7","8","Female","","","","","","","null","<div style=""font-size:60px;"">+</div>","null","fixation","","","","","","","","","","","",""
"revaluation","289","1173587","0.0-4.0-10.0-0.7","spark_pilot_norest","10031","7","8","Female","","false","","","","","[132.60000002384186]","./assets/img/canyon/animals/giraffe.jpg","[""ArrowRight""]","second stage test","canyon","0","{""ArrowUp,ArrowLeft"":23,""ArrowUp,ArrowRight"":10,""ArrowDown,ArrowLeft"":8,""ArrowDown,ArrowRight"":30}","true","ArrowDown,ArrowRight","","original","1","","","",""
"html-keyboard-response","290","1174098","0.0-4.0-10.0-1.7","spark_pilot_norest","10031","7","8","Female","","","","","","","null","<div style=""font-size:60px;"">+</div>","null","fixation","","","","","","","","","","","",""
"learning-instructions","291","1182781","0.0-4.0-0.1-0.2","spark_pilot_norest","10031","7","8","Female","","","","","","","5967.399999976158","<p> This time you are searching for treasure in the <b>ocean</b>.</p>","","instructions","","","","","","","","","","","",""
"learning-instructions","292","1202157","0.0-4.0-0.1-0.3","spark_pilot_norest","10031","7","8","Female","","","","","","","2133.5","<p><b>New</b> animals with <b>new</b> treasure chests live here. You need to explore to discover where the animal with the best treasure chest is.</p>
                    <p> Like before, once you figure out which animal has the chest with the most treasure, you should try to get to that animal and select that chest! </p>","","instructions","","","","","","","","","","","",""
"learning-instructions","293","1222776","0.0-4.0-1.1-0.1","spark_pilot_norest","10031","7","8","Female","","","","","","","5881.300000011921","<p> Remember, when you see a picture of the place, use the up and down keys to <b>find an animal</b>.</p>
            <p> When you encounter an animal, you should use the left and right keys to <b>select a treasure chest</b>.</p>
            <p> Don't forget to look out for the robber! </p>","","instructions","","","","","","","","","","","",""
"revaluation","294","1228808","0.0-4.0-2.1-0.50","spark_pilot_norest","10031","7","8","Female","","false","","","","","[1269.5,865.2999999523163]","./assets/img/ocean/memory/39.jpg","[""ArrowDown"",""ArrowRight""]","value training","ocean","17","{""ArrowUp,ArrowLeft"":26,""ArrowUp,ArrowRight"":10,""ArrowDown,ArrowLeft"":5,""ArrowDown,ArrowRight"":17}","false","ArrowDown,ArrowRight","false","revaluation","2","0","","",""
"html-keyboard-response","295","1229319","0.0-4.0-2.1-1.50","spark_pilot_norest","10031","7","8","Female","","","","","","","null","<div style=""font-size:60px;"">+</div>","null","fixation","","","","","","","","","1","","",""
"revaluation","296","1233340","0.0-4.0-2.1-0.51","spark_pilot_norest","10031","7","8","Female","","false","","","","","[427]","./assets/img/ocean/catch/7.jpg","[""ArrowDown""]","value training","ocean","-10","{""ArrowUp,ArrowLeft"":26,""ArrowUp,ArrowRight"":10,""ArrowDown,ArrowLeft"":5,""ArrowDown,ArrowRight"":17}","false","ArrowDown","true","revaluation","2","2","","",""
"html-keyboard-response","297","1233842","0.0-4.0-2.1-1.51","spark_pilot_norest","10031","7","8","Female","","","","","","","null","<div style=""font-size:60px;"">+</div>","null","fixation","","","","","","","","","3","","",""
"revaluation","298","1239874","0.0-4.0-2.1-0.52","spark_pilot_norest","10031","7","8","Female","","false","","","","","[1027.2000000476837,640.9000000357628]","./assets/img/ocean/memory/37.jpg","[""ArrowDown"",""ArrowLeft""]","value training","ocean","5","{""ArrowUp,ArrowLeft"":26,""ArrowUp,ArrowRight"":10,""ArrowDown,ArrowLeft"":5,""ArrowDown,ArrowRight"":17}","false","ArrowDown,ArrowLeft","false","revaluation","2","4","","",""
"html-keyboard-response","299","1240386","0.0-4.0-2.1-1.52","spark_pilot_norest","10031","7","8","Female","","","","","","","null","<div style=""font-size:60px;"">+</div>","null","fixation","","","","","","","","","5","","",""
"revaluation","300","1244418","0.0-4.0-2.1-0.53","spark_pilot_norest","10031","7","8","Female","","false","","","","","[786.7999999523163]","./assets/img/ocean/catch/2.jpg","[""spaceBar""]","value training","ocean","0","{""ArrowUp,ArrowLeft"":26,""ArrowUp,ArrowRight"":10,""ArrowDown,ArrowLeft"":5,""ArrowDown,ArrowRight"":17}","true","spaceBar","true","revaluation","2","6","","",""
"html-keyboard-response","301","1244920","0.0-4.0-2.1-1.53","spark_pilot_norest","10031","7","8","Female","","","","","","","null","<div style=""font-size:60px;"">+</div>","null","fixation","","","","","","","","","7","","",""
"revaluation","302","1250939","0.0-4.0-2.1-0.54","spark_pilot_norest","10031","7","8","Female","","false","","","","","[1328.199999988079,958]","./assets/img/ocean/memory/27.jpg","[""ArrowUp"",""ArrowRight""]","value training","ocean","10","{""ArrowUp,ArrowLeft"":26,""ArrowUp,ArrowRight"":10,""ArrowDown,ArrowLeft"":5,""ArrowDown,ArrowRight"":17}","false","ArrowUp,ArrowRight","false","revaluation","2","8","","",""
"html-keyboard-response","303","1251441","0.0-4.0-2.1-1.54","spark_pilot_norest","10031","7","8","Female","","","","","","","null","<div style=""font-size:60px;"">+</div>","null","fixation","","","","","","","","","9","","",""
"revaluation","304","1257449","0.0-4.0-2.1-0.55","spark_pilot_norest","10031","7","8","Female","","false","","","","","[506.5,448.5]","./assets/img/ocean/memory/33.jpg","[""ArrowUp"",""ArrowLeft""]","value training","ocean","26","{""ArrowUp,ArrowLeft"":26,""ArrowUp,ArrowRight"":10,""ArrowDown,ArrowLeft"":5,""ArrowDown,ArrowRight"":17}","true","ArrowUp,ArrowLeft","false","revaluation","2","10","","",""
"html-keyboard-response","305","1257951","0.0-4.0-2.1-1.55","spark_pilot_norest","10031","7","8","Female","","","","","","","null","<div style=""font-size:60px;"">+</div>","null","fixation","","","","","","","","","11","","",""
"revaluation","306","1263963","0.0-4.0-2.1-0.56","spark_pilot_norest","10031","7","8","Female","","false","","","","","[730.6999999880791,440.5999999642372]","./assets/img/ocean/memory/32.jpg","[""ArrowDown"",""ArrowRight""]","value training","ocean","17","{""ArrowUp,ArrowLeft"":26,""ArrowUp,ArrowRight"":10,""ArrowDown,ArrowLeft"":5,""ArrowDown,ArrowRight"":17}","false","ArrowDown,ArrowRight","false","revaluation","2","12","","",""
"html-keyboard-response","307","1264465","0.0-4.0-2.1-1.56","spark_pilot_norest","10031","7","8","Female","","","","","","","null","<div style=""font-size:60px;"">+</div>","null","fixation","","","","","","","","","13","","",""
"revaluation","308","1270471","0.0-4.0-2.1-0.57","spark_pilot_norest","10031","7","8","Female","","false","","","","","[920.3999999761581,947]","./assets/img/ocean/memory/11.jpg","[""ArrowUp"",""ArrowLeft""]","value training","ocean","26","{""ArrowUp,ArrowLeft"":26,""ArrowUp,ArrowRight"":10,""ArrowDown,ArrowLeft"":5,""ArrowDown,ArrowRight"":17}","true","ArrowUp,ArrowLeft","false","revaluation","2","14","","",""
"html-keyboard-response","309","1270973","0.0-4.0-2.1-1.57","spark_pilot_norest","10031","7","8","Female","","","","","","","null","<div style=""font-size:60px;"">+</div>","null","fixation","","","","","","","","","15","","",""
"revaluation","310","1274979","0.0-4.0-2.1-0.58","spark_pilot_norest","10031","7","8","Female","","false","","","","","[939]","./assets/img/ocean/catch/1.jpg","[""spaceBar""]","value training","ocean","0","{""ArrowUp,ArrowLeft"":26,""ArrowUp,ArrowRight"":10,""ArrowDown,ArrowLeft"":5,""ArrowDown,ArrowRight"":17}","true","spaceBar","true","revaluation","2","16","","",""
"html-keyboard-response","311","1275482","0.0-4.0-2.1-1.58","spark_pilot_norest","10031","7","8","Female","","","","","","","null","<div style=""font-size:60px;"">+</div>","null","fixation","","","","","","","","","17","","",""
