"trial_type","trial_index","time_elapsed","internal_node_id","task_version","subject_id","assigned_condition","age","gender","success","timeout","failed_images","failed_audio","failed_video","browser_interaction","rt","stimulus","response","task_part","environment","score","rewardMap","correct","fullState","isCatch","condition","order","trial_num","key_press","ground_truth","bonus"
"pavlovia","0","1660","0.0-0.0","spark_pilot_norest","8423","8","9","Female","","","","","","","","","","","","","","","","","","","","","",""
"preload","1","31698","0.0-1.0","spark_pilot_norest","8423","8","9","Female","true","false","[]","[]","[]","[{""event"":""fullscreenenter"",""trial"":2,""time"":35248}]","","","","","","","","","","","","","","","",""
"fullscreen","2","36242","0.0-2.0","spark_pilot_norest","8423","8","9","Female","true","","","","","","","","","","","","","","","","","","","","",""
"audio-button-response","3","37938","0.0-3.0-0.0-0.0","spark_pilot_norest","8423","8","9","Female","","","","","","","1664","./assets/audio/audiotest/turtle.mp3","2","audio_test","","","","","","","","","","","",""
"learning-instructions","4","46692","0.0-3.0-1.0-0.0","spark_pilot_norest","8423","8","9","Female","","","","","","","1688.0999999046326","<p> Welcome! Please remember to stay in fullscreen mode and don't click away from the experiment. </p>","","instructions","","","","","","","","","","","",""
"learning-instructions","5","55915","0.0-3.0-1.0-0.1","spark_pilot_norest","8423","8","9","Female","","","","","","","702.7999999523163","<p> Today you will be playing a game to earn treasure. </p>
            <p> At the end of the experiment, you will earn a bonus based on how much treasure you find. </p>
            <img src='./assets/img/instructions/treasure.jpg' class='instructions-image'>","","instructions","","","","","","","","","","","",""
"learning-instructions","6","64788","0.0-3.0-1.0-0.2","spark_pilot_norest","8423","8","9","Female","","","","","","","527","<p> Animals have hidden treasure in treasure chests. </p>
            <p> You need to first find an animal and then choose which of their treasure chests to search. </p>
            <img src='./assets/img/space/animals/cat.jpg' class='instructions-image'>","","instructions","","","","","","","","","","","",""
"learning-instructions","7","79207","0.0-3.0-1.0-0.3","spark_pilot_norest","8423","8","9","Female","","","","","","","1110.3999999761581","<p> In each round, you will search for treasure in a different place. In the real game, there will be two rounds. </p>
            <p> You will begin with a separate, practice round where you will search for treasure in outer space. </p>
            <img src='./assets/img/space/0.jpg' class='instructions-image'>","","instructions","","","","","","","","","","","",""
"learning-instructions","8","91986","0.0-3.0-1.0-0.4","spark_pilot_norest","8423","8","9","Female","","","","","","","1214.5","<p> On every turn, you will see a picture of the place that you are in, but the specific image may be different each time. </p>
            <p> For example, both of these images mean you are in outer space. </p>
            <img src='./assets/img/instructions/outerspace.jpg' class='instructions-image'>","","instructions","","","","","","","","","","","",""
"learning-instructions","9","100385","0.0-3.0-1.0-0.5","spark_pilot_norest","8423","8","9","Female","","","","","","","477.5","<p> You need to decide which direction to travel in. </p>
            <p> You can choose between going <b>up or down</b> by using the arrow keys. </p>
            <img src='./assets/img/instructions/updown.jpg' class='instructions-image'>","","instructions","","","","","","","","","","","",""
"learning-instructions","10","109860","0.0-3.0-1.0-0.6","spark_pilot_norest","8423","8","9","Female","","","","","","","530.1000000238419","<p> You will have <b>2 seconds</b> to make your choice. </p>
            <p> If you do not make a choice within 2 seconds, you will not find an animal or earn treasure. </p>
            <img src='./assets/img/instructions/2seconds.jpg' class='instructions-image'>","","instructions","","","","","","","","","","","",""
"learning-instructions","11","117997","0.0-3.0-1.0-0.7","spark_pilot_norest","8423","8","9","Female","","","","","","","1022.8999999761581","<p> Let’s try practicing that now! </p>
            <p> When you see a picture of the place you are in, press the <b>up</b> key to travel up. </p>
            <img src='./assets/img/instructions/pressUp.jpg' class='instructions-image'>","","instructions","","","","","","","","","","","",""
"revaluation","12","122016","0.0-3.0-2.0-0.0","spark_pilot_norest","8423","8","9","Female","","false","","","","","[861.1000000238419]","./assets/img/space/0.jpg","[""ArrowUp""]","first stage practice","space","0","null","null","ArrowUp","false","","","","","",""
"html-keyboard-response","13","122519","0.0-3.0-2.0-1.0","spark_pilot_norest","8423","8","9","Female","","","","","","","null","<div style=""font-size:60px;"">+</div>","null","fixation","","","","","","","","","","","",""
"revaluation","14","126524","0.0-3.0-2.0-0.1","spark_pilot_norest","8423","8","9","Female","","false","","","","","[720.6000000238419]","./assets/img/space/1.jpg","[""ArrowUp""]","first stage practice","space","0","null","null","ArrowUp","false","","","","","",""
"html-keyboard-response","15","127026","0.0-3.0-2.0-1.1","spark_pilot_norest","8423","8","9","Female","","","","","","","null","<div style=""font-size:60px;"">+</div>","null","fixation","","","","","","","","","","","",""
"revaluation","16","131036","0.0-3.0-2.0-0.2","spark_pilot_norest","8423","8","9","Female","","false","","","","","[752.7999999523163]","./assets/img/space/2.jpg","[""ArrowUp""]","first stage practice","space","0","null","null","ArrowUp","false","","","","","",""
"html-keyboard-response","17","131537","0.0-3.0-2.0-1.2","spark_pilot_norest","8423","8","9","Female","","","","","","","null","<div style=""font-size:60px;"">+</div>","null","fixation","","","","","","","","","","","",""
"learning-instructions","18","137730","0.0-3.0-3.0-0.0","spark_pilot_norest","8423","8","9","Female","","","","","","","1443.7000000476837","<p> Great job! Now try pressing the <b>down</b> key to travel down. </p>
            <img src='./assets/img/instructions/pressDown.jpg' class='instructions-image'>","","instructions","","","","","","","","","","","",""
"revaluation","19","141738","0.0-3.0-4.0-0.0","spark_pilot_norest","8423","8","9","Female","","false","","","","","[334.6999999284744]","./assets/img/space/3.jpg","[""ArrowDown""]","first stage practice","space","0","null","null","ArrowDown","false","","","","","",""
"html-keyboard-response","20","142240","0.0-3.0-4.0-1.0","spark_pilot_norest","8423","8","9","Female","","","","","","","null","<div style=""font-size:60px;"">+</div>","null","fixation","","","","","","","","","","","",""
"revaluation","21","146247","0.0-3.0-4.0-0.1","spark_pilot_norest","8423","8","9","Female","","false","","","","","[89.90000009536743]","./assets/img/space/4.jpg","[""ArrowDown""]","first stage practice","space","0","null","null","ArrowDown","false","","","","","",""
"html-keyboard-response","22","146748","0.0-3.0-4.0-1.1","spark_pilot_norest","8423","8","9","Female","","","","","","","null","<div style=""font-size:60px;"">+</div>","null","fixation","","","","","","","","","","","",""
"revaluation","23","150752","0.0-3.0-4.0-0.2","spark_pilot_norest","8423","8","9","Female","","false","","","","","[764.2000000476837]","./assets/img/space/5.jpg","[""ArrowDown""]","first stage practice","space","0","null","null","ArrowDown","false","","","","","",""
"html-keyboard-response","24","151253","0.0-3.0-4.0-1.2","spark_pilot_norest","8423","8","9","Female","","","","","","","null","<div style=""font-size:60px;"">+</div>","null","fixation","","","","","","","","","","","",""
"learning-instructions","25","162934","0.0-3.0-5.0-0.0","spark_pilot_norest","8423","8","9","Female","","","","","","","1719.7000000476837","<p> The animals don’t move, so the animal in the upper part of a place will stay in the upper part of a place, and the animal in the lower part of a place will stay in the lower part of a place. </p>","","instructions","","","","","","","","","","","",""
"learning-instructions","26","173539","0.0-3.0-5.0-0.1","spark_pilot_norest","8423","8","9","Female","","","","","","","1392.3000000715256","<p> Each animal has two treasure chests for you to choose from. </p>
            <p> The amount of treasure in each chest can range from <b> 0 to 40 pieces.</b></p>","","instructions","","","","","","","","","","","",""
"learning-instructions","27","185793","0.0-3.0-5.0-0.2","spark_pilot_norest","8423","8","9","Female","","","","","","","957.2000000476837","<p> You should decide which chest to search for treasure by using the <b>left</b> and <b>right</b> arrow keys. </p>
            <p><b> Pay attention to which animal is on the screen, as the animals have different treasure chests. </b></p>
            <img src='./assets/img/instructions/leftright.jpg' class='instructions-image'>","","instructions","","","","","","","","","","","",""
"learning-instructions","28","193363","0.0-3.0-5.0-0.3","spark_pilot_norest","8423","8","9","Female","","","","","","","1141.7999999523163","<p> Let’s try practicing that now. </p>
            <p> When you see an animal, choose which chest to search for treasure. </p>
            <img src='./assets/img/instructions/chooseChest.jpg' class='instructions-image'>","","instructions","","","","","","","","","","","",""
"revaluation","29","197371","0.0-3.0-6.0-0.0","spark_pilot_norest","8423","8","9","Female","","false","","","","","[590.7000000476837]","./assets/img/space/animals/rabbit.jpg","[""ArrowLeft""]","second stage practice","space","15","{""ArrowUp,ArrowLeft"":3,""ArrowUp,ArrowRight"":36,""ArrowDown,ArrowLeft"":15,""ArrowDown,ArrowRight"":23}","false","ArrowDown,ArrowLeft","","","","","","",""
"html-keyboard-response","30","197873","0.0-3.0-6.0-1.0","spark_pilot_norest","8423","8","9","Female","","","","","","","null","<div style=""font-size:60px;"">+</div>","null","fixation","","","","","","","","","","","",""
"revaluation","31","201882","0.0-3.0-6.0-0.1","spark_pilot_norest","8423","8","9","Female","","false","","","","","[434.1999999284744]","./assets/img/space/animals/rabbit.jpg","[""ArrowRight""]","second stage practice","space","23","{""ArrowUp,ArrowLeft"":3,""ArrowUp,ArrowRight"":36,""ArrowDown,ArrowLeft"":15,""ArrowDown,ArrowRight"":23}","true","ArrowDown,ArrowRight","","","","","","",""
"html-keyboard-response","32","202384","0.0-3.0-6.0-1.1","spark_pilot_norest","8423","8","9","Female","","","","","","","null","<div style=""font-size:60px;"">+</div>","null","fixation","","","","","","","","","","","",""
"revaluation","33","206393","0.0-3.0-6.0-0.2","spark_pilot_norest","8423","8","9","Female","","false","","","","","[640.7000000476837]","./assets/img/space/animals/cat.jpg","[""ArrowLeft""]","second stage practice","space","3","{""ArrowUp,ArrowLeft"":3,""ArrowUp,ArrowRight"":36,""ArrowDown,ArrowLeft"":15,""ArrowDown,ArrowRight"":23}","false","ArrowUp,ArrowLeft","","","","","","",""
"html-keyboard-response","34","206894","0.0-3.0-6.0-1.2","spark_pilot_norest","8423","8","9","Female","","","","","","","null","<div style=""font-size:60px;"">+</div>","null","fixation","","","","","","","","","","","",""
"revaluation","35","210903","0.0-3.0-6.0-0.3","spark_pilot_norest","8423","8","9","Female","","false","","","","","[468.59999990463257]","./assets/img/space/animals/cat.jpg","[""ArrowRight""]","second stage practice","space","36","{""ArrowUp,ArrowLeft"":3,""ArrowUp,ArrowRight"":36,""ArrowDown,ArrowLeft"":15,""ArrowDown,ArrowRight"":23}","true","ArrowUp,ArrowRight","","","","","","",""
"html-keyboard-response","36","211405","0.0-3.0-6.0-1.3","spark_pilot_norest","8423","8","9","Female","","","","","","","null","<div style=""font-size:60px;"">+</div>","null","fixation","","","","","","","","","","","",""
"learning-instructions","37","229911","0.0-3.0-7.0-0.0","spark_pilot_norest","8423","8","9","Female","","","","","","","1545.7999999523163","<p> Great job. Now let’s try putting it together. </p>
            <p> On each turn, you will first see a picture to remind you of the place you are in, and you need to choose whether to go up or down. </p>
            <p> Then you will see an animal and choose which of its chests to search for treasure. </p>","","instructions","","","","","","","","","","","",""
"learning-instructions","38","238963","0.0-3.0-7.0-0.1","spark_pilot_norest","8423","8","9","Female","","","","","","","706","<p> When you choose whether to go up or down, try to go to the animal with the chest with the most treasure. </p>
            <p> Try practicing that now! </p>","","instructions","","","","","","","","","","","",""
"revaluation","39","244967","0.0-3.0-8.0-0.0","spark_pilot_norest","8423","8","9","Female","","false","","","","","[658.7000000476837,516.1999999284744]","./assets/img/space/6.jpg","[""ArrowUp"",""ArrowRight""]","full practice","space","36","{""ArrowUp,ArrowLeft"":3,""ArrowUp,ArrowRight"":36,""ArrowDown,ArrowLeft"":15,""ArrowDown,ArrowRight"":23}","true","ArrowUp,ArrowRight","false","","","","","",""
"html-keyboard-response","40","245469","0.0-3.0-8.0-1.0","spark_pilot_norest","8423","8","9","Female","","","","","","","null","<div style=""font-size:60px;"">+</div>","null","fixation","","","","","","","","","","","",""
"revaluation","41","251474","0.0-3.0-8.0-0.1","spark_pilot_norest","8423","8","9","Female","","false","","","","","[502.40000009536743,474]","./assets/img/space/7.jpg","[""ArrowUp"",""ArrowRight""]","full practice","space","36","{""ArrowUp,ArrowLeft"":3,""ArrowUp,ArrowRight"":36,""ArrowDown,ArrowLeft"":15,""ArrowDown,ArrowRight"":23}","true","ArrowUp,ArrowRight","false","","","","","",""
"html-keyboard-response","42","251976","0.0-3.0-8.0-1.1","spark_pilot_norest","8423","8","9","Female","","","","","","","null","<div style=""font-size:60px;"">+</div>","null","fixation","","","","","","","","","","","",""
"revaluation","43","257986","0.0-3.0-8.0-0.2","spark_pilot_norest","8423","8","9","Female","","false","","","","","[584.8999999761581,405.10000002384186]","./assets/img/space/8.jpg","[""ArrowDown"",""ArrowLeft""]","full practice","space","15","{""ArrowUp,ArrowLeft"":3,""ArrowUp,ArrowRight"":36,""ArrowDown,ArrowLeft"":15,""ArrowDown,ArrowRight"":23}","false","ArrowDown,ArrowLeft","false","","","","","",""
"html-keyboard-response","44","258488","0.0-3.0-8.0-1.2","spark_pilot_norest","8423","8","9","Female","","","","","","","null","<div style=""font-size:60px;"">+</div>","null","fixation","","","","","","","","","","","",""
"revaluation","45","264492","0.0-3.0-8.0-0.3","spark_pilot_norest","8423","8","9","Female","","false","","","","","[454.09999990463257,417.7000000476837]","./assets/img/space/9.jpg","[""ArrowDown"",""ArrowRight""]","full practice","space","23","{""ArrowUp,ArrowLeft"":3,""ArrowUp,ArrowRight"":36,""ArrowDown,ArrowLeft"":15,""ArrowDown,ArrowRight"":23}","false","ArrowDown,ArrowRight","false","","","","","",""
"html-keyboard-response","46","264995","0.0-3.0-8.0-1.3","spark_pilot_norest","8423","8","9","Female","","","","","","","null","<div style=""font-size:60px;"">+</div>","null","fixation","","","","","","","","","","","",""
"revaluation","47","271004","0.0-3.0-8.0-0.4","spark_pilot_norest","8423","8","9","Female","","false","","","","","[401.5,636.1000000238419]","./assets/img/space/10.jpg","[""ArrowUp"",""ArrowRight""]","full practice","space","36","{""ArrowUp,ArrowLeft"":3,""ArrowUp,ArrowRight"":36,""ArrowDown,ArrowLeft"":15,""ArrowDown,ArrowRight"":23}","true","ArrowUp,ArrowRight","false","","","","","",""
"html-keyboard-response","48","271506","0.0-3.0-8.0-1.4","spark_pilot_norest","8423","8","9","Female","","","","","","","null","<div style=""font-size:60px;"">+</div>","null","fixation","","","","","","","","","","","",""
"learning-instructions","49","284335","0.0-3.0-9.0-0.0","spark_pilot_norest","8423","8","9","Female","","","","","","","2397.6999999284744","<p> One last thing: sometimes, you will see a robber. The robber can be anywhere in the picture. </p>
            <p> If you do not stop them, you will lose treasure. </p>
            <img src='./assets/img/instructions/robber.jpg' class='instructions-image'>","","instructions","","","","","","","","","","","",""
"learning-instructions","50","292765","0.0-3.0-9.0-0.1","spark_pilot_norest","8423","8","9","Female","","","","","","","1201.1000000238419","<p> If you see the robber, you should <b>press the space bar</b> rather than using the arrow keys. </p>
            <p> Try practicing that now! </p>","","instructions","","","","","","","","","","","",""
"revaluation","51","296772","0.0-3.0-10.0-0.0","spark_pilot_norest","8423","8","9","Female","","false","","","","","[501.60000002384186]","./assets/img/space/catch/0.jpg","[""spaceBar""]","catch practice","space","0","{""ArrowUp,ArrowLeft"":3,""ArrowUp,ArrowRight"":36,""ArrowDown,ArrowLeft"":15,""ArrowDown,ArrowRight"":23}","true","spaceBar","true","","","","","",""
"html-keyboard-response","52","297274","0.0-3.0-10.0-1.0","spark_pilot_norest","8423","8","9","Female","","","","","","","null","<div style=""font-size:60px;"">+</div>","null","fixation","","","","","","","","","","","",""
"revaluation","53","301281","0.0-3.0-10.0-0.1","spark_pilot_norest","8423","8","9","Female","","false","","","","","[280.60000002384186]","./assets/img/space/catch/1.jpg","[""spaceBar""]","catch practice","space","0","{""ArrowUp,ArrowLeft"":3,""ArrowUp,ArrowRight"":36,""ArrowDown,ArrowLeft"":15,""ArrowDown,ArrowRight"":23}","true","spaceBar","true","","","","","",""
"html-keyboard-response","54","301781","0.0-3.0-10.0-1.1","spark_pilot_norest","8423","8","9","Female","","","","","","","null","<div style=""font-size:60px;"">+</div>","null","fixation","","","","","","","","","","","",""
"revaluation","55","305786","0.0-3.0-10.0-0.2","spark_pilot_norest","8423","8","9","Female","","false","","","","","[293.2999999523163]","./assets/img/space/catch/2.jpg","[""spaceBar""]","catch practice","space","0","{""ArrowUp,ArrowLeft"":3,""ArrowUp,ArrowRight"":36,""ArrowDown,ArrowLeft"":15,""ArrowDown,ArrowRight"":23}","true","spaceBar","true","","","","","",""
"html-keyboard-response","56","306288","0.0-3.0-10.0-1.2","spark_pilot_norest","8423","8","9","Female","","","","","","","null","<div style=""font-size:60px;"">+</div>","null","fixation","","","","","","","","","","","",""
"learning-instructions","57","313483","0.0-3.0-11.0-0.0-0.0","spark_pilot_norest","8423","8","9","Female","","","","","","","1888","<p> Now, you will practice a shortened version of the game to get a sense of how it all fits together. </p>","","instructions","","","","","","","","","","","",""
"learning-instructions","58","317697","0.0-3.0-11.0-0.0-0.1","spark_pilot_norest","8423","8","9","Female","","","","","","","971.6999999284744","<p>This time you are searching for treasure in outer space.</p>","","instructions","","","","","","","","","","","",""
"learning-instructions","59","333482","0.0-3.0-11.0-1.0-0.0","spark_pilot_norest","8423","8","9","Female","","","","","","","872.1000000238419","<p> Remember, when you see a picture of the place, use the up and down keys to <b>find an animal</b>.</p>
            <p> When you encounter an animal, you should use the left and right keys to <b>select a treasure chest</b>.</p>
            <p> Don't forget to look out for the robber! </p>","","instructions","","","","","","","","","","","",""
"revaluation","60","339490","0.0-3.0-11.0-2.0-0.0","spark_pilot_norest","8423","8","9","Female","","false","","","","","[956.2000000476837,399.60000002384186]","./assets/img/space/11.jpg","[""ArrowDown"",""ArrowRight""]","practice block","space","23","{""ArrowUp,ArrowLeft"":3,""ArrowUp,ArrowRight"":36,""ArrowDown,ArrowLeft"":15,""ArrowDown,ArrowRight"":23}","false","ArrowDown,ArrowRight","false","","","","","",""
"html-keyboard-response","61","339992","0.0-3.0-11.0-2.0-1.0","spark_pilot_norest","8423","8","9","Female","","","","","","","null","<div style=""font-size:60px;"">+</div>","null","fixation","","","","","","","","","","","",""
"revaluation","62","345997","0.0-3.0-11.0-2.0-0.1","spark_pilot_norest","8423","8","9","Female","","false","","","","","[739.5,605.8999999761581]","./assets/img/space/12.jpg","[""ArrowUp"",""ArrowRight""]","practice block","space","36","{""ArrowUp,ArrowLeft"":3,""ArrowUp,ArrowRight"":36,""ArrowDown,ArrowLeft"":15,""ArrowDown,ArrowRight"":23}","true","ArrowUp,ArrowRight","false","","","","","",""
"html-keyboard-response","63","346499","0.0-3.0-11.0-2.0-1.1","spark_pilot_norest","8423","8","9","Female","","","","","","","null","<div style=""font-size:60px;"">+</div>","null","fixation","","","","","","","","","","","",""
"revaluation","64","352503","0.0-3.0-11.0-2.0-0.2","spark_pilot_norest","8423","8","9","Female","","false","","","","","[673.1000000238419,508.10000002384186]","./assets/img/space/13.jpg","[""ArrowUp"",""ArrowRight""]","practice block","space","36","{""ArrowUp,ArrowLeft"":3,""ArrowUp,ArrowRight"":36,""ArrowDown,ArrowLeft"":15,""ArrowDown,ArrowRight"":23}","true","ArrowUp,ArrowRight","false","","","","","",""
"html-keyboard-response","65","353004","0.0-3.0-11.0-2.0-1.2","spark_pilot_norest","8423","8","9","Female","","","","","","","null","<div style=""font-size:60px;"">+</div>","null","fixation","","","","","","","","","","","",""
"revaluation","66","359011","0.0-3.0-11.0-2.0-0.3","spark_pilot_norest","8423","8","9","Female","","false","","","","","[759.7999999523163,522.8000000715256]","./assets/img/space/14.jpg","[""ArrowUp"",""ArrowRight""]","practice block","space","36","{""ArrowUp,ArrowLeft"":3,""ArrowUp,ArrowRight"":36,""ArrowDown,ArrowLeft"":15,""ArrowDown,ArrowRight"":23}","true","ArrowUp,ArrowRight","false","","","","","",""
"html-keyboard-response","67","359513","0.0-3.0-11.0-2.0-1.3","spark_pilot_norest","8423","8","9","Female","","","","","","","null","<div style=""font-size:60px;"">+</div>","null","fixation","","","","","","","","","","","",""
"revaluation","68","365521","0.0-3.0-11.0-2.0-0.4","spark_pilot_norest","8423","8","9","Female","","false","","","","","[1047.2999999523163,459.39999997615814]","./assets/img/space/11.jpg","[""ArrowUp"",""ArrowRight""]","practice block","space","36","{""ArrowUp,ArrowLeft"":3,""ArrowUp,ArrowRight"":36,""ArrowDown,ArrowLeft"":15,""ArrowDown,ArrowRight"":23}","true","ArrowUp,ArrowRight","false","","","","","",""
"html-keyboard-response","69","366023","0.0-3.0-11.0-2.0-1.4","spark_pilot_norest","8423","8","9","Female","","","","","","","null","<div style=""font-size:60px;"">+</div>","null","fixation","","","","","","","","","","","",""
"revaluation","70","372028","0.0-3.0-11.0-2.0-0.5","spark_pilot_norest","8423","8","9","Female","","false","","","","","[772.8999999761581,497.2999999523163]","./assets/img/space/12.jpg","[""ArrowUp"",""ArrowRight""]","practice block","space","36","{""ArrowUp,ArrowLeft"":3,""ArrowUp,ArrowRight"":36,""ArrowDown,ArrowLeft"":15,""ArrowDown,ArrowRight"":23}","true","ArrowUp,ArrowRight","false","","","","","",""
"html-keyboard-response","71","372530","0.0-3.0-11.0-2.0-1.5","spark_pilot_norest","8423","8","9","Female","","","","","","","null","<div style=""font-size:60px;"">+</div>","null","fixation","","","","","","","","","","","",""
"revaluation","72","378541","0.0-3.0-11.0-2.0-0.6","spark_pilot_norest","8423","8","9","Female","","false","","","","","[944,643.7000000476837]","./assets/img/space/13.jpg","[""ArrowUp"",""ArrowRight""]","practice block","space","36","{""ArrowUp,ArrowLeft"":3,""ArrowUp,ArrowRight"":36,""ArrowDown,ArrowLeft"":15,""ArrowDown,ArrowRight"":23}","true","ArrowUp,ArrowRight","false","","","","","",""
"html-keyboard-response","73","379043","0.0-3.0-11.0-2.0-1.6","spark_pilot_norest","8423","8","9","Female","","","","","","","null","<div style=""font-size:60px;"">+</div>","null","fixation","","","","","","","","","","","",""
"revaluation","74","385055","0.0-3.0-11.0-2.0-0.7","spark_pilot_norest","8423","8","9","Female","","false","","","","","[844.6999999284744,448.2999999523163]","./assets/img/space/14.jpg","[""ArrowUp"",""ArrowRight""]","practice block","space","36","{""ArrowUp,ArrowLeft"":3,""ArrowUp,ArrowRight"":36,""ArrowDown,ArrowLeft"":15,""ArrowDown,ArrowRight"":23}","true","ArrowUp,ArrowRight","false","","","","","",""
"html-keyboard-response","75","385557","0.0-3.0-11.0-2.0-1.7","spark_pilot_norest","8423","8","9","Female","","","","","","","null","<div style=""font-size:60px;"">+</div>","null","fixation","","","","","","","","","","","",""
"revaluation","76","389566","0.0-3.0-11.0-2.0-0.8","spark_pilot_norest","8423","8","9","Female","","false","","","","","[436.7999999523163]","./assets/img/space/catch/3.jpg","[""spaceBar""]","practice block","space","0","{""ArrowUp,ArrowLeft"":3,""ArrowUp,ArrowRight"":36,""ArrowDown,ArrowLeft"":15,""ArrowDown,ArrowRight"":23}","true","spaceBar","true","","","","","",""
"html-keyboard-response","77","390068","0.0-3.0-11.0-2.0-1.8","spark_pilot_norest","8423","8","9","Female","","","","","","","null","<div style=""font-size:60px;"">+</div>","null","fixation","","","","","","","","","","","",""
"learning-instructions","78","404505","0.0-3.0-11.0-3.0-0.0","spark_pilot_norest","8423","8","9","Female","","","","","","","1309.5","<p> Now, you will travel with a friend who will choose whether you go up or down first. </p>
            <p> On these turns, you will just see the animal that they found. You will still get to choose which chest to search for treasure.</p>","","instructions","","","","","","","","","","","",""
"revaluation","79","408509","0.0-3.0-11.0-4.0-0.0","spark_pilot_norest","8423","8","9","Female","","false","","","","","[762]","./assets/img/space/animals/rabbit.jpg","[""ArrowRight""]","practice block","space","23","{""ArrowUp,ArrowLeft"":3,""ArrowUp,ArrowRight"":36,""ArrowDown,ArrowLeft"":15,""ArrowDown,ArrowRight"":23}","true","ArrowDown,ArrowRight","","","","","","",""
"html-keyboard-response","80","409011","0.0-3.0-11.0-4.0-1.0","spark_pilot_norest","8423","8","9","Female","","","","","","","null","<div style=""font-size:60px;"">+</div>","null","fixation","","","","","","","","","","","",""
"revaluation","81","413018","0.0-3.0-11.0-4.0-0.1","spark_pilot_norest","8423","8","9","Female","","false","","","","","[558.8999999761581]","./assets/img/space/animals/cat.jpg","[""ArrowRight""]","practice block","space","36","{""ArrowUp,ArrowLeft"":3,""ArrowUp,ArrowRight"":36,""ArrowDown,ArrowLeft"":15,""ArrowDown,ArrowRight"":23}","true","ArrowUp,ArrowRight","","","","","","",""
"html-keyboard-response","82","413520","0.0-3.0-11.0-4.0-1.1","spark_pilot_norest","8423","8","9","Female","","","","","","","null","<div style=""font-size:60px;"">+</div>","null","fixation","","","","","","","","","","","",""
"revaluation","83","417527","0.0-3.0-11.0-4.0-0.2","spark_pilot_norest","8423","8","9","Female","","false","","","","","[826.6000000238419]","./assets/img/space/animals/rabbit.jpg","[""ArrowRight""]","practice block","space","23","{""ArrowUp,ArrowLeft"":3,""ArrowUp,ArrowRight"":36,""ArrowDown,ArrowLeft"":15,""ArrowDown,ArrowRight"":23}","true","ArrowDown,ArrowRight","","","","","","",""
"html-keyboard-response","84","418029","0.0-3.0-11.0-4.0-1.2","spark_pilot_norest","8423","8","9","Female","","","","","","","null","<div style=""font-size:60px;"">+</div>","null","fixation","","","","","","","","","","","",""
"revaluation","85","422034","0.0-3.0-11.0-4.0-0.3","spark_pilot_norest","8423","8","9","Female","","false","","","","","[524.7999999523163]","./assets/img/space/animals/cat.jpg","[""ArrowRight""]","practice block","space","36","{""ArrowUp,ArrowLeft"":3,""ArrowUp,ArrowRight"":36,""ArrowDown,ArrowLeft"":15,""ArrowDown,ArrowRight"":23}","true","ArrowUp,ArrowRight","","","","","","",""
"html-keyboard-response","86","422536","0.0-3.0-11.0-4.0-1.3","spark_pilot_norest","8423","8","9","Female","","","","","","","null","<div style=""font-size:60px;"">+</div>","null","fixation","","","","","","","","","","","",""
"learning-instructions","87","430722","0.0-3.0-11.0-5.0-0.0","spark_pilot_norest","8423","8","9","Female","","","","","","","null","<p> You have almost finished this part of the game! </p>
            <p> We are going to ask you to make a few more choices. </p>","","instructions","","","","","","","","","","","",""
"learning-instructions","88","446881","0.0-3.0-11.0-5.0-0.1","spark_pilot_norest","8423","8","9","Female","","","","","","","null","<p> First, you need to decide whether to go up or down. When you see each picture, use the arrow keys to make your choice. </p>
            <p><b>You will not see which animal you found, but try to get to the one that will give you the most treasure.</b></p>","","instructions","","","","","","","","","","","",""
"html-keyboard-response","89","447883","0.0-3.0-11.0-6.0-0.0","spark_pilot_norest","8423","8","9","Female","","","","","","","null","<div style=""font-size:100px;color:red;"">Starting in...</div>","null","","","","","","","","","","","","",""
"html-keyboard-response","90","448884","0.0-3.0-11.0-6.0-1.0","spark_pilot_norest","8423","8","9","Female","","","","","","","null","<div style=""font-size:200px;color:red;"">3</div>","null","","","","","","","","","","","","",""
"html-keyboard-response","91","449885","0.0-3.0-11.0-6.0-2.0","spark_pilot_norest","8423","8","9","Female","","","","","","","null","<div style=""font-size:200px;color:red;"">2</div>","null","","","","","","","","","","","","",""
"html-keyboard-response","92","450887","0.0-3.0-11.0-6.0-3.0","spark_pilot_norest","8423","8","9","Female","","","","","","","null","<div style=""font-size:200px;color:red;"">1</div>","null","","","","","","","","","","","","",""
"revaluation","93","451628","0.0-3.0-11.0-7.0","spark_pilot_norest","8423","8","9","Female","","false","","","","","[735.3999999761581]","./assets/img/space/15.jpg","[""ArrowUp""]","practice block","space","0","{""ArrowUp,ArrowLeft"":3,""ArrowUp,ArrowRight"":36,""ArrowDown,ArrowLeft"":15,""ArrowDown,ArrowRight"":23}","true","ArrowUp","false","","","","","",""
"html-keyboard-response","94","452129","0.0-3.0-11.0-8.0","spark_pilot_norest","8423","8","9","Female","","","","","","","null","<div style=""font-size:60px;"">+</div>","null","fixation","","","","","","","","","","","",""
"learning-instructions","95","465666","0.0-3.0-11.0-9.0-0.0","spark_pilot_norest","8423","8","9","Female","","","","","","","null","<p> Now you will see the animals again and can search their chests for treasure. </p>
            <p> This time, you will not see how much treasure you earned, but you will earn more bonus money for making better choices. </p>","","instructions","","","","","","","","","","","",""
"html-keyboard-response","96","466668","0.0-3.0-11.0-10.0-0.0","spark_pilot_norest","8423","8","9","Female","","","","","","","null","<div style=""font-size:100px;color:red;"">Starting in...</div>","null","","","","","","","","","","","","",""
"html-keyboard-response","97","467669","0.0-3.0-11.0-10.0-1.0","spark_pilot_norest","8423","8","9","Female","","","","","","","null","<div style=""font-size:200px;color:red;"">3</div>","null","","","","","","","","","","","","",""
"html-keyboard-response","98","468671","0.0-3.0-11.0-10.0-2.0","spark_pilot_norest","8423","8","9","Female","","","","","","","null","<div style=""font-size:200px;color:red;"">2</div>","null","","","","","","","","","","","","",""
"html-keyboard-response","99","469671","0.0-3.0-11.0-10.0-3.0","spark_pilot_norest","8423","8","9","Female","","","","","","","null","<div style=""font-size:200px;color:red;"">1</div>","null","","","","","","","","","","","","",""
"revaluation","100","470483","0.0-3.0-11.0-11.0-0.0","spark_pilot_norest","8423","8","9","Female","","false","","","","","[806.6000000238419]","./assets/img/space/animals/cat.jpg","[""ArrowRight""]","practice block","space","0","{""ArrowUp,ArrowLeft"":3,""ArrowUp,ArrowRight"":36,""ArrowDown,ArrowLeft"":15,""ArrowDown,ArrowRight"":23}","true","ArrowUp,ArrowRight","","","","","","",""
"html-keyboard-response","101","470985","0.0-3.0-11.0-11.0-1.0","spark_pilot_norest","8423","8","9","Female","","","","","","","null","<div style=""font-size:60px;"">+</div>","null","fixation","","","","","","","","","","","",""
"revaluation","102","471712","0.0-3.0-11.0-11.0-0.1","spark_pilot_norest","8423","8","9","Female","","false","","","","","[723.7999999523163]","./assets/img/space/animals/rabbit.jpg","[""ArrowRight""]","practice block","space","0","{""ArrowUp,ArrowLeft"":3,""ArrowUp,ArrowRight"":36,""ArrowDown,ArrowLeft"":15,""ArrowDown,ArrowRight"":23}","true","ArrowDown,ArrowRight","","","","","","",""
"html-keyboard-response","103","472215","0.0-3.0-11.0-11.0-1.1","spark_pilot_norest","8423","8","9","Female","","","","","","","null","<div style=""font-size:60px;"">+</div>","null","fixation","","","","","","","","","","","",""
"learning-instructions","104","478428","0.0-3.0-12.0-0.0","spark_pilot_norest","8423","8","9","Female","","","","","","","1570","<p> Before you start, we're going to ask you a few questions about how the game works. </p>","","instructions","","","","","","","","","","","",""
"comp-q","105","485148","0.0-3.0-13.0-0.0-0.0","spark_pilot_norest","8423","8","9","Female","","","","","","","1037.5","<p> <b> True or False? </b> </p>
            <p> There can be 50 pieces of treasure in a given animal's chest. </p>","1","comp_question","","","","true","","","","","","","",""
"comp-q","106","492599","0.0-3.0-13.0-0.0-1.0","spark_pilot_norest","8423","8","9","Female","","","","","","","712.7000000476837","<p> <b> That's right! </b> The amount of treasure in each chest can range from 0 to 40 pieces. </p>","0","comp_answer","","","","","","","","","","","",""
"comp-q","107","500588","0.0-3.0-13.0-0.1-0.1","spark_pilot_norest","8423","8","9","Female","","","","","","","795.7000000476837","<p> <b> True or False? </b> </p><p> In this game, all animals have the same amount of treasure in their left and right chests. </p>","1","comp_question","","","","true","","","","","","","",""
"comp-q","108","507307","0.0-3.0-13.0-0.1-1.1","spark_pilot_norest","8423","8","9","Female","","","","","","","1417.7999999523163","<p> <b> That's right! </b> Animals have different amounts of treasure in their treasure chests. </p>","0","comp_answer","","","","","","","","","","","",""
"comp-q","109","513598","0.0-3.0-13.0-0.2-0.2","spark_pilot_norest","8423","8","9","Female","","","","","","","375.2000000476837","<p> <b> True or False? </b> </p><p> The same animal will always be there if you go up in the same place. </p>","0","comp_question","","","","true","","","","","","","",""
"comp-q","110","521001","0.0-3.0-13.0-0.2-1.2","spark_pilot_norest","8423","8","9","Female","","","","","","","879.3999999761581","<p> <b> That's right! </b> One animal lives in the upper part and one lives in the lower part of every place. </p>","0","comp_answer","","","","","","","","","","","",""
"comp-q","111","527013","0.0-3.0-13.0-0.3-0.3","spark_pilot_norest","8423","8","9","Female","","","","","","","407.10000002384186","<p> <b> True or False? </b> </p><p> If you see a different picture, it means you are in a new place. </p>","0","comp_question","","","","false","","","","","","","",""
"comp-q","112","539602","0.0-3.0-13.0-0.3-1.3","spark_pilot_norest","8423","8","9","Female","","","","","","","1402","<p> <b>Incorrect.</b> Lots of different images may show the same place. For example,  you may see three different images that all remind you that you are in outer space. </p>","0","comp_answer","","","","","","","","","","","",""
"comp-q","113","545440","0.0-3.0-13.0-0.4-0.4","spark_pilot_norest","8423","8","9","Female","","","","","","","336.89999997615814","<p> <b> True or False? </b> </p><p> If you see a different picture, it means you are in a new place. </p>","1","comp_question","","","","true","","","","","","","",""
"comp-q","114","558353","0.0-3.0-13.0-0.4-1.4","spark_pilot_norest","8423","8","9","Female","","","","","","","1595.0999999046326","<p> <b> That's right! </b> Lots of different images may show the same place. For example,  you may see three different images that all remind you that you are in outer space. </p>","0","comp_answer","","","","","","","","","","","",""
"learning-instructions","115","570311","0.0-3.0-14.0-0.0","spark_pilot_norest","8423","8","9","Female","","","","","","","2005.6999999284744","<p> Good job. Remember to do your best because the amount of treasure you earn will be converted into bonus money. </p>
            <p> It’s time to start the real game! </p>","","instructions","","","","","","","","","","","",""
"learning-instructions","116","574331","0.0-4.0-0.0-0.0","spark_pilot_norest","8423","8","9","Female","","","","","","","1222.3999999761581","<p> This time you are searching for treasure in the <b>canyon</b>.</p>","","instructions","","","","","","","","","","","",""
"learning-instructions","117","593614","0.0-4.0-0.0-0.1","spark_pilot_norest","8423","8","9","Female","","","","","","","1832.6999999284744","<p><b>New</b> animals with <b>new</b> treasure chests live here. You need to explore to discover where the animal with the best treasure chest is.</p>
                    <p> Like before, once you figure out which animal has the chest with the most treasure, you should try to get to that animal and select that chest! </p>","","instructions","","","","","","","","","","","",""
"learning-instructions","118","609600","0.0-4.0-1.0-0.0","spark_pilot_norest","8423","8","9","Female","","","","","","","1255","<p> Remember, when you see a picture of the place, use the up and down keys to <b>find an animal</b>.</p>
            <p> When you encounter an animal, you should use the left and right keys to <b>select a treasure chest</b>.</p>
            <p> Don't forget to look out for the robber! </p>","","instructions","","","","","","","","","","","",""
"revaluation","119","615609","0.0-4.0-2.0-0.0","spark_pilot_norest","8423","8","9","Female","","false","","","","","[663.2999999523163,923.2999999523163]","./assets/img/canyon/memory/29.jpg","[""ArrowUp"",""ArrowRight""]","value training","canyon","10","{""ArrowUp,ArrowLeft"":26,""ArrowUp,ArrowRight"":10,""ArrowDown,ArrowLeft"":5,""ArrowDown,ArrowRight"":17}","false","ArrowUp,ArrowRight","false","revaluation","1","0","","",""
"html-keyboard-response","120","616126","0.0-4.0-2.0-1.0","spark_pilot_norest","8423","8","9","Female","","","","","","","null","<div style=""font-size:60px;"">+</div>","null","fixation","","","","","","","","","1","","",""
"revaluation","121","622134","0.0-4.0-2.0-0.1","spark_pilot_norest","8423","8","9","Female","","false","","","","","[465.7999999523163,470.3000000715256]","./assets/img/canyon/memory/29.jpg","[""ArrowUp"",""ArrowLeft""]","value training","canyon","26","{""ArrowUp,ArrowLeft"":26,""ArrowUp,ArrowRight"":10,""ArrowDown,ArrowLeft"":5,""ArrowDown,ArrowRight"":17}","true","ArrowUp,ArrowLeft","false","revaluation","1","2","","",""
"html-keyboard-response","122","622635","0.0-4.0-2.0-1.1","spark_pilot_norest","8423","8","9","Female","","","","","","","null","<div style=""font-size:60px;"">+</div>","null","fixation","","","","","","","","","3","","",""
"revaluation","123","626643","0.0-4.0-2.0-0.2","spark_pilot_norest","8423","8","9","Female","","false","","","","","[693.2999999523163]","./assets/img/canyon/catch/4.jpg","[""ArrowDown""]","value training","canyon","-10","{""ArrowUp,ArrowLeft"":26,""ArrowUp,ArrowRight"":10,""ArrowDown,ArrowLeft"":5,""ArrowDown,ArrowRight"":17}","false","ArrowDown","true","revaluation","1","4","","",""
"html-keyboard-response","124","627145","0.0-4.0-2.0-1.2","spark_pilot_norest","8423","8","9","Female","","","","","","","null","<div style=""font-size:60px;"">+</div>","null","fixation","","","","","","","","","5","","",""
"revaluation","125","633153","0.0-4.0-2.0-0.3","spark_pilot_norest","8423","8","9","Female","","false","","","","","[593.8999999761581,751.2000000476837]","./assets/img/canyon/memory/31.jpg","[""ArrowDown"",""ArrowLeft""]","value training","canyon","5","{""ArrowUp,ArrowLeft"":26,""ArrowUp,ArrowRight"":10,""ArrowDown,ArrowLeft"":5,""ArrowDown,ArrowRight"":17}","false","ArrowDown,ArrowLeft","false","revaluation","1","6","","",""
"html-keyboard-response","126","633654","0.0-4.0-2.0-1.3","spark_pilot_norest","8423","8","9","Female","","","","","","","null","<div style=""font-size:60px;"">+</div>","null","fixation","","","","","","","","","7","","",""
"revaluation","127","639664","0.0-4.0-2.0-0.4","spark_pilot_norest","8423","8","9","Female","","false","","","","","[850.5999999046326,647.7000000476837]","./assets/img/canyon/memory/35.jpg","[""ArrowDown"",""ArrowRight""]","value training","canyon","17","{""ArrowUp,ArrowLeft"":26,""ArrowUp,ArrowRight"":10,""ArrowDown,ArrowLeft"":5,""ArrowDown,ArrowRight"":17}","false","ArrowDown,ArrowRight","false","revaluation","1","8","","",""
"html-keyboard-response","128","640166","0.0-4.0-2.0-1.4","spark_pilot_norest","8423","8","9","Female","","","","","","","null","<div style=""font-size:60px;"">+</div>","null","fixation","","","","","","","","","9","","",""
"revaluation","129","646174","0.0-4.0-2.0-0.5","spark_pilot_norest","8423","8","9","Female","","false","","","","","[670.2000000476837,762.6000000238419]","./assets/img/canyon/memory/2.jpg","[""ArrowUp"",""ArrowLeft""]","value training","canyon","26","{""ArrowUp,ArrowLeft"":26,""ArrowUp,ArrowRight"":10,""ArrowDown,ArrowLeft"":5,""ArrowDown,ArrowRight"":17}","true","ArrowUp,ArrowLeft","false","revaluation","1","10","","",""
"html-keyboard-response","130","646677","0.0-4.0-2.0-1.5","spark_pilot_norest","8423","8","9","Female","","","","","","","null","<div style=""font-size:60px;"">+</div>","null","fixation","","","","","","","","","11","","",""
"revaluation","131","652687","0.0-4.0-2.0-0.6","spark_pilot_norest","8423","8","9","Female","","false","","","","","[1062.2000000476837,523.6000000238419]","./assets/img/canyon/memory/1.jpg","[""ArrowUp"",""ArrowLeft""]","value training","canyon","26","{""ArrowUp,ArrowLeft"":26,""ArrowUp,ArrowRight"":10,""ArrowDown,ArrowLeft"":5,""ArrowDown,ArrowRight"":17}","true","ArrowUp,ArrowLeft","false","revaluation","1","12","","",""
"html-keyboard-response","132","653190","0.0-4.0-2.0-1.6","spark_pilot_norest","8423","8","9","Female","","","","","","","null","<div style=""font-size:60px;"">+</div>","null","fixation","","","","","","","","","13","","",""
"revaluation","133","659201","0.0-4.0-2.0-0.7","spark_pilot_norest","8423","8","9","Female","","false","","","","","[844.5,369.6999999284744]","./assets/img/canyon/memory/33.jpg","[""ArrowUp"",""ArrowLeft""]","value training","canyon","26","{""ArrowUp,ArrowLeft"":26,""ArrowUp,ArrowRight"":10,""ArrowDown,ArrowLeft"":5,""ArrowDown,ArrowRight"":17}","true","ArrowUp,ArrowLeft","false","revaluation","1","14","","",""
"html-keyboard-response","134","659703","0.0-4.0-2.0-1.7","spark_pilot_norest","8423","8","9","Female","","","","","","","null","<div style=""font-size:60px;"">+</div>","null","fixation","","","","","","","","","15","","",""
"revaluation","135","665721","0.0-4.0-2.0-0.8","spark_pilot_norest","8423","8","9","Female","","false","","","","","[876,441.2000000476837]","./assets/img/canyon/memory/11.jpg","[""ArrowUp"",""ArrowLeft""]","value training","canyon","26","{""ArrowUp,ArrowLeft"":26,""ArrowUp,ArrowRight"":10,""ArrowDown,ArrowLeft"":5,""ArrowDown,ArrowRight"":17}","true","ArrowUp,ArrowLeft","false","revaluation","1","16","","",""
"html-keyboard-response","136","666224","0.0-4.0-2.0-1.8","spark_pilot_norest","8423","8","9","Female","","","","","","","null","<div style=""font-size:60px;"">+</div>","null","fixation","","","","","","","","","17","","",""
"revaluation","137","672231","0.0-4.0-2.0-0.9","spark_pilot_norest","8423","8","9","Female","","false","","","","","[1131.5,425.6999999284744]","./assets/img/canyon/memory/19.jpg","[""ArrowUp"",""ArrowLeft""]","value training","canyon","26","{""ArrowUp,ArrowLeft"":26,""ArrowUp,ArrowRight"":10,""ArrowDown,ArrowLeft"":5,""ArrowDown,ArrowRight"":17}","true","ArrowUp,ArrowLeft","false","revaluation","1","18","","",""
"html-keyboard-response","138","672734","0.0-4.0-2.0-1.9","spark_pilot_norest","8423","8","9","Female","","","","","","","null","<div style=""font-size:60px;"">+</div>","null","fixation","","","","","","","","","19","","",""
"revaluation","139","678747","0.0-4.0-2.0-0.10","spark_pilot_norest","8423","8","9","Female","","false","","","","","[1335.3999999761581,556.1000000238419]","./assets/img/canyon/memory/16.jpg","[""ArrowUp"",""ArrowLeft""]","value training","canyon","26","{""ArrowUp,ArrowLeft"":26,""ArrowUp,ArrowRight"":10,""ArrowDown,ArrowLeft"":5,""ArrowDown,ArrowRight"":17}","true","ArrowUp,ArrowLeft","false","revaluation","1","20","","",""
"html-keyboard-response","140","679250","0.0-4.0-2.0-1.10","spark_pilot_norest","8423","8","9","Female","","","","","","","null","<div style=""font-size:60px;"">+</div>","null","fixation","","","","","","","","","21","","",""
"revaluation","141","685259","0.0-4.0-2.0-0.11","spark_pilot_norest","8423","8","9","Female","","false","","","","","[903.1000000238419,427.5]","./assets/img/canyon/memory/35.jpg","[""ArrowUp"",""ArrowLeft""]","value training","canyon","26","{""ArrowUp,ArrowLeft"":26,""ArrowUp,ArrowRight"":10,""ArrowDown,ArrowLeft"":5,""ArrowDown,ArrowRight"":17}","true","ArrowUp,ArrowLeft","false","revaluation","1","22","","",""
"html-keyboard-response","142","685761","0.0-4.0-2.0-1.11","spark_pilot_norest","8423","8","9","Female","","","","","","","null","<div style=""font-size:60px;"">+</div>","null","fixation","","","","","","","","","23","","",""
"revaluation","143","691767","0.0-4.0-2.0-0.12","spark_pilot_norest","8423","8","9","Female","","false","","","","","[969.3999999761581,431.2000000476837]","./assets/img/canyon/memory/40.jpg","[""ArrowUp"",""ArrowLeft""]","value training","canyon","26","{""ArrowUp,ArrowLeft"":26,""ArrowUp,ArrowRight"":10,""ArrowDown,ArrowLeft"":5,""ArrowDown,ArrowRight"":17}","true","ArrowUp,ArrowLeft","false","revaluation","1","24","","",""
"html-keyboard-response","144","692270","0.0-4.0-2.0-1.12","spark_pilot_norest","8423","8","9","Female","","","","","","","null","<div style=""font-size:60px;"">+</div>","null","fixation","","","","","","","","","25","","",""
"revaluation","145","698282","0.0-4.0-2.0-0.13","spark_pilot_norest","8423","8","9","Female","","false","","","","","[1018,470.89999997615814]","./assets/img/canyon/memory/18.jpg","[""ArrowUp"",""ArrowLeft""]","value training","canyon","26","{""ArrowUp,ArrowLeft"":26,""ArrowUp,ArrowRight"":10,""ArrowDown,ArrowLeft"":5,""ArrowDown,ArrowRight"":17}","true","ArrowUp,ArrowLeft","false","revaluation","1","26","","",""
"html-keyboard-response","146","698784","0.0-4.0-2.0-1.13","spark_pilot_norest","8423","8","9","Female","","","","","","","null","<div style=""font-size:60px;"">+</div>","null","fixation","","","","","","","","","27","","",""
"revaluation","147","704800","0.0-4.0-2.0-0.14","spark_pilot_norest","8423","8","9","Female","","false","","","","","[771,337.60000002384186]","./assets/img/canyon/memory/23.jpg","[""ArrowUp"",""ArrowLeft""]","value training","canyon","26","{""ArrowUp,ArrowLeft"":26,""ArrowUp,ArrowRight"":10,""ArrowDown,ArrowLeft"":5,""ArrowDown,ArrowRight"":17}","true","ArrowUp,ArrowLeft","false","revaluation","1","28","","",""
"html-keyboard-response","148","705302","0.0-4.0-2.0-1.14","spark_pilot_norest","8423","8","9","Female","","","","","","","null","<div style=""font-size:60px;"">+</div>","null","fixation","","","","","","","","","29","","",""
"revaluation","149","711308","0.0-4.0-2.0-0.15","spark_pilot_norest","8423","8","9","Female","","false","","","","","[759.2000000476837,363.60000002384186]","./assets/img/canyon/memory/40.jpg","[""ArrowUp"",""ArrowLeft""]","value training","canyon","26","{""ArrowUp,ArrowLeft"":26,""ArrowUp,ArrowRight"":10,""ArrowDown,ArrowLeft"":5,""ArrowDown,ArrowRight"":17}","true","ArrowUp,ArrowLeft","false","revaluation","1","30","","",""
"html-keyboard-response","150","711810","0.0-4.0-2.0-1.15","spark_pilot_norest","8423","8","9","Female","","","","","","","null","<div style=""font-size:60px;"">+</div>","null","fixation","","","","","","","","","31","","",""
"revaluation","151","717822","0.0-4.0-2.0-0.16","spark_pilot_norest","8423","8","9","Female","","false","","","","","[771.5,424.7000000476837]","./assets/img/canyon/memory/14.jpg","[""ArrowUp"",""ArrowLeft""]","value training","canyon","26","{""ArrowUp,ArrowLeft"":26,""ArrowUp,ArrowRight"":10,""ArrowDown,ArrowLeft"":5,""ArrowDown,ArrowRight"":17}","true","ArrowUp,ArrowLeft","false","revaluation","1","32","","",""
"html-keyboard-response","152","718325","0.0-4.0-2.0-1.16","spark_pilot_norest","8423","8","9","Female","","","","","","","null","<div style=""font-size:60px;"">+</div>","null","fixation","","","","","","","","","33","","",""
"revaluation","153","722338","0.0-4.0-2.0-0.17","spark_pilot_norest","8423","8","9","Female","","false","","","","","[326.89999997615814]","./assets/img/canyon/catch/6.jpg","[""spaceBar""]","value training","canyon","0","{""ArrowUp,ArrowLeft"":26,""ArrowUp,ArrowRight"":10,""ArrowDown,ArrowLeft"":5,""ArrowDown,ArrowRight"":17}","true","spaceBar","true","revaluation","1","34","","",""
"html-keyboard-response","154","722841","0.0-4.0-2.0-1.17","spark_pilot_norest","8423","8","9","Female","","","","","","","null","<div style=""font-size:60px;"">+</div>","null","fixation","","","","","","","","","35","","",""
"revaluation","155","728849","0.0-4.0-2.0-0.18","spark_pilot_norest","8423","8","9","Female","","false","","","","","[615.2000000476837,611.3999999761581]","./assets/img/canyon/memory/28.jpg","[""ArrowUp"",""ArrowLeft""]","value training","canyon","26","{""ArrowUp,ArrowLeft"":26,""ArrowUp,ArrowRight"":10,""ArrowDown,ArrowLeft"":5,""ArrowDown,ArrowRight"":17}","true","ArrowUp,ArrowLeft","false","revaluation","1","36","","",""
"html-keyboard-response","156","729351","0.0-4.0-2.0-1.18","spark_pilot_norest","8423","8","9","Female","","","","","","","null","<div style=""font-size:60px;"">+</div>","null","fixation","","","","","","","","","37","","",""
"revaluation","157","735360","0.0-4.0-2.0-0.19","spark_pilot_norest","8423","8","9","Female","","false","","","","","[1024.2999999523163,380.90000009536743]","./assets/img/canyon/memory/34.jpg","[""ArrowUp"",""ArrowLeft""]","value training","canyon","26","{""ArrowUp,ArrowLeft"":26,""ArrowUp,ArrowRight"":10,""ArrowDown,ArrowLeft"":5,""ArrowDown,ArrowRight"":17}","true","ArrowUp,ArrowLeft","false","revaluation","1","38","","",""
"html-keyboard-response","158","735863","0.0-4.0-2.0-1.19","spark_pilot_norest","8423","8","9","Female","","","","","","","null","<div style=""font-size:60px;"">+</div>","null","fixation","","","","","","","","","39","","",""
"revaluation","159","741873","0.0-4.0-2.0-0.20","spark_pilot_norest","8423","8","9","Female","","false","","","","","[964.2000000476837,769.1000000238419]","./assets/img/canyon/memory/11.jpg","[""ArrowUp"",""ArrowLeft""]","value training","canyon","26","{""ArrowUp,ArrowLeft"":26,""ArrowUp,ArrowRight"":10,""ArrowDown,ArrowLeft"":5,""ArrowDown,ArrowRight"":17}","true","ArrowUp,ArrowLeft","false","revaluation","1","40","","",""
"html-keyboard-response","160","742376","0.0-4.0-2.0-1.20","spark_pilot_norest","8423","8","9","Female","","","","","","","null","<div style=""font-size:60px;"">+</div>","null","fixation","","","","","","","","","41","","",""
"revaluation","161","746387","0.0-4.0-2.0-0.21","spark_pilot_norest","8423","8","9","Female","","false","","","","","[616.8000000715256]","./assets/img/canyon/catch/2.jpg","[""spaceBar""]","value training","canyon","0","{""ArrowUp,ArrowLeft"":26,""ArrowUp,ArrowRight"":10,""ArrowDown,ArrowLeft"":5,""ArrowDown,ArrowRight"":17}","true","spaceBar","true","revaluation","1","42","","",""
"html-keyboard-response","162","746889","0.0-4.0-2.0-1.21","spark_pilot_norest","8423","8","9","Female","","","","","","","null","<div style=""font-size:60px;"">+</div>","null","fixation","","","","","","","","","43","","",""
"revaluation","163","752896","0.0-4.0-2.0-0.22","spark_pilot_norest","8423","8","9","Female","","false","","","","","[660.3999999761581,504.59999990463257]","./assets/img/canyon/memory/0.jpg","[""ArrowUp"",""ArrowLeft""]","value training","canyon","26","{""ArrowUp,ArrowLeft"":26,""ArrowUp,ArrowRight"":10,""ArrowDown,ArrowLeft"":5,""ArrowDown,ArrowRight"":17}","true","ArrowUp,ArrowLeft","false","revaluation","1","44","","",""
"html-keyboard-response","164","753398","0.0-4.0-2.0-1.22","spark_pilot_norest","8423","8","9","Female","","","","","","","null","<div style=""font-size:60px;"">+</div>","null","fixation","","","","","","","","","45","","",""
"revaluation","165","757423","0.0-4.0-2.0-0.23","spark_pilot_norest","8423","8","9","Female","","true","","","","","[]","./assets/img/canyon/memory/17.jpg","[]","value training","canyon","-5","{""ArrowUp,ArrowLeft"":26,""ArrowUp,ArrowRight"":10,""ArrowDown,ArrowLeft"":5,""ArrowDown,ArrowRight"":17}","false","","false","revaluation","1","46","","",""
"html-keyboard-response","166","757925","0.0-4.0-2.0-1.23","spark_pilot_norest","8423","8","9","Female","","","","","","","null","<div style=""font-size:60px;"">+</div>","null","fixation","","","","","","","","","47","","",""
"revaluation","167","763934","0.0-4.0-2.0-0.24","spark_pilot_norest","8423","8","9","Female","","false","","","","","[703.8000000715256,993.8999999761581]","./assets/img/canyon/memory/0.jpg","[""ArrowUp"",""ArrowLeft""]","value training","canyon","26","{""ArrowUp,ArrowLeft"":26,""ArrowUp,ArrowRight"":10,""ArrowDown,ArrowLeft"":5,""ArrowDown,ArrowRight"":17}","true","ArrowUp,ArrowLeft","false","revaluation","1","48","","",""
"html-keyboard-response","168","764436","0.0-4.0-2.0-1.24","spark_pilot_norest","8423","8","9","Female","","","","","","","null","<div style=""font-size:60px;"">+</div>","null","fixation","","","","","","","","","49","","",""
"revaluation","169","770441","0.0-4.0-2.0-0.25","spark_pilot_norest","8423","8","9","Female","","false","","","","","[259.89999997615814,369.5]","./assets/img/canyon/memory/31.jpg","[""ArrowUp"",""ArrowLeft""]","value training","canyon","26","{""ArrowUp,ArrowLeft"":26,""ArrowUp,ArrowRight"":10,""ArrowDown,ArrowLeft"":5,""ArrowDown,ArrowRight"":17}","true","ArrowUp,ArrowLeft","false","revaluation","1","50","","",""
"html-keyboard-response","170","770943","0.0-4.0-2.0-1.25","spark_pilot_norest","8423","8","9","Female","","","","","","","null","<div style=""font-size:60px;"">+</div>","null","fixation","","","","","","","","","51","","",""
"revaluation","171","776951","0.0-4.0-2.0-0.26","spark_pilot_norest","8423","8","9","Female","","false","","","","","[745.2000000476837,421.90000009536743]","./assets/img/canyon/memory/34.jpg","[""ArrowUp"",""ArrowLeft""]","value training","canyon","26","{""ArrowUp,ArrowLeft"":26,""ArrowUp,ArrowRight"":10,""ArrowDown,ArrowLeft"":5,""ArrowDown,ArrowRight"":17}","true","ArrowUp,ArrowLeft","false","revaluation","1","52","","",""
"html-keyboard-response","172","777452","0.0-4.0-2.0-1.26","spark_pilot_norest","8423","8","9","Female","","","","","","","null","<div style=""font-size:60px;"">+</div>","null","fixation","","","","","","","","","53","","",""
"revaluation","173","783459","0.0-4.0-2.0-0.27","spark_pilot_norest","8423","8","9","Female","","false","","","","","[757.1999999284744,338.60000002384186]","./assets/img/canyon/memory/23.jpg","[""ArrowUp"",""ArrowLeft""]","value training","canyon","26","{""ArrowUp,ArrowLeft"":26,""ArrowUp,ArrowRight"":10,""ArrowDown,ArrowLeft"":5,""ArrowDown,ArrowRight"":17}","true","ArrowUp,ArrowLeft","false","revaluation","1","54","","",""
"html-keyboard-response","174","783960","0.0-4.0-2.0-1.27","spark_pilot_norest","8423","8","9","Female","","","","","","","null","<div style=""font-size:60px;"">+</div>","null","fixation","","","","","","","","","55","","",""
"revaluation","175","789974","0.0-4.0-2.0-0.28","spark_pilot_norest","8423","8","9","Female","","false","","","","","[633.1000000238419,461.7999999523163]","./assets/img/canyon/memory/20.jpg","[""ArrowUp"",""ArrowLeft""]","value training","canyon","26","{""ArrowUp,ArrowLeft"":26,""ArrowUp,ArrowRight"":10,""ArrowDown,ArrowLeft"":5,""ArrowDown,ArrowRight"":17}","true","ArrowUp,ArrowLeft","false","revaluation","1","56","","",""
"html-keyboard-response","176","790476","0.0-4.0-2.0-1.28","spark_pilot_norest","8423","8","9","Female","","","","","","","null","<div style=""font-size:60px;"">+</div>","null","fixation","","","","","","","","","57","","",""
"revaluation","177","794483","0.0-4.0-2.0-0.29","spark_pilot_norest","8423","8","9","Female","","false","","","","","[114.10000002384186]","./assets/img/canyon/catch/0.jpg","[""spaceBar""]","value training","canyon","0","{""ArrowUp,ArrowLeft"":26,""ArrowUp,ArrowRight"":10,""ArrowDown,ArrowLeft"":5,""ArrowDown,ArrowRight"":17}","true","spaceBar","true","revaluation","1","58","","",""
"html-keyboard-response","178","794985","0.0-4.0-2.0-1.29","spark_pilot_norest","8423","8","9","Female","","","","","","","null","<div style=""font-size:60px;"">+</div>","null","fixation","","","","","","","","","59","","",""
"revaluation","179","800990","0.0-4.0-2.0-0.30","spark_pilot_norest","8423","8","9","Female","","false","","","","","[428.10000002384186,399.89999997615814]","./assets/img/canyon/memory/17.jpg","[""ArrowUp"",""ArrowLeft""]","value training","canyon","26","{""ArrowUp,ArrowLeft"":26,""ArrowUp,ArrowRight"":10,""ArrowDown,ArrowLeft"":5,""ArrowDown,ArrowRight"":17}","true","ArrowUp,ArrowLeft","false","revaluation","1","60","","",""
"html-keyboard-response","180","801492","0.0-4.0-2.0-1.30","spark_pilot_norest","8423","8","9","Female","","","","","","","null","<div style=""font-size:60px;"">+</div>","null","fixation","","","","","","","","","61","","",""
"revaluation","181","807503","0.0-4.0-2.0-0.31","spark_pilot_norest","8423","8","9","Female","","false","","","","","[826.7000000476837,439.7000000476837]","./assets/img/canyon/memory/18.jpg","[""ArrowUp"",""ArrowLeft""]","value training","canyon","26","{""ArrowUp,ArrowLeft"":26,""ArrowUp,ArrowRight"":10,""ArrowDown,ArrowLeft"":5,""ArrowDown,ArrowRight"":17}","true","ArrowUp,ArrowLeft","false","revaluation","1","62","","",""
"html-keyboard-response","182","808005","0.0-4.0-2.0-1.31","spark_pilot_norest","8423","8","9","Female","","","","","","","null","<div style=""font-size:60px;"">+</div>","null","fixation","","","","","","","","","63","","",""
"revaluation","183","814013","0.0-4.0-2.0-0.32","spark_pilot_norest","8423","8","9","Female","","false","","","","","[659,312.39999997615814]","./assets/img/canyon/memory/2.jpg","[""ArrowUp"",""ArrowLeft""]","value training","canyon","26","{""ArrowUp,ArrowLeft"":26,""ArrowUp,ArrowRight"":10,""ArrowDown,ArrowLeft"":5,""ArrowDown,ArrowRight"":17}","true","ArrowUp,ArrowLeft","false","revaluation","1","64","","",""
"html-keyboard-response","184","814516","0.0-4.0-2.0-1.32","spark_pilot_norest","8423","8","9","Female","","","","","","","null","<div style=""font-size:60px;"">+</div>","null","fixation","","","","","","","","","65","","",""
"revaluation","185","818525","0.0-4.0-2.0-0.33","spark_pilot_norest","8423","8","9","Female","","false","","","","","[306.3000000715256]","./assets/img/canyon/catch/3.jpg","[""spaceBar""]","value training","canyon","0","{""ArrowUp,ArrowLeft"":26,""ArrowUp,ArrowRight"":10,""ArrowDown,ArrowLeft"":5,""ArrowDown,ArrowRight"":17}","true","spaceBar","true","revaluation","1","66","","",""
"html-keyboard-response","186","819027","0.0-4.0-2.0-1.33","spark_pilot_norest","8423","8","9","Female","","","","","","","null","<div style=""font-size:60px;"">+</div>","null","fixation","","","","","","","","","67","","",""
"revaluation","187","825031","0.0-4.0-2.0-0.34","spark_pilot_norest","8423","8","9","Female","","false","","","","","[1241.9000000953674,375.7000000476837]","./assets/img/canyon/memory/33.jpg","[""ArrowUp"",""ArrowLeft""]","value training","canyon","26","{""ArrowUp,ArrowLeft"":26,""ArrowUp,ArrowRight"":10,""ArrowDown,ArrowLeft"":5,""ArrowDown,ArrowRight"":17}","true","ArrowUp,ArrowLeft","false","revaluation","1","68","","",""
"html-keyboard-response","188","825533","0.0-4.0-2.0-1.34","spark_pilot_norest","8423","8","9","Female","","","","","","","null","<div style=""font-size:60px;"">+</div>","null","fixation","","","","","","","","","69","","",""
"revaluation","189","831544","0.0-4.0-2.0-0.35","spark_pilot_norest","8423","8","9","Female","","false","","","","","[734.7000000476837,531.8999999761581]","./assets/img/canyon/memory/16.jpg","[""ArrowUp"",""ArrowLeft""]","value training","canyon","26","{""ArrowUp,ArrowLeft"":26,""ArrowUp,ArrowRight"":10,""ArrowDown,ArrowLeft"":5,""ArrowDown,ArrowRight"":17}","true","ArrowUp,ArrowLeft","false","revaluation","1","70","","",""
"html-keyboard-response","190","832046","0.0-4.0-2.0-1.35","spark_pilot_norest","8423","8","9","Female","","","","","","","null","<div style=""font-size:60px;"">+</div>","null","fixation","","","","","","","","","71","","",""
"revaluation","191","836057","0.0-4.0-2.0-0.36","spark_pilot_norest","8423","8","9","Female","","false","","","","","[291.39999997615814]","./assets/img/canyon/catch/1.jpg","[""spaceBar""]","value training","canyon","0","{""ArrowUp,ArrowLeft"":26,""ArrowUp,ArrowRight"":10,""ArrowDown,ArrowLeft"":5,""ArrowDown,ArrowRight"":17}","true","spaceBar","true","revaluation","1","72","","",""
"html-keyboard-response","192","836559","0.0-4.0-2.0-1.36","spark_pilot_norest","8423","8","9","Female","","","","","","","null","<div style=""font-size:60px;"">+</div>","null","fixation","","","","","","","","","73","","",""
"revaluation","193","840572","0.0-4.0-2.0-0.37","spark_pilot_norest","8423","8","9","Female","","false","","","","","[605.0999999046326]","./assets/img/canyon/catch/7.jpg","[""spaceBar""]","value training","canyon","0","{""ArrowUp,ArrowLeft"":26,""ArrowUp,ArrowRight"":10,""ArrowDown,ArrowLeft"":5,""ArrowDown,ArrowRight"":17}","true","spaceBar","true","revaluation","1","74","","",""
"html-keyboard-response","194","841073","0.0-4.0-2.0-1.37","spark_pilot_norest","8423","8","9","Female","","","","","","","null","<div style=""font-size:60px;"">+</div>","null","fixation","","","","","","","","","75","","",""
"revaluation","195","847083","0.0-4.0-2.0-0.38","spark_pilot_norest","8423","8","9","Female","","false","","","","","[899.4000000953674,720.2999999523163]","./assets/img/canyon/memory/28.jpg","[""ArrowUp"",""ArrowLeft""]","value training","canyon","26","{""ArrowUp,ArrowLeft"":26,""ArrowUp,ArrowRight"":10,""ArrowDown,ArrowLeft"":5,""ArrowDown,ArrowRight"":17}","true","ArrowUp,ArrowLeft","false","revaluation","1","76","","",""
"html-keyboard-response","196","847585","0.0-4.0-2.0-1.38","spark_pilot_norest","8423","8","9","Female","","","","","","","null","<div style=""font-size:60px;"">+</div>","null","fixation","","","","","","","","","77","","",""
"revaluation","197","853589","0.0-4.0-2.0-0.39","spark_pilot_norest","8423","8","9","Female","","false","","","","","[886.8000000715256,801.5999999046326]","./assets/img/canyon/memory/20.jpg","[""ArrowUp"",""ArrowLeft""]","value training","canyon","26","{""ArrowUp,ArrowLeft"":26,""ArrowUp,ArrowRight"":10,""ArrowDown,ArrowLeft"":5,""ArrowDown,ArrowRight"":17}","true","ArrowUp,ArrowLeft","false","revaluation","1","78","","",""
"html-keyboard-response","198","854092","0.0-4.0-2.0-1.39","spark_pilot_norest","8423","8","9","Female","","","","","","","null","<div style=""font-size:60px;"">+</div>","null","fixation","","","","","","","","","79","","",""
"revaluation","199","858102","0.0-4.0-2.0-0.40","spark_pilot_norest","8423","8","9","Female","","false","","","","","[229.39999997615814]","./assets/img/canyon/catch/5.jpg","[""spaceBar""]","value training","canyon","0","{""ArrowUp,ArrowLeft"":26,""ArrowUp,ArrowRight"":10,""ArrowDown,ArrowLeft"":5,""ArrowDown,ArrowRight"":17}","true","spaceBar","true","revaluation","1","80","","",""
"html-keyboard-response","200","858604","0.0-4.0-2.0-1.40","spark_pilot_norest","8423","8","9","Female","","","","","","","null","<div style=""font-size:60px;"">+</div>","null","fixation","","","","","","","","","81","","",""
"revaluation","201","864613","0.0-4.0-2.0-0.41","spark_pilot_norest","8423","8","9","Female","","false","","","","","[1482.7000000476837,504.3000000715256]","./assets/img/canyon/memory/39.jpg","[""ArrowUp"",""ArrowLeft""]","value training","canyon","26","{""ArrowUp,ArrowLeft"":26,""ArrowUp,ArrowRight"":10,""ArrowDown,ArrowLeft"":5,""ArrowDown,ArrowRight"":17}","true","ArrowUp,ArrowLeft","false","revaluation","1","82","","",""
"html-keyboard-response","202","865115","0.0-4.0-2.0-1.41","spark_pilot_norest","8423","8","9","Female","","","","","","","null","<div style=""font-size:60px;"">+</div>","null","fixation","","","","","","","","","83","","",""
"revaluation","203","871124","0.0-4.0-2.0-0.42","spark_pilot_norest","8423","8","9","Female","","false","","","","","[842.6999999284744,480.2999999523163]","./assets/img/canyon/memory/14.jpg","[""ArrowUp"",""ArrowLeft""]","value training","canyon","26","{""ArrowUp,ArrowLeft"":26,""ArrowUp,ArrowRight"":10,""ArrowDown,ArrowLeft"":5,""ArrowDown,ArrowRight"":17}","true","ArrowUp,ArrowLeft","false","revaluation","1","84","","",""
"html-keyboard-response","204","871626","0.0-4.0-2.0-1.42","spark_pilot_norest","8423","8","9","Female","","","","","","","null","<div style=""font-size:60px;"">+</div>","null","fixation","","","","","","","","","85","","",""
"revaluation","205","877637","0.0-4.0-2.0-0.43","spark_pilot_norest","8423","8","9","Female","","false","","","","","[744.8999999761581,381]","./assets/img/canyon/memory/1.jpg","[""ArrowUp"",""ArrowLeft""]","value training","canyon","26","{""ArrowUp,ArrowLeft"":26,""ArrowUp,ArrowRight"":10,""ArrowDown,ArrowLeft"":5,""ArrowDown,ArrowRight"":17}","true","ArrowUp,ArrowLeft","false","revaluation","1","86","","",""
"html-keyboard-response","206","878138","0.0-4.0-2.0-1.43","spark_pilot_norest","8423","8","9","Female","","","","","","","null","<div style=""font-size:60px;"">+</div>","null","fixation","","","","","","","","","87","","",""
"revaluation","207","884153","0.0-4.0-2.0-0.44","spark_pilot_norest","8423","8","9","Female","","false","","","","","[1458.3999999761581,519.4000000953674]","./assets/img/canyon/memory/8.jpg","[""ArrowUp"",""ArrowLeft""]","value training","canyon","26","{""ArrowUp,ArrowLeft"":26,""ArrowUp,ArrowRight"":10,""ArrowDown,ArrowLeft"":5,""ArrowDown,ArrowRight"":17}","true","ArrowUp,ArrowLeft","false","revaluation","1","88","","",""
"html-keyboard-response","208","884656","0.0-4.0-2.0-1.44","spark_pilot_norest","8423","8","9","Female","","","","","","","null","<div style=""font-size:60px;"">+</div>","null","fixation","","","","","","","","","89","","",""
"revaluation","209","890666","0.0-4.0-2.0-0.45","spark_pilot_norest","8423","8","9","Female","","false","","","","","[1023.5,493.7999999523163]","./assets/img/canyon/memory/19.jpg","[""ArrowUp"",""ArrowLeft""]","value training","canyon","26","{""ArrowUp,ArrowLeft"":26,""ArrowUp,ArrowRight"":10,""ArrowDown,ArrowLeft"":5,""ArrowDown,ArrowRight"":17}","true","ArrowUp,ArrowLeft","false","revaluation","1","90","","",""
"html-keyboard-response","210","891169","0.0-4.0-2.0-1.45","spark_pilot_norest","8423","8","9","Female","","","","","","","null","<div style=""font-size:60px;"">+</div>","null","fixation","","","","","","","","","91","","",""
"revaluation","211","897184","0.0-4.0-2.0-0.46","spark_pilot_norest","8423","8","9","Female","","false","","","","","[626.1000000238419,344.10000002384186]","./assets/img/canyon/memory/10.jpg","[""ArrowUp"",""ArrowLeft""]","value training","canyon","26","{""ArrowUp,ArrowLeft"":26,""ArrowUp,ArrowRight"":10,""ArrowDown,ArrowLeft"":5,""ArrowDown,ArrowRight"":17}","true","ArrowUp,ArrowLeft","false","revaluation","1","92","","",""
"html-keyboard-response","212","897686","0.0-4.0-2.0-1.46","spark_pilot_norest","8423","8","9","Female","","","","","","","null","<div style=""font-size:60px;"">+</div>","null","fixation","","","","","","","","","93","","",""
"revaluation","213","903696","0.0-4.0-2.0-0.47","spark_pilot_norest","8423","8","9","Female","","false","","","","","[1094.2000000476837,1121.2999999523163]","./assets/img/canyon/memory/10.jpg","[""ArrowUp"",""ArrowLeft""]","value training","canyon","26","{""ArrowUp,ArrowLeft"":26,""ArrowUp,ArrowRight"":10,""ArrowDown,ArrowLeft"":5,""ArrowDown,ArrowRight"":17}","true","ArrowUp,ArrowLeft","false","revaluation","1","94","","",""
"html-keyboard-response","214","904199","0.0-4.0-2.0-1.47","spark_pilot_norest","8423","8","9","Female","","","","","","","null","<div style=""font-size:60px;"">+</div>","null","fixation","","","","","","","","","95","","",""
"revaluation","215","910209","0.0-4.0-2.0-0.48","spark_pilot_norest","8423","8","9","Female","","false","","","","","[99.20000004768372,465.60000002384186]","./assets/img/canyon/memory/8.jpg","[""ArrowUp"",""ArrowLeft""]","value training","canyon","26","{""ArrowUp,ArrowLeft"":26,""ArrowUp,ArrowRight"":10,""ArrowDown,ArrowLeft"":5,""ArrowDown,ArrowRight"":17}","true","ArrowUp,ArrowLeft","false","revaluation","1","96","","",""
"html-keyboard-response","216","910712","0.0-4.0-2.0-1.48","spark_pilot_norest","8423","8","9","Female","","","","","","","null","<div style=""font-size:60px;"">+</div>","null","fixation","","","","","","","","","97","","",""
"revaluation","217","916722","0.0-4.0-2.0-0.49","spark_pilot_norest","8423","8","9","Female","","false","","","","","[22.600000023841858,229.89999997615814]","./assets/img/canyon/memory/39.jpg","[""ArrowUp"",""ArrowLeft""]","value training","canyon","26","{""ArrowUp,ArrowLeft"":26,""ArrowUp,ArrowRight"":10,""ArrowDown,ArrowLeft"":5,""ArrowDown,ArrowRight"":17}","true","ArrowUp,ArrowLeft","false","revaluation","1","98","","",""
"html-keyboard-response","218","917224","0.0-4.0-2.0-1.49","spark_pilot_norest","8423","8","9","Female","","","","","","","null","<div style=""font-size:60px;"">+</div>","null","fixation","","","","","","","","","99","","",""
"learning-instructions","219","932458","0.0-4.0-3.0-0.0","spark_pilot_norest","8423","8","9","Female","","","","","","","2308.6999999284744","<p> Now, you will travel with a friend who will choose whether you go up or down first. </p>
            <p> On these turns, you will just see the animal that they found. You will still get to choose which chest to search for treasure.</p>","","instructions","","","","","","","","","","","",""
"revaluation","220","936465","0.0-4.0-4.0-0.0","spark_pilot_norest","8423","8","9","Female","","false","","","","","[575.7000000476837]","./assets/img/canyon/animals/giraffe.jpg","[""ArrowLeft""]","revaluation","canyon","2","{""ArrowUp,ArrowLeft"":2,""ArrowUp,ArrowRight"":11,""ArrowDown,ArrowLeft"":8,""ArrowDown,ArrowRight"":27}","false","ArrowUp,ArrowLeft","","revaluation","1","0","","",""
"html-keyboard-response","221","936973","0.0-4.0-4.0-1.0","spark_pilot_norest","8423","8","9","Female","","","","","","","null","<div style=""font-size:60px;"">+</div>","null","fixation","","","","","","","","","1","","",""
"revaluation","222","940978","0.0-4.0-4.0-0.1","spark_pilot_norest","8423","8","9","Female","","false","","","","","[497.1999999284744]","./assets/img/canyon/animals/giraffe.jpg","[""ArrowRight""]","revaluation","canyon","11","{""ArrowUp,ArrowLeft"":2,""ArrowUp,ArrowRight"":11,""ArrowDown,ArrowLeft"":8,""ArrowDown,ArrowRight"":27}","true","ArrowUp,ArrowRight","","revaluation","1","2","","",""
"html-keyboard-response","223","941480","0.0-4.0-4.0-1.1","spark_pilot_norest","8423","8","9","Female","","","","","","","null","<div style=""font-size:60px;"">+</div>","null","fixation","","","","","","","","","3","","",""
"revaluation","224","945489","0.0-4.0-4.0-0.2","spark_pilot_norest","8423","8","9","Female","","false","","","","","[1446.6999999284744]","./assets/img/canyon/animals/giraffe.jpg","[""ArrowRight""]","revaluation","canyon","11","{""ArrowUp,ArrowLeft"":2,""ArrowUp,ArrowRight"":11,""ArrowDown,ArrowLeft"":8,""ArrowDown,ArrowRight"":27}","true","ArrowUp,ArrowRight","","revaluation","1","4","","",""
"html-keyboard-response","225","945991","0.0-4.0-4.0-1.2","spark_pilot_norest","8423","8","9","Female","","","","","","","null","<div style=""font-size:60px;"">+</div>","null","fixation","","","","","","","","","5","","",""
"revaluation","226","949999","0.0-4.0-4.0-0.3","spark_pilot_norest","8423","8","9","Female","","false","","","","","[460.5]","./assets/img/canyon/animals/giraffe.jpg","[""ArrowRight""]","revaluation","canyon","11","{""ArrowUp,ArrowLeft"":2,""ArrowUp,ArrowRight"":11,""ArrowDown,ArrowLeft"":8,""ArrowDown,ArrowRight"":27}","true","ArrowUp,ArrowRight","","revaluation","1","6","","",""
"html-keyboard-response","227","950501","0.0-4.0-4.0-1.3","spark_pilot_norest","8423","8","9","Female","","","","","","","null","<div style=""font-size:60px;"">+</div>","null","fixation","","","","","","","","","7","","",""
"revaluation","228","954506","0.0-4.0-4.0-0.4","spark_pilot_norest","8423","8","9","Female","","false","","","","","[1031.7999999523163]","./assets/img/canyon/animals/lion.jpg","[""ArrowLeft""]","revaluation","canyon","8","{""ArrowUp,ArrowLeft"":2,""ArrowUp,ArrowRight"":11,""ArrowDown,ArrowLeft"":8,""ArrowDown,ArrowRight"":27}","false","ArrowDown,ArrowLeft","","revaluation","1","8","","",""
"html-keyboard-response","229","955008","0.0-4.0-4.0-1.4","spark_pilot_norest","8423","8","9","Female","","","","","","","null","<div style=""font-size:60px;"">+</div>","null","fixation","","","","","","","","","9","","",""
"revaluation","230","959014","0.0-4.0-4.0-0.5","spark_pilot_norest","8423","8","9","Female","","false","","","","","[1500.6000000238419]","./assets/img/canyon/animals/giraffe.jpg","[""ArrowRight""]","revaluation","canyon","11","{""ArrowUp,ArrowLeft"":2,""ArrowUp,ArrowRight"":11,""ArrowDown,ArrowLeft"":8,""ArrowDown,ArrowRight"":27}","true","ArrowUp,ArrowRight","","revaluation","1","10","","",""
"html-keyboard-response","231","959515","0.0-4.0-4.0-1.5","spark_pilot_norest","8423","8","9","Female","","","","","","","null","<div style=""font-size:60px;"">+</div>","null","fixation","","","","","","","","","11","","",""
"revaluation","232","963522","0.0-4.0-4.0-0.6","spark_pilot_norest","8423","8","9","Female","","false","","","","","[509.7999999523163]","./assets/img/canyon/animals/lion.jpg","[""ArrowRight""]","revaluation","canyon","27","{""ArrowUp,ArrowLeft"":2,""ArrowUp,ArrowRight"":11,""ArrowDown,ArrowLeft"":8,""ArrowDown,ArrowRight"":27}","true","ArrowDown,ArrowRight","","revaluation","1","12","","",""
"html-keyboard-response","233","964025","0.0-4.0-4.0-1.6","spark_pilot_norest","8423","8","9","Female","","","","","","","null","<div style=""font-size:60px;"">+</div>","null","fixation","","","","","","","","","13","","",""
"revaluation","234","968034","0.0-4.0-4.0-0.7","spark_pilot_norest","8423","8","9","Female","","false","","","","","[691]","./assets/img/canyon/animals/lion.jpg","[""ArrowRight""]","revaluation","canyon","27","{""ArrowUp,ArrowLeft"":2,""ArrowUp,ArrowRight"":11,""ArrowDown,ArrowLeft"":8,""ArrowDown,ArrowRight"":27}","true","ArrowDown,ArrowRight","","revaluation","1","14","","",""
"html-keyboard-response","235","968536","0.0-4.0-4.0-1.7","spark_pilot_norest","8423","8","9","Female","","","","","","","null","<div style=""font-size:60px;"">+</div>","null","fixation","","","","","","","","","15","","",""
"revaluation","236","972556","0.0-4.0-4.0-0.8","spark_pilot_norest","8423","8","9","Female","","false","","","","","[564.3999999761581]","./assets/img/canyon/animals/lion.jpg","[""ArrowRight""]","revaluation","canyon","27","{""ArrowUp,ArrowLeft"":2,""ArrowUp,ArrowRight"":11,""ArrowDown,ArrowLeft"":8,""ArrowDown,ArrowRight"":27}","true","ArrowDown,ArrowRight","","revaluation","1","16","","",""
"html-keyboard-response","237","973059","0.0-4.0-4.0-1.8","spark_pilot_norest","8423","8","9","Female","","","","","","","null","<div style=""font-size:60px;"">+</div>","null","fixation","","","","","","","","","17","","",""
"revaluation","238","977068","0.0-4.0-4.0-0.9","spark_pilot_norest","8423","8","9","Female","","false","","","","","[1055.8999999761581]","./assets/img/canyon/animals/lion.jpg","[""ArrowRight""]","revaluation","canyon","27","{""ArrowUp,ArrowLeft"":2,""ArrowUp,ArrowRight"":11,""ArrowDown,ArrowLeft"":8,""ArrowDown,ArrowRight"":27}","true","ArrowDown,ArrowRight","","revaluation","1","18","","",""
"html-keyboard-response","239","977571","0.0-4.0-4.0-1.9","spark_pilot_norest","8423","8","9","Female","","","","","","","null","<div style=""font-size:60px;"">+</div>","null","fixation","","","","","","","","","19","","",""
"revaluation","240","981576","0.0-4.0-4.0-0.10","spark_pilot_norest","8423","8","9","Female","","false","","","","","[537.8999999761581]","./assets/img/canyon/animals/giraffe.jpg","[""ArrowRight""]","revaluation","canyon","11","{""ArrowUp,ArrowLeft"":2,""ArrowUp,ArrowRight"":11,""ArrowDown,ArrowLeft"":8,""ArrowDown,ArrowRight"":27}","true","ArrowUp,ArrowRight","","revaluation","1","20","","",""
"html-keyboard-response","241","982078","0.0-4.0-4.0-1.10","spark_pilot_norest","8423","8","9","Female","","","","","","","null","<div style=""font-size:60px;"">+</div>","null","fixation","","","","","","","","","21","","",""
"revaluation","242","986089","0.0-4.0-4.0-0.11","spark_pilot_norest","8423","8","9","Female","","false","","","","","[573]","./assets/img/canyon/animals/giraffe.jpg","[""ArrowRight""]","revaluation","canyon","11","{""ArrowUp,ArrowLeft"":2,""ArrowUp,ArrowRight"":11,""ArrowDown,ArrowLeft"":8,""ArrowDown,ArrowRight"":27}","true","ArrowUp,ArrowRight","","revaluation","1","22","","",""
"html-keyboard-response","243","986591","0.0-4.0-4.0-1.11","spark_pilot_norest","8423","8","9","Female","","","","","","","null","<div style=""font-size:60px;"">+</div>","null","fixation","","","","","","","","","23","","",""
"revaluation","244","990601","0.0-4.0-4.0-0.12","spark_pilot_norest","8423","8","9","Female","","false","","","","","[337.3000000715256]","./assets/img/canyon/animals/lion.jpg","[""ArrowRight""]","revaluation","canyon","27","{""ArrowUp,ArrowLeft"":2,""ArrowUp,ArrowRight"":11,""ArrowDown,ArrowLeft"":8,""ArrowDown,ArrowRight"":27}","true","ArrowDown,ArrowRight","","revaluation","1","24","","",""
"html-keyboard-response","245","991104","0.0-4.0-4.0-1.12","spark_pilot_norest","8423","8","9","Female","","","","","","","null","<div style=""font-size:60px;"">+</div>","null","fixation","","","","","","","","","25","","",""
"revaluation","246","995114","0.0-4.0-4.0-0.13","spark_pilot_norest","8423","8","9","Female","","false","","","","","[294.8000000715256]","./assets/img/canyon/animals/giraffe.jpg","[""ArrowRight""]","revaluation","canyon","11","{""ArrowUp,ArrowLeft"":2,""ArrowUp,ArrowRight"":11,""ArrowDown,ArrowLeft"":8,""ArrowDown,ArrowRight"":27}","true","ArrowUp,ArrowRight","","revaluation","1","26","","",""
"html-keyboard-response","247","995617","0.0-4.0-4.0-1.13","spark_pilot_norest","8423","8","9","Female","","","","","","","null","<div style=""font-size:60px;"">+</div>","null","fixation","","","","","","","","","27","","",""
"revaluation","248","999628","0.0-4.0-4.0-0.14","spark_pilot_norest","8423","8","9","Female","","false","","","","","[274.89999997615814]","./assets/img/canyon/animals/lion.jpg","[""ArrowRight""]","revaluation","canyon","27","{""ArrowUp,ArrowLeft"":2,""ArrowUp,ArrowRight"":11,""ArrowDown,ArrowLeft"":8,""ArrowDown,ArrowRight"":27}","true","ArrowDown,ArrowRight","","revaluation","1","28","","",""
"html-keyboard-response","249","1000130","0.0-4.0-4.0-1.14","spark_pilot_norest","8423","8","9","Female","","","","","","","null","<div style=""font-size:60px;"">+</div>","null","fixation","","","","","","","","","29","","",""
"revaluation","250","1004141","0.0-4.0-4.0-0.15","spark_pilot_norest","8423","8","9","Female","","false","","","","","[1.600000023841858]","./assets/img/canyon/animals/giraffe.jpg","[""ArrowRight""]","revaluation","canyon","11","{""ArrowUp,ArrowLeft"":2,""ArrowUp,ArrowRight"":11,""ArrowDown,ArrowLeft"":8,""ArrowDown,ArrowRight"":27}","true","ArrowUp,ArrowRight","","revaluation","1","30","","",""
"html-keyboard-response","251","1004644","0.0-4.0-4.0-1.15","spark_pilot_norest","8423","8","9","Female","","","","","","","null","<div style=""font-size:60px;"">+</div>","null","fixation","","","","","","","","","31","","",""
"revaluation","252","1008660","0.0-4.0-4.0-0.16","spark_pilot_norest","8423","8","9","Female","","false","","","","","[210]","./assets/img/canyon/animals/lion.jpg","[""ArrowRight""]","revaluation","canyon","27","{""ArrowUp,ArrowLeft"":2,""ArrowUp,ArrowRight"":11,""ArrowDown,ArrowLeft"":8,""ArrowDown,ArrowRight"":27}","true","ArrowDown,ArrowRight","","revaluation","1","32","","",""
"html-keyboard-response","253","1009163","0.0-4.0-4.0-1.16","spark_pilot_norest","8423","8","9","Female","","","","","","","null","<div style=""font-size:60px;"">+</div>","null","fixation","","","","","","","","","33","","",""
"revaluation","254","1013174","0.0-4.0-4.0-0.17","spark_pilot_norest","8423","8","9","Female","","false","","","","","[316.89999997615814]","./assets/img/canyon/animals/lion.jpg","[""ArrowRight""]","revaluation","canyon","27","{""ArrowUp,ArrowLeft"":2,""ArrowUp,ArrowRight"":11,""ArrowDown,ArrowLeft"":8,""ArrowDown,ArrowRight"":27}","true","ArrowDown,ArrowRight","","revaluation","1","34","","",""
"html-keyboard-response","255","1013677","0.0-4.0-4.0-1.17","spark_pilot_norest","8423","8","9","Female","","","","","","","null","<div style=""font-size:60px;"">+</div>","null","fixation","","","","","","","","","35","","",""
"learning-instructions","256","1021825","0.0-4.0-5.0-0.0","spark_pilot_norest","8423","8","9","Female","","","","","","","null","<p> You have almost finished this part of the game! </p>
            <p> We are going to ask you to make a few more choices. </p>","","instructions","","","","","","","","","","","",""
"learning-instructions","257","1037800","0.0-4.0-5.0-0.1","spark_pilot_norest","8423","8","9","Female","","","","","","","null","<p> First, you need to decide whether to go up or down. When you see each picture, use the arrow keys to make your choice. </p>
            <p><b>You will not see which animal you found, but try to get to the one that will give you the most treasure.</b></p>","","instructions","","","","","","","","","","","",""
"html-keyboard-response","258","1038802","0.0-4.0-6.0-0.0","spark_pilot_norest","8423","8","9","Female","","","","","","","null","<div style=""font-size:100px;color:red;"">Starting in...</div>","null","","","","","","","","","","","","",""
"html-keyboard-response","259","1039804","0.0-4.0-6.0-1.0","spark_pilot_norest","8423","8","9","Female","","","","","","","null","<div style=""font-size:200px;color:red;"">3</div>","null","","","","","","","","","","","","",""
"html-keyboard-response","260","1040806","0.0-4.0-6.0-2.0","spark_pilot_norest","8423","8","9","Female","","","","","","","null","<div style=""font-size:200px;color:red;"">2</div>","null","","","","","","","","","","","","",""
"html-keyboard-response","261","1041808","0.0-4.0-6.0-3.0","spark_pilot_norest","8423","8","9","Female","","","","","","","null","<div style=""font-size:200px;color:red;"">1</div>","null","","","","","","","","","","","","",""
"revaluation","262","1042187","0.0-4.0-7.0-0.0","spark_pilot_norest","8423","8","9","Female","","false","","","","","[371.2999999523163]","./assets/img/canyon/test/1.jpg","[""ArrowUp""]","first stage test","canyon","0","{""ArrowUp,ArrowLeft"":2,""ArrowUp,ArrowRight"":11,""ArrowDown,ArrowLeft"":8,""ArrowDown,ArrowRight"":27}","false","ArrowUp","false","revaluation","1","","","",""
"html-keyboard-response","263","1042690","0.0-4.0-7.0-1.0","spark_pilot_norest","8423","8","9","Female","","","","","","","null","<div style=""font-size:60px;"">+</div>","null","fixation","","","","","","","","","","","",""
"revaluation","264","1043755","0.0-4.0-7.0-0.1","spark_pilot_norest","8423","8","9","Female","","false","","","","","[1059.7000000476837]","./assets/img/canyon/test/0.jpg","[""ArrowUp""]","first stage test","canyon","0","{""ArrowUp,ArrowLeft"":2,""ArrowUp,ArrowRight"":11,""ArrowDown,ArrowLeft"":8,""ArrowDown,ArrowRight"":27}","false","ArrowUp","false","revaluation","1","","","",""
"html-keyboard-response","265","1044257","0.0-4.0-7.0-1.1","spark_pilot_norest","8423","8","9","Female","","","","","","","null","<div style=""font-size:60px;"">+</div>","null","fixation","","","","","","","","","","","",""
"revaluation","266","1044753","0.0-4.0-7.0-0.2","spark_pilot_norest","8423","8","9","Female","","false","","","","","[489.09999990463257]","./assets/img/canyon/test/2.jpg","[""ArrowDown""]","first stage test","canyon","0","{""ArrowUp,ArrowLeft"":2,""ArrowUp,ArrowRight"":11,""ArrowDown,ArrowLeft"":8,""ArrowDown,ArrowRight"":27}","true","ArrowDown","false","revaluation","1","","","",""
"html-keyboard-response","267","1045254","0.0-4.0-7.0-1.2","spark_pilot_norest","8423","8","9","Female","","","","","","","null","<div style=""font-size:60px;"">+</div>","null","fixation","","","","","","","","","","","",""
"revaluation","268","1045695","0.0-4.0-7.0-0.3","spark_pilot_norest","8423","8","9","Female","","false","","","","","[437.60000002384186]","./assets/img/canyon/test/3.jpg","[""ArrowDown""]","first stage test","canyon","0","{""ArrowUp,ArrowLeft"":2,""ArrowUp,ArrowRight"":11,""ArrowDown,ArrowLeft"":8,""ArrowDown,ArrowRight"":27}","true","ArrowDown","false","revaluation","1","","","",""
"html-keyboard-response","269","1046197","0.0-4.0-7.0-1.3","spark_pilot_norest","8423","8","9","Female","","","","","","","null","<div style=""font-size:60px;"">+</div>","null","fixation","","","","","","","","","","","",""
"learning-instructions","270","1059542","0.0-4.0-8.0-0.0","spark_pilot_norest","8423","8","9","Female","","","","","","","null","<p> Now you will see the animals again and can search their chests for treasure. </p>
            <p> This time, you will not see how much treasure you earned, but you will earn more bonus money for making better choices. </p>","","instructions","","","","","","","","","","","",""
"html-keyboard-response","271","1060543","0.0-4.0-9.0-0.0","spark_pilot_norest","8423","8","9","Female","","","","","","","null","<div style=""font-size:100px;color:red;"">Starting in...</div>","null","","","","","","","","","","","","",""
"html-keyboard-response","272","1061545","0.0-4.0-9.0-1.0","spark_pilot_norest","8423","8","9","Female","","","","","","","null","<div style=""font-size:200px;color:red;"">3</div>","null","","","","","","","","","","","","",""
"html-keyboard-response","273","1062547","0.0-4.0-9.0-2.0","spark_pilot_norest","8423","8","9","Female","","","","","","","null","<div style=""font-size:200px;color:red;"">2</div>","null","","","","","","","","","","","","",""
"html-keyboard-response","274","1063548","0.0-4.0-9.0-3.0","spark_pilot_norest","8423","8","9","Female","","","","","","","null","<div style=""font-size:200px;color:red;"">1</div>","null","","","","","","","","","","","","",""
"revaluation","275","1064371","0.0-4.0-10.0-0.0","spark_pilot_norest","8423","8","9","Female","","false","","","","","[819.9000000953674]","./assets/img/canyon/animals/giraffe.jpg","[""ArrowLeft""]","second stage test","canyon","0","{""ArrowUp,ArrowLeft"":2,""ArrowUp,ArrowRight"":11,""ArrowDown,ArrowLeft"":8,""ArrowDown,ArrowRight"":27}","false","ArrowUp,ArrowLeft","","revaluation","1","","","",""
"html-keyboard-response","276","1064873","0.0-4.0-10.0-1.0","spark_pilot_norest","8423","8","9","Female","","","","","","","null","<div style=""font-size:60px;"">+</div>","null","fixation","","","","","","","","","","","",""
"revaluation","277","1065303","0.0-4.0-10.0-0.1","spark_pilot_norest","8423","8","9","Female","","false","","","","","[423.2999999523163]","./assets/img/canyon/animals/giraffe.jpg","[""ArrowRight""]","second stage test","canyon","0","{""ArrowUp,ArrowLeft"":2,""ArrowUp,ArrowRight"":11,""ArrowDown,ArrowLeft"":8,""ArrowDown,ArrowRight"":27}","true","ArrowUp,ArrowRight","","revaluation","1","","","",""
"html-keyboard-response","278","1065805","0.0-4.0-10.0-1.1","spark_pilot_norest","8423","8","9","Female","","","","","","","null","<div style=""font-size:60px;"">+</div>","null","fixation","","","","","","","","","","","",""
"revaluation","279","1066078","0.0-4.0-10.0-0.2","spark_pilot_norest","8423","8","9","Female","","false","","","","","[269.6999999284744]","./assets/img/canyon/animals/giraffe.jpg","[""ArrowLeft""]","second stage test","canyon","0","{""ArrowUp,ArrowLeft"":2,""ArrowUp,ArrowRight"":11,""ArrowDown,ArrowLeft"":8,""ArrowDown,ArrowRight"":27}","false","ArrowUp,ArrowLeft","","revaluation","1","","","",""
"html-keyboard-response","280","1066581","0.0-4.0-10.0-1.2","spark_pilot_norest","8423","8","9","Female","","","","","","","null","<div style=""font-size:60px;"">+</div>","null","fixation","","","","","","","","","","","",""
"revaluation","281","1066828","0.0-4.0-10.0-0.3","spark_pilot_norest","8423","8","9","Female","","false","","","","","[241.70000004768372]","./assets/img/canyon/animals/giraffe.jpg","[""ArrowRight""]","second stage test","canyon","0","{""ArrowUp,ArrowLeft"":2,""ArrowUp,ArrowRight"":11,""ArrowDown,ArrowLeft"":8,""ArrowDown,ArrowRight"":27}","true","ArrowUp,ArrowRight","","revaluation","1","","","",""
"html-keyboard-response","282","1067330","0.0-4.0-10.0-1.3","spark_pilot_norest","8423","8","9","Female","","","","","","","null","<div style=""font-size:60px;"">+</div>","null","fixation","","","","","","","","","","","",""
"revaluation","283","1067569","0.0-4.0-10.0-0.4","spark_pilot_norest","8423","8","9","Female","","false","","","","","[231]","./assets/img/canyon/animals/lion.jpg","[""ArrowLeft""]","second stage test","canyon","0","{""ArrowUp,ArrowLeft"":2,""ArrowUp,ArrowRight"":11,""ArrowDown,ArrowLeft"":8,""ArrowDown,ArrowRight"":27}","false","ArrowDown,ArrowLeft","","revaluation","1","","","",""
"html-keyboard-response","284","1068072","0.0-4.0-10.0-1.4","spark_pilot_norest","8423","8","9","Female","","","","","","","null","<div style=""font-size:60px;"">+</div>","null","fixation","","","","","","","","","","","",""
"revaluation","285","1068286","0.0-4.0-10.0-0.5","spark_pilot_norest","8423","8","9","Female","","false","","","","","[210.79999995231628]","./assets/img/canyon/animals/lion.jpg","[""ArrowRight""]","second stage test","canyon","0","{""ArrowUp,ArrowLeft"":2,""ArrowUp,ArrowRight"":11,""ArrowDown,ArrowLeft"":8,""ArrowDown,ArrowRight"":27}","true","ArrowDown,ArrowRight","","revaluation","1","","","",""
"html-keyboard-response","286","1068788","0.0-4.0-10.0-1.5","spark_pilot_norest","8423","8","9","Female","","","","","","","null","<div style=""font-size:60px;"">+</div>","null","fixation","","","","","","","","","","","",""
"revaluation","287","1069069","0.0-4.0-10.0-0.6","spark_pilot_norest","8423","8","9","Female","","false","","","","","[277.8000000715256]","./assets/img/canyon/animals/lion.jpg","[""ArrowLeft""]","second stage test","canyon","0","{""ArrowUp,ArrowLeft"":2,""ArrowUp,ArrowRight"":11,""ArrowDown,ArrowLeft"":8,""ArrowDown,ArrowRight"":27}","false","ArrowDown,ArrowLeft","","revaluation","1","","","",""
"html-keyboard-response","288","1069572","0.0-4.0-10.0-1.6","spark_pilot_norest","8423","8","9","Female","","","","","","","null","<div style=""font-size:60px;"">+</div>","null","fixation","","","","","","","","","","","",""
"revaluation","289","1069771","0.0-4.0-10.0-0.7","spark_pilot_norest","8423","8","9","Female","","false","","","","","[191.70000004768372]","./assets/img/canyon/animals/lion.jpg","[""ArrowRight""]","second stage test","canyon","0","{""ArrowUp,ArrowLeft"":2,""ArrowUp,ArrowRight"":11,""ArrowDown,ArrowLeft"":8,""ArrowDown,ArrowRight"":27}","true","ArrowDown,ArrowRight","","revaluation","1","","","",""
"html-keyboard-response","290","1070273","0.0-4.0-10.0-1.7","spark_pilot_norest","8423","8","9","Female","","","","","","","null","<div style=""font-size:60px;"">+</div>","null","fixation","","","","","","","","","","","",""
"learning-instructions","291","1076777","0.0-4.0-0.1-0.2","spark_pilot_norest","8423","8","9","Female","","","","","","","3751.899999976158","<p> This time you are searching for treasure in the <b>ocean</b>.</p>","","instructions","","","","","","","","","","","",""
"learning-instructions","292","1096379","0.0-4.0-0.1-0.3","spark_pilot_norest","8423","8","9","Female","","","","","","","2349.100000023842","<p><b>New</b> animals with <b>new</b> treasure chests live here. You need to explore to discover where the animal with the best treasure chest is.</p>
                    <p> Like before, once you figure out which animal has the chest with the most treasure, you should try to get to that animal and select that chest! </p>","","instructions","","","","","","","","","","","",""
"learning-instructions","293","1112272","0.0-4.0-1.1-0.1","spark_pilot_norest","8423","8","9","Female","","","","","","","1161","<p> Remember, when you see a picture of the place, use the up and down keys to <b>find an animal</b>.</p>
            <p> When you encounter an animal, you should use the left and right keys to <b>select a treasure chest</b>.</p>
            <p> Don't forget to look out for the robber! </p>","","instructions","","","","","","","","","","","",""
"revaluation","294","1118276","0.0-4.0-2.1-0.50","spark_pilot_norest","8423","8","9","Female","","false","","","","","[991.5,605.3999999761581]","./assets/img/ocean/memory/0.jpg","[""ArrowUp"",""ArrowLeft""]","value training","ocean","23","{""ArrowUp,ArrowLeft"":23,""ArrowUp,ArrowRight"":10,""ArrowDown,ArrowLeft"":8,""ArrowDown,ArrowRight"":30}","false","ArrowUp,ArrowLeft","false","original","2","0","","",""
"html-keyboard-response","295","1118779","0.0-4.0-2.1-1.50","spark_pilot_norest","8423","8","9","Female","","","","","","","null","<div style=""font-size:60px;"">+</div>","null","fixation","","","","","","","","","1","","",""
"revaluation","296","1122785","0.0-4.0-2.1-0.51","spark_pilot_norest","8423","8","9","Female","","false","","","","","[280.2000000476837]","./assets/img/ocean/catch/6.jpg","[""spaceBar""]","value training","ocean","0","{""ArrowUp,ArrowLeft"":23,""ArrowUp,ArrowRight"":10,""ArrowDown,ArrowLeft"":8,""ArrowDown,ArrowRight"":30}","true","spaceBar","true","original","2","2","","",""
"html-keyboard-response","297","1123286","0.0-4.0-2.1-1.51","spark_pilot_norest","8423","8","9","Female","","","","","","","null","<div style=""font-size:60px;"">+</div>","null","fixation","","","","","","","","","3","","",""
"revaluation","298","1129294","0.0-4.0-2.1-0.52","spark_pilot_norest","8423","8","9","Female","","false","","","","","[585.3000000715256,460.2999999523163]","./assets/img/ocean/memory/18.jpg","[""ArrowUp"",""ArrowRight""]","value training","ocean","10","{""ArrowUp,ArrowLeft"":23,""ArrowUp,ArrowRight"":10,""ArrowDown,ArrowLeft"":8,""ArrowDown,ArrowRight"":30}","false","ArrowUp,ArrowRight","false","original","2","4","","",""
"html-keyboard-response","299","1129796","0.0-4.0-2.1-1.52","spark_pilot_norest","8423","8","9","Female","","","","","","","null","<div style=""font-size:60px;"">+</div>","null","fixation","","","","","","","","","5","","",""
"revaluation","300","1135802","0.0-4.0-2.1-0.53","spark_pilot_norest","8423","8","9","Female","","false","","","","","[698.4000000953674,647.8999999761581]","./assets/img/ocean/memory/8.jpg","[""ArrowDown"",""ArrowLeft""]","value training","ocean","8","{""ArrowUp,ArrowLeft"":23,""ArrowUp,ArrowRight"":10,""ArrowDown,ArrowLeft"":8,""ArrowDown,ArrowRight"":30}","false","ArrowDown,ArrowLeft","false","original","2","6","","",""
"html-keyboard-response","301","1136304","0.0-4.0-2.1-1.53","spark_pilot_norest","8423","8","9","Female","","","","","","","null","<div style=""font-size:60px;"">+</div>","null","fixation","","","","","","","","","7","","",""
"revaluation","302","1142311","0.0-4.0-2.1-0.54","spark_pilot_norest","8423","8","9","Female","","false","","","","","[899.8000000715256,463.89999997615814]","./assets/img/ocean/memory/29.jpg","[""ArrowDown"",""ArrowRight""]","value training","ocean","30","{""ArrowUp,ArrowLeft"":23,""ArrowUp,ArrowRight"":10,""ArrowDown,ArrowLeft"":8,""ArrowDown,ArrowRight"":30}","true","ArrowDown,ArrowRight","false","original","2","8","","",""
"html-keyboard-response","303","1142812","0.0-4.0-2.1-1.54","spark_pilot_norest","8423","8","9","Female","","","","","","","null","<div style=""font-size:60px;"">+</div>","null","fixation","","","","","","","","","9","","",""
"revaluation","304","1148820","0.0-4.0-2.1-0.55","spark_pilot_norest","8423","8","9","Female","","false","","","","","[1062.8999999761581,1475.7000000476837]","./assets/img/ocean/memory/10.jpg","[""ArrowUp"",""ArrowLeft""]","value training","ocean","23","{""ArrowUp,ArrowLeft"":23,""ArrowUp,ArrowRight"":10,""ArrowDown,ArrowLeft"":8,""ArrowDown,ArrowRight"":30}","false","ArrowUp,ArrowLeft","false","original","2","10","","",""
"html-keyboard-response","305","1149323","0.0-4.0-2.1-1.55","spark_pilot_norest","8423","8","9","Female","","","","","","","null","<div style=""font-size:60px;"">+</div>","null","fixation","","","","","","","","","11","","",""
"revaluation","306","1155332","0.0-4.0-2.1-0.56","spark_pilot_norest","8423","8","9","Female","","false","","","","","[814.6000000238419,355.2000000476837]","./assets/img/ocean/memory/20.jpg","[""ArrowDown"",""ArrowRight""]","value training","ocean","30","{""ArrowUp,ArrowLeft"":23,""ArrowUp,ArrowRight"":10,""ArrowDown,ArrowLeft"":8,""ArrowDown,ArrowRight"":30}","true","ArrowDown,ArrowRight","false","original","2","12","","",""
"html-keyboard-response","307","1155835","0.0-4.0-2.1-1.56","spark_pilot_norest","8423","8","9","Female","","","","","","","null","<div style=""font-size:60px;"">+</div>","null","fixation","","","","","","","","","13","","",""
"revaluation","308","1161845","0.0-4.0-2.1-0.57","spark_pilot_norest","8423","8","9","Female","","false","","","","","[685.4000000953674,322.39999997615814]","./assets/img/ocean/memory/39.jpg","[""ArrowDown"",""ArrowRight""]","value training","ocean","30","{""ArrowUp,ArrowLeft"":23,""ArrowUp,ArrowRight"":10,""ArrowDown,ArrowLeft"":8,""ArrowDown,ArrowRight"":30}","true","ArrowDown,ArrowRight","false","original","2","14","","",""
"html-keyboard-response","309","1162347","0.0-4.0-2.1-1.57","spark_pilot_norest","8423","8","9","Female","","","","","","","null","<div style=""font-size:60px;"">+</div>","null","fixation","","","","","","","","","15","","",""
"revaluation","310","1166356","0.0-4.0-2.1-0.58","spark_pilot_norest","8423","8","9","Female","","false","","","","","[229.10000002384186]","./assets/img/ocean/catch/3.jpg","[""spaceBar""]","value training","ocean","0","{""ArrowUp,ArrowLeft"":23,""ArrowUp,ArrowRight"":10,""ArrowDown,ArrowLeft"":8,""ArrowDown,ArrowRight"":30}","true","spaceBar","true","original","2","16","","",""
"html-keyboard-response","311","1166859","0.0-4.0-2.1-1.58","spark_pilot_norest","8423","8","9","Female","","","","","","","null","<div style=""font-size:60px;"">+</div>","null","fixation","","","","","","","","","17","","",""
