"trial_type","trial_index","time_elapsed","internal_node_id","task_version","subject_id","assigned_condition","age","gender","success","timeout","failed_images","failed_audio","failed_video","browser_interaction","rt","stimulus","response","task_part","environment","score","rewardMap","correct","fullState","isCatch","condition","order","trial_num","key_press","ground_truth","bonus"
"pavlovia","0","2907","0.0-0.0","spark_pilot_norest","9444","4","9","Male","","","","","","","","","","","","","","","","","","","","","",""
"preload","1","79467","0.0-1.0","spark_pilot_norest","9444","4","9","Male","true","false","[]","[]","[]","[{""event"":""fullscreenenter"",""trial"":2,""time"":86055}]","","","","","","","","","","","","","","","",""
"fullscreen","2","87001","0.0-2.0","spark_pilot_norest","9444","4","9","Male","true","","","","","","","","","","","","","","","","","","","","",""
"audio-button-response","3","89860","0.0-3.0-0.0-0.0","spark_pilot_norest","9444","4","9","Male","","","","","","","1491","./assets/audio/audiotest/turtle.mp3","2","audio_test","","","","","","","","","","","",""
"learning-instructions","4","98359","0.0-3.0-1.0-0.0","spark_pilot_norest","9444","4","9","Male","","","","","","","1473.3999999999069","<p> Welcome! Please remember to stay in fullscreen mode and don't click away from the experiment. </p>","","instructions","","","","","","","","","","","",""
"learning-instructions","5","108992","0.0-3.0-1.0-0.1","spark_pilot_norest","9444","4","9","Male","","","","","","","2186.9000000003725","<p> Today you will be playing a game to earn treasure. </p>
            <p> At the end of the experiment, you will earn a bonus based on how much treasure you find. </p>
            <img src='./assets/img/instructions/treasure.jpg' class='instructions-image'>","","instructions","","","","","","","","","","","",""
"learning-instructions","6","119375","0.0-3.0-1.0-0.2","spark_pilot_norest","9444","4","9","Male","","","","","","","2080.8000000002794","<p> Animals have hidden treasure in treasure chests. </p>
            <p> You need to first find an animal and then choose which of their treasure chests to search. </p>
            <img src='./assets/img/space/animals/cat.jpg' class='instructions-image'>","","instructions","","","","","","","","","","","",""
"learning-instructions","7","136684","0.0-3.0-1.0-0.3","spark_pilot_norest","9444","4","9","Male","","","","","","","4119.700000000186","<p> In each round, you will search for treasure in a different place. In the real game, there will be two rounds. </p>
            <p> You will begin with a separate, practice round where you will search for treasure in outer space. </p>
            <img src='./assets/img/space/0.jpg' class='instructions-image'>","","instructions","","","","","","","","","","","",""
"learning-instructions","8","149573","0.0-3.0-1.0-0.4","spark_pilot_norest","9444","4","9","Male","","","","","","","1438.6000000000931","<p> On every turn, you will see a picture of the place that you are in, but the specific image may be different each time. </p>
            <p> For example, both of these images mean you are in outer space. </p>
            <img src='./assets/img/instructions/outerspace.jpg' class='instructions-image'>","","instructions","","","","","","","","","","","",""
"learning-instructions","9","158731","0.0-3.0-1.0-0.5","spark_pilot_norest","9444","4","9","Male","","","","","","","1316","<p> You need to decide which direction to travel in. </p>
            <p> You can choose between going <b>up or down</b> by using the arrow keys. </p>
            <img src='./assets/img/instructions/updown.jpg' class='instructions-image'>","","instructions","","","","","","","","","","","",""
"learning-instructions","10","172094","0.0-3.0-1.0-0.6","spark_pilot_norest","9444","4","9","Male","","","","","","","4529.100000000093","<p> You will have <b>2 seconds</b> to make your choice. </p>
            <p> If you do not make a choice within 2 seconds, you will not find an animal or earn treasure. </p>
            <img src='./assets/img/instructions/2seconds.jpg' class='instructions-image'>","","instructions","","","","","","","","","","","",""
"learning-instructions","11","181196","0.0-3.0-1.0-0.7","spark_pilot_norest","9444","4","9","Male","","","","","","","2049.899999999907","<p> Let’s try practicing that now! </p>
            <p> When you see a picture of the place you are in, press the <b>up</b> key to travel up. </p>
            <img src='./assets/img/instructions/pressUp.jpg' class='instructions-image'>","","instructions","","","","","","","","","","","",""
"revaluation","12","185239","0.0-3.0-2.0-0.0","spark_pilot_norest","9444","4","9","Male","","true","","","","","[]","./assets/img/space/0.jpg","[]","first stage practice","space","-5","null","null","","false","","","","","",""
"html-keyboard-response","13","185756","0.0-3.0-2.0-1.0","spark_pilot_norest","9444","4","9","Male","","","","","","","null","<div style=""font-size:60px;"">+</div>","null","fixation","","","","","","","","","","","",""
"revaluation","14","189773","0.0-3.0-2.0-0.1","spark_pilot_norest","9444","4","9","Male","","true","","","","","[]","./assets/img/space/1.jpg","[]","first stage practice","space","-5","null","null","","false","","","","","",""
"html-keyboard-response","15","190274","0.0-3.0-2.0-1.1","spark_pilot_norest","9444","4","9","Male","","","","","","","null","<div style=""font-size:60px;"">+</div>","null","fixation","","","","","","","","","","","",""
"revaluation","16","194297","0.0-3.0-2.0-0.2","spark_pilot_norest","9444","4","9","Male","","true","","","","","[]","./assets/img/space/2.jpg","[]","first stage practice","space","-5","null","null","","false","","","","","",""
"html-keyboard-response","17","194814","0.0-3.0-2.0-1.2","spark_pilot_norest","9444","4","9","Male","","","","","","","null","<div style=""font-size:60px;"">+</div>","null","fixation","","","","","","","","","","","",""
"learning-instructions","18","201415","0.0-3.0-3.0-0.0","spark_pilot_norest","9444","4","9","Male","","","","","","","1891.5","<p> Great job! Now try pressing the <b>down</b> key to travel down. </p>
            <img src='./assets/img/instructions/pressDown.jpg' class='instructions-image'>","","instructions","","","","","","","","","","","",""
"revaluation","19","205422","0.0-3.0-4.0-0.0","spark_pilot_norest","9444","4","9","Male","","false","","","","","[1291.1999999997206]","./assets/img/space/3.jpg","[""ArrowDown""]","first stage practice","space","0","null","null","ArrowDown","false","","","","","",""
"html-keyboard-response","20","205935","0.0-3.0-4.0-1.0","spark_pilot_norest","9444","4","9","Male","","","","","","","null","<div style=""font-size:60px;"">+</div>","null","fixation","","","","","","","","","","","",""
"revaluation","21","209966","0.0-3.0-4.0-0.1","spark_pilot_norest","9444","4","9","Male","","false","","","","","[1026.2999999998137]","./assets/img/space/4.jpg","[""ArrowDown""]","first stage practice","space","0","null","null","ArrowDown","false","","","","","",""
"html-keyboard-response","22","210479","0.0-3.0-4.0-1.1","spark_pilot_norest","9444","4","9","Male","","","","","","","null","<div style=""font-size:60px;"">+</div>","null","fixation","","","","","","","","","","","",""
"revaluation","23","214506","0.0-3.0-4.0-0.2","spark_pilot_norest","9444","4","9","Male","","false","","","","","[475.8000000002794]","./assets/img/space/5.jpg","[""ArrowDown""]","first stage practice","space","0","null","null","ArrowDown","false","","","","","",""
"html-keyboard-response","24","215020","0.0-3.0-4.0-1.2","spark_pilot_norest","9444","4","9","Male","","","","","","","null","<div style=""font-size:60px;"">+</div>","null","fixation","","","","","","","","","","","",""
"learning-instructions","25","228214","0.0-3.0-5.0-0.0","spark_pilot_norest","9444","4","9","Male","","","","","","","3320","<p> The animals don’t move, so the animal in the upper part of a place will stay in the upper part of a place, and the animal in the lower part of a place will stay in the lower part of a place. </p>","","instructions","","","","","","","","","","","",""
"learning-instructions","26","239265","0.0-3.0-5.0-0.1","spark_pilot_norest","9444","4","9","Male","","","","","","","1892.6999999997206","<p> Each animal has two treasure chests for you to choose from. </p>
            <p> The amount of treasure in each chest can range from <b> 0 to 40 pieces.</b></p>","","instructions","","","","","","","","","","","",""
"learning-instructions","27","252905","0.0-3.0-5.0-0.2","spark_pilot_norest","9444","4","9","Male","","","","","","","2401.3000000002794","<p> You should decide which chest to search for treasure by using the <b>left</b> and <b>right</b> arrow keys. </p>
            <p><b> Pay attention to which animal is on the screen, as the animals have different treasure chests. </b></p>
            <img src='./assets/img/instructions/leftright.jpg' class='instructions-image'>","","instructions","","","","","","","","","","","",""
"learning-instructions","28","261083","0.0-3.0-5.0-0.3","spark_pilot_norest","9444","4","9","Male","","","","","","","1788.3999999999069","<p> Let’s try practicing that now. </p>
            <p> When you see an animal, choose which chest to search for treasure. </p>
            <img src='./assets/img/instructions/chooseChest.jpg' class='instructions-image'>","","instructions","","","","","","","","","","","",""
"revaluation","29","265105","0.0-3.0-6.0-0.0","spark_pilot_norest","9444","4","9","Male","","false","","","","","[1027.6999999997206]","./assets/img/space/animals/cat.jpg","[""ArrowLeft""]","second stage practice","space","3","{""ArrowUp,ArrowLeft"":3,""ArrowUp,ArrowRight"":36,""ArrowDown,ArrowLeft"":15,""ArrowDown,ArrowRight"":23}","false","ArrowUp,ArrowLeft","","","","","","",""
"html-keyboard-response","30","265620","0.0-3.0-6.0-1.0","spark_pilot_norest","9444","4","9","Male","","","","","","","null","<div style=""font-size:60px;"">+</div>","null","fixation","","","","","","","","","","","",""
"revaluation","31","269641","0.0-3.0-6.0-0.1","spark_pilot_norest","9444","4","9","Male","","false","","","","","[552.6000000000931]","./assets/img/space/animals/rabbit.jpg","[""ArrowRight""]","second stage practice","space","23","{""ArrowUp,ArrowLeft"":3,""ArrowUp,ArrowRight"":36,""ArrowDown,ArrowLeft"":15,""ArrowDown,ArrowRight"":23}","true","ArrowDown,ArrowRight","","","","","","",""
"html-keyboard-response","32","270151","0.0-3.0-6.0-1.1","spark_pilot_norest","9444","4","9","Male","","","","","","","null","<div style=""font-size:60px;"">+</div>","null","fixation","","","","","","","","","","","",""
"revaluation","33","274170","0.0-3.0-6.0-0.2","spark_pilot_norest","9444","4","9","Male","","false","","","","","[570]","./assets/img/space/animals/cat.jpg","[""ArrowRight""]","second stage practice","space","36","{""ArrowUp,ArrowLeft"":3,""ArrowUp,ArrowRight"":36,""ArrowDown,ArrowLeft"":15,""ArrowDown,ArrowRight"":23}","true","ArrowUp,ArrowRight","","","","","","",""
"html-keyboard-response","34","274682","0.0-3.0-6.0-1.2","spark_pilot_norest","9444","4","9","Male","","","","","","","null","<div style=""font-size:60px;"">+</div>","null","fixation","","","","","","","","","","","",""
"revaluation","35","278701","0.0-3.0-6.0-0.3","spark_pilot_norest","9444","4","9","Male","","false","","","","","[535]","./assets/img/space/animals/rabbit.jpg","[""ArrowLeft""]","second stage practice","space","15","{""ArrowUp,ArrowLeft"":3,""ArrowUp,ArrowRight"":36,""ArrowDown,ArrowLeft"":15,""ArrowDown,ArrowRight"":23}","false","ArrowDown,ArrowLeft","","","","","","",""
"html-keyboard-response","36","279214","0.0-3.0-6.0-1.3","spark_pilot_norest","9444","4","9","Male","","","","","","","null","<div style=""font-size:60px;"">+</div>","null","fixation","","","","","","","","","","","",""
"learning-instructions","37","298426","0.0-3.0-7.0-0.0","spark_pilot_norest","9444","4","9","Male","","","","","","","2302.1999999997206","<p> Great job. Now let’s try putting it together. </p>
            <p> On each turn, you will first see a picture to remind you of the place you are in, and you need to choose whether to go up or down. </p>
            <p> Then you will see an animal and choose which of its chests to search for treasure. </p>","","instructions","","","","","","","","","","","",""
"learning-instructions","38","307102","0.0-3.0-7.0-0.1","spark_pilot_norest","9444","4","9","Male","","","","","","","398.89999999990687","<p> When you choose whether to go up or down, try to go to the animal with the chest with the most treasure. </p>
            <p> Try practicing that now! </p>","","instructions","","","","","","","","","","","",""
"revaluation","39","313127","0.0-3.0-8.0-0.0","spark_pilot_norest","9444","4","9","Male","","false","","","","","[864.5,1205.3000000002794]","./assets/img/space/6.jpg","[""ArrowDown"",""ArrowRight""]","full practice","space","23","{""ArrowUp,ArrowLeft"":3,""ArrowUp,ArrowRight"":36,""ArrowDown,ArrowLeft"":15,""ArrowDown,ArrowRight"":23}","false","ArrowDown,ArrowRight","false","","","","","",""
"html-keyboard-response","40","313642","0.0-3.0-8.0-1.0","spark_pilot_norest","9444","4","9","Male","","","","","","","null","<div style=""font-size:60px;"">+</div>","null","fixation","","","","","","","","","","","",""
"revaluation","41","319670","0.0-3.0-8.0-0.1","spark_pilot_norest","9444","4","9","Male","","false","","","","","[588.1000000000931,618.3999999999069]","./assets/img/space/7.jpg","[""ArrowUp"",""ArrowLeft""]","full practice","space","3","{""ArrowUp,ArrowLeft"":3,""ArrowUp,ArrowRight"":36,""ArrowDown,ArrowLeft"":15,""ArrowDown,ArrowRight"":23}","false","ArrowUp,ArrowLeft","false","","","","","",""
"html-keyboard-response","42","320184","0.0-3.0-8.0-1.1","spark_pilot_norest","9444","4","9","Male","","","","","","","null","<div style=""font-size:60px;"">+</div>","null","fixation","","","","","","","","","","","",""
"revaluation","43","326225","0.0-3.0-8.0-0.2","spark_pilot_norest","9444","4","9","Male","","false","","","","","[490.29999999981374,625.6000000000931]","./assets/img/space/8.jpg","[""ArrowDown"",""ArrowRight""]","full practice","space","23","{""ArrowUp,ArrowLeft"":3,""ArrowUp,ArrowRight"":36,""ArrowDown,ArrowLeft"":15,""ArrowDown,ArrowRight"":23}","false","ArrowDown,ArrowRight","false","","","","","",""
"html-keyboard-response","44","326746","0.0-3.0-8.0-1.2","spark_pilot_norest","9444","4","9","Male","","","","","","","null","<div style=""font-size:60px;"">+</div>","null","fixation","","","","","","","","","","","",""
"revaluation","45","332790","0.0-3.0-8.0-0.3","spark_pilot_norest","9444","4","9","Male","","false","","","","","[846.1000000000931,1285.6000000000931]","./assets/img/space/9.jpg","[""ArrowUp"",""ArrowLeft""]","full practice","space","3","{""ArrowUp,ArrowLeft"":3,""ArrowUp,ArrowRight"":36,""ArrowDown,ArrowLeft"":15,""ArrowDown,ArrowRight"":23}","false","ArrowUp,ArrowLeft","false","","","","","",""
"html-keyboard-response","46","333306","0.0-3.0-8.0-1.3","spark_pilot_norest","9444","4","9","Male","","","","","","","null","<div style=""font-size:60px;"">+</div>","null","fixation","","","","","","","","","","","",""
"revaluation","47","339324","0.0-3.0-8.0-0.4","spark_pilot_norest","9444","4","9","Male","","false","","","","","[655.7000000001863,454]","./assets/img/space/10.jpg","[""ArrowUp"",""ArrowRight""]","full practice","space","36","{""ArrowUp,ArrowLeft"":3,""ArrowUp,ArrowRight"":36,""ArrowDown,ArrowLeft"":15,""ArrowDown,ArrowRight"":23}","true","ArrowUp,ArrowRight","false","","","","","",""
"html-keyboard-response","48","339825","0.0-3.0-8.0-1.4","spark_pilot_norest","9444","4","9","Male","","","","","","","null","<div style=""font-size:60px;"">+</div>","null","fixation","","","","","","","","","","","",""
"learning-instructions","49","351289","0.0-3.0-9.0-0.0","spark_pilot_norest","9444","4","9","Male","","","","","","","1021.4000000003725","<p> One last thing: sometimes, you will see a robber. The robber can be anywhere in the picture. </p>
            <p> If you do not stop them, you will lose treasure. </p>
            <img src='./assets/img/instructions/robber.jpg' class='instructions-image'>","","instructions","","","","","","","","","","","",""
"learning-instructions","50","359804","0.0-3.0-9.0-0.1","spark_pilot_norest","9444","4","9","Male","","","","","","","1326.3999999999069","<p> If you see the robber, you should <b>press the space bar</b> rather than using the arrow keys. </p>
            <p> Try practicing that now! </p>","","instructions","","","","","","","","","","","",""
"revaluation","51","363824","0.0-3.0-10.0-0.0","spark_pilot_norest","9444","4","9","Male","","false","","","","","[892.5]","./assets/img/space/catch/0.jpg","[""spaceBar""]","catch practice","space","0","{""ArrowUp,ArrowLeft"":3,""ArrowUp,ArrowRight"":36,""ArrowDown,ArrowLeft"":15,""ArrowDown,ArrowRight"":23}","true","spaceBar","true","","","","","",""
"html-keyboard-response","52","364339","0.0-3.0-10.0-1.0","spark_pilot_norest","9444","4","9","Male","","","","","","","null","<div style=""font-size:60px;"">+</div>","null","fixation","","","","","","","","","","","",""
"revaluation","53","368358","0.0-3.0-10.0-0.1","spark_pilot_norest","9444","4","9","Male","","false","","","","","[687.3000000002794]","./assets/img/space/catch/1.jpg","[""spaceBar""]","catch practice","space","0","{""ArrowUp,ArrowLeft"":3,""ArrowUp,ArrowRight"":36,""ArrowDown,ArrowLeft"":15,""ArrowDown,ArrowRight"":23}","true","spaceBar","true","","","","","",""
"html-keyboard-response","54","368872","0.0-3.0-10.0-1.1","spark_pilot_norest","9444","4","9","Male","","","","","","","null","<div style=""font-size:60px;"">+</div>","null","fixation","","","","","","","","","","","",""
"revaluation","55","372898","0.0-3.0-10.0-0.2","spark_pilot_norest","9444","4","9","Male","","false","","","","","[367.39999999990687]","./assets/img/space/catch/2.jpg","[""spaceBar""]","catch practice","space","0","{""ArrowUp,ArrowLeft"":3,""ArrowUp,ArrowRight"":36,""ArrowDown,ArrowLeft"":15,""ArrowDown,ArrowRight"":23}","true","spaceBar","true","","","","","",""
"html-keyboard-response","56","373412","0.0-3.0-10.0-1.2","spark_pilot_norest","9444","4","9","Male","","","","","","","null","<div style=""font-size:60px;"">+</div>","null","fixation","","","","","","","","","","","",""
"learning-instructions","57","380328","0.0-3.0-11.0-0.0-0.0","spark_pilot_norest","9444","4","9","Male","","","","","","","1641.2000000001863","<p> Now, you will practice a shortened version of the game to get a sense of how it all fits together. </p>","","instructions","","","","","","","","","","","",""
"learning-instructions","58","384994","0.0-3.0-11.0-0.0-0.1","spark_pilot_norest","9444","4","9","Male","","","","","","","1477.3999999999069","<p>This time you are searching for treasure in outer space.</p>","","instructions","","","","","","","","","","","",""
"learning-instructions","59","400658","0.0-3.0-11.0-1.0-0.0","spark_pilot_norest","9444","4","9","Male","","","","","","","861.2999999998137","<p> Remember, when you see a picture of the place, use the up and down keys to <b>find an animal</b>.</p>
            <p> When you encounter an animal, you should use the left and right keys to <b>select a treasure chest</b>.</p>
            <p> Don't forget to look out for the robber! </p>","","instructions","","","","","","","","","","","",""
"revaluation","60","406688","0.0-3.0-11.0-2.0-0.0","spark_pilot_norest","9444","4","9","Male","","false","","","","","[1394.6000000000931,1325.9000000003725]","./assets/img/space/11.jpg","[""ArrowDown"",""ArrowRight""]","practice block","space","23","{""ArrowUp,ArrowLeft"":3,""ArrowUp,ArrowRight"":36,""ArrowDown,ArrowLeft"":15,""ArrowDown,ArrowRight"":23}","false","ArrowDown,ArrowRight","false","","","","","",""
"html-keyboard-response","61","407193","0.0-3.0-11.0-2.0-1.0","spark_pilot_norest","9444","4","9","Male","","","","","","","null","<div style=""font-size:60px;"">+</div>","null","fixation","","","","","","","","","","","",""
"revaluation","62","413217","0.0-3.0-11.0-2.0-0.1","spark_pilot_norest","9444","4","9","Male","","false","","","","","[793.7999999998137,648.1000000000931]","./assets/img/space/12.jpg","[""ArrowUp"",""ArrowRight""]","practice block","space","36","{""ArrowUp,ArrowLeft"":3,""ArrowUp,ArrowRight"":36,""ArrowDown,ArrowLeft"":15,""ArrowDown,ArrowRight"":23}","true","ArrowUp,ArrowRight","false","","","","","",""
"html-keyboard-response","63","413720","0.0-3.0-11.0-2.0-1.1","spark_pilot_norest","9444","4","9","Male","","","","","","","null","<div style=""font-size:60px;"">+</div>","null","fixation","","","","","","","","","","","",""
"revaluation","64","419749","0.0-3.0-11.0-2.0-0.2","spark_pilot_norest","9444","4","9","Male","","false","","","","","[845.8999999999069,285.39999999990687]","./assets/img/space/13.jpg","[""ArrowUp"",""ArrowRight""]","practice block","space","36","{""ArrowUp,ArrowLeft"":3,""ArrowUp,ArrowRight"":36,""ArrowDown,ArrowLeft"":15,""ArrowDown,ArrowRight"":23}","true","ArrowUp,ArrowRight","false","","","","","",""
"html-keyboard-response","65","420262","0.0-3.0-11.0-2.0-1.2","spark_pilot_norest","9444","4","9","Male","","","","","","","null","<div style=""font-size:60px;"">+</div>","null","fixation","","","","","","","","","","","",""
"revaluation","66","426281","0.0-3.0-11.0-2.0-0.3","spark_pilot_norest","9444","4","9","Male","","false","","","","","[541.3999999999069,305.79999999981374]","./assets/img/space/14.jpg","[""ArrowUp"",""ArrowRight""]","practice block","space","36","{""ArrowUp,ArrowLeft"":3,""ArrowUp,ArrowRight"":36,""ArrowDown,ArrowLeft"":15,""ArrowDown,ArrowRight"":23}","true","ArrowUp,ArrowRight","false","","","","","",""
"html-keyboard-response","67","426785","0.0-3.0-11.0-2.0-1.3","spark_pilot_norest","9444","4","9","Male","","","","","","","null","<div style=""font-size:60px;"">+</div>","null","fixation","","","","","","","","","","","",""
"revaluation","68","432804","0.0-3.0-11.0-2.0-0.4","spark_pilot_norest","9444","4","9","Male","","false","","","","","[709.7999999998137,338.89999999990687]","./assets/img/space/11.jpg","[""ArrowUp"",""ArrowRight""]","practice block","space","36","{""ArrowUp,ArrowLeft"":3,""ArrowUp,ArrowRight"":36,""ArrowDown,ArrowLeft"":15,""ArrowDown,ArrowRight"":23}","true","ArrowUp,ArrowRight","false","","","","","",""
"html-keyboard-response","69","433310","0.0-3.0-11.0-2.0-1.4","spark_pilot_norest","9444","4","9","Male","","","","","","","null","<div style=""font-size:60px;"">+</div>","null","fixation","","","","","","","","","","","",""
"revaluation","70","439316","0.0-3.0-11.0-2.0-0.5","spark_pilot_norest","9444","4","9","Male","","false","","","","","[481.3000000002794,326.29999999981374]","./assets/img/space/12.jpg","[""ArrowUp"",""ArrowRight""]","practice block","space","36","{""ArrowUp,ArrowLeft"":3,""ArrowUp,ArrowRight"":36,""ArrowDown,ArrowLeft"":15,""ArrowDown,ArrowRight"":23}","true","ArrowUp,ArrowRight","false","","","","","",""
"html-keyboard-response","71","439819","0.0-3.0-11.0-2.0-1.5","spark_pilot_norest","9444","4","9","Male","","","","","","","null","<div style=""font-size:60px;"">+</div>","null","fixation","","","","","","","","","","","",""
"revaluation","72","445833","0.0-3.0-11.0-2.0-0.6","spark_pilot_norest","9444","4","9","Male","","false","","","","","[279.09999999962747,237.29999999981374]","./assets/img/space/13.jpg","[""ArrowUp"",""ArrowRight""]","practice block","space","36","{""ArrowUp,ArrowLeft"":3,""ArrowUp,ArrowRight"":36,""ArrowDown,ArrowLeft"":15,""ArrowDown,ArrowRight"":23}","true","ArrowUp,ArrowRight","false","","","","","",""
"html-keyboard-response","73","446335","0.0-3.0-11.0-2.0-1.6","spark_pilot_norest","9444","4","9","Male","","","","","","","null","<div style=""font-size:60px;"">+</div>","null","fixation","","","","","","","","","","","",""
"revaluation","74","452350","0.0-3.0-11.0-2.0-0.7","spark_pilot_norest","9444","4","9","Male","","false","","","","","[488.39999999990687,423.6999999997206]","./assets/img/space/14.jpg","[""ArrowUp"",""ArrowRight""]","practice block","space","36","{""ArrowUp,ArrowLeft"":3,""ArrowUp,ArrowRight"":36,""ArrowDown,ArrowLeft"":15,""ArrowDown,ArrowRight"":23}","true","ArrowUp,ArrowRight","false","","","","","",""
"html-keyboard-response","75","452852","0.0-3.0-11.0-2.0-1.7","spark_pilot_norest","9444","4","9","Male","","","","","","","null","<div style=""font-size:60px;"">+</div>","null","fixation","","","","","","","","","","","",""
"revaluation","76","456857","0.0-3.0-11.0-2.0-0.8","spark_pilot_norest","9444","4","9","Male","","false","","","","","[818.6000000000931]","./assets/img/space/catch/3.jpg","[""ArrowUp""]","practice block","space","-10","{""ArrowUp,ArrowLeft"":3,""ArrowUp,ArrowRight"":36,""ArrowDown,ArrowLeft"":15,""ArrowDown,ArrowRight"":23}","false","ArrowUp","true","","","","","",""
"html-keyboard-response","77","457358","0.0-3.0-11.0-2.0-1.8","spark_pilot_norest","9444","4","9","Male","","","","","","","null","<div style=""font-size:60px;"">+</div>","null","fixation","","","","","","","","","","","",""
"learning-instructions","78","472725","0.0-3.0-11.0-3.0-0.0","spark_pilot_norest","9444","4","9","Male","","","","","","","1567.7000000001863","<p> Now, you will travel with a friend who will choose whether you go up or down first. </p>
            <p> On these turns, you will just see the animal that they found. You will still get to choose which chest to search for treasure.</p>","","instructions","","","","","","","","","","","",""
"revaluation","79","476753","0.0-3.0-11.0-4.0-0.0","spark_pilot_norest","9444","4","9","Male","","false","","","","","[1068.5]","./assets/img/space/animals/rabbit.jpg","[""ArrowRight""]","practice block","space","23","{""ArrowUp,ArrowLeft"":3,""ArrowUp,ArrowRight"":36,""ArrowDown,ArrowLeft"":15,""ArrowDown,ArrowRight"":23}","true","ArrowDown,ArrowRight","","","","","","",""
"html-keyboard-response","80","477276","0.0-3.0-11.0-4.0-1.0","spark_pilot_norest","9444","4","9","Male","","","","","","","null","<div style=""font-size:60px;"">+</div>","null","fixation","","","","","","","","","","","",""
"revaluation","81","481291","0.0-3.0-11.0-4.0-0.1","spark_pilot_norest","9444","4","9","Male","","false","","","","","[315.60000000009313]","./assets/img/space/animals/cat.jpg","[""ArrowRight""]","practice block","space","36","{""ArrowUp,ArrowLeft"":3,""ArrowUp,ArrowRight"":36,""ArrowDown,ArrowLeft"":15,""ArrowDown,ArrowRight"":23}","true","ArrowUp,ArrowRight","","","","","","",""
"html-keyboard-response","82","481801","0.0-3.0-11.0-4.0-1.1","spark_pilot_norest","9444","4","9","Male","","","","","","","null","<div style=""font-size:60px;"">+</div>","null","fixation","","","","","","","","","","","",""
"revaluation","83","485848","0.0-3.0-11.0-4.0-0.2","spark_pilot_norest","9444","4","9","Male","","false","","","","","[69.6999999997206]","./assets/img/space/animals/rabbit.jpg","[""ArrowRight""]","practice block","space","23","{""ArrowUp,ArrowLeft"":3,""ArrowUp,ArrowRight"":36,""ArrowDown,ArrowLeft"":15,""ArrowDown,ArrowRight"":23}","true","ArrowDown,ArrowRight","","","","","","",""
"html-keyboard-response","84","486359","0.0-3.0-11.0-4.0-1.2","spark_pilot_norest","9444","4","9","Male","","","","","","","null","<div style=""font-size:60px;"">+</div>","null","fixation","","","","","","","","","","","",""
"revaluation","85","490390","0.0-3.0-11.0-4.0-0.3","spark_pilot_norest","9444","4","9","Male","","false","","","","","[307.10000000009313]","./assets/img/space/animals/cat.jpg","[""ArrowRight""]","practice block","space","36","{""ArrowUp,ArrowLeft"":3,""ArrowUp,ArrowRight"":36,""ArrowDown,ArrowLeft"":15,""ArrowDown,ArrowRight"":23}","true","ArrowUp,ArrowRight","","","","","","",""
"html-keyboard-response","86","490894","0.0-3.0-11.0-4.0-1.3","spark_pilot_norest","9444","4","9","Male","","","","","","","null","<div style=""font-size:60px;"">+</div>","null","fixation","","","","","","","","","","","",""
"learning-instructions","87","499050","0.0-3.0-11.0-5.0-0.0","spark_pilot_norest","9444","4","9","Male","","","","","","","null","<p> You have almost finished this part of the game! </p>
            <p> We are going to ask you to make a few more choices. </p>","","instructions","","","","","","","","","","","",""
"learning-instructions","88","515080","0.0-3.0-11.0-5.0-0.1","spark_pilot_norest","9444","4","9","Male","","","","","","","null","<p> First, you need to decide whether to go up or down. When you see each picture, use the arrow keys to make your choice. </p>
            <p><b>You will not see which animal you found, but try to get to the one that will give you the most treasure.</b></p>","","instructions","","","","","","","","","","","",""
"html-keyboard-response","89","516096","0.0-3.0-11.0-6.0-0.0","spark_pilot_norest","9444","4","9","Male","","","","","","","null","<div style=""font-size:100px;color:red;"">Starting in...</div>","null","","","","","","","","","","","","",""
"html-keyboard-response","90","517126","0.0-3.0-11.0-6.0-1.0","spark_pilot_norest","9444","4","9","Male","","","","","","","null","<div style=""font-size:200px;color:red;"">3</div>","null","","","","","","","","","","","","",""
"html-keyboard-response","91","518131","0.0-3.0-11.0-6.0-2.0","spark_pilot_norest","9444","4","9","Male","","","","","","","null","<div style=""font-size:200px;color:red;"">2</div>","null","","","","","","","","","","","","",""
"html-keyboard-response","92","519146","0.0-3.0-11.0-6.0-3.0","spark_pilot_norest","9444","4","9","Male","","","","","","","null","<div style=""font-size:200px;color:red;"">1</div>","null","","","","","","","","","","","","",""
"revaluation","93","519517","0.0-3.0-11.0-7.0","spark_pilot_norest","9444","4","9","Male","","false","","","","","[366.6999999997206]","./assets/img/space/15.jpg","[""ArrowUp""]","practice block","space","0","{""ArrowUp,ArrowLeft"":3,""ArrowUp,ArrowRight"":36,""ArrowDown,ArrowLeft"":15,""ArrowDown,ArrowRight"":23}","true","ArrowUp","false","","","","","",""
"html-keyboard-response","94","520020","0.0-3.0-11.0-8.0","spark_pilot_norest","9444","4","9","Male","","","","","","","null","<div style=""font-size:60px;"">+</div>","null","fixation","","","","","","","","","","","",""
"learning-instructions","95","533414","0.0-3.0-11.0-9.0-0.0","spark_pilot_norest","9444","4","9","Male","","","","","","","null","<p> Now you will see the animals again and can search their chests for treasure. </p>
            <p> This time, you will not see how much treasure you earned, but you will earn more bonus money for making better choices. </p>","","instructions","","","","","","","","","","","",""
"html-keyboard-response","96","534432","0.0-3.0-11.0-10.0-0.0","spark_pilot_norest","9444","4","9","Male","","","","","","","null","<div style=""font-size:100px;color:red;"">Starting in...</div>","null","","","","","","","","","","","","",""
"html-keyboard-response","97","535447","0.0-3.0-11.0-10.0-1.0","spark_pilot_norest","9444","4","9","Male","","","","","","","null","<div style=""font-size:200px;color:red;"">3</div>","null","","","","","","","","","","","","",""
"html-keyboard-response","98","536461","0.0-3.0-11.0-10.0-2.0","spark_pilot_norest","9444","4","9","Male","","","","","","","null","<div style=""font-size:200px;color:red;"">2</div>","null","","","","","","","","","","","","",""
"html-keyboard-response","99","537468","0.0-3.0-11.0-10.0-3.0","spark_pilot_norest","9444","4","9","Male","","","","","","","null","<div style=""font-size:200px;color:red;"">1</div>","null","","","","","","","","","","","","",""
"revaluation","100","538113","0.0-3.0-11.0-11.0-0.0","spark_pilot_norest","9444","4","9","Male","","false","","","","","[640.1000000000931]","./assets/img/space/animals/cat.jpg","[""ArrowRight""]","practice block","space","0","{""ArrowUp,ArrowLeft"":3,""ArrowUp,ArrowRight"":36,""ArrowDown,ArrowLeft"":15,""ArrowDown,ArrowRight"":23}","true","ArrowUp,ArrowRight","","","","","","",""
"html-keyboard-response","101","538617","0.0-3.0-11.0-11.0-1.0","spark_pilot_norest","9444","4","9","Male","","","","","","","null","<div style=""font-size:60px;"">+</div>","null","fixation","","","","","","","","","","","",""
"revaluation","102","539881","0.0-3.0-11.0-11.0-0.1","spark_pilot_norest","9444","4","9","Male","","false","","","","","[1261]","./assets/img/space/animals/rabbit.jpg","[""ArrowRight""]","practice block","space","0","{""ArrowUp,ArrowLeft"":3,""ArrowUp,ArrowRight"":36,""ArrowDown,ArrowLeft"":15,""ArrowDown,ArrowRight"":23}","true","ArrowDown,ArrowRight","","","","","","",""
"html-keyboard-response","103","540385","0.0-3.0-11.0-11.0-1.1","spark_pilot_norest","9444","4","9","Male","","","","","","","null","<div style=""font-size:60px;"">+</div>","null","fixation","","","","","","","","","","","",""
"learning-instructions","104","546785","0.0-3.0-12.0-0.0","spark_pilot_norest","9444","4","9","Male","","","","","","","1817.5","<p> Before you start, we're going to ask you a few questions about how the game works. </p>","","instructions","","","","","","","","","","","",""
"comp-q","105","554009","0.0-3.0-13.0-0.0-0.0","spark_pilot_norest","9444","4","9","Male","","","","","","","1608.5","<p> <b> True or False? </b> </p>
            <p> There can be 50 pieces of treasure in a given animal's chest. </p>","1","comp_question","","","","true","","","","","","","",""
"comp-q","106","562489","0.0-3.0-13.0-0.0-1.0","spark_pilot_norest","9444","4","9","Male","","","","","","","1791.5999999996275","<p> <b> That's right! </b> The amount of treasure in each chest can range from 0 to 40 pieces. </p>","0","comp_answer","","","","","","","","","","","",""
"comp-q","107","570813","0.0-3.0-13.0-0.1-0.1","spark_pilot_norest","9444","4","9","Male","","","","","","","1135.7000000001863","<p> <b> True or False? </b> </p><p> In this game, all animals have the same amount of treasure in their left and right chests. </p>","1","comp_question","","","","true","","","","","","","",""
"comp-q","108","579467","0.0-3.0-13.0-0.1-1.1","spark_pilot_norest","9444","4","9","Male","","","","","","","3409.5","<p> <b> That's right! </b> Animals have different amounts of treasure in their treasure chests. </p>","0","comp_answer","","","","","","","","","","","",""
"comp-q","109","587074","0.0-3.0-13.0-0.2-0.2","spark_pilot_norest","9444","4","9","Male","","","","","","","1746.7999999998137","<p> <b> True or False? </b> </p><p> The same animal will always be there if you go up in the same place. </p>","0","comp_question","","","","true","","","","","","","",""
"comp-q","110","596152","0.0-3.0-13.0-0.2-1.2","spark_pilot_norest","9444","4","9","Male","","","","","","","2614.600000000093","<p> <b> That's right! </b> One animal lives in the upper part and one lives in the lower part of every place. </p>","0","comp_answer","","","","","","","","","","","",""
"comp-q","111","602809","0.0-3.0-13.0-0.3-0.3","spark_pilot_norest","9444","4","9","Male","","","","","","","1121.3999999999069","<p> <b> True or False? </b> </p><p> If you see a different picture, it means you are in a new place. </p>","1","comp_question","","","","true","","","","","","","",""
"comp-q","112","615605","0.0-3.0-13.0-0.3-1.3","spark_pilot_norest","9444","4","9","Male","","","","","","","1547.1000000000931","<p> <b> That's right! </b> Lots of different images may show the same place. For example,  you may see three different images that all remind you that you are in outer space. </p>","0","comp_answer","","","","","","","","","","","",""
"learning-instructions","113","627684","0.0-3.0-14.0-0.0","spark_pilot_norest","9444","4","9","Male","","","","","","","2206","<p> Good job. Remember to do your best because the amount of treasure you earn will be converted into bonus money. </p>
            <p> It’s time to start the real game! </p>","","instructions","","","","","","","","","","","",""
"learning-instructions","114","633289","0.0-4.0-0.0-0.0","spark_pilot_norest","9444","4","9","Male","","","","","","","2881.5","<p> This time you are searching for treasure in the <b>ocean</b>.</p>","","instructions","","","","","","","","","","","",""
"learning-instructions","115","651538","0.0-4.0-0.0-0.1","spark_pilot_norest","9444","4","9","Male","","","","","","","900.1999999997206","<p><b>New</b> animals with <b>new</b> treasure chests live here. You need to explore to discover where the animal with the best treasure chest is.</p>
                    <p> Like before, once you figure out which animal has the chest with the most treasure, you should try to get to that animal and select that chest! </p>","","instructions","","","","","","","","","","","",""
"learning-instructions","116","668347","0.0-4.0-1.0-0.0","spark_pilot_norest","9444","4","9","Male","","","","","","","2070.0999999996275","<p> Remember, when you see a picture of the place, use the up and down keys to <b>find an animal</b>.</p>
            <p> When you encounter an animal, you should use the left and right keys to <b>select a treasure chest</b>.</p>
            <p> Don't forget to look out for the robber! </p>","","instructions","","","","","","","","","","","",""
"revaluation","117","674383","0.0-4.0-2.0-0.0","spark_pilot_norest","9444","4","9","Male","","false","","","","","[696.9000000003725,729.0999999996275]","./assets/img/ocean/memory/39.jpg","[""ArrowUp"",""ArrowRight""]","value training","ocean","10","{""ArrowUp,ArrowLeft"":26,""ArrowUp,ArrowRight"":10,""ArrowDown,ArrowLeft"":5,""ArrowDown,ArrowRight"":17}","false","ArrowUp,ArrowRight","false","revaluation","1","0","","",""
"html-keyboard-response","118","674895","0.0-4.0-2.0-1.0","spark_pilot_norest","9444","4","9","Male","","","","","","","null","<div style=""font-size:60px;"">+</div>","null","fixation","","","","","","","","","1","","",""
"revaluation","119","680912","0.0-4.0-2.0-0.1","spark_pilot_norest","9444","4","9","Male","","false","","","","","[738.3999999999069,596.1999999997206]","./assets/img/ocean/memory/0.jpg","[""ArrowUp"",""ArrowLeft""]","value training","ocean","26","{""ArrowUp,ArrowLeft"":26,""ArrowUp,ArrowRight"":10,""ArrowDown,ArrowLeft"":5,""ArrowDown,ArrowRight"":17}","true","ArrowUp,ArrowLeft","false","revaluation","1","2","","",""
"html-keyboard-response","120","681429","0.0-4.0-2.0-1.1","spark_pilot_norest","9444","4","9","Male","","","","","","","null","<div style=""font-size:60px;"">+</div>","null","fixation","","","","","","","","","3","","",""
"revaluation","121","687467","0.0-4.0-2.0-0.2","spark_pilot_norest","9444","4","9","Male","","false","","","","","[600,517]","./assets/img/ocean/memory/3.jpg","[""ArrowDown"",""ArrowRight""]","value training","ocean","17","{""ArrowUp,ArrowLeft"":26,""ArrowUp,ArrowRight"":10,""ArrowDown,ArrowLeft"":5,""ArrowDown,ArrowRight"":17}","false","ArrowDown,ArrowRight","false","revaluation","1","4","","",""
"html-keyboard-response","122","687986","0.0-4.0-2.0-1.2","spark_pilot_norest","9444","4","9","Male","","","","","","","null","<div style=""font-size:60px;"">+</div>","null","fixation","","","","","","","","","5","","",""
"revaluation","123","692013","0.0-4.0-2.0-0.3","spark_pilot_norest","9444","4","9","Male","","false","","","","","[297.89999999990687]","./assets/img/ocean/catch/7.jpg","[""ArrowDown""]","value training","ocean","-10","{""ArrowUp,ArrowLeft"":26,""ArrowUp,ArrowRight"":10,""ArrowDown,ArrowLeft"":5,""ArrowDown,ArrowRight"":17}","false","ArrowDown","true","revaluation","1","6","","",""
"html-keyboard-response","124","692519","0.0-4.0-2.0-1.3","spark_pilot_norest","9444","4","9","Male","","","","","","","null","<div style=""font-size:60px;"">+</div>","null","fixation","","","","","","","","","7","","",""
"revaluation","125","698546","0.0-4.0-2.0-0.4","spark_pilot_norest","9444","4","9","Male","","false","","","","","[882.3000000002794,368.89999999990687]","./assets/img/ocean/memory/7.jpg","[""ArrowDown"",""ArrowLeft""]","value training","ocean","5","{""ArrowUp,ArrowLeft"":26,""ArrowUp,ArrowRight"":10,""ArrowDown,ArrowLeft"":5,""ArrowDown,ArrowRight"":17}","false","ArrowDown,ArrowLeft","false","revaluation","1","8","","",""
"html-keyboard-response","126","699047","0.0-4.0-2.0-1.4","spark_pilot_norest","9444","4","9","Male","","","","","","","null","<div style=""font-size:60px;"">+</div>","null","fixation","","","","","","","","","9","","",""
"revaluation","127","705074","0.0-4.0-2.0-0.5","spark_pilot_norest","9444","4","9","Male","","false","","","","","[156.5,347.60000000009313]","./assets/img/ocean/memory/9.jpg","[""ArrowUp"",""ArrowRight""]","value training","ocean","10","{""ArrowUp,ArrowLeft"":26,""ArrowUp,ArrowRight"":10,""ArrowDown,ArrowLeft"":5,""ArrowDown,ArrowRight"":17}","false","ArrowUp,ArrowRight","false","revaluation","1","10","","",""
"html-keyboard-response","128","705576","0.0-4.0-2.0-1.5","spark_pilot_norest","9444","4","9","Male","","","","","","","null","<div style=""font-size:60px;"">+</div>","null","fixation","","","","","","","","","11","","",""
"revaluation","129","711600","0.0-4.0-2.0-0.6","spark_pilot_norest","9444","4","9","Male","","false","","","","","[564.3000000002794,711.1000000000931]","./assets/img/ocean/memory/16.jpg","[""ArrowUp"",""ArrowLeft""]","value training","ocean","26","{""ArrowUp,ArrowLeft"":26,""ArrowUp,ArrowRight"":10,""ArrowDown,ArrowLeft"":5,""ArrowDown,ArrowRight"":17}","true","ArrowUp,ArrowLeft","false","revaluation","1","12","","",""
"html-keyboard-response","130","712102","0.0-4.0-2.0-1.6","spark_pilot_norest","9444","4","9","Male","","","","","","","null","<div style=""font-size:60px;"">+</div>","null","fixation","","","","","","","","","13","","",""
"revaluation","131","718118","0.0-4.0-2.0-0.7","spark_pilot_norest","9444","4","9","Male","","false","","","","","[648.6000000000931,396.60000000009313]","./assets/img/ocean/memory/16.jpg","[""ArrowUp"",""ArrowLeft""]","value training","ocean","26","{""ArrowUp,ArrowLeft"":26,""ArrowUp,ArrowRight"":10,""ArrowDown,ArrowLeft"":5,""ArrowDown,ArrowRight"":17}","true","ArrowUp,ArrowLeft","false","revaluation","1","14","","",""
"html-keyboard-response","132","718621","0.0-4.0-2.0-1.7","spark_pilot_norest","9444","4","9","Male","","","","","","","null","<div style=""font-size:60px;"">+</div>","null","fixation","","","","","","","","","15","","",""
"revaluation","133","724641","0.0-4.0-2.0-0.8","spark_pilot_norest","9444","4","9","Male","","false","","","","","[776.3999999999069,386.70000000018626]","./assets/img/ocean/memory/19.jpg","[""ArrowUp"",""ArrowLeft""]","value training","ocean","26","{""ArrowUp,ArrowLeft"":26,""ArrowUp,ArrowRight"":10,""ArrowDown,ArrowLeft"":5,""ArrowDown,ArrowRight"":17}","true","ArrowUp,ArrowLeft","false","revaluation","1","16","","",""
"html-keyboard-response","134","725160","0.0-4.0-2.0-1.8","spark_pilot_norest","9444","4","9","Male","","","","","","","null","<div style=""font-size:60px;"">+</div>","null","fixation","","","","","","","","","17","","",""
"revaluation","135","731166","0.0-4.0-2.0-0.9","spark_pilot_norest","9444","4","9","Male","","false","","","","","[658.3999999999069,279.09999999962747]","./assets/img/ocean/memory/21.jpg","[""ArrowUp"",""ArrowLeft""]","value training","ocean","26","{""ArrowUp,ArrowLeft"":26,""ArrowUp,ArrowRight"":10,""ArrowDown,ArrowLeft"":5,""ArrowDown,ArrowRight"":17}","true","ArrowUp,ArrowLeft","false","revaluation","1","18","","",""
"html-keyboard-response","136","731669","0.0-4.0-2.0-1.9","spark_pilot_norest","9444","4","9","Male","","","","","","","null","<div style=""font-size:60px;"">+</div>","null","fixation","","","","","","","","","19","","",""
"revaluation","137","737674","0.0-4.0-2.0-0.10","spark_pilot_norest","9444","4","9","Male","","false","","","","","[715.5999999996275,257.60000000009313]","./assets/img/ocean/memory/0.jpg","[""ArrowUp"",""ArrowLeft""]","value training","ocean","26","{""ArrowUp,ArrowLeft"":26,""ArrowUp,ArrowRight"":10,""ArrowDown,ArrowLeft"":5,""ArrowDown,ArrowRight"":17}","true","ArrowUp,ArrowLeft","false","revaluation","1","20","","",""
"html-keyboard-response","138","738176","0.0-4.0-2.0-1.10","spark_pilot_norest","9444","4","9","Male","","","","","","","null","<div style=""font-size:60px;"">+</div>","null","fixation","","","","","","","","","21","","",""
"revaluation","139","744183","0.0-4.0-2.0-0.11","spark_pilot_norest","9444","4","9","Male","","false","","","","","[835.6000000000931,775.5]","./assets/img/ocean/memory/21.jpg","[""ArrowUp"",""ArrowLeft""]","value training","ocean","26","{""ArrowUp,ArrowLeft"":26,""ArrowUp,ArrowRight"":10,""ArrowDown,ArrowLeft"":5,""ArrowDown,ArrowRight"":17}","true","ArrowUp,ArrowLeft","false","revaluation","1","22","","",""
"html-keyboard-response","140","744687","0.0-4.0-2.0-1.11","spark_pilot_norest","9444","4","9","Male","","","","","","","null","<div style=""font-size:60px;"">+</div>","null","fixation","","","","","","","","","23","","",""
"revaluation","141","750792","0.0-4.0-2.0-0.12","spark_pilot_norest","9444","4","9","Male","","false","","","","","[1174.3000000002794,462.5]","./assets/img/ocean/memory/23.jpg","[""ArrowUp"",""ArrowLeft""]","value training","ocean","26","{""ArrowUp,ArrowLeft"":26,""ArrowUp,ArrowRight"":10,""ArrowDown,ArrowLeft"":5,""ArrowDown,ArrowRight"":17}","true","ArrowUp,ArrowLeft","false","revaluation","1","24","","",""
"html-keyboard-response","142","751293","0.0-4.0-2.0-1.12","spark_pilot_norest","9444","4","9","Male","","","","","","","null","<div style=""font-size:60px;"">+</div>","null","fixation","","","","","","","","","25","","",""
"revaluation","143","757301","0.0-4.0-2.0-0.13","spark_pilot_norest","9444","4","9","Male","","false","","","","","[581.5999999996275,321.39999999990687]","./assets/img/ocean/memory/25.jpg","[""ArrowUp"",""ArrowLeft""]","value training","ocean","26","{""ArrowUp,ArrowLeft"":26,""ArrowUp,ArrowRight"":10,""ArrowDown,ArrowLeft"":5,""ArrowDown,ArrowRight"":17}","true","ArrowUp,ArrowLeft","false","revaluation","1","26","","",""
"html-keyboard-response","144","757802","0.0-4.0-2.0-1.13","spark_pilot_norest","9444","4","9","Male","","","","","","","null","<div style=""font-size:60px;"">+</div>","null","fixation","","","","","","","","","27","","",""
"revaluation","145","763808","0.0-4.0-2.0-0.14","spark_pilot_norest","9444","4","9","Male","","false","","","","","[869.8999999999069,349.5]","./assets/img/ocean/memory/25.jpg","[""ArrowUp"",""ArrowLeft""]","value training","ocean","26","{""ArrowUp,ArrowLeft"":26,""ArrowUp,ArrowRight"":10,""ArrowDown,ArrowLeft"":5,""ArrowDown,ArrowRight"":17}","true","ArrowUp,ArrowLeft","false","revaluation","1","28","","",""
"html-keyboard-response","146","764310","0.0-4.0-2.0-1.14","spark_pilot_norest","9444","4","9","Male","","","","","","","null","<div style=""font-size:60px;"">+</div>","null","fixation","","","","","","","","","29","","",""
"revaluation","147","770317","0.0-4.0-2.0-0.15","spark_pilot_norest","9444","4","9","Male","","false","","","","","[1465.3000000002794,711.6000000000931]","./assets/img/ocean/memory/4.jpg","[""ArrowUp"",""ArrowLeft""]","value training","ocean","26","{""ArrowUp,ArrowLeft"":26,""ArrowUp,ArrowRight"":10,""ArrowDown,ArrowLeft"":5,""ArrowDown,ArrowRight"":17}","true","ArrowUp,ArrowLeft","false","revaluation","1","30","","",""
"html-keyboard-response","148","770882","0.0-4.0-2.0-1.15","spark_pilot_norest","9444","4","9","Male","","","","","","","null","<div style=""font-size:60px;"">+</div>","null","fixation","","","","","","","","","31","","",""
"revaluation","149","776890","0.0-4.0-2.0-0.16","spark_pilot_norest","9444","4","9","Male","","false","","","","","[904.8999999999069,634.8000000002794]","./assets/img/ocean/memory/30.jpg","[""ArrowUp"",""ArrowLeft""]","value training","ocean","26","{""ArrowUp,ArrowLeft"":26,""ArrowUp,ArrowRight"":10,""ArrowDown,ArrowLeft"":5,""ArrowDown,ArrowRight"":17}","true","ArrowUp,ArrowLeft","false","revaluation","1","32","","",""
"html-keyboard-response","150","777392","0.0-4.0-2.0-1.16","spark_pilot_norest","9444","4","9","Male","","","","","","","null","<div style=""font-size:60px;"">+</div>","null","fixation","","","","","","","","","33","","",""
"revaluation","151","783399","0.0-4.0-2.0-0.17","spark_pilot_norest","9444","4","9","Male","","false","","","","","[1482.5999999996275,876]","./assets/img/ocean/memory/24.jpg","[""ArrowUp"",""ArrowLeft""]","value training","ocean","26","{""ArrowUp,ArrowLeft"":26,""ArrowUp,ArrowRight"":10,""ArrowDown,ArrowLeft"":5,""ArrowDown,ArrowRight"":17}","true","ArrowUp,ArrowLeft","false","revaluation","1","34","","",""
"html-keyboard-response","152","783901","0.0-4.0-2.0-1.17","spark_pilot_norest","9444","4","9","Male","","","","","","","null","<div style=""font-size:60px;"">+</div>","null","fixation","","","","","","","","","35","","",""
"revaluation","153","787921","0.0-4.0-2.0-0.18","spark_pilot_norest","9444","4","9","Male","","false","","","","","[631.8999999999069]","./assets/img/ocean/catch/0.jpg","[""spaceBar""]","value training","ocean","0","{""ArrowUp,ArrowLeft"":26,""ArrowUp,ArrowRight"":10,""ArrowDown,ArrowLeft"":5,""ArrowDown,ArrowRight"":17}","true","spaceBar","true","revaluation","1","36","","",""
"html-keyboard-response","154","788423","0.0-4.0-2.0-1.18","spark_pilot_norest","9444","4","9","Male","","","","","","","null","<div style=""font-size:60px;"">+</div>","null","fixation","","","","","","","","","37","","",""
"revaluation","155","794429","0.0-4.0-2.0-0.19","spark_pilot_norest","9444","4","9","Male","","false","","","","","[1857.9000000003725,656.9000000003725]","./assets/img/ocean/memory/37.jpg","[""ArrowUp"",""ArrowLeft""]","value training","ocean","26","{""ArrowUp,ArrowLeft"":26,""ArrowUp,ArrowRight"":10,""ArrowDown,ArrowLeft"":5,""ArrowDown,ArrowRight"":17}","true","ArrowUp,ArrowLeft","false","revaluation","1","38","","",""
"html-keyboard-response","156","794931","0.0-4.0-2.0-1.19","spark_pilot_norest","9444","4","9","Male","","","","","","","null","<div style=""font-size:60px;"">+</div>","null","fixation","","","","","","","","","39","","",""
"revaluation","157","800937","0.0-4.0-2.0-0.20","spark_pilot_norest","9444","4","9","Male","","false","","","","","[609.6000000000931,75.60000000009313]","./assets/img/ocean/memory/17.jpg","[""ArrowUp"",""ArrowLeft""]","value training","ocean","26","{""ArrowUp,ArrowLeft"":26,""ArrowUp,ArrowRight"":10,""ArrowDown,ArrowLeft"":5,""ArrowDown,ArrowRight"":17}","true","ArrowUp,ArrowLeft","false","revaluation","1","40","","",""
"html-keyboard-response","158","801441","0.0-4.0-2.0-1.20","spark_pilot_norest","9444","4","9","Male","","","","","","","null","<div style=""font-size:60px;"">+</div>","null","fixation","","","","","","","","","41","","",""
"revaluation","159","807450","0.0-4.0-2.0-0.21","spark_pilot_norest","9444","4","9","Male","","false","","","","","[1158.6999999997206,515.1000000000931]","./assets/img/ocean/memory/31.jpg","[""ArrowUp"",""ArrowLeft""]","value training","ocean","26","{""ArrowUp,ArrowLeft"":26,""ArrowUp,ArrowRight"":10,""ArrowDown,ArrowLeft"":5,""ArrowDown,ArrowRight"":17}","true","ArrowUp,ArrowLeft","false","revaluation","1","42","","",""
"html-keyboard-response","160","807951","0.0-4.0-2.0-1.21","spark_pilot_norest","9444","4","9","Male","","","","","","","null","<div style=""font-size:60px;"">+</div>","null","fixation","","","","","","","","","43","","",""
"revaluation","161","813959","0.0-4.0-2.0-0.22","spark_pilot_norest","9444","4","9","Male","","false","","","","","[623.2000000001863,164.6999999997206]","./assets/img/ocean/memory/4.jpg","[""ArrowUp"",""ArrowLeft""]","value training","ocean","26","{""ArrowUp,ArrowLeft"":26,""ArrowUp,ArrowRight"":10,""ArrowDown,ArrowLeft"":5,""ArrowDown,ArrowRight"":17}","true","ArrowUp,ArrowLeft","false","revaluation","1","44","","",""
"html-keyboard-response","162","814461","0.0-4.0-2.0-1.22","spark_pilot_norest","9444","4","9","Male","","","","","","","null","<div style=""font-size:60px;"">+</div>","null","fixation","","","","","","","","","45","","",""
"revaluation","163","820468","0.0-4.0-2.0-0.23","spark_pilot_norest","9444","4","9","Male","","false","","","","","[1070.7000000001863,335.3000000002794]","./assets/img/ocean/memory/1.jpg","[""ArrowUp"",""ArrowLeft""]","value training","ocean","26","{""ArrowUp,ArrowLeft"":26,""ArrowUp,ArrowRight"":10,""ArrowDown,ArrowLeft"":5,""ArrowDown,ArrowRight"":17}","true","ArrowUp,ArrowLeft","false","revaluation","1","46","","",""
"html-keyboard-response","164","820970","0.0-4.0-2.0-1.23","spark_pilot_norest","9444","4","9","Male","","","","","","","null","<div style=""font-size:60px;"">+</div>","null","fixation","","","","","","","","","47","","",""
"revaluation","165","824978","0.0-4.0-2.0-0.24","spark_pilot_norest","9444","4","9","Male","","false","","","","","[82.89999999990687]","./assets/img/ocean/catch/6.jpg","[""ArrowUp""]","value training","ocean","-10","{""ArrowUp,ArrowLeft"":26,""ArrowUp,ArrowRight"":10,""ArrowDown,ArrowLeft"":5,""ArrowDown,ArrowRight"":17}","false","ArrowUp","true","revaluation","1","48","","",""
"html-keyboard-response","166","825514","0.0-4.0-2.0-1.24","spark_pilot_norest","9444","4","9","Male","","","","","","","null","<div style=""font-size:60px;"">+</div>","null","fixation","","","","","","","","","49","","",""
"revaluation","167","829525","0.0-4.0-2.0-0.25","spark_pilot_norest","9444","4","9","Male","","false","","","","","[1078.3999999999069]","./assets/img/ocean/catch/3.jpg","[""spaceBar""]","value training","ocean","0","{""ArrowUp,ArrowLeft"":26,""ArrowUp,ArrowRight"":10,""ArrowDown,ArrowLeft"":5,""ArrowDown,ArrowRight"":17}","true","spaceBar","true","revaluation","1","50","","",""
"html-keyboard-response","168","830027","0.0-4.0-2.0-1.25","spark_pilot_norest","9444","4","9","Male","","","","","","","null","<div style=""font-size:60px;"">+</div>","null","fixation","","","","","","","","","51","","",""
"revaluation","169","836037","0.0-4.0-2.0-0.26","spark_pilot_norest","9444","4","9","Male","","false","","","","","[1713.1000000000931,211.60000000009313]","./assets/img/ocean/memory/32.jpg","[""ArrowUp"",""ArrowLeft""]","value training","ocean","26","{""ArrowUp,ArrowLeft"":26,""ArrowUp,ArrowRight"":10,""ArrowDown,ArrowLeft"":5,""ArrowDown,ArrowRight"":17}","true","ArrowUp,ArrowLeft","false","revaluation","1","52","","",""
"html-keyboard-response","170","836540","0.0-4.0-2.0-1.26","spark_pilot_norest","9444","4","9","Male","","","","","","","null","<div style=""font-size:60px;"">+</div>","null","fixation","","","","","","","","","53","","",""
"revaluation","171","842551","0.0-4.0-2.0-0.27","spark_pilot_norest","9444","4","9","Male","","false","","","","","[1375.2999999998137,617.6999999997206]","./assets/img/ocean/memory/31.jpg","[""ArrowUp"",""ArrowLeft""]","value training","ocean","26","{""ArrowUp,ArrowLeft"":26,""ArrowUp,ArrowRight"":10,""ArrowDown,ArrowLeft"":5,""ArrowDown,ArrowRight"":17}","true","ArrowUp,ArrowLeft","false","revaluation","1","54","","",""
"html-keyboard-response","172","843052","0.0-4.0-2.0-1.27","spark_pilot_norest","9444","4","9","Male","","","","","","","null","<div style=""font-size:60px;"">+</div>","null","fixation","","","","","","","","","55","","",""
"revaluation","173","849066","0.0-4.0-2.0-0.28","spark_pilot_norest","9444","4","9","Male","","false","","","","","[1779.1999999997206,347.60000000009313]","./assets/img/ocean/memory/36.jpg","[""ArrowUp"",""ArrowLeft""]","value training","ocean","26","{""ArrowUp,ArrowLeft"":26,""ArrowUp,ArrowRight"":10,""ArrowDown,ArrowLeft"":5,""ArrowDown,ArrowRight"":17}","true","ArrowUp,ArrowLeft","false","revaluation","1","56","","",""
"html-keyboard-response","174","849568","0.0-4.0-2.0-1.28","spark_pilot_norest","9444","4","9","Male","","","","","","","null","<div style=""font-size:60px;"">+</div>","null","fixation","","","","","","","","","57","","",""
"revaluation","175","855575","0.0-4.0-2.0-0.29","spark_pilot_norest","9444","4","9","Male","","false","","","","","[866.2000000001863,192.6999999997206]","./assets/img/ocean/memory/6.jpg","[""ArrowUp"",""ArrowLeft""]","value training","ocean","26","{""ArrowUp,ArrowLeft"":26,""ArrowUp,ArrowRight"":10,""ArrowDown,ArrowLeft"":5,""ArrowDown,ArrowRight"":17}","true","ArrowUp,ArrowLeft","false","revaluation","1","58","","",""
"html-keyboard-response","176","856077","0.0-4.0-2.0-1.29","spark_pilot_norest","9444","4","9","Male","","","","","","","null","<div style=""font-size:60px;"">+</div>","null","fixation","","","","","","","","","59","","",""
"revaluation","177","862084","0.0-4.0-2.0-0.30","spark_pilot_norest","9444","4","9","Male","","false","","","","","[1143.1000000000931,270.10000000009313]","./assets/img/ocean/memory/10.jpg","[""ArrowUp"",""ArrowLeft""]","value training","ocean","26","{""ArrowUp,ArrowLeft"":26,""ArrowUp,ArrowRight"":10,""ArrowDown,ArrowLeft"":5,""ArrowDown,ArrowRight"":17}","true","ArrowUp,ArrowLeft","false","revaluation","1","60","","",""
"html-keyboard-response","178","862587","0.0-4.0-2.0-1.30","spark_pilot_norest","9444","4","9","Male","","","","","","","null","<div style=""font-size:60px;"">+</div>","null","fixation","","","","","","","","","61","","",""
"revaluation","179","866594","0.0-4.0-2.0-0.31","spark_pilot_norest","9444","4","9","Male","","false","","","","","[644.3999999999069]","./assets/img/ocean/catch/4.jpg","[""spaceBar""]","value training","ocean","0","{""ArrowUp,ArrowLeft"":26,""ArrowUp,ArrowRight"":10,""ArrowDown,ArrowLeft"":5,""ArrowDown,ArrowRight"":17}","true","spaceBar","true","revaluation","1","62","","",""
"html-keyboard-response","180","867096","0.0-4.0-2.0-1.31","spark_pilot_norest","9444","4","9","Male","","","","","","","null","<div style=""font-size:60px;"">+</div>","null","fixation","","","","","","","","","63","","",""
"revaluation","181","873105","0.0-4.0-2.0-0.32","spark_pilot_norest","9444","4","9","Male","","false","","","","","[1368.7000000001863,313.20000000018626]","./assets/img/ocean/memory/3.jpg","[""ArrowUp"",""ArrowLeft""]","value training","ocean","26","{""ArrowUp,ArrowLeft"":26,""ArrowUp,ArrowRight"":10,""ArrowDown,ArrowLeft"":5,""ArrowDown,ArrowRight"":17}","true","ArrowUp,ArrowLeft","false","revaluation","1","64","","",""
"html-keyboard-response","182","873606","0.0-4.0-2.0-1.32","spark_pilot_norest","9444","4","9","Male","","","","","","","null","<div style=""font-size:60px;"">+</div>","null","fixation","","","","","","","","","65","","",""
"revaluation","183","877612","0.0-4.0-2.0-0.33","spark_pilot_norest","9444","4","9","Male","","false","","","","","[883]","./assets/img/ocean/catch/5.jpg","[""spaceBar""]","value training","ocean","0","{""ArrowUp,ArrowLeft"":26,""ArrowUp,ArrowRight"":10,""ArrowDown,ArrowLeft"":5,""ArrowDown,ArrowRight"":17}","true","spaceBar","true","revaluation","1","66","","",""
"html-keyboard-response","184","878114","0.0-4.0-2.0-1.33","spark_pilot_norest","9444","4","9","Male","","","","","","","null","<div style=""font-size:60px;"">+</div>","null","fixation","","","","","","","","","67","","",""
"revaluation","185","884122","0.0-4.0-2.0-0.34","spark_pilot_norest","9444","4","9","Male","","false","","","","","[1613,635.0999999996275]","./assets/img/ocean/memory/10.jpg","[""ArrowUp"",""ArrowLeft""]","value training","ocean","26","{""ArrowUp,ArrowLeft"":26,""ArrowUp,ArrowRight"":10,""ArrowDown,ArrowLeft"":5,""ArrowDown,ArrowRight"":17}","true","ArrowUp,ArrowLeft","false","revaluation","1","68","","",""
"html-keyboard-response","186","884625","0.0-4.0-2.0-1.34","spark_pilot_norest","9444","4","9","Male","","","","","","","null","<div style=""font-size:60px;"">+</div>","null","fixation","","","","","","","","","69","","",""
"revaluation","187","890654","0.0-4.0-2.0-0.35","spark_pilot_norest","9444","4","9","Male","","false","","","","","[768.3000000002794,485.39999999990687]","./assets/img/ocean/memory/9.jpg","[""ArrowUp"",""ArrowLeft""]","value training","ocean","26","{""ArrowUp,ArrowLeft"":26,""ArrowUp,ArrowRight"":10,""ArrowDown,ArrowLeft"":5,""ArrowDown,ArrowRight"":17}","true","ArrowUp,ArrowLeft","false","revaluation","1","70","","",""
"html-keyboard-response","188","891155","0.0-4.0-2.0-1.35","spark_pilot_norest","9444","4","9","Male","","","","","","","null","<div style=""font-size:60px;"">+</div>","null","fixation","","","","","","","","","71","","",""
"revaluation","189","897161","0.0-4.0-2.0-0.36","spark_pilot_norest","9444","4","9","Male","","false","","","","","[692.2999999998137,1606.1000000000931]","./assets/img/ocean/memory/17.jpg","[""ArrowUp"",""ArrowLeft""]","value training","ocean","26","{""ArrowUp,ArrowLeft"":26,""ArrowUp,ArrowRight"":10,""ArrowDown,ArrowLeft"":5,""ArrowDown,ArrowRight"":17}","true","ArrowUp,ArrowLeft","false","revaluation","1","72","","",""
"html-keyboard-response","190","897663","0.0-4.0-2.0-1.36","spark_pilot_norest","9444","4","9","Male","","","","","","","null","<div style=""font-size:60px;"">+</div>","null","fixation","","","","","","","","","73","","",""
"revaluation","191","903670","0.0-4.0-2.0-0.37","spark_pilot_norest","9444","4","9","Male","","false","","","","","[646.7999999998137,158]","./assets/img/ocean/memory/7.jpg","[""ArrowUp"",""ArrowLeft""]","value training","ocean","26","{""ArrowUp,ArrowLeft"":26,""ArrowUp,ArrowRight"":10,""ArrowDown,ArrowLeft"":5,""ArrowDown,ArrowRight"":17}","true","ArrowUp,ArrowLeft","false","revaluation","1","74","","",""
"html-keyboard-response","192","904171","0.0-4.0-2.0-1.37","spark_pilot_norest","9444","4","9","Male","","","","","","","null","<div style=""font-size:60px;"">+</div>","null","fixation","","","","","","","","","75","","",""
"revaluation","193","910181","0.0-4.0-2.0-0.38","spark_pilot_norest","9444","4","9","Male","","false","","","","","[600,106.10000000009313]","./assets/img/ocean/memory/37.jpg","[""ArrowUp"",""ArrowLeft""]","value training","ocean","26","{""ArrowUp,ArrowLeft"":26,""ArrowUp,ArrowRight"":10,""ArrowDown,ArrowLeft"":5,""ArrowDown,ArrowRight"":17}","true","ArrowUp,ArrowLeft","false","revaluation","1","76","","",""
"html-keyboard-response","194","910686","0.0-4.0-2.0-1.38","spark_pilot_norest","9444","4","9","Male","","","","","","","null","<div style=""font-size:60px;"">+</div>","null","fixation","","","","","","","","","77","","",""
"revaluation","195","916700","0.0-4.0-2.0-0.39","spark_pilot_norest","9444","4","9","Male","","false","","","","","[721,1139.6999999997206]","./assets/img/ocean/memory/39.jpg","[""ArrowUp"",""ArrowLeft""]","value training","ocean","26","{""ArrowUp,ArrowLeft"":26,""ArrowUp,ArrowRight"":10,""ArrowDown,ArrowLeft"":5,""ArrowDown,ArrowRight"":17}","true","ArrowUp,ArrowLeft","false","revaluation","1","78","","",""
"html-keyboard-response","196","917202","0.0-4.0-2.0-1.39","spark_pilot_norest","9444","4","9","Male","","","","","","","null","<div style=""font-size:60px;"">+</div>","null","fixation","","","","","","","","","79","","",""
"revaluation","197","923228","0.0-4.0-2.0-0.40","spark_pilot_norest","9444","4","9","Male","","false","","","","","[724.5,335.70000000018626]","./assets/img/ocean/memory/30.jpg","[""ArrowUp"",""ArrowLeft""]","value training","ocean","26","{""ArrowUp,ArrowLeft"":26,""ArrowUp,ArrowRight"":10,""ArrowDown,ArrowLeft"":5,""ArrowDown,ArrowRight"":17}","true","ArrowUp,ArrowLeft","false","revaluation","1","80","","",""
"html-keyboard-response","198","923733","0.0-4.0-2.0-1.40","spark_pilot_norest","9444","4","9","Male","","","","","","","null","<div style=""font-size:60px;"">+</div>","null","fixation","","","","","","","","","81","","",""
"revaluation","199","929741","0.0-4.0-2.0-0.41","spark_pilot_norest","9444","4","9","Male","","false","","","","","[804.7999999998137,994.8000000002794]","./assets/img/ocean/memory/6.jpg","[""ArrowUp"",""ArrowLeft""]","value training","ocean","26","{""ArrowUp,ArrowLeft"":26,""ArrowUp,ArrowRight"":10,""ArrowDown,ArrowLeft"":5,""ArrowDown,ArrowRight"":17}","true","ArrowUp,ArrowLeft","false","revaluation","1","82","","",""
"html-keyboard-response","200","930244","0.0-4.0-2.0-1.41","spark_pilot_norest","9444","4","9","Male","","","","","","","null","<div style=""font-size:60px;"">+</div>","null","fixation","","","","","","","","","83","","",""
"revaluation","201","936253","0.0-4.0-2.0-0.42","spark_pilot_norest","9444","4","9","Male","","false","","","","","[742.8999999999069,2001.1999999997206]","./assets/img/ocean/memory/23.jpg","[""ArrowUp"",""ArrowLeft""]","value training","ocean","26","{""ArrowUp,ArrowLeft"":26,""ArrowUp,ArrowRight"":10,""ArrowDown,ArrowLeft"":5,""ArrowDown,ArrowRight"":17}","true","ArrowUp,ArrowLeft","false","revaluation","1","84","","",""
"html-keyboard-response","202","936755","0.0-4.0-2.0-1.42","spark_pilot_norest","9444","4","9","Male","","","","","","","null","<div style=""font-size:60px;"">+</div>","null","fixation","","","","","","","","","85","","",""
"revaluation","203","942776","0.0-4.0-2.0-0.43","spark_pilot_norest","9444","4","9","Male","","false","","","","","[1558.1999999997206,174.8000000002794]","./assets/img/ocean/memory/36.jpg","[""ArrowUp"",""ArrowLeft""]","value training","ocean","26","{""ArrowUp,ArrowLeft"":26,""ArrowUp,ArrowRight"":10,""ArrowDown,ArrowLeft"":5,""ArrowDown,ArrowRight"":17}","true","ArrowUp,ArrowLeft","false","revaluation","1","86","","",""
"html-keyboard-response","204","943278","0.0-4.0-2.0-1.43","spark_pilot_norest","9444","4","9","Male","","","","","","","null","<div style=""font-size:60px;"">+</div>","null","fixation","","","","","","","","","87","","",""
"revaluation","205","949286","0.0-4.0-2.0-0.44","spark_pilot_norest","9444","4","9","Male","","false","","","","","[1272,1903.2999999998137]","./assets/img/ocean/memory/32.jpg","[""ArrowUp"",""ArrowLeft""]","value training","ocean","26","{""ArrowUp,ArrowLeft"":26,""ArrowUp,ArrowRight"":10,""ArrowDown,ArrowLeft"":5,""ArrowDown,ArrowRight"":17}","true","ArrowUp,ArrowLeft","false","revaluation","1","88","","",""
"html-keyboard-response","206","949789","0.0-4.0-2.0-1.44","spark_pilot_norest","9444","4","9","Male","","","","","","","null","<div style=""font-size:60px;"">+</div>","null","fixation","","","","","","","","","89","","",""
"revaluation","207","955796","0.0-4.0-2.0-0.45","spark_pilot_norest","9444","4","9","Male","","false","","","","","[1549.1000000000931,521.7999999998137]","./assets/img/ocean/memory/24.jpg","[""ArrowUp"",""ArrowLeft""]","value training","ocean","26","{""ArrowUp,ArrowLeft"":26,""ArrowUp,ArrowRight"":10,""ArrowDown,ArrowLeft"":5,""ArrowDown,ArrowRight"":17}","true","ArrowUp,ArrowLeft","false","revaluation","1","90","","",""
"html-keyboard-response","208","956298","0.0-4.0-2.0-1.45","spark_pilot_norest","9444","4","9","Male","","","","","","","null","<div style=""font-size:60px;"">+</div>","null","fixation","","","","","","","","","91","","",""
"revaluation","209","962325","0.0-4.0-2.0-0.46","spark_pilot_norest","9444","4","9","Male","","false","","","","","[930.5,307.09999999962747]","./assets/img/ocean/memory/19.jpg","[""ArrowUp"",""ArrowLeft""]","value training","ocean","26","{""ArrowUp,ArrowLeft"":26,""ArrowUp,ArrowRight"":10,""ArrowDown,ArrowLeft"":5,""ArrowDown,ArrowRight"":17}","true","ArrowUp,ArrowLeft","false","revaluation","1","92","","",""
"html-keyboard-response","210","962826","0.0-4.0-2.0-1.46","spark_pilot_norest","9444","4","9","Male","","","","","","","null","<div style=""font-size:60px;"">+</div>","null","fixation","","","","","","","","","93","","",""
"revaluation","211","966834","0.0-4.0-2.0-0.47","spark_pilot_norest","9444","4","9","Male","","false","","","","","[1002.5]","./assets/img/ocean/catch/2.jpg","[""spaceBar""]","value training","ocean","0","{""ArrowUp,ArrowLeft"":26,""ArrowUp,ArrowRight"":10,""ArrowDown,ArrowLeft"":5,""ArrowDown,ArrowRight"":17}","true","spaceBar","true","revaluation","1","94","","",""
"html-keyboard-response","212","967336","0.0-4.0-2.0-1.47","spark_pilot_norest","9444","4","9","Male","","","","","","","null","<div style=""font-size:60px;"">+</div>","null","fixation","","","","","","","","","95","","",""
"revaluation","213","973345","0.0-4.0-2.0-0.48","spark_pilot_norest","9444","4","9","Male","","false","","","","","[1685.7000000001863,39.799999999813735]","./assets/img/ocean/memory/1.jpg","[""ArrowUp"",""ArrowLeft""]","value training","ocean","26","{""ArrowUp,ArrowLeft"":26,""ArrowUp,ArrowRight"":10,""ArrowDown,ArrowLeft"":5,""ArrowDown,ArrowRight"":17}","true","ArrowUp,ArrowLeft","false","revaluation","1","96","","",""
"html-keyboard-response","214","973847","0.0-4.0-2.0-1.48","spark_pilot_norest","9444","4","9","Male","","","","","","","null","<div style=""font-size:60px;"">+</div>","null","fixation","","","","","","","","","97","","",""
"revaluation","215","977856","0.0-4.0-2.0-0.49","spark_pilot_norest","9444","4","9","Male","","false","","","","","[442.29999999981374]","./assets/img/ocean/catch/1.jpg","[""spaceBar""]","value training","ocean","0","{""ArrowUp,ArrowLeft"":26,""ArrowUp,ArrowRight"":10,""ArrowDown,ArrowLeft"":5,""ArrowDown,ArrowRight"":17}","true","spaceBar","true","revaluation","1","98","","",""
"html-keyboard-response","216","978366","0.0-4.0-2.0-1.49","spark_pilot_norest","9444","4","9","Male","","","","","","","null","<div style=""font-size:60px;"">+</div>","null","fixation","","","","","","","","","99","","",""
"learning-instructions","217","994377","0.0-4.0-3.0-0.0","spark_pilot_norest","9444","4","9","Male","","","","","","","2425.7000000001863","<p> Now, you will travel with a friend who will choose whether you go up or down first. </p>
            <p> On these turns, you will just see the animal that they found. You will still get to choose which chest to search for treasure.</p>","","instructions","","","","","","","","","","","",""
"revaluation","218","998409","0.0-4.0-4.0-0.0","spark_pilot_norest","9444","4","9","Male","","false","","","","","[958.7999999998137]","./assets/img/ocean/animals/seahorse.jpg","[""ArrowRight""]","revaluation","ocean","27","{""ArrowUp,ArrowLeft"":2,""ArrowUp,ArrowRight"":11,""ArrowDown,ArrowLeft"":8,""ArrowDown,ArrowRight"":27}","true","ArrowDown,ArrowRight","","revaluation","1","0","","",""
"html-keyboard-response","219","998932","0.0-4.0-4.0-1.0","spark_pilot_norest","9444","4","9","Male","","","","","","","null","<div style=""font-size:60px;"">+</div>","null","fixation","","","","","","","","","1","","",""
"revaluation","220","1002946","0.0-4.0-4.0-0.1","spark_pilot_norest","9444","4","9","Male","","false","","","","","[733]","./assets/img/ocean/animals/seahorse.jpg","[""ArrowRight""]","revaluation","ocean","27","{""ArrowUp,ArrowLeft"":2,""ArrowUp,ArrowRight"":11,""ArrowDown,ArrowLeft"":8,""ArrowDown,ArrowRight"":27}","true","ArrowDown,ArrowRight","","revaluation","1","2","","",""
"html-keyboard-response","221","1003461","0.0-4.0-4.0-1.1","spark_pilot_norest","9444","4","9","Male","","","","","","","null","<div style=""font-size:60px;"">+</div>","null","fixation","","","","","","","","","3","","",""
"revaluation","222","1007478","0.0-4.0-4.0-0.2","spark_pilot_norest","9444","4","9","Male","","false","","","","","[82.79999999981374]","./assets/img/ocean/animals/seahorse.jpg","[""ArrowRight""]","revaluation","ocean","27","{""ArrowUp,ArrowLeft"":2,""ArrowUp,ArrowRight"":11,""ArrowDown,ArrowLeft"":8,""ArrowDown,ArrowRight"":27}","true","ArrowDown,ArrowRight","","revaluation","1","4","","",""
"html-keyboard-response","223","1007990","0.0-4.0-4.0-1.2","spark_pilot_norest","9444","4","9","Male","","","","","","","null","<div style=""font-size:60px;"">+</div>","null","fixation","","","","","","","","","5","","",""
"revaluation","224","1012009","0.0-4.0-4.0-0.3","spark_pilot_norest","9444","4","9","Male","","false","","","","","[1056.8000000002794]","./assets/img/ocean/animals/octopus.jpg","[""ArrowLeft""]","revaluation","ocean","2","{""ArrowUp,ArrowLeft"":2,""ArrowUp,ArrowRight"":11,""ArrowDown,ArrowLeft"":8,""ArrowDown,ArrowRight"":27}","false","ArrowUp,ArrowLeft","","revaluation","1","6","","",""
"html-keyboard-response","225","1012521","0.0-4.0-4.0-1.3","spark_pilot_norest","9444","4","9","Male","","","","","","","null","<div style=""font-size:60px;"">+</div>","null","fixation","","","","","","","","","7","","",""
"revaluation","226","1016537","0.0-4.0-4.0-0.4","spark_pilot_norest","9444","4","9","Male","","false","","","","","[587.5]","./assets/img/ocean/animals/octopus.jpg","[""ArrowRight""]","revaluation","ocean","11","{""ArrowUp,ArrowLeft"":2,""ArrowUp,ArrowRight"":11,""ArrowDown,ArrowLeft"":8,""ArrowDown,ArrowRight"":27}","true","ArrowUp,ArrowRight","","revaluation","1","8","","",""
"html-keyboard-response","227","1017052","0.0-4.0-4.0-1.4","spark_pilot_norest","9444","4","9","Male","","","","","","","null","<div style=""font-size:60px;"">+</div>","null","fixation","","","","","","","","","9","","",""
"revaluation","228","1021068","0.0-4.0-4.0-0.5","spark_pilot_norest","9444","4","9","Male","","true","","","","","[]","./assets/img/ocean/animals/seahorse.jpg","[]","revaluation","ocean","-5","{""ArrowUp,ArrowLeft"":2,""ArrowUp,ArrowRight"":11,""ArrowDown,ArrowLeft"":8,""ArrowDown,ArrowRight"":27}","false","ArrowDown","","revaluation","1","10","","",""
"html-keyboard-response","229","1021583","0.0-4.0-4.0-1.5","spark_pilot_norest","9444","4","9","Male","","","","","","","null","<div style=""font-size:60px;"">+</div>","null","fixation","","","","","","","","","11","","",""
"revaluation","230","1025594","0.0-4.0-4.0-0.6","spark_pilot_norest","9444","4","9","Male","","false","","","","","[442.5]","./assets/img/ocean/animals/seahorse.jpg","[""ArrowRight""]","revaluation","ocean","27","{""ArrowUp,ArrowLeft"":2,""ArrowUp,ArrowRight"":11,""ArrowDown,ArrowLeft"":8,""ArrowDown,ArrowRight"":27}","true","ArrowDown,ArrowRight","","revaluation","1","12","","",""
"html-keyboard-response","231","1026098","0.0-4.0-4.0-1.6","spark_pilot_norest","9444","4","9","Male","","","","","","","null","<div style=""font-size:60px;"">+</div>","null","fixation","","","","","","","","","13","","",""
"revaluation","232","1030114","0.0-4.0-4.0-0.7","spark_pilot_norest","9444","4","9","Male","","false","","","","","[917.5]","./assets/img/ocean/animals/octopus.jpg","[""ArrowLeft""]","revaluation","ocean","2","{""ArrowUp,ArrowLeft"":2,""ArrowUp,ArrowRight"":11,""ArrowDown,ArrowLeft"":8,""ArrowDown,ArrowRight"":27}","false","ArrowUp,ArrowLeft","","revaluation","1","14","","",""
"html-keyboard-response","233","1030615","0.0-4.0-4.0-1.7","spark_pilot_norest","9444","4","9","Male","","","","","","","null","<div style=""font-size:60px;"">+</div>","null","fixation","","","","","","","","","15","","",""
"revaluation","234","1034621","0.0-4.0-4.0-0.8","spark_pilot_norest","9444","4","9","Male","","false","","","","","[874.2999999998137]","./assets/img/ocean/animals/octopus.jpg","[""ArrowRight""]","revaluation","ocean","11","{""ArrowUp,ArrowLeft"":2,""ArrowUp,ArrowRight"":11,""ArrowDown,ArrowLeft"":8,""ArrowDown,ArrowRight"":27}","true","ArrowUp,ArrowRight","","revaluation","1","16","","",""
"html-keyboard-response","235","1035124","0.0-4.0-4.0-1.8","spark_pilot_norest","9444","4","9","Male","","","","","","","null","<div style=""font-size:60px;"">+</div>","null","fixation","","","","","","","","","17","","",""
"revaluation","236","1039143","0.0-4.0-4.0-0.9","spark_pilot_norest","9444","4","9","Male","","false","","","","","[562.2000000001863]","./assets/img/ocean/animals/octopus.jpg","[""ArrowRight""]","revaluation","ocean","11","{""ArrowUp,ArrowLeft"":2,""ArrowUp,ArrowRight"":11,""ArrowDown,ArrowLeft"":8,""ArrowDown,ArrowRight"":27}","true","ArrowUp,ArrowRight","","revaluation","1","18","","",""
"html-keyboard-response","237","1039647","0.0-4.0-4.0-1.9","spark_pilot_norest","9444","4","9","Male","","","","","","","null","<div style=""font-size:60px;"">+</div>","null","fixation","","","","","","","","","19","","",""
"revaluation","238","1043655","0.0-4.0-4.0-0.10","spark_pilot_norest","9444","4","9","Male","","false","","","","","[547]","./assets/img/ocean/animals/octopus.jpg","[""ArrowRight""]","revaluation","ocean","11","{""ArrowUp,ArrowLeft"":2,""ArrowUp,ArrowRight"":11,""ArrowDown,ArrowLeft"":8,""ArrowDown,ArrowRight"":27}","true","ArrowUp,ArrowRight","","revaluation","1","20","","",""
"html-keyboard-response","239","1044156","0.0-4.0-4.0-1.10","spark_pilot_norest","9444","4","9","Male","","","","","","","null","<div style=""font-size:60px;"">+</div>","null","fixation","","","","","","","","","21","","",""
"revaluation","240","1048161","0.0-4.0-4.0-0.11","spark_pilot_norest","9444","4","9","Male","","false","","","","","[466.09999999962747]","./assets/img/ocean/animals/octopus.jpg","[""ArrowRight""]","revaluation","ocean","11","{""ArrowUp,ArrowLeft"":2,""ArrowUp,ArrowRight"":11,""ArrowDown,ArrowLeft"":8,""ArrowDown,ArrowRight"":27}","true","ArrowUp,ArrowRight","","revaluation","1","22","","",""
"html-keyboard-response","241","1048664","0.0-4.0-4.0-1.11","spark_pilot_norest","9444","4","9","Male","","","","","","","null","<div style=""font-size:60px;"">+</div>","null","fixation","","","","","","","","","23","","",""
"revaluation","242","1052670","0.0-4.0-4.0-0.12","spark_pilot_norest","9444","4","9","Male","","false","","","","","[414.5]","./assets/img/ocean/animals/seahorse.jpg","[""ArrowRight""]","revaluation","ocean","27","{""ArrowUp,ArrowLeft"":2,""ArrowUp,ArrowRight"":11,""ArrowDown,ArrowLeft"":8,""ArrowDown,ArrowRight"":27}","true","ArrowDown,ArrowRight","","revaluation","1","24","","",""
"html-keyboard-response","243","1053171","0.0-4.0-4.0-1.12","spark_pilot_norest","9444","4","9","Male","","","","","","","null","<div style=""font-size:60px;"">+</div>","null","fixation","","","","","","","","","25","","",""
"revaluation","244","1057189","0.0-4.0-4.0-0.13","spark_pilot_norest","9444","4","9","Male","","false","","","","","[883.2999999998137]","./assets/img/ocean/animals/octopus.jpg","[""ArrowRight""]","revaluation","ocean","11","{""ArrowUp,ArrowLeft"":2,""ArrowUp,ArrowRight"":11,""ArrowDown,ArrowLeft"":8,""ArrowDown,ArrowRight"":27}","true","ArrowUp,ArrowRight","","revaluation","1","26","","",""
"html-keyboard-response","245","1057701","0.0-4.0-4.0-1.13","spark_pilot_norest","9444","4","9","Male","","","","","","","null","<div style=""font-size:60px;"">+</div>","null","fixation","","","","","","","","","27","","",""
"revaluation","246","1061709","0.0-4.0-4.0-0.14","spark_pilot_norest","9444","4","9","Male","","false","","","","","[1433.1999999997206]","./assets/img/ocean/animals/seahorse.jpg","[""ArrowLeft""]","revaluation","ocean","8","{""ArrowUp,ArrowLeft"":2,""ArrowUp,ArrowRight"":11,""ArrowDown,ArrowLeft"":8,""ArrowDown,ArrowRight"":27}","false","ArrowDown,ArrowLeft","","revaluation","1","28","","",""
"html-keyboard-response","247","1062211","0.0-4.0-4.0-1.14","spark_pilot_norest","9444","4","9","Male","","","","","","","null","<div style=""font-size:60px;"">+</div>","null","fixation","","","","","","","","","29","","",""
"revaluation","248","1066217","0.0-4.0-4.0-0.15","spark_pilot_norest","9444","4","9","Male","","false","","","","","[702.6000000000931]","./assets/img/ocean/animals/seahorse.jpg","[""ArrowRight""]","revaluation","ocean","27","{""ArrowUp,ArrowLeft"":2,""ArrowUp,ArrowRight"":11,""ArrowDown,ArrowLeft"":8,""ArrowDown,ArrowRight"":27}","true","ArrowDown,ArrowRight","","revaluation","1","30","","",""
"html-keyboard-response","249","1066719","0.0-4.0-4.0-1.15","spark_pilot_norest","9444","4","9","Male","","","","","","","null","<div style=""font-size:60px;"">+</div>","null","fixation","","","","","","","","","31","","",""
"revaluation","250","1070724","0.0-4.0-4.0-0.16","spark_pilot_norest","9444","4","9","Male","","false","","","","","[180.89999999990687]","./assets/img/ocean/animals/seahorse.jpg","[""ArrowRight""]","revaluation","ocean","27","{""ArrowUp,ArrowLeft"":2,""ArrowUp,ArrowRight"":11,""ArrowDown,ArrowLeft"":8,""ArrowDown,ArrowRight"":27}","true","ArrowDown,ArrowRight","","revaluation","1","32","","",""
"html-keyboard-response","251","1071227","0.0-4.0-4.0-1.16","spark_pilot_norest","9444","4","9","Male","","","","","","","null","<div style=""font-size:60px;"">+</div>","null","fixation","","","","","","","","","33","","",""
"revaluation","252","1075235","0.0-4.0-4.0-0.17","spark_pilot_norest","9444","4","9","Male","","false","","","","","[280.8000000002794]","./assets/img/ocean/animals/octopus.jpg","[""ArrowRight""]","revaluation","ocean","11","{""ArrowUp,ArrowLeft"":2,""ArrowUp,ArrowRight"":11,""ArrowDown,ArrowLeft"":8,""ArrowDown,ArrowRight"":27}","true","ArrowUp,ArrowRight","","revaluation","1","34","","",""
"html-keyboard-response","253","1075736","0.0-4.0-4.0-1.17","spark_pilot_norest","9444","4","9","Male","","","","","","","null","<div style=""font-size:60px;"">+</div>","null","fixation","","","","","","","","","35","","",""
"learning-instructions","254","1084624","0.0-4.0-5.0-0.0","spark_pilot_norest","9444","4","9","Male","","","","","","","null","<p> You have almost finished this part of the game! </p>
            <p> We are going to ask you to make a few more choices. </p>","","instructions","","","","","","","","","","","",""
"learning-instructions","255","1100595","0.0-4.0-5.0-0.1","spark_pilot_norest","9444","4","9","Male","","","","","","","null","<p> First, you need to decide whether to go up or down. When you see each picture, use the arrow keys to make your choice. </p>
            <p><b>You will not see which animal you found, but try to get to the one that will give you the most treasure.</b></p>","","instructions","","","","","","","","","","","",""
"html-keyboard-response","256","1101597","0.0-4.0-6.0-0.0","spark_pilot_norest","9444","4","9","Male","","","","","","","null","<div style=""font-size:100px;color:red;"">Starting in...</div>","null","","","","","","","","","","","","",""
"html-keyboard-response","257","1102598","0.0-4.0-6.0-1.0","spark_pilot_norest","9444","4","9","Male","","","","","","","null","<div style=""font-size:200px;color:red;"">3</div>","null","","","","","","","","","","","","",""
"html-keyboard-response","258","1103608","0.0-4.0-6.0-2.0","spark_pilot_norest","9444","4","9","Male","","","","","","","null","<div style=""font-size:200px;color:red;"">2</div>","null","","","","","","","","","","","","",""
"html-keyboard-response","259","1104614","0.0-4.0-6.0-3.0","spark_pilot_norest","9444","4","9","Male","","","","","","","null","<div style=""font-size:200px;color:red;"">1</div>","null","","","","","","","","","","","","",""
"revaluation","260","1105594","0.0-4.0-7.0-0.0","spark_pilot_norest","9444","4","9","Male","","false","","","","","[971.2000000001863]","./assets/img/ocean/test/2.jpg","[""ArrowDown""]","first stage test","ocean","0","{""ArrowUp,ArrowLeft"":2,""ArrowUp,ArrowRight"":11,""ArrowDown,ArrowLeft"":8,""ArrowDown,ArrowRight"":27}","true","ArrowDown","false","revaluation","1","","","",""
"html-keyboard-response","261","1106105","0.0-4.0-7.0-1.0","spark_pilot_norest","9444","4","9","Male","","","","","","","null","<div style=""font-size:60px;"">+</div>","null","fixation","","","","","","","","","","","",""
"revaluation","262","1107048","0.0-4.0-7.0-0.1","spark_pilot_norest","9444","4","9","Male","","false","","","","","[937]","./assets/img/ocean/test/1.jpg","[""ArrowDown""]","first stage test","ocean","0","{""ArrowUp,ArrowLeft"":2,""ArrowUp,ArrowRight"":11,""ArrowDown,ArrowLeft"":8,""ArrowDown,ArrowRight"":27}","true","ArrowDown","false","revaluation","1","","","",""
"html-keyboard-response","263","1107564","0.0-4.0-7.0-1.1","spark_pilot_norest","9444","4","9","Male","","","","","","","null","<div style=""font-size:60px;"">+</div>","null","fixation","","","","","","","","","","","",""
"revaluation","264","1108490","0.0-4.0-7.0-0.2","spark_pilot_norest","9444","4","9","Male","","false","","","","","[921.8000000002794]","./assets/img/ocean/test/0.jpg","[""ArrowUp""]","first stage test","ocean","0","{""ArrowUp,ArrowLeft"":2,""ArrowUp,ArrowRight"":11,""ArrowDown,ArrowLeft"":8,""ArrowDown,ArrowRight"":27}","false","ArrowUp","false","revaluation","1","","","",""
"html-keyboard-response","265","1109002","0.0-4.0-7.0-1.2","spark_pilot_norest","9444","4","9","Male","","","","","","","null","<div style=""font-size:60px;"">+</div>","null","fixation","","","","","","","","","","","",""
"revaluation","266","1109672","0.0-4.0-7.0-0.3","spark_pilot_norest","9444","4","9","Male","","false","","","","","[666.0999999996275]","./assets/img/ocean/test/3.jpg","[""ArrowDown""]","first stage test","ocean","0","{""ArrowUp,ArrowLeft"":2,""ArrowUp,ArrowRight"":11,""ArrowDown,ArrowLeft"":8,""ArrowDown,ArrowRight"":27}","true","ArrowDown","false","revaluation","1","","","",""
"html-keyboard-response","267","1110187","0.0-4.0-7.0-1.3","spark_pilot_norest","9444","4","9","Male","","","","","","","null","<div style=""font-size:60px;"">+</div>","null","fixation","","","","","","","","","","","",""
"learning-instructions","268","1123540","0.0-4.0-8.0-0.0","spark_pilot_norest","9444","4","9","Male","","","","","","","null","<p> Now you will see the animals again and can search their chests for treasure. </p>
            <p> This time, you will not see how much treasure you earned, but you will earn more bonus money for making better choices. </p>","","instructions","","","","","","","","","","","",""
"html-keyboard-response","269","1124550","0.0-4.0-9.0-0.0","spark_pilot_norest","9444","4","9","Male","","","","","","","null","<div style=""font-size:100px;color:red;"">Starting in...</div>","null","","","","","","","","","","","","",""
"html-keyboard-response","270","1125560","0.0-4.0-9.0-1.0","spark_pilot_norest","9444","4","9","Male","","","","","","","null","<div style=""font-size:200px;color:red;"">3</div>","null","","","","","","","","","","","","",""
"html-keyboard-response","271","1126575","0.0-4.0-9.0-2.0","spark_pilot_norest","9444","4","9","Male","","","","","","","null","<div style=""font-size:200px;color:red;"">2</div>","null","","","","","","","","","","","","",""
"html-keyboard-response","272","1127580","0.0-4.0-9.0-3.0","spark_pilot_norest","9444","4","9","Male","","","","","","","null","<div style=""font-size:200px;color:red;"">1</div>","null","","","","","","","","","","","","",""
"revaluation","273","1128318","0.0-4.0-10.0-0.0","spark_pilot_norest","9444","4","9","Male","","false","","","","","[734]","./assets/img/ocean/animals/octopus.jpg","[""ArrowRight""]","second stage test","ocean","0","{""ArrowUp,ArrowLeft"":2,""ArrowUp,ArrowRight"":11,""ArrowDown,ArrowLeft"":8,""ArrowDown,ArrowRight"":27}","true","ArrowUp,ArrowRight","","revaluation","1","","","",""
"html-keyboard-response","274","1128823","0.0-4.0-10.0-1.0","spark_pilot_norest","9444","4","9","Male","","","","","","","null","<div style=""font-size:60px;"">+</div>","null","fixation","","","","","","","","","","","",""
"revaluation","275","1129460","0.0-4.0-10.0-0.1","spark_pilot_norest","9444","4","9","Male","","false","","","","","[632.8999999999069]","./assets/img/ocean/animals/octopus.jpg","[""ArrowRight""]","second stage test","ocean","0","{""ArrowUp,ArrowLeft"":2,""ArrowUp,ArrowRight"":11,""ArrowDown,ArrowLeft"":8,""ArrowDown,ArrowRight"":27}","true","ArrowUp,ArrowRight","","revaluation","1","","","",""
"html-keyboard-response","276","1129968","0.0-4.0-10.0-1.1","spark_pilot_norest","9444","4","9","Male","","","","","","","null","<div style=""font-size:60px;"">+</div>","null","fixation","","","","","","","","","","","",""
"revaluation","277","1130314","0.0-4.0-10.0-0.2","spark_pilot_norest","9444","4","9","Male","","false","","","","","[342.39999999990687]","./assets/img/ocean/animals/octopus.jpg","[""ArrowRight""]","second stage test","ocean","0","{""ArrowUp,ArrowLeft"":2,""ArrowUp,ArrowRight"":11,""ArrowDown,ArrowLeft"":8,""ArrowDown,ArrowRight"":27}","true","ArrowUp,ArrowRight","","revaluation","1","","","",""
"html-keyboard-response","278","1130824","0.0-4.0-10.0-1.2","spark_pilot_norest","9444","4","9","Male","","","","","","","null","<div style=""font-size:60px;"">+</div>","null","fixation","","","","","","","","","","","",""
"revaluation","279","1131087","0.0-4.0-10.0-0.3","spark_pilot_norest","9444","4","9","Male","","false","","","","","[259.6999999997206]","./assets/img/ocean/animals/octopus.jpg","[""ArrowRight""]","second stage test","ocean","0","{""ArrowUp,ArrowLeft"":2,""ArrowUp,ArrowRight"":11,""ArrowDown,ArrowLeft"":8,""ArrowDown,ArrowRight"":27}","true","ArrowUp,ArrowRight","","revaluation","1","","","",""
"html-keyboard-response","280","1131601","0.0-4.0-10.0-1.3","spark_pilot_norest","9444","4","9","Male","","","","","","","null","<div style=""font-size:60px;"">+</div>","null","fixation","","","","","","","","","","","",""
"revaluation","281","1131821","0.0-4.0-10.0-0.4","spark_pilot_norest","9444","4","9","Male","","false","","","","","[215.20000000018626]","./assets/img/ocean/animals/seahorse.jpg","[""ArrowRight""]","second stage test","ocean","0","{""ArrowUp,ArrowLeft"":2,""ArrowUp,ArrowRight"":11,""ArrowDown,ArrowLeft"":8,""ArrowDown,ArrowRight"":27}","true","ArrowDown,ArrowRight","","revaluation","1","","","",""
"html-keyboard-response","282","1132322","0.0-4.0-10.0-1.4","spark_pilot_norest","9444","4","9","Male","","","","","","","null","<div style=""font-size:60px;"">+</div>","null","fixation","","","","","","","","","","","",""
"revaluation","283","1132524","0.0-4.0-10.0-0.5","spark_pilot_norest","9444","4","9","Male","","false","","","","","[198.29999999981374]","./assets/img/ocean/animals/seahorse.jpg","[""ArrowRight""]","second stage test","ocean","0","{""ArrowUp,ArrowLeft"":2,""ArrowUp,ArrowRight"":11,""ArrowDown,ArrowLeft"":8,""ArrowDown,ArrowRight"":27}","true","ArrowDown,ArrowRight","","revaluation","1","","","",""
"html-keyboard-response","284","1133028","0.0-4.0-10.0-1.5","spark_pilot_norest","9444","4","9","Male","","","","","","","null","<div style=""font-size:60px;"">+</div>","null","fixation","","","","","","","","","","","",""
"revaluation","285","1133129","0.0-4.0-10.0-0.6","spark_pilot_norest","9444","4","9","Male","","false","","","","","[93]","./assets/img/ocean/animals/seahorse.jpg","[""ArrowRight""]","second stage test","ocean","0","{""ArrowUp,ArrowLeft"":2,""ArrowUp,ArrowRight"":11,""ArrowDown,ArrowLeft"":8,""ArrowDown,ArrowRight"":27}","true","ArrowDown,ArrowRight","","revaluation","1","","","",""
"html-keyboard-response","286","1133638","0.0-4.0-10.0-1.6","spark_pilot_norest","9444","4","9","Male","","","","","","","null","<div style=""font-size:60px;"">+</div>","null","fixation","","","","","","","","","","","",""
"revaluation","287","1133757","0.0-4.0-10.0-0.7","spark_pilot_norest","9444","4","9","Male","","false","","","","","[114.5]","./assets/img/ocean/animals/seahorse.jpg","[""ArrowRight""]","second stage test","ocean","0","{""ArrowUp,ArrowLeft"":2,""ArrowUp,ArrowRight"":11,""ArrowDown,ArrowLeft"":8,""ArrowDown,ArrowRight"":27}","true","ArrowDown,ArrowRight","","revaluation","1","","","",""
"html-keyboard-response","288","1134261","0.0-4.0-10.0-1.7","spark_pilot_norest","9444","4","9","Male","","","","","","","null","<div style=""font-size:60px;"">+</div>","null","fixation","","","","","","","","","","","",""
"learning-instructions","289","1138646","0.0-4.0-0.1-0.2","spark_pilot_norest","9444","4","9","Male","","","","","","","1590.2999999998137","<p> This time you are searching for treasure in the <b>canyon</b>.</p>","","instructions","","","","","","","","","","","",""
"learning-instructions","290","1158114","0.0-4.0-0.1-0.3","spark_pilot_norest","9444","4","9","Male","","","","","","","2219","<p><b>New</b> animals with <b>new</b> treasure chests live here. You need to explore to discover where the animal with the best treasure chest is.</p>
                    <p> Like before, once you figure out which animal has the chest with the most treasure, you should try to get to that animal and select that chest! </p>","","instructions","","","","","","","","","","","",""
"learning-instructions","291","1175813","0.0-4.0-1.1-0.1","spark_pilot_norest","9444","4","9","Male","","","","","","","2957.899999999907","<p> Remember, when you see a picture of the place, use the up and down keys to <b>find an animal</b>.</p>
            <p> When you encounter an animal, you should use the left and right keys to <b>select a treasure chest</b>.</p>
            <p> Don't forget to look out for the robber! </p>","","instructions","","","","","","","","","","","",""
"revaluation","292","1181845","0.0-4.0-2.1-0.50","spark_pilot_norest","9444","4","9","Male","","false","","","","","[1695.7999999998137,1046.5]","./assets/img/canyon/memory/1.jpg","[""ArrowDown"",""ArrowRight""]","value training","canyon","30","{""ArrowUp,ArrowLeft"":23,""ArrowUp,ArrowRight"":10,""ArrowDown,ArrowLeft"":8,""ArrowDown,ArrowRight"":30}","true","ArrowDown,ArrowRight","false","original","2","0","","",""
"html-keyboard-response","293","1182357","0.0-4.0-2.1-1.50","spark_pilot_norest","9444","4","9","Male","","","","","","","null","<div style=""font-size:60px;"">+</div>","null","fixation","","","","","","","","","1","","",""
"revaluation","294","1188375","0.0-4.0-2.1-0.51","spark_pilot_norest","9444","4","9","Male","","false","","","","","[471.59999999962747,200.5]","./assets/img/canyon/memory/21.jpg","[""ArrowDown"",""ArrowLeft""]","value training","canyon","8","{""ArrowUp,ArrowLeft"":23,""ArrowUp,ArrowRight"":10,""ArrowDown,ArrowLeft"":8,""ArrowDown,ArrowRight"":30}","false","ArrowDown,ArrowLeft","false","original","2","2","","",""
"html-keyboard-response","295","1188886","0.0-4.0-2.1-1.51","spark_pilot_norest","9444","4","9","Male","","","","","","","null","<div style=""font-size:60px;"">+</div>","null","fixation","","","","","","","","","3","","",""
"revaluation","296","1194926","0.0-4.0-2.1-0.52","spark_pilot_norest","9444","4","9","Male","","false","","","","","[482.29999999981374,768.8000000002794]","./assets/img/canyon/memory/6.jpg","[""ArrowUp"",""ArrowLeft""]","value training","canyon","23","{""ArrowUp,ArrowLeft"":23,""ArrowUp,ArrowRight"":10,""ArrowDown,ArrowLeft"":8,""ArrowDown,ArrowRight"":30}","false","ArrowUp,ArrowLeft","false","original","2","4","","",""
"html-keyboard-response","297","1195430","0.0-4.0-2.1-1.52","spark_pilot_norest","9444","4","9","Male","","","","","","","null","<div style=""font-size:60px;"">+</div>","null","fixation","","","","","","","","","5","","",""
"revaluation","298","1199448","0.0-4.0-2.1-0.53","spark_pilot_norest","9444","4","9","Male","","false","","","","","[463.59999999962747]","./assets/img/canyon/catch/2.jpg","[""ArrowUp""]","value training","canyon","-10","{""ArrowUp,ArrowLeft"":23,""ArrowUp,ArrowRight"":10,""ArrowDown,ArrowLeft"":8,""ArrowDown,ArrowRight"":30}","false","ArrowUp","true","original","2","6","","",""
"html-keyboard-response","299","1199953","0.0-4.0-2.1-1.53","spark_pilot_norest","9444","4","9","Male","","","","","","","null","<div style=""font-size:60px;"">+</div>","null","fixation","","","","","","","","","7","","",""
"revaluation","300","1206030","0.0-4.0-2.1-0.54","spark_pilot_norest","9444","4","9","Male","","false","","","","","[464.60000000009313,80.39999999990687]","./assets/img/canyon/memory/16.jpg","[""ArrowUp"",""ArrowRight""]","value training","canyon","10","{""ArrowUp,ArrowLeft"":23,""ArrowUp,ArrowRight"":10,""ArrowDown,ArrowLeft"":8,""ArrowDown,ArrowRight"":30}","false","ArrowUp,ArrowRight","false","original","2","8","","",""
"html-keyboard-response","301","1206533","0.0-4.0-2.1-1.54","spark_pilot_norest","9444","4","9","Male","","","","","","","null","<div style=""font-size:60px;"">+</div>","null","fixation","","","","","","","","","9","","",""
"revaluation","302","1212538","0.0-4.0-2.1-0.55","spark_pilot_norest","9444","4","9","Male","","false","","","","","[1169.3000000002794,1324.4000000003725]","./assets/img/canyon/memory/25.jpg","[""ArrowDown"",""ArrowRight""]","value training","canyon","30","{""ArrowUp,ArrowLeft"":23,""ArrowUp,ArrowRight"":10,""ArrowDown,ArrowLeft"":8,""ArrowDown,ArrowRight"":30}","true","ArrowDown,ArrowRight","false","original","2","10","","",""
"html-keyboard-response","303","1213040","0.0-4.0-2.1-1.55","spark_pilot_norest","9444","4","9","Male","","","","","","","null","<div style=""font-size:60px;"">+</div>","null","fixation","","","","","","","","","11","","",""
"revaluation","304","1219047","0.0-4.0-2.1-0.56","spark_pilot_norest","9444","4","9","Male","","false","","","","","[1483.0999999996275,135.80000000074506]","./assets/img/canyon/memory/7.jpg","[""ArrowDown"",""ArrowRight""]","value training","canyon","30","{""ArrowUp,ArrowLeft"":23,""ArrowUp,ArrowRight"":10,""ArrowDown,ArrowLeft"":8,""ArrowDown,ArrowRight"":30}","true","ArrowDown,ArrowRight","false","original","2","12","","",""
"html-keyboard-response","305","1219549","0.0-4.0-2.1-1.56","spark_pilot_norest","9444","4","9","Male","","","","","","","null","<div style=""font-size:60px;"">+</div>","null","fixation","","","","","","","","","13","","",""
"revaluation","306","1225555","0.0-4.0-2.1-0.57","spark_pilot_norest","9444","4","9","Male","","false","","","","","[812.5,458.59999999962747]","./assets/img/canyon/memory/10.jpg","[""ArrowDown"",""ArrowRight""]","value training","canyon","30","{""ArrowUp,ArrowLeft"":23,""ArrowUp,ArrowRight"":10,""ArrowDown,ArrowLeft"":8,""ArrowDown,ArrowRight"":30}","true","ArrowDown,ArrowRight","false","original","2","14","","",""
"html-keyboard-response","307","1226064","0.0-4.0-2.1-1.57","spark_pilot_norest","9444","4","9","Male","","","","","","","null","<div style=""font-size:60px;"">+</div>","null","fixation","","","","","","","","","15","","",""
"revaluation","308","1232078","0.0-4.0-2.1-0.58","spark_pilot_norest","9444","4","9","Male","","false","","","","","[1111.300000000745,1178.6000000005588]","./assets/img/canyon/memory/31.jpg","[""ArrowDown"",""ArrowRight""]","value training","canyon","30","{""ArrowUp,ArrowLeft"":23,""ArrowUp,ArrowRight"":10,""ArrowDown,ArrowLeft"":8,""ArrowDown,ArrowRight"":30}","true","ArrowDown,ArrowRight","false","original","2","16","","",""
"html-keyboard-response","309","1232580","0.0-4.0-2.1-1.58","spark_pilot_norest","9444","4","9","Male","","","","","","","null","<div style=""font-size:60px;"">+</div>","null","fixation","","","","","","","","","17","","",""
"revaluation","310","1236595","0.0-4.0-2.1-0.59","spark_pilot_norest","9444","4","9","Male","","false","","","","","[660.1000000005588]","./assets/img/canyon/catch/0.jpg","[""spaceBar""]","value training","canyon","0","{""ArrowUp,ArrowLeft"":23,""ArrowUp,ArrowRight"":10,""ArrowDown,ArrowLeft"":8,""ArrowDown,ArrowRight"":30}","true","spaceBar","true","original","2","18","","",""
"html-keyboard-response","311","1237097","0.0-4.0-2.1-1.59","spark_pilot_norest","9444","4","9","Male","","","","","","","null","<div style=""font-size:60px;"">+</div>","null","fixation","","","","","","","","","19","","",""
"revaluation","312","1243103","0.0-4.0-2.1-0.60","spark_pilot_norest","9444","4","9","Male","","false","","","","","[1701.4000000003725,150.29999999981374]","./assets/img/canyon/memory/25.jpg","[""ArrowDown"",""ArrowRight""]","value training","canyon","30","{""ArrowUp,ArrowLeft"":23,""ArrowUp,ArrowRight"":10,""ArrowDown,ArrowLeft"":8,""ArrowDown,ArrowRight"":30}","true","ArrowDown,ArrowRight","false","original","2","20","","",""
"html-keyboard-response","313","1243606","0.0-4.0-2.1-1.60","spark_pilot_norest","9444","4","9","Male","","","","","","","null","<div style=""font-size:60px;"">+</div>","null","fixation","","","","","","","","","21","","",""
"revaluation","314","1249613","0.0-4.0-2.1-0.61","spark_pilot_norest","9444","4","9","Male","","false","","","","","[1415.2000000001863,1295.9000000003725]","./assets/img/canyon/memory/36.jpg","[""ArrowDown"",""ArrowRight""]","value training","canyon","30","{""ArrowUp,ArrowLeft"":23,""ArrowUp,ArrowRight"":10,""ArrowDown,ArrowLeft"":8,""ArrowDown,ArrowRight"":30}","true","ArrowDown,ArrowRight","false","original","2","22","","",""
