"trial_type","trial_index","time_elapsed","internal_node_id","task_version","subject_id","assigned_condition","age","gender","success","timeout","failed_images","failed_audio","failed_video","browser_interaction","rt","stimulus","response","task_part","environment","score","rewardMap","correct","fullState","isCatch","condition","order","trial_num","key_press","ground_truth","bonus"
"pavlovia","0","1130","0.0-0.0","spark_pilot_norest","8201","4","19","Male","","","","","","","","","","","","","","","","","","","","","",""
"preload","1","11293","0.0-1.0","spark_pilot_norest","8201","4","19","Male","true","false","[]","[]","[]","[{""event"":""fullscreenenter"",""trial"":2,""time"":14258}]","","","","","","","","","","","","","","","",""
"fullscreen","2","15243","0.0-2.0","spark_pilot_norest","8201","4","19","Male","true","","","","","","","","","","","","","","","","","","","","",""
"audio-button-response","3","16918","0.0-3.0-0.0-0.0","spark_pilot_norest","8201","4","19","Male","","","","","","","1173","./assets/audio/audiotest/turtle.mp3","2","audio_test","","","","","","","","","","","",""
"learning-instructions","4","25025","0.0-3.0-1.0-0.0","spark_pilot_norest","8201","4","19","Male","","","","","","","1136.300000000745","<p> Welcome! Please remember to stay in fullscreen mode and don't click away from the experiment. </p>","","instructions","","","","","","","","","","","",""
"learning-instructions","5","35050","0.0-3.0-1.0-0.1","spark_pilot_norest","8201","4","19","Male","","","","","","","1624.7999999988824","<p> Today you will be playing a game to earn treasure. </p>
            <p> At the end of the experiment, you will earn a bonus based on how much treasure you find. </p>
            <img src='./assets/img/instructions/treasure.jpg' class='instructions-image'>","","instructions","","","","","","","","","","","",""
"learning-instructions","6","43881","0.0-3.0-1.0-0.2","spark_pilot_norest","8201","4","19","Male","","","","","","","578.1999999992549","<p> Animals have hidden treasure in treasure chests. </p>
            <p> You need to first find an animal and then choose which of their treasure chests to search. </p>
            <img src='./assets/img/space/animals/cat.jpg' class='instructions-image'>","","instructions","","","","","","","","","","","",""
"learning-instructions","7","58275","0.0-3.0-1.0-0.3","spark_pilot_norest","8201","4","19","Male","","","","","","","1254.7999999988824","<p> In each round, you will search for treasure in a different place. In the real game, there will be two rounds. </p>
            <p> You will begin with a separate, practice round where you will search for treasure in outer space. </p>
            <img src='./assets/img/space/0.jpg' class='instructions-image'>","","instructions","","","","","","","","","","","",""
"learning-instructions","8","70849","0.0-3.0-1.0-0.4","spark_pilot_norest","8201","4","19","Male","","","","","","","1178.5","<p> On every turn, you will see a picture of the place that you are in, but the specific image may be different each time. </p>
            <p> For example, both of these images mean you are in outer space. </p>
            <img src='./assets/img/instructions/outerspace.jpg' class='instructions-image'>","","instructions","","","","","","","","","","","",""
"learning-instructions","9","80427","0.0-3.0-1.0-0.5","spark_pilot_norest","8201","4","19","Male","","","","","","","1752.5999999996275","<p> You need to decide which direction to travel in. </p>
            <p> You can choose between going <b>up or down</b> by using the arrow keys. </p>
            <img src='./assets/img/instructions/updown.jpg' class='instructions-image'>","","instructions","","","","","","","","","","","",""
"learning-instructions","10","89961","0.0-3.0-1.0-0.6","spark_pilot_norest","8201","4","19","Male","","","","","","","726.4000000003725","<p> You will have <b>2 seconds</b> to make your choice. </p>
            <p> If you do not make a choice within 2 seconds, you will not find an animal or earn treasure. </p>
            <img src='./assets/img/instructions/2seconds.jpg' class='instructions-image'>","","instructions","","","","","","","","","","","",""
"learning-instructions","11","97876","0.0-3.0-1.0-0.7","spark_pilot_norest","8201","4","19","Male","","","","","","","888","<p> Let’s try practicing that now! </p>
            <p> When you see a picture of the place you are in, press the <b>up</b> key to travel up. </p>
            <img src='./assets/img/instructions/pressUp.jpg' class='instructions-image'>","","instructions","","","","","","","","","","","",""
"revaluation","12","101897","0.0-3.0-2.0-0.0","spark_pilot_norest","8201","4","19","Male","","false","","","","","[780.1999999992549]","./assets/img/space/0.jpg","[""ArrowUp""]","first stage practice","space","0","null","null","ArrowUp","false","","","","","",""
"html-keyboard-response","13","102398","0.0-3.0-2.0-1.0","spark_pilot_norest","8201","4","19","Male","","","","","","","null","<div style=""font-size:60px;"">+</div>","null","fixation","","","","","","","","","","","",""
"revaluation","14","106417","0.0-3.0-2.0-0.1","spark_pilot_norest","8201","4","19","Male","","true","","","","","[]","./assets/img/space/1.jpg","[]","first stage practice","space","-5","null","null","","false","","","","","",""
"html-keyboard-response","15","106921","0.0-3.0-2.0-1.1","spark_pilot_norest","8201","4","19","Male","","","","","","","null","<div style=""font-size:60px;"">+</div>","null","fixation","","","","","","","","","","","",""
"revaluation","16","110939","0.0-3.0-2.0-0.2","spark_pilot_norest","8201","4","19","Male","","false","","","","","[614.9000000003725]","./assets/img/space/2.jpg","[""ArrowUp""]","first stage practice","space","0","null","null","ArrowUp","false","","","","","",""
"html-keyboard-response","17","111446","0.0-3.0-2.0-1.2","spark_pilot_norest","8201","4","19","Male","","","","","","","null","<div style=""font-size:60px;"">+</div>","null","fixation","","","","","","","","","","","",""
"learning-instructions","18","116581","0.0-3.0-3.0-0.0","spark_pilot_norest","8201","4","19","Male","","","","","","","445.40000000037253","<p> Great job! Now try pressing the <b>down</b> key to travel down. </p>
            <img src='./assets/img/instructions/pressDown.jpg' class='instructions-image'>","","instructions","","","","","","","","","","","",""
"revaluation","19","120598","0.0-3.0-4.0-0.0","spark_pilot_norest","8201","4","19","Male","","false","","","","","[544.8999999985099]","./assets/img/space/3.jpg","[""ArrowDown""]","first stage practice","space","0","null","null","ArrowDown","false","","","","","",""
"html-keyboard-response","20","121116","0.0-3.0-4.0-1.0","spark_pilot_norest","8201","4","19","Male","","","","","","","null","<div style=""font-size:60px;"">+</div>","null","fixation","","","","","","","","","","","",""
"revaluation","21","125142","0.0-3.0-4.0-0.1","spark_pilot_norest","8201","4","19","Male","","false","","","","","[427]","./assets/img/space/4.jpg","[""ArrowDown""]","first stage practice","space","0","null","null","ArrowDown","false","","","","","",""
"html-keyboard-response","22","125643","0.0-3.0-4.0-1.1","spark_pilot_norest","8201","4","19","Male","","","","","","","null","<div style=""font-size:60px;"">+</div>","null","fixation","","","","","","","","","","","",""
"revaluation","23","129655","0.0-3.0-4.0-0.2","spark_pilot_norest","8201","4","19","Male","","false","","","","","[375.69999999925494]","./assets/img/space/5.jpg","[""ArrowDown""]","first stage practice","space","0","null","null","ArrowDown","false","","","","","",""
"html-keyboard-response","24","130161","0.0-3.0-4.0-1.2","spark_pilot_norest","8201","4","19","Male","","","","","","","null","<div style=""font-size:60px;"">+</div>","null","fixation","","","","","","","","","","","",""
"learning-instructions","25","142287","0.0-3.0-5.0-0.0","spark_pilot_norest","8201","4","19","Male","","","","","","","2289.60000000149","<p> The animals don’t move, so the animal in the upper part of a place will stay in the upper part of a place, and the animal in the lower part of a place will stay in the lower part of a place. </p>","","instructions","","","","","","","","","","","",""
"learning-instructions","26","152767","0.0-3.0-5.0-0.1","spark_pilot_norest","8201","4","19","Male","","","","","","","1354.5","<p> Each animal has two treasure chests for you to choose from. </p>
            <p> The amount of treasure in each chest can range from <b> 0 to 40 pieces.</b></p>","","instructions","","","","","","","","","","","",""
"learning-instructions","27","165715","0.0-3.0-5.0-0.2","spark_pilot_norest","8201","4","19","Male","","","","","","","1769.8999999985099","<p> You should decide which chest to search for treasure by using the <b>left</b> and <b>right</b> arrow keys. </p>
            <p><b> Pay attention to which animal is on the screen, as the animals have different treasure chests. </b></p>
            <img src='./assets/img/instructions/leftright.jpg' class='instructions-image'>","","instructions","","","","","","","","","","","",""
"learning-instructions","28","173098","0.0-3.0-5.0-0.3","spark_pilot_norest","8201","4","19","Male","","","","","","","1023.7999999988824","<p> Let’s try practicing that now. </p>
            <p> When you see an animal, choose which chest to search for treasure. </p>
            <img src='./assets/img/instructions/chooseChest.jpg' class='instructions-image'>","","instructions","","","","","","","","","","","",""
"revaluation","29","177126","0.0-3.0-6.0-0.0","spark_pilot_norest","8201","4","19","Male","","false","","","","","[695.4000000003725]","./assets/img/space/animals/rabbit.jpg","[""ArrowRight""]","second stage practice","space","23","{""ArrowUp,ArrowLeft"":3,""ArrowUp,ArrowRight"":36,""ArrowDown,ArrowLeft"":15,""ArrowDown,ArrowRight"":23}","true","ArrowDown,ArrowRight","","","","","","",""
"html-keyboard-response","30","177630","0.0-3.0-6.0-1.0","spark_pilot_norest","8201","4","19","Male","","","","","","","null","<div style=""font-size:60px;"">+</div>","null","fixation","","","","","","","","","","","",""
"revaluation","31","181641","0.0-3.0-6.0-0.1","spark_pilot_norest","8201","4","19","Male","","false","","","","","[288.69999999925494]","./assets/img/space/animals/cat.jpg","[""ArrowLeft""]","second stage practice","space","3","{""ArrowUp,ArrowLeft"":3,""ArrowUp,ArrowRight"":36,""ArrowDown,ArrowLeft"":15,""ArrowDown,ArrowRight"":23}","false","ArrowUp,ArrowLeft","","","","","","",""
"html-keyboard-response","32","182148","0.0-3.0-6.0-1.1","spark_pilot_norest","8201","4","19","Male","","","","","","","null","<div style=""font-size:60px;"">+</div>","null","fixation","","","","","","","","","","","",""
"revaluation","33","186162","0.0-3.0-6.0-0.2","spark_pilot_norest","8201","4","19","Male","","false","","","","","[233.5]","./assets/img/space/animals/rabbit.jpg","[""ArrowRight""]","second stage practice","space","23","{""ArrowUp,ArrowLeft"":3,""ArrowUp,ArrowRight"":36,""ArrowDown,ArrowLeft"":15,""ArrowDown,ArrowRight"":23}","true","ArrowDown,ArrowRight","","","","","","",""
"html-keyboard-response","34","186665","0.0-3.0-6.0-1.2","spark_pilot_norest","8201","4","19","Male","","","","","","","null","<div style=""font-size:60px;"">+</div>","null","fixation","","","","","","","","","","","",""
"revaluation","35","190684","0.0-3.0-6.0-0.3","spark_pilot_norest","8201","4","19","Male","","false","","","","","[18.199999999254942]","./assets/img/space/animals/cat.jpg","[""ArrowLeft""]","second stage practice","space","3","{""ArrowUp,ArrowLeft"":3,""ArrowUp,ArrowRight"":36,""ArrowDown,ArrowLeft"":15,""ArrowDown,ArrowRight"":23}","false","ArrowUp,ArrowLeft","","","","","","",""
"html-keyboard-response","36","191188","0.0-3.0-6.0-1.3","spark_pilot_norest","8201","4","19","Male","","","","","","","null","<div style=""font-size:60px;"">+</div>","null","fixation","","","","","","","","","","","",""
"learning-instructions","37","208896","0.0-3.0-7.0-0.0","spark_pilot_norest","8201","4","19","Male","","","","","","","906.7999999988824","<p> Great job. Now let’s try putting it together. </p>
            <p> On each turn, you will first see a picture to remind you of the place you are in, and you need to choose whether to go up or down. </p>
            <p> Then you will see an animal and choose which of its chests to search for treasure. </p>","","instructions","","","","","","","","","","","",""
"learning-instructions","38","219238","0.0-3.0-7.0-0.1","spark_pilot_norest","8201","4","19","Male","","","","","","","2096.699999999255","<p> When you choose whether to go up or down, try to go to the animal with the chest with the most treasure. </p>
            <p> Try practicing that now! </p>","","instructions","","","","","","","","","","","",""
"revaluation","39","225273","0.0-3.0-8.0-0.0","spark_pilot_norest","8201","4","19","Male","","false","","","","","[725.9000000003725,467.90000000037253]","./assets/img/space/6.jpg","[""ArrowUp"",""ArrowRight""]","full practice","space","36","{""ArrowUp,ArrowLeft"":3,""ArrowUp,ArrowRight"":36,""ArrowDown,ArrowLeft"":15,""ArrowDown,ArrowRight"":23}","true","ArrowUp,ArrowRight","false","","","","","",""
"html-keyboard-response","40","225790","0.0-3.0-8.0-1.0","spark_pilot_norest","8201","4","19","Male","","","","","","","null","<div style=""font-size:60px;"">+</div>","null","fixation","","","","","","","","","","","",""
"revaluation","41","231827","0.0-3.0-8.0-0.1","spark_pilot_norest","8201","4","19","Male","","false","","","","","[325.5,388.09999999962747]","./assets/img/space/7.jpg","[""ArrowUp"",""ArrowRight""]","full practice","space","36","{""ArrowUp,ArrowLeft"":3,""ArrowUp,ArrowRight"":36,""ArrowDown,ArrowLeft"":15,""ArrowDown,ArrowRight"":23}","true","ArrowUp,ArrowRight","false","","","","","",""
"html-keyboard-response","42","232329","0.0-3.0-8.0-1.1","spark_pilot_norest","8201","4","19","Male","","","","","","","null","<div style=""font-size:60px;"">+</div>","null","fixation","","","","","","","","","","","",""
"revaluation","43","238367","0.0-3.0-8.0-0.2","spark_pilot_norest","8201","4","19","Male","","false","","","","","[318.09999999962747,286.19999999925494]","./assets/img/space/8.jpg","[""ArrowUp"",""ArrowRight""]","full practice","space","36","{""ArrowUp,ArrowLeft"":3,""ArrowUp,ArrowRight"":36,""ArrowDown,ArrowLeft"":15,""ArrowDown,ArrowRight"":23}","true","ArrowUp,ArrowRight","false","","","","","",""
"html-keyboard-response","44","238874","0.0-3.0-8.0-1.2","spark_pilot_norest","8201","4","19","Male","","","","","","","null","<div style=""font-size:60px;"">+</div>","null","fixation","","","","","","","","","","","",""
"revaluation","45","244912","0.0-3.0-8.0-0.3","spark_pilot_norest","8201","4","19","Male","","false","","","","","[268.2000000011176,200.69999999925494]","./assets/img/space/9.jpg","[""ArrowUp"",""ArrowRight""]","full practice","space","36","{""ArrowUp,ArrowLeft"":3,""ArrowUp,ArrowRight"":36,""ArrowDown,ArrowLeft"":15,""ArrowDown,ArrowRight"":23}","true","ArrowUp,ArrowRight","false","","","","","",""
"html-keyboard-response","46","245412","0.0-3.0-8.0-1.3","spark_pilot_norest","8201","4","19","Male","","","","","","","null","<div style=""font-size:60px;"">+</div>","null","fixation","","","","","","","","","","","",""
"revaluation","47","251427","0.0-3.0-8.0-0.4","spark_pilot_norest","8201","4","19","Male","","false","","","","","[341.59999999962747,271.19999999925494]","./assets/img/space/10.jpg","[""ArrowUp"",""ArrowRight""]","full practice","space","36","{""ArrowUp,ArrowLeft"":3,""ArrowUp,ArrowRight"":36,""ArrowDown,ArrowLeft"":15,""ArrowDown,ArrowRight"":23}","true","ArrowUp,ArrowRight","false","","","","","",""
"html-keyboard-response","48","251928","0.0-3.0-8.0-1.4","spark_pilot_norest","8201","4","19","Male","","","","","","","null","<div style=""font-size:60px;"">+</div>","null","fixation","","","","","","","","","","","",""
"learning-instructions","49","267461","0.0-3.0-9.0-0.0","spark_pilot_norest","8201","4","19","Male","","","","","","","5237.199999999255","<p> One last thing: sometimes, you will see a robber. The robber can be anywhere in the picture. </p>
            <p> If you do not stop them, you will lose treasure. </p>
            <img src='./assets/img/instructions/robber.jpg' class='instructions-image'>","","instructions","","","","","","","","","","","",""
"learning-instructions","50","275683","0.0-3.0-9.0-0.1","spark_pilot_norest","8201","4","19","Male","","","","","","","1064.9000000003725","<p> If you see the robber, you should <b>press the space bar</b> rather than using the arrow keys. </p>
            <p> Try practicing that now! </p>","","instructions","","","","","","","","","","","",""
"revaluation","51","279705","0.0-3.0-10.0-0.0","spark_pilot_norest","8201","4","19","Male","","true","","","","","[]","./assets/img/space/catch/0.jpg","[]","catch practice","space","-5","{""ArrowUp,ArrowLeft"":3,""ArrowUp,ArrowRight"":36,""ArrowDown,ArrowLeft"":15,""ArrowDown,ArrowRight"":23}","false","","true","","","","","",""
"html-keyboard-response","52","280211","0.0-3.0-10.0-1.0","spark_pilot_norest","8201","4","19","Male","","","","","","","null","<div style=""font-size:60px;"">+</div>","null","fixation","","","","","","","","","","","",""
"revaluation","53","284233","0.0-3.0-10.0-0.1","spark_pilot_norest","8201","4","19","Male","","false","","","","","[564.4000000003725]","./assets/img/space/catch/1.jpg","[""spaceBar""]","catch practice","space","0","{""ArrowUp,ArrowLeft"":3,""ArrowUp,ArrowRight"":36,""ArrowDown,ArrowLeft"":15,""ArrowDown,ArrowRight"":23}","true","spaceBar","true","","","","","",""
"html-keyboard-response","54","284750","0.0-3.0-10.0-1.1","spark_pilot_norest","8201","4","19","Male","","","","","","","null","<div style=""font-size:60px;"">+</div>","null","fixation","","","","","","","","","","","",""
"revaluation","55","288761","0.0-3.0-10.0-0.2","spark_pilot_norest","8201","4","19","Male","","false","","","","","[610.0999999996275]","./assets/img/space/catch/2.jpg","[""spaceBar""]","catch practice","space","0","{""ArrowUp,ArrowLeft"":3,""ArrowUp,ArrowRight"":36,""ArrowDown,ArrowLeft"":15,""ArrowDown,ArrowRight"":23}","true","spaceBar","true","","","","","",""
"html-keyboard-response","56","289276","0.0-3.0-10.0-1.2","spark_pilot_norest","8201","4","19","Male","","","","","","","null","<div style=""font-size:60px;"">+</div>","null","fixation","","","","","","","","","","","",""
"learning-instructions","57","296324","0.0-3.0-11.0-0.0-0.0","spark_pilot_norest","8201","4","19","Male","","","","","","","1800.699999999255","<p> Now, you will practice a shortened version of the game to get a sense of how it all fits together. </p>","","instructions","","","","","","","","","","","",""
"learning-instructions","58","300262","0.0-3.0-11.0-0.0-0.1","spark_pilot_norest","8201","4","19","Male","","","","","","","757.5999999996275","<p>This time you are searching for treasure in outer space.</p>","","instructions","","","","","","","","","","","",""
"learning-instructions","59","316298","0.0-3.0-11.0-1.0-0.0","spark_pilot_norest","8201","4","19","Male","","","","","","","1284.5","<p> Remember, when you see a picture of the place, use the up and down keys to <b>find an animal</b>.</p>
            <p> When you encounter an animal, you should use the left and right keys to <b>select a treasure chest</b>.</p>
            <p> Don't forget to look out for the robber! </p>","","instructions","","","","","","","","","","","",""
"revaluation","60","322330","0.0-3.0-11.0-2.0-0.0","spark_pilot_norest","8201","4","19","Male","","false","","","","","[1010.6000000014901,766.1999999992549]","./assets/img/space/11.jpg","[""ArrowUp"",""ArrowRight""]","practice block","space","36","{""ArrowUp,ArrowLeft"":3,""ArrowUp,ArrowRight"":36,""ArrowDown,ArrowLeft"":15,""ArrowDown,ArrowRight"":23}","true","ArrowUp,ArrowRight","false","","","","","",""
"html-keyboard-response","61","322848","0.0-3.0-11.0-2.0-1.0","spark_pilot_norest","8201","4","19","Male","","","","","","","null","<div style=""font-size:60px;"">+</div>","null","fixation","","","","","","","","","","","",""
"revaluation","62","328869","0.0-3.0-11.0-2.0-0.1","spark_pilot_norest","8201","4","19","Male","","false","","","","","[656.0999999996275,936.8999999985099]","./assets/img/space/12.jpg","[""ArrowUp"",""ArrowRight""]","practice block","space","36","{""ArrowUp,ArrowLeft"":3,""ArrowUp,ArrowRight"":36,""ArrowDown,ArrowLeft"":15,""ArrowDown,ArrowRight"":23}","true","ArrowUp,ArrowRight","false","","","","","",""
"html-keyboard-response","63","329373","0.0-3.0-11.0-2.0-1.1","spark_pilot_norest","8201","4","19","Male","","","","","","","null","<div style=""font-size:60px;"">+</div>","null","fixation","","","","","","","","","","","",""
"revaluation","64","335421","0.0-3.0-11.0-2.0-0.2","spark_pilot_norest","8201","4","19","Male","","false","","","","","[603.9000000003725,550.9000000003725]","./assets/img/space/13.jpg","[""ArrowUp"",""ArrowRight""]","practice block","space","36","{""ArrowUp,ArrowLeft"":3,""ArrowUp,ArrowRight"":36,""ArrowDown,ArrowLeft"":15,""ArrowDown,ArrowRight"":23}","true","ArrowUp,ArrowRight","false","","","","","",""
"html-keyboard-response","65","335936","0.0-3.0-11.0-2.0-1.2","spark_pilot_norest","8201","4","19","Male","","","","","","","null","<div style=""font-size:60px;"">+</div>","null","fixation","","","","","","","","","","","",""
"revaluation","66","341952","0.0-3.0-11.0-2.0-0.3","spark_pilot_norest","8201","4","19","Male","","false","","","","","[573.5,423.59999999962747]","./assets/img/space/14.jpg","[""ArrowUp"",""ArrowRight""]","practice block","space","36","{""ArrowUp,ArrowLeft"":3,""ArrowUp,ArrowRight"":36,""ArrowDown,ArrowLeft"":15,""ArrowDown,ArrowRight"":23}","true","ArrowUp,ArrowRight","false","","","","","",""
"html-keyboard-response","67","342469","0.0-3.0-11.0-2.0-1.3","spark_pilot_norest","8201","4","19","Male","","","","","","","null","<div style=""font-size:60px;"">+</div>","null","fixation","","","","","","","","","","","",""
"revaluation","68","348476","0.0-3.0-11.0-2.0-0.4","spark_pilot_norest","8201","4","19","Male","","false","","","","","[671.7999999988824,598.2000000011176]","./assets/img/space/11.jpg","[""ArrowUp"",""ArrowRight""]","practice block","space","36","{""ArrowUp,ArrowLeft"":3,""ArrowUp,ArrowRight"":36,""ArrowDown,ArrowLeft"":15,""ArrowDown,ArrowRight"":23}","true","ArrowUp,ArrowRight","false","","","","","",""
"html-keyboard-response","69","348991","0.0-3.0-11.0-2.0-1.4","spark_pilot_norest","8201","4","19","Male","","","","","","","null","<div style=""font-size:60px;"">+</div>","null","fixation","","","","","","","","","","","",""
"revaluation","70","354997","0.0-3.0-11.0-2.0-0.5","spark_pilot_norest","8201","4","19","Male","","false","","","","","[753.3999999985099,589.5]","./assets/img/space/12.jpg","[""ArrowUp"",""ArrowRight""]","practice block","space","36","{""ArrowUp,ArrowLeft"":3,""ArrowUp,ArrowRight"":36,""ArrowDown,ArrowLeft"":15,""ArrowDown,ArrowRight"":23}","true","ArrowUp,ArrowRight","false","","","","","",""
"html-keyboard-response","71","355498","0.0-3.0-11.0-2.0-1.5","spark_pilot_norest","8201","4","19","Male","","","","","","","null","<div style=""font-size:60px;"">+</div>","null","fixation","","","","","","","","","","","",""
"revaluation","72","361503","0.0-3.0-11.0-2.0-0.6","spark_pilot_norest","8201","4","19","Male","","false","","","","","[602.6999999992549,287.59999999962747]","./assets/img/space/13.jpg","[""ArrowUp"",""ArrowRight""]","practice block","space","36","{""ArrowUp,ArrowLeft"":3,""ArrowUp,ArrowRight"":36,""ArrowDown,ArrowLeft"":15,""ArrowDown,ArrowRight"":23}","true","ArrowUp,ArrowRight","false","","","","","",""
"html-keyboard-response","73","362004","0.0-3.0-11.0-2.0-1.6","spark_pilot_norest","8201","4","19","Male","","","","","","","null","<div style=""font-size:60px;"">+</div>","null","fixation","","","","","","","","","","","",""
"revaluation","74","368012","0.0-3.0-11.0-2.0-0.7","spark_pilot_norest","8201","4","19","Male","","false","","","","","[596.9000000003725,340.69999999925494]","./assets/img/space/14.jpg","[""ArrowUp"",""ArrowRight""]","practice block","space","36","{""ArrowUp,ArrowLeft"":3,""ArrowUp,ArrowRight"":36,""ArrowDown,ArrowLeft"":15,""ArrowDown,ArrowRight"":23}","true","ArrowUp,ArrowRight","false","","","","","",""
"html-keyboard-response","75","368514","0.0-3.0-11.0-2.0-1.7","spark_pilot_norest","8201","4","19","Male","","","","","","","null","<div style=""font-size:60px;"">+</div>","null","fixation","","","","","","","","","","","",""
"revaluation","76","372518","0.0-3.0-11.0-2.0-0.8","spark_pilot_norest","8201","4","19","Male","","false","","","","","[709.4000000003725]","./assets/img/space/catch/3.jpg","[""spaceBar""]","practice block","space","0","{""ArrowUp,ArrowLeft"":3,""ArrowUp,ArrowRight"":36,""ArrowDown,ArrowLeft"":15,""ArrowDown,ArrowRight"":23}","true","spaceBar","true","","","","","",""
"html-keyboard-response","77","373020","0.0-3.0-11.0-2.0-1.8","spark_pilot_norest","8201","4","19","Male","","","","","","","null","<div style=""font-size:60px;"">+</div>","null","fixation","","","","","","","","","","","",""
"learning-instructions","78","388080","0.0-3.0-11.0-3.0-0.0","spark_pilot_norest","8201","4","19","Male","","","","","","","1610.199999999255","<p> Now, you will travel with a friend who will choose whether you go up or down first. </p>
            <p> On these turns, you will just see the animal that they found. You will still get to choose which chest to search for treasure.</p>","","instructions","","","","","","","","","","","",""
"revaluation","79","392106","0.0-3.0-11.0-4.0-0.0","spark_pilot_norest","8201","4","19","Male","","false","","","","","[851.4000000003725]","./assets/img/space/animals/rabbit.jpg","[""ArrowRight""]","practice block","space","23","{""ArrowUp,ArrowLeft"":3,""ArrowUp,ArrowRight"":36,""ArrowDown,ArrowLeft"":15,""ArrowDown,ArrowRight"":23}","true","ArrowDown,ArrowRight","","","","","","",""
"html-keyboard-response","80","392607","0.0-3.0-11.0-4.0-1.0","spark_pilot_norest","8201","4","19","Male","","","","","","","null","<div style=""font-size:60px;"">+</div>","null","fixation","","","","","","","","","","","",""
"revaluation","81","396632","0.0-3.0-11.0-4.0-0.1","spark_pilot_norest","8201","4","19","Male","","false","","","","","[854.7999999988824]","./assets/img/space/animals/cat.jpg","[""ArrowRight""]","practice block","space","36","{""ArrowUp,ArrowLeft"":3,""ArrowUp,ArrowRight"":36,""ArrowDown,ArrowLeft"":15,""ArrowDown,ArrowRight"":23}","true","ArrowUp,ArrowRight","","","","","","",""
"html-keyboard-response","82","397140","0.0-3.0-11.0-4.0-1.1","spark_pilot_norest","8201","4","19","Male","","","","","","","null","<div style=""font-size:60px;"">+</div>","null","fixation","","","","","","","","","","","",""
"revaluation","83","401162","0.0-3.0-11.0-4.0-0.2","spark_pilot_norest","8201","4","19","Male","","false","","","","","[417.40000000037253]","./assets/img/space/animals/rabbit.jpg","[""ArrowRight""]","practice block","space","23","{""ArrowUp,ArrowLeft"":3,""ArrowUp,ArrowRight"":36,""ArrowDown,ArrowLeft"":15,""ArrowDown,ArrowRight"":23}","true","ArrowDown,ArrowRight","","","","","","",""
"html-keyboard-response","84","401666","0.0-3.0-11.0-4.0-1.2","spark_pilot_norest","8201","4","19","Male","","","","","","","null","<div style=""font-size:60px;"">+</div>","null","fixation","","","","","","","","","","","",""
"revaluation","85","405674","0.0-3.0-11.0-4.0-0.3","spark_pilot_norest","8201","4","19","Male","","false","","","","","[347]","./assets/img/space/animals/cat.jpg","[""ArrowRight""]","practice block","space","36","{""ArrowUp,ArrowLeft"":3,""ArrowUp,ArrowRight"":36,""ArrowDown,ArrowLeft"":15,""ArrowDown,ArrowRight"":23}","true","ArrowUp,ArrowRight","","","","","","",""
"html-keyboard-response","86","406181","0.0-3.0-11.0-4.0-1.3","spark_pilot_norest","8201","4","19","Male","","","","","","","null","<div style=""font-size:60px;"">+</div>","null","fixation","","","","","","","","","","","",""
"learning-instructions","87","414298","0.0-3.0-11.0-5.0-0.0","spark_pilot_norest","8201","4","19","Male","","","","","","","null","<p> You have almost finished this part of the game! </p>
            <p> We are going to ask you to make a few more choices. </p>","","instructions","","","","","","","","","","","",""
"learning-instructions","88","430303","0.0-3.0-11.0-5.0-0.1","spark_pilot_norest","8201","4","19","Male","","","","","","","null","<p> First, you need to decide whether to go up or down. When you see each picture, use the arrow keys to make your choice. </p>
            <p><b>You will not see which animal you found, but try to get to the one that will give you the most treasure.</b></p>","","instructions","","","","","","","","","","","",""
"html-keyboard-response","89","431306","0.0-3.0-11.0-6.0-0.0","spark_pilot_norest","8201","4","19","Male","","","","","","","null","<div style=""font-size:100px;color:red;"">Starting in...</div>","null","","","","","","","","","","","","",""
"html-keyboard-response","90","432309","0.0-3.0-11.0-6.0-1.0","spark_pilot_norest","8201","4","19","Male","","","","","","","null","<div style=""font-size:200px;color:red;"">3</div>","null","","","","","","","","","","","","",""
"html-keyboard-response","91","433312","0.0-3.0-11.0-6.0-2.0","spark_pilot_norest","8201","4","19","Male","","","","","","","null","<div style=""font-size:200px;color:red;"">2</div>","null","","","","","","","","","","","","",""
"html-keyboard-response","92","434314","0.0-3.0-11.0-6.0-3.0","spark_pilot_norest","8201","4","19","Male","","","","","","","null","<div style=""font-size:200px;color:red;"">1</div>","null","","","","","","","","","","","","",""
"revaluation","93","434794","0.0-3.0-11.0-7.0","spark_pilot_norest","8201","4","19","Male","","false","","","","","[477.40000000037253]","./assets/img/space/15.jpg","[""ArrowUp""]","practice block","space","0","{""ArrowUp,ArrowLeft"":3,""ArrowUp,ArrowRight"":36,""ArrowDown,ArrowLeft"":15,""ArrowDown,ArrowRight"":23}","true","ArrowUp","false","","","","","",""
"html-keyboard-response","94","435296","0.0-3.0-11.0-8.0","spark_pilot_norest","8201","4","19","Male","","","","","","","null","<div style=""font-size:60px;"">+</div>","null","fixation","","","","","","","","","","","",""
"learning-instructions","95","448667","0.0-3.0-11.0-9.0-0.0","spark_pilot_norest","8201","4","19","Male","","","","","","","null","<p> Now you will see the animals again and can search their chests for treasure. </p>
            <p> This time, you will not see how much treasure you earned, but you will earn more bonus money for making better choices. </p>","","instructions","","","","","","","","","","","",""
"html-keyboard-response","96","449680","0.0-3.0-11.0-10.0-0.0","spark_pilot_norest","8201","4","19","Male","","","","","","","null","<div style=""font-size:100px;color:red;"">Starting in...</div>","null","","","","","","","","","","","","",""
"html-keyboard-response","97","450690","0.0-3.0-11.0-10.0-1.0","spark_pilot_norest","8201","4","19","Male","","","","","","","null","<div style=""font-size:200px;color:red;"">3</div>","null","","","","","","","","","","","","",""
"html-keyboard-response","98","451701","0.0-3.0-11.0-10.0-2.0","spark_pilot_norest","8201","4","19","Male","","","","","","","null","<div style=""font-size:200px;color:red;"">2</div>","null","","","","","","","","","","","","",""
"html-keyboard-response","99","452709","0.0-3.0-11.0-10.0-3.0","spark_pilot_norest","8201","4","19","Male","","","","","","","null","<div style=""font-size:200px;color:red;"">1</div>","null","","","","","","","","","","","","",""
"revaluation","100","453216","0.0-3.0-11.0-11.0-0.0","spark_pilot_norest","8201","4","19","Male","","false","","","","","[505.90000000037253]","./assets/img/space/animals/cat.jpg","[""ArrowRight""]","practice block","space","0","{""ArrowUp,ArrowLeft"":3,""ArrowUp,ArrowRight"":36,""ArrowDown,ArrowLeft"":15,""ArrowDown,ArrowRight"":23}","true","ArrowUp,ArrowRight","","","","","","",""
"html-keyboard-response","101","453731","0.0-3.0-11.0-11.0-1.0","spark_pilot_norest","8201","4","19","Male","","","","","","","null","<div style=""font-size:60px;"">+</div>","null","fixation","","","","","","","","","","","",""
"revaluation","102","454287","0.0-3.0-11.0-11.0-0.1","spark_pilot_norest","8201","4","19","Male","","false","","","","","[553.8000000007451]","./assets/img/space/animals/rabbit.jpg","[""ArrowRight""]","practice block","space","0","{""ArrowUp,ArrowLeft"":3,""ArrowUp,ArrowRight"":36,""ArrowDown,ArrowLeft"":15,""ArrowDown,ArrowRight"":23}","true","ArrowDown,ArrowRight","","","","","","",""
"html-keyboard-response","103","454798","0.0-3.0-11.0-11.0-1.1","spark_pilot_norest","8201","4","19","Male","","","","","","","null","<div style=""font-size:60px;"">+</div>","null","fixation","","","","","","","","","","","",""
"learning-instructions","104","460458","0.0-3.0-12.0-0.0","spark_pilot_norest","8201","4","19","Male","","","","","","","1079.199999999255","<p> Before you start, we're going to ask you a few questions about how the game works. </p>","","instructions","","","","","","","","","","","",""
"comp-q","105","467446","0.0-3.0-13.0-0.0-0.0","spark_pilot_norest","8201","4","19","Male","","","","","","","1410.5","<p> <b> True or False? </b> </p>
            <p> There can be 50 pieces of treasure in a given animal's chest. </p>","1","comp_question","","","","true","","","","","","","",""
"comp-q","106","475473","0.0-3.0-13.0-0.0-1.0","spark_pilot_norest","8201","4","19","Male","","","","","","","1384.5999999996275","<p> <b> That's right! </b> The amount of treasure in each chest can range from 0 to 40 pieces. </p>","0","comp_answer","","","","","","","","","","","",""
"comp-q","107","484446","0.0-3.0-13.0-0.1-0.1","spark_pilot_norest","8201","4","19","Male","","","","","","","1867.0999999996275","<p> <b> True or False? </b> </p><p> In this game, all animals have the same amount of treasure in their left and right chests. </p>","1","comp_question","","","","true","","","","","","","",""
"comp-q","108","492006","0.0-3.0-13.0-0.1-1.1","spark_pilot_norest","8201","4","19","Male","","","","","","","2333.699999999255","<p> <b> That's right! </b> Animals have different amounts of treasure in their treasure chests. </p>","0","comp_answer","","","","","","","","","","","",""
"comp-q","109","499418","0.0-3.0-13.0-0.2-0.2","spark_pilot_norest","8201","4","19","Male","","","","","","","1575.199999999255","<p> <b> True or False? </b> </p><p> The same animal will always be there if you go up in the same place. </p>","0","comp_question","","","","true","","","","","","","",""
"comp-q","110","508089","0.0-3.0-13.0-0.2-1.2","spark_pilot_norest","8201","4","19","Male","","","","","","","2235","<p> <b> That's right! </b> One animal lives in the upper part and one lives in the lower part of every place. </p>","0","comp_answer","","","","","","","","","","","",""
"comp-q","111","516566","0.0-3.0-13.0-0.3-0.3","spark_pilot_norest","8201","4","19","Male","","","","","","","2967.300000000745","<p> <b> True or False? </b> </p><p> If you see a different picture, it means you are in a new place. </p>","1","comp_question","","","","true","","","","","","","",""
"comp-q","112","529019","0.0-3.0-13.0-0.3-1.3","spark_pilot_norest","8201","4","19","Male","","","","","","","1232.699999999255","<p> <b> That's right! </b> Lots of different images may show the same place. For example,  you may see three different images that all remind you that you are in outer space. </p>","0","comp_answer","","","","","","","","","","","",""
"learning-instructions","113","540145","0.0-3.0-14.0-0.0","spark_pilot_norest","8201","4","19","Male","","","","","","","1287.199999999255","<p> Good job. Remember to do your best because the amount of treasure you earn will be converted into bonus money. </p>
            <p> It’s time to start the real game! </p>","","instructions","","","","","","","","","","","",""
"learning-instructions","114","543797","0.0-4.0-0.0-0.0","spark_pilot_norest","8201","4","19","Male","","","","","","","949.4000000003725","<p> This time you are searching for treasure in the <b>ocean</b>.</p>","","instructions","","","","","","","","","","","",""
"learning-instructions","115","562000","0.0-4.0-0.0-0.1","spark_pilot_norest","8201","4","19","Male","","","","","","","923.0999999996275","<p><b>New</b> animals with <b>new</b> treasure chests live here. You need to explore to discover where the animal with the best treasure chest is.</p>
                    <p> Like before, once you figure out which animal has the chest with the most treasure, you should try to get to that animal and select that chest! </p>","","instructions","","","","","","","","","","","",""
"learning-instructions","116","577939","0.0-4.0-1.0-0.0","spark_pilot_norest","8201","4","19","Male","","","","","","","1212.300000000745","<p> Remember, when you see a picture of the place, use the up and down keys to <b>find an animal</b>.</p>
            <p> When you encounter an animal, you should use the left and right keys to <b>select a treasure chest</b>.</p>
            <p> Don't forget to look out for the robber! </p>","","instructions","","","","","","","","","","","",""
"revaluation","117","583989","0.0-4.0-2.0-0.0","spark_pilot_norest","8201","4","19","Male","","false","","","","","[1314.199999999255,710.1999999992549]","./assets/img/ocean/memory/35.jpg","[""ArrowUp"",""ArrowRight""]","value training","ocean","10","{""ArrowUp,ArrowLeft"":26,""ArrowUp,ArrowRight"":10,""ArrowDown,ArrowLeft"":5,""ArrowDown,ArrowRight"":17}","false","ArrowUp,ArrowRight","false","revaluation","1","0","","",""
"html-keyboard-response","118","584495","0.0-4.0-2.0-1.0","spark_pilot_norest","8201","4","19","Male","","","","","","","null","<div style=""font-size:60px;"">+</div>","null","fixation","","","","","","","","","1","","",""
"revaluation","119","590533","0.0-4.0-2.0-0.1","spark_pilot_norest","8201","4","19","Male","","false","","","","","[656.1000000014901,535.2000000011176]","./assets/img/ocean/memory/29.jpg","[""ArrowUp"",""ArrowLeft""]","value training","ocean","26","{""ArrowUp,ArrowLeft"":26,""ArrowUp,ArrowRight"":10,""ArrowDown,ArrowLeft"":5,""ArrowDown,ArrowRight"":17}","true","ArrowUp,ArrowLeft","false","revaluation","1","2","","",""
"html-keyboard-response","120","591040","0.0-4.0-2.0-1.1","spark_pilot_norest","8201","4","19","Male","","","","","","","null","<div style=""font-size:60px;"">+</div>","null","fixation","","","","","","","","","3","","",""
"revaluation","121","597072","0.0-4.0-2.0-0.2","spark_pilot_norest","8201","4","19","Male","","false","","","","","[424.6000000014901,470.69999999925494]","./assets/img/ocean/memory/33.jpg","[""ArrowDown"",""ArrowRight""]","value training","ocean","17","{""ArrowUp,ArrowLeft"":26,""ArrowUp,ArrowRight"":10,""ArrowDown,ArrowLeft"":5,""ArrowDown,ArrowRight"":17}","false","ArrowDown,ArrowRight","false","revaluation","1","4","","",""
"html-keyboard-response","122","597578","0.0-4.0-2.0-1.2","spark_pilot_norest","8201","4","19","Male","","","","","","","null","<div style=""font-size:60px;"">+</div>","null","fixation","","","","","","","","","5","","",""
"revaluation","123","603599","0.0-4.0-2.0-0.3","spark_pilot_norest","8201","4","19","Male","","false","","","","","[639.2999999988824,421.19999999925494]","./assets/img/ocean/memory/7.jpg","[""ArrowDown"",""ArrowLeft""]","value training","ocean","5","{""ArrowUp,ArrowLeft"":26,""ArrowUp,ArrowRight"":10,""ArrowDown,ArrowLeft"":5,""ArrowDown,ArrowRight"":17}","false","ArrowDown,ArrowLeft","false","revaluation","1","6","","",""
"html-keyboard-response","124","604105","0.0-4.0-2.0-1.3","spark_pilot_norest","8201","4","19","Male","","","","","","","null","<div style=""font-size:60px;"">+</div>","null","fixation","","","","","","","","","7","","",""
"revaluation","125","610125","0.0-4.0-2.0-0.4","spark_pilot_norest","8201","4","19","Male","","false","","","","","[567.6999999992549,386.1000000014901]","./assets/img/ocean/memory/23.jpg","[""ArrowUp"",""ArrowLeft""]","value training","ocean","26","{""ArrowUp,ArrowLeft"":26,""ArrowUp,ArrowRight"":10,""ArrowDown,ArrowLeft"":5,""ArrowDown,ArrowRight"":17}","true","ArrowUp,ArrowLeft","false","revaluation","1","8","","",""
"html-keyboard-response","126","610627","0.0-4.0-2.0-1.4","spark_pilot_norest","8201","4","19","Male","","","","","","","null","<div style=""font-size:60px;"">+</div>","null","fixation","","","","","","","","","9","","",""
"revaluation","127","616632","0.0-4.0-2.0-0.5","spark_pilot_norest","8201","4","19","Male","","false","","","","","[411.7999999988824,323.30000000074506]","./assets/img/ocean/memory/27.jpg","[""ArrowUp"",""ArrowLeft""]","value training","ocean","26","{""ArrowUp,ArrowLeft"":26,""ArrowUp,ArrowRight"":10,""ArrowDown,ArrowLeft"":5,""ArrowDown,ArrowRight"":17}","true","ArrowUp,ArrowLeft","false","revaluation","1","10","","",""
"html-keyboard-response","128","617134","0.0-4.0-2.0-1.5","spark_pilot_norest","8201","4","19","Male","","","","","","","null","<div style=""font-size:60px;"">+</div>","null","fixation","","","","","","","","","11","","",""
"revaluation","129","623139","0.0-4.0-2.0-0.6","spark_pilot_norest","8201","4","19","Male","","false","","","","","[293.6000000014901,269.40000000037253]","./assets/img/ocean/memory/18.jpg","[""ArrowUp"",""ArrowLeft""]","value training","ocean","26","{""ArrowUp,ArrowLeft"":26,""ArrowUp,ArrowRight"":10,""ArrowDown,ArrowLeft"":5,""ArrowDown,ArrowRight"":17}","true","ArrowUp,ArrowLeft","false","revaluation","1","12","","",""
"html-keyboard-response","130","623641","0.0-4.0-2.0-1.6","spark_pilot_norest","8201","4","19","Male","","","","","","","null","<div style=""font-size:60px;"">+</div>","null","fixation","","","","","","","","","13","","",""
"revaluation","131","629646","0.0-4.0-2.0-0.7","spark_pilot_norest","8201","4","19","Male","","false","","","","","[404.7000000011176,159.5]","./assets/img/ocean/memory/6.jpg","[""ArrowUp"",""ArrowLeft""]","value training","ocean","26","{""ArrowUp,ArrowLeft"":26,""ArrowUp,ArrowRight"":10,""ArrowDown,ArrowLeft"":5,""ArrowDown,ArrowRight"":17}","true","ArrowUp,ArrowLeft","false","revaluation","1","14","","",""
"html-keyboard-response","132","630147","0.0-4.0-2.0-1.7","spark_pilot_norest","8201","4","19","Male","","","","","","","null","<div style=""font-size:60px;"">+</div>","null","fixation","","","","","","","","","15","","",""
"revaluation","133","636153","0.0-4.0-2.0-0.8","spark_pilot_norest","8201","4","19","Male","","false","","","","","[392.59999999962747,440.7000000011176]","./assets/img/ocean/memory/41.jpg","[""ArrowUp"",""ArrowLeft""]","value training","ocean","26","{""ArrowUp,ArrowLeft"":26,""ArrowUp,ArrowRight"":10,""ArrowDown,ArrowLeft"":5,""ArrowDown,ArrowRight"":17}","true","ArrowUp,ArrowLeft","false","revaluation","1","16","","",""
"html-keyboard-response","134","636655","0.0-4.0-2.0-1.8","spark_pilot_norest","8201","4","19","Male","","","","","","","null","<div style=""font-size:60px;"">+</div>","null","fixation","","","","","","","","","17","","",""
"revaluation","135","642659","0.0-4.0-2.0-0.9","spark_pilot_norest","8201","4","19","Male","","false","","","","","[410.40000000037253,169.59999999962747]","./assets/img/ocean/memory/12.jpg","[""ArrowUp"",""ArrowLeft""]","value training","ocean","26","{""ArrowUp,ArrowLeft"":26,""ArrowUp,ArrowRight"":10,""ArrowDown,ArrowLeft"":5,""ArrowDown,ArrowRight"":17}","true","ArrowUp,ArrowLeft","false","revaluation","1","18","","",""
"html-keyboard-response","136","643160","0.0-4.0-2.0-1.9","spark_pilot_norest","8201","4","19","Male","","","","","","","null","<div style=""font-size:60px;"">+</div>","null","fixation","","","","","","","","","19","","",""
"revaluation","137","649166","0.0-4.0-2.0-0.10","spark_pilot_norest","8201","4","19","Male","","false","","","","","[275.69999999925494,252.59999999962747]","./assets/img/ocean/memory/2.jpg","[""ArrowUp"",""ArrowLeft""]","value training","ocean","26","{""ArrowUp,ArrowLeft"":26,""ArrowUp,ArrowRight"":10,""ArrowDown,ArrowLeft"":5,""ArrowDown,ArrowRight"":17}","true","ArrowUp,ArrowLeft","false","revaluation","1","20","","",""
"html-keyboard-response","138","649668","0.0-4.0-2.0-1.10","spark_pilot_norest","8201","4","19","Male","","","","","","","null","<div style=""font-size:60px;"">+</div>","null","fixation","","","","","","","","","21","","",""
"revaluation","139","655672","0.0-4.0-2.0-0.11","spark_pilot_norest","8201","4","19","Male","","false","","","","","[438.19999999925494,374.7000000011176]","./assets/img/ocean/memory/23.jpg","[""ArrowUp"",""ArrowLeft""]","value training","ocean","26","{""ArrowUp,ArrowLeft"":26,""ArrowUp,ArrowRight"":10,""ArrowDown,ArrowLeft"":5,""ArrowDown,ArrowRight"":17}","true","ArrowUp,ArrowLeft","false","revaluation","1","22","","",""
"html-keyboard-response","140","656173","0.0-4.0-2.0-1.11","spark_pilot_norest","8201","4","19","Male","","","","","","","null","<div style=""font-size:60px;"">+</div>","null","fixation","","","","","","","","","23","","",""
"revaluation","141","662179","0.0-4.0-2.0-0.12","spark_pilot_norest","8201","4","19","Male","","false","","","","","[328.2999999988824,395.40000000037253]","./assets/img/ocean/memory/9.jpg","[""ArrowUp"",""ArrowLeft""]","value training","ocean","26","{""ArrowUp,ArrowLeft"":26,""ArrowUp,ArrowRight"":10,""ArrowDown,ArrowLeft"":5,""ArrowDown,ArrowRight"":17}","true","ArrowUp,ArrowLeft","false","revaluation","1","24","","",""
"html-keyboard-response","142","662681","0.0-4.0-2.0-1.12","spark_pilot_norest","8201","4","19","Male","","","","","","","null","<div style=""font-size:60px;"">+</div>","null","fixation","","","","","","","","","25","","",""
"revaluation","143","668686","0.0-4.0-2.0-0.13","spark_pilot_norest","8201","4","19","Male","","false","","","","","[371.69999999925494,185.10000000149012]","./assets/img/ocean/memory/20.jpg","[""ArrowUp"",""ArrowLeft""]","value training","ocean","26","{""ArrowUp,ArrowLeft"":26,""ArrowUp,ArrowRight"":10,""ArrowDown,ArrowLeft"":5,""ArrowDown,ArrowRight"":17}","true","ArrowUp,ArrowLeft","false","revaluation","1","26","","",""
"html-keyboard-response","144","669188","0.0-4.0-2.0-1.13","spark_pilot_norest","8201","4","19","Male","","","","","","","null","<div style=""font-size:60px;"">+</div>","null","fixation","","","","","","","","","27","","",""
"revaluation","145","673191","0.0-4.0-2.0-0.14","spark_pilot_norest","8201","4","19","Male","","false","","","","","[454.5]","./assets/img/ocean/catch/2.jpg","[""ArrowUp""]","value training","ocean","-10","{""ArrowUp,ArrowLeft"":26,""ArrowUp,ArrowRight"":10,""ArrowDown,ArrowLeft"":5,""ArrowDown,ArrowRight"":17}","false","ArrowUp","true","revaluation","1","28","","",""
"html-keyboard-response","146","673693","0.0-4.0-2.0-1.14","spark_pilot_norest","8201","4","19","Male","","","","","","","null","<div style=""font-size:60px;"">+</div>","null","fixation","","","","","","","","","29","","",""
"revaluation","147","679697","0.0-4.0-2.0-0.15","spark_pilot_norest","8201","4","19","Male","","false","","","","","[485.19999999925494,847.3000000007451]","./assets/img/ocean/memory/29.jpg","[""ArrowUp"",""ArrowLeft""]","value training","ocean","26","{""ArrowUp,ArrowLeft"":26,""ArrowUp,ArrowRight"":10,""ArrowDown,ArrowLeft"":5,""ArrowDown,ArrowRight"":17}","true","ArrowUp,ArrowLeft","false","revaluation","1","30","","",""
"html-keyboard-response","148","680198","0.0-4.0-2.0-1.15","spark_pilot_norest","8201","4","19","Male","","","","","","","null","<div style=""font-size:60px;"">+</div>","null","fixation","","","","","","","","","31","","",""
"revaluation","149","686202","0.0-4.0-2.0-0.16","spark_pilot_norest","8201","4","19","Male","","false","","","","","[544.8000000007451,405.30000000074506]","./assets/img/ocean/memory/38.jpg","[""ArrowUp"",""ArrowLeft""]","value training","ocean","26","{""ArrowUp,ArrowLeft"":26,""ArrowUp,ArrowRight"":10,""ArrowDown,ArrowLeft"":5,""ArrowDown,ArrowRight"":17}","true","ArrowUp,ArrowLeft","false","revaluation","1","32","","",""
"html-keyboard-response","150","686703","0.0-4.0-2.0-1.16","spark_pilot_norest","8201","4","19","Male","","","","","","","null","<div style=""font-size:60px;"">+</div>","null","fixation","","","","","","","","","33","","",""
"revaluation","151","692707","0.0-4.0-2.0-0.17","spark_pilot_norest","8201","4","19","Male","","false","","","","","[547.1000000014901,460.5]","./assets/img/ocean/memory/33.jpg","[""ArrowUp"",""ArrowLeft""]","value training","ocean","26","{""ArrowUp,ArrowLeft"":26,""ArrowUp,ArrowRight"":10,""ArrowDown,ArrowLeft"":5,""ArrowDown,ArrowRight"":17}","true","ArrowUp,ArrowLeft","false","revaluation","1","34","","",""
"html-keyboard-response","152","693208","0.0-4.0-2.0-1.17","spark_pilot_norest","8201","4","19","Male","","","","","","","null","<div style=""font-size:60px;"">+</div>","null","fixation","","","","","","","","","35","","",""
"revaluation","153","699212","0.0-4.0-2.0-0.18","spark_pilot_norest","8201","4","19","Male","","false","","","","","[651.7000000011176,442.80000000074506]","./assets/img/ocean/memory/13.jpg","[""ArrowUp"",""ArrowLeft""]","value training","ocean","26","{""ArrowUp,ArrowLeft"":26,""ArrowUp,ArrowRight"":10,""ArrowDown,ArrowLeft"":5,""ArrowDown,ArrowRight"":17}","true","ArrowUp,ArrowLeft","false","revaluation","1","36","","",""
"html-keyboard-response","154","699715","0.0-4.0-2.0-1.18","spark_pilot_norest","8201","4","19","Male","","","","","","","null","<div style=""font-size:60px;"">+</div>","null","fixation","","","","","","","","","37","","",""
"revaluation","155","705721","0.0-4.0-2.0-0.19","spark_pilot_norest","8201","4","19","Male","","false","","","","","[486.90000000037253,564.8000000007451]","./assets/img/ocean/memory/40.jpg","[""ArrowUp"",""ArrowLeft""]","value training","ocean","26","{""ArrowUp,ArrowLeft"":26,""ArrowUp,ArrowRight"":10,""ArrowDown,ArrowLeft"":5,""ArrowDown,ArrowRight"":17}","true","ArrowUp,ArrowLeft","false","revaluation","1","38","","",""
"html-keyboard-response","156","706221","0.0-4.0-2.0-1.19","spark_pilot_norest","8201","4","19","Male","","","","","","","null","<div style=""font-size:60px;"">+</div>","null","fixation","","","","","","","","","39","","",""
"revaluation","157","710226","0.0-4.0-2.0-0.20","spark_pilot_norest","8201","4","19","Male","","false","","","","","[418.5]","./assets/img/ocean/catch/5.jpg","[""ArrowUp""]","value training","ocean","-10","{""ArrowUp,ArrowLeft"":26,""ArrowUp,ArrowRight"":10,""ArrowDown,ArrowLeft"":5,""ArrowDown,ArrowRight"":17}","false","ArrowUp","true","revaluation","1","40","","",""
"html-keyboard-response","158","710727","0.0-4.0-2.0-1.20","spark_pilot_norest","8201","4","19","Male","","","","","","","null","<div style=""font-size:60px;"">+</div>","null","fixation","","","","","","","","","41","","",""
"revaluation","159","716732","0.0-4.0-2.0-0.21","spark_pilot_norest","8201","4","19","Male","","false","","","","","[414.59999999962747,460]","./assets/img/ocean/memory/22.jpg","[""ArrowUp"",""ArrowLeft""]","value training","ocean","26","{""ArrowUp,ArrowLeft"":26,""ArrowUp,ArrowRight"":10,""ArrowDown,ArrowLeft"":5,""ArrowDown,ArrowRight"":17}","true","ArrowUp,ArrowLeft","false","revaluation","1","42","","",""
"html-keyboard-response","160","717233","0.0-4.0-2.0-1.21","spark_pilot_norest","8201","4","19","Male","","","","","","","null","<div style=""font-size:60px;"">+</div>","null","fixation","","","","","","","","","43","","",""
"revaluation","161","723239","0.0-4.0-2.0-0.22","spark_pilot_norest","8201","4","19","Male","","false","","","","","[531.5999999996275,569.0999999996275]","./assets/img/ocean/memory/22.jpg","[""ArrowUp"",""ArrowLeft""]","value training","ocean","26","{""ArrowUp,ArrowLeft"":26,""ArrowUp,ArrowRight"":10,""ArrowDown,ArrowLeft"":5,""ArrowDown,ArrowRight"":17}","true","ArrowUp,ArrowLeft","false","revaluation","1","44","","",""
"html-keyboard-response","162","723741","0.0-4.0-2.0-1.22","spark_pilot_norest","8201","4","19","Male","","","","","","","null","<div style=""font-size:60px;"">+</div>","null","fixation","","","","","","","","","45","","",""
"revaluation","163","727746","0.0-4.0-2.0-0.23","spark_pilot_norest","8201","4","19","Male","","false","","","","","[651.8999999985099]","./assets/img/ocean/catch/6.jpg","[""spaceBar""]","value training","ocean","0","{""ArrowUp,ArrowLeft"":26,""ArrowUp,ArrowRight"":10,""ArrowDown,ArrowLeft"":5,""ArrowDown,ArrowRight"":17}","true","spaceBar","true","revaluation","1","46","","",""
"html-keyboard-response","164","728247","0.0-4.0-2.0-1.23","spark_pilot_norest","8201","4","19","Male","","","","","","","null","<div style=""font-size:60px;"">+</div>","null","fixation","","","","","","","","","47","","",""
"revaluation","165","734256","0.0-4.0-2.0-0.24","spark_pilot_norest","8201","4","19","Male","","false","","","","","[755.5,407]","./assets/img/ocean/memory/27.jpg","[""ArrowUp"",""ArrowLeft""]","value training","ocean","26","{""ArrowUp,ArrowLeft"":26,""ArrowUp,ArrowRight"":10,""ArrowDown,ArrowLeft"":5,""ArrowDown,ArrowRight"":17}","true","ArrowUp,ArrowLeft","false","revaluation","1","48","","",""
"html-keyboard-response","166","734758","0.0-4.0-2.0-1.24","spark_pilot_norest","8201","4","19","Male","","","","","","","null","<div style=""font-size:60px;"">+</div>","null","fixation","","","","","","","","","49","","",""
"revaluation","167","740762","0.0-4.0-2.0-0.25","spark_pilot_norest","8201","4","19","Male","","false","","","","","[433.69999999925494,226.90000000037253]","./assets/img/ocean/memory/2.jpg","[""ArrowUp"",""ArrowLeft""]","value training","ocean","26","{""ArrowUp,ArrowLeft"":26,""ArrowUp,ArrowRight"":10,""ArrowDown,ArrowLeft"":5,""ArrowDown,ArrowRight"":17}","true","ArrowUp,ArrowLeft","false","revaluation","1","50","","",""
"html-keyboard-response","168","741264","0.0-4.0-2.0-1.25","spark_pilot_norest","8201","4","19","Male","","","","","","","null","<div style=""font-size:60px;"">+</div>","null","fixation","","","","","","","","","51","","",""
"revaluation","169","747269","0.0-4.0-2.0-0.26","spark_pilot_norest","8201","4","19","Male","","false","","","","","[672.4000000003725,354.40000000037253]","./assets/img/ocean/memory/0.jpg","[""ArrowUp"",""ArrowLeft""]","value training","ocean","26","{""ArrowUp,ArrowLeft"":26,""ArrowUp,ArrowRight"":10,""ArrowDown,ArrowLeft"":5,""ArrowDown,ArrowRight"":17}","true","ArrowUp,ArrowLeft","false","revaluation","1","52","","",""
"html-keyboard-response","170","747771","0.0-4.0-2.0-1.26","spark_pilot_norest","8201","4","19","Male","","","","","","","null","<div style=""font-size:60px;"">+</div>","null","fixation","","","","","","","","","53","","",""
"revaluation","171","751775","0.0-4.0-2.0-0.27","spark_pilot_norest","8201","4","19","Male","","false","","","","","[731.1000000014901]","./assets/img/ocean/catch/1.jpg","[""spaceBar""]","value training","ocean","0","{""ArrowUp,ArrowLeft"":26,""ArrowUp,ArrowRight"":10,""ArrowDown,ArrowLeft"":5,""ArrowDown,ArrowRight"":17}","true","spaceBar","true","revaluation","1","54","","",""
"html-keyboard-response","172","752276","0.0-4.0-2.0-1.27","spark_pilot_norest","8201","4","19","Male","","","","","","","null","<div style=""font-size:60px;"">+</div>","null","fixation","","","","","","","","","55","","",""
"revaluation","173","758282","0.0-4.0-2.0-0.28","spark_pilot_norest","8201","4","19","Male","","false","","","","","[738.2999999988824,463.80000000074506]","./assets/img/ocean/memory/7.jpg","[""ArrowUp"",""ArrowLeft""]","value training","ocean","26","{""ArrowUp,ArrowLeft"":26,""ArrowUp,ArrowRight"":10,""ArrowDown,ArrowLeft"":5,""ArrowDown,ArrowRight"":17}","true","ArrowUp,ArrowLeft","false","revaluation","1","56","","",""
"html-keyboard-response","174","758784","0.0-4.0-2.0-1.28","spark_pilot_norest","8201","4","19","Male","","","","","","","null","<div style=""font-size:60px;"">+</div>","null","fixation","","","","","","","","","57","","",""
"revaluation","175","764788","0.0-4.0-2.0-0.29","spark_pilot_norest","8201","4","19","Male","","false","","","","","[628.2999999988824,285.1000000014901]","./assets/img/ocean/memory/32.jpg","[""ArrowUp"",""ArrowLeft""]","value training","ocean","26","{""ArrowUp,ArrowLeft"":26,""ArrowUp,ArrowRight"":10,""ArrowDown,ArrowLeft"":5,""ArrowDown,ArrowRight"":17}","true","ArrowUp,ArrowLeft","false","revaluation","1","58","","",""
"html-keyboard-response","176","765290","0.0-4.0-2.0-1.29","spark_pilot_norest","8201","4","19","Male","","","","","","","null","<div style=""font-size:60px;"">+</div>","null","fixation","","","","","","","","","59","","",""
"revaluation","177","771295","0.0-4.0-2.0-0.30","spark_pilot_norest","8201","4","19","Male","","false","","","","","[1090.8999999985099,408.80000000074506]","./assets/img/ocean/memory/35.jpg","[""ArrowUp"",""ArrowLeft""]","value training","ocean","26","{""ArrowUp,ArrowLeft"":26,""ArrowUp,ArrowRight"":10,""ArrowDown,ArrowLeft"":5,""ArrowDown,ArrowRight"":17}","true","ArrowUp,ArrowLeft","false","revaluation","1","60","","",""
"html-keyboard-response","178","771796","0.0-4.0-2.0-1.30","spark_pilot_norest","8201","4","19","Male","","","","","","","null","<div style=""font-size:60px;"">+</div>","null","fixation","","","","","","","","","61","","",""
"revaluation","179","777800","0.0-4.0-2.0-0.31","spark_pilot_norest","8201","4","19","Male","","false","","","","","[950.6999999992549,956.1000000014901]","./assets/img/ocean/memory/17.jpg","[""ArrowUp"",""ArrowLeft""]","value training","ocean","26","{""ArrowUp,ArrowLeft"":26,""ArrowUp,ArrowRight"":10,""ArrowDown,ArrowLeft"":5,""ArrowDown,ArrowRight"":17}","true","ArrowUp,ArrowLeft","false","revaluation","1","62","","",""
"html-keyboard-response","180","778302","0.0-4.0-2.0-1.31","spark_pilot_norest","8201","4","19","Male","","","","","","","null","<div style=""font-size:60px;"">+</div>","null","fixation","","","","","","","","","63","","",""
"revaluation","181","784310","0.0-4.0-2.0-0.32","spark_pilot_norest","8201","4","19","Male","","false","","","","","[840.5,548.8000000007451]","./assets/img/ocean/memory/20.jpg","[""ArrowUp"",""ArrowLeft""]","value training","ocean","26","{""ArrowUp,ArrowLeft"":26,""ArrowUp,ArrowRight"":10,""ArrowDown,ArrowLeft"":5,""ArrowDown,ArrowRight"":17}","true","ArrowUp,ArrowLeft","false","revaluation","1","64","","",""
"html-keyboard-response","182","784812","0.0-4.0-2.0-1.32","spark_pilot_norest","8201","4","19","Male","","","","","","","null","<div style=""font-size:60px;"">+</div>","null","fixation","","","","","","","","","65","","",""
"revaluation","183","790818","0.0-4.0-2.0-0.33","spark_pilot_norest","8201","4","19","Male","","false","","","","","[508.90000000037253,536.8999999985099]","./assets/img/ocean/memory/6.jpg","[""ArrowUp"",""ArrowLeft""]","value training","ocean","26","{""ArrowUp,ArrowLeft"":26,""ArrowUp,ArrowRight"":10,""ArrowDown,ArrowLeft"":5,""ArrowDown,ArrowRight"":17}","true","ArrowUp,ArrowLeft","false","revaluation","1","66","","",""
"html-keyboard-response","184","791320","0.0-4.0-2.0-1.33","spark_pilot_norest","8201","4","19","Male","","","","","","","null","<div style=""font-size:60px;"">+</div>","null","fixation","","","","","","","","","67","","",""
"revaluation","185","797326","0.0-4.0-2.0-0.34","spark_pilot_norest","8201","4","19","Male","","false","","","","","[510.80000000074506,654.2000000011176]","./assets/img/ocean/memory/13.jpg","[""ArrowUp"",""ArrowLeft""]","value training","ocean","26","{""ArrowUp,ArrowLeft"":26,""ArrowUp,ArrowRight"":10,""ArrowDown,ArrowLeft"":5,""ArrowDown,ArrowRight"":17}","true","ArrowUp,ArrowLeft","false","revaluation","1","68","","",""
"html-keyboard-response","186","797828","0.0-4.0-2.0-1.34","spark_pilot_norest","8201","4","19","Male","","","","","","","null","<div style=""font-size:60px;"">+</div>","null","fixation","","","","","","","","","69","","",""
"revaluation","187","803834","0.0-4.0-2.0-0.35","spark_pilot_norest","8201","4","19","Male","","false","","","","","[440.5,615.9000000003725]","./assets/img/ocean/memory/17.jpg","[""ArrowUp"",""ArrowLeft""]","value training","ocean","26","{""ArrowUp,ArrowLeft"":26,""ArrowUp,ArrowRight"":10,""ArrowDown,ArrowLeft"":5,""ArrowDown,ArrowRight"":17}","true","ArrowUp,ArrowLeft","false","revaluation","1","70","","",""
"html-keyboard-response","188","804335","0.0-4.0-2.0-1.35","spark_pilot_norest","8201","4","19","Male","","","","","","","null","<div style=""font-size:60px;"">+</div>","null","fixation","","","","","","","","","71","","",""
"revaluation","189","810341","0.0-4.0-2.0-0.36","spark_pilot_norest","8201","4","19","Male","","false","","","","","[524.2000000011176,475.09999999962747]","./assets/img/ocean/memory/0.jpg","[""ArrowUp"",""ArrowLeft""]","value training","ocean","26","{""ArrowUp,ArrowLeft"":26,""ArrowUp,ArrowRight"":10,""ArrowDown,ArrowLeft"":5,""ArrowDown,ArrowRight"":17}","true","ArrowUp,ArrowLeft","false","revaluation","1","72","","",""
"html-keyboard-response","190","810843","0.0-4.0-2.0-1.36","spark_pilot_norest","8201","4","19","Male","","","","","","","null","<div style=""font-size:60px;"">+</div>","null","fixation","","","","","","","","","73","","",""
"revaluation","191","816849","0.0-4.0-2.0-0.37","spark_pilot_norest","8201","4","19","Male","","false","","","","","[479,491.40000000037253]","./assets/img/ocean/memory/36.jpg","[""ArrowUp"",""ArrowLeft""]","value training","ocean","26","{""ArrowUp,ArrowLeft"":26,""ArrowUp,ArrowRight"":10,""ArrowDown,ArrowLeft"":5,""ArrowDown,ArrowRight"":17}","true","ArrowUp,ArrowLeft","false","revaluation","1","74","","",""
"html-keyboard-response","192","817356","0.0-4.0-2.0-1.37","spark_pilot_norest","8201","4","19","Male","","","","","","","null","<div style=""font-size:60px;"">+</div>","null","fixation","","","","","","","","","75","","",""
"revaluation","193","823362","0.0-4.0-2.0-0.38","spark_pilot_norest","8201","4","19","Male","","false","","","","","[611.1000000014901,555.0999999996275]","./assets/img/ocean/memory/12.jpg","[""ArrowUp"",""ArrowLeft""]","value training","ocean","26","{""ArrowUp,ArrowLeft"":26,""ArrowUp,ArrowRight"":10,""ArrowDown,ArrowLeft"":5,""ArrowDown,ArrowRight"":17}","true","ArrowUp,ArrowLeft","false","revaluation","1","76","","",""
"html-keyboard-response","194","823863","0.0-4.0-2.0-1.38","spark_pilot_norest","8201","4","19","Male","","","","","","","null","<div style=""font-size:60px;"">+</div>","null","fixation","","","","","","","","","77","","",""
"revaluation","195","829868","0.0-4.0-2.0-0.39","spark_pilot_norest","8201","4","19","Male","","false","","","","","[460.40000000037253,492.90000000037253]","./assets/img/ocean/memory/32.jpg","[""ArrowUp"",""ArrowLeft""]","value training","ocean","26","{""ArrowUp,ArrowLeft"":26,""ArrowUp,ArrowRight"":10,""ArrowDown,ArrowLeft"":5,""ArrowDown,ArrowRight"":17}","true","ArrowUp,ArrowLeft","false","revaluation","1","78","","",""
"html-keyboard-response","196","830370","0.0-4.0-2.0-1.39","spark_pilot_norest","8201","4","19","Male","","","","","","","null","<div style=""font-size:60px;"">+</div>","null","fixation","","","","","","","","","79","","",""
"revaluation","197","834373","0.0-4.0-2.0-0.40","spark_pilot_norest","8201","4","19","Male","","false","","","","","[773.9000000003725]","./assets/img/ocean/catch/7.jpg","[""spaceBar""]","value training","ocean","0","{""ArrowUp,ArrowLeft"":26,""ArrowUp,ArrowRight"":10,""ArrowDown,ArrowLeft"":5,""ArrowDown,ArrowRight"":17}","true","spaceBar","true","revaluation","1","80","","",""
"html-keyboard-response","198","834874","0.0-4.0-2.0-1.40","spark_pilot_norest","8201","4","19","Male","","","","","","","null","<div style=""font-size:60px;"">+</div>","null","fixation","","","","","","","","","81","","",""
"revaluation","199","840886","0.0-4.0-2.0-0.41","spark_pilot_norest","8201","4","19","Male","","false","","","","","[781.7000000011176,772.9000000003725]","./assets/img/ocean/memory/9.jpg","[""ArrowUp"",""ArrowLeft""]","value training","ocean","26","{""ArrowUp,ArrowLeft"":26,""ArrowUp,ArrowRight"":10,""ArrowDown,ArrowLeft"":5,""ArrowDown,ArrowRight"":17}","true","ArrowUp,ArrowLeft","false","revaluation","1","82","","",""
"html-keyboard-response","200","841388","0.0-4.0-2.0-1.41","spark_pilot_norest","8201","4","19","Male","","","","","","","null","<div style=""font-size:60px;"">+</div>","null","fixation","","","","","","","","","83","","",""
"revaluation","201","845392","0.0-4.0-2.0-0.42","spark_pilot_norest","8201","4","19","Male","","false","","","","","[789.1000000014901]","./assets/img/ocean/catch/4.jpg","[""spaceBar""]","value training","ocean","0","{""ArrowUp,ArrowLeft"":26,""ArrowUp,ArrowRight"":10,""ArrowDown,ArrowLeft"":5,""ArrowDown,ArrowRight"":17}","true","spaceBar","true","revaluation","1","84","","",""
"html-keyboard-response","202","845893","0.0-4.0-2.0-1.42","spark_pilot_norest","8201","4","19","Male","","","","","","","null","<div style=""font-size:60px;"">+</div>","null","fixation","","","","","","","","","85","","",""
"revaluation","203","851900","0.0-4.0-2.0-0.43","spark_pilot_norest","8201","4","19","Male","","false","","","","","[720.5,605.5]","./assets/img/ocean/memory/38.jpg","[""ArrowUp"",""ArrowLeft""]","value training","ocean","26","{""ArrowUp,ArrowLeft"":26,""ArrowUp,ArrowRight"":10,""ArrowDown,ArrowLeft"":5,""ArrowDown,ArrowRight"":17}","true","ArrowUp,ArrowLeft","false","revaluation","1","86","","",""
"html-keyboard-response","204","852401","0.0-4.0-2.0-1.43","spark_pilot_norest","8201","4","19","Male","","","","","","","null","<div style=""font-size:60px;"">+</div>","null","fixation","","","","","","","","","87","","",""
"revaluation","205","856405","0.0-4.0-2.0-0.44","spark_pilot_norest","8201","4","19","Male","","false","","","","","[642.3999999985099]","./assets/img/ocean/catch/3.jpg","[""spaceBar""]","value training","ocean","0","{""ArrowUp,ArrowLeft"":26,""ArrowUp,ArrowRight"":10,""ArrowDown,ArrowLeft"":5,""ArrowDown,ArrowRight"":17}","true","spaceBar","true","revaluation","1","88","","",""
"html-keyboard-response","206","856906","0.0-4.0-2.0-1.44","spark_pilot_norest","8201","4","19","Male","","","","","","","null","<div style=""font-size:60px;"">+</div>","null","fixation","","","","","","","","","89","","",""
"revaluation","207","860911","0.0-4.0-2.0-0.45","spark_pilot_norest","8201","4","19","Male","","false","","","","","[678.6999999992549]","./assets/img/ocean/catch/0.jpg","[""spaceBar""]","value training","ocean","0","{""ArrowUp,ArrowLeft"":26,""ArrowUp,ArrowRight"":10,""ArrowDown,ArrowLeft"":5,""ArrowDown,ArrowRight"":17}","true","spaceBar","true","revaluation","1","90","","",""
"html-keyboard-response","208","861412","0.0-4.0-2.0-1.45","spark_pilot_norest","8201","4","19","Male","","","","","","","null","<div style=""font-size:60px;"">+</div>","null","fixation","","","","","","","","","91","","",""
"revaluation","209","867417","0.0-4.0-2.0-0.46","spark_pilot_norest","8201","4","19","Male","","false","","","","","[501.30000000074506,458.30000000074506]","./assets/img/ocean/memory/18.jpg","[""ArrowUp"",""ArrowLeft""]","value training","ocean","26","{""ArrowUp,ArrowLeft"":26,""ArrowUp,ArrowRight"":10,""ArrowDown,ArrowLeft"":5,""ArrowDown,ArrowRight"":17}","true","ArrowUp,ArrowLeft","false","revaluation","1","92","","",""
"html-keyboard-response","210","867918","0.0-4.0-2.0-1.46","spark_pilot_norest","8201","4","19","Male","","","","","","","null","<div style=""font-size:60px;"">+</div>","null","fixation","","","","","","","","","93","","",""
"revaluation","211","873922","0.0-4.0-2.0-0.47","spark_pilot_norest","8201","4","19","Male","","false","","","","","[596.3999999985099,229]","./assets/img/ocean/memory/36.jpg","[""ArrowUp"",""ArrowLeft""]","value training","ocean","26","{""ArrowUp,ArrowLeft"":26,""ArrowUp,ArrowRight"":10,""ArrowDown,ArrowLeft"":5,""ArrowDown,ArrowRight"":17}","true","ArrowUp,ArrowLeft","false","revaluation","1","94","","",""
"html-keyboard-response","212","874425","0.0-4.0-2.0-1.47","spark_pilot_norest","8201","4","19","Male","","","","","","","null","<div style=""font-size:60px;"">+</div>","null","fixation","","","","","","","","","95","","",""
"revaluation","213","880429","0.0-4.0-2.0-0.48","spark_pilot_norest","8201","4","19","Male","","false","","","","","[438.5,406.09999999962747]","./assets/img/ocean/memory/40.jpg","[""ArrowUp"",""ArrowLeft""]","value training","ocean","26","{""ArrowUp,ArrowLeft"":26,""ArrowUp,ArrowRight"":10,""ArrowDown,ArrowLeft"":5,""ArrowDown,ArrowRight"":17}","true","ArrowUp,ArrowLeft","false","revaluation","1","96","","",""
"html-keyboard-response","214","880931","0.0-4.0-2.0-1.48","spark_pilot_norest","8201","4","19","Male","","","","","","","null","<div style=""font-size:60px;"">+</div>","null","fixation","","","","","","","","","97","","",""
"revaluation","215","886936","0.0-4.0-2.0-0.49","spark_pilot_norest","8201","4","19","Male","","false","","","","","[728.8000000007451,482.2999999988824]","./assets/img/ocean/memory/41.jpg","[""ArrowUp"",""ArrowLeft""]","value training","ocean","26","{""ArrowUp,ArrowLeft"":26,""ArrowUp,ArrowRight"":10,""ArrowDown,ArrowLeft"":5,""ArrowDown,ArrowRight"":17}","true","ArrowUp,ArrowLeft","false","revaluation","1","98","","",""
"html-keyboard-response","216","887438","0.0-4.0-2.0-1.49","spark_pilot_norest","8201","4","19","Male","","","","","","","null","<div style=""font-size:60px;"">+</div>","null","fixation","","","","","","","","","99","","",""
"learning-instructions","217","902176","0.0-4.0-3.0-0.0","spark_pilot_norest","8201","4","19","Male","","","","","","","1345.5","<p> Now, you will travel with a friend who will choose whether you go up or down first. </p>
            <p> On these turns, you will just see the animal that they found. You will still get to choose which chest to search for treasure.</p>","","instructions","","","","","","","","","","","",""
"revaluation","218","906201","0.0-4.0-4.0-0.0","spark_pilot_norest","8201","4","19","Male","","false","","","","","[1715.5]","./assets/img/ocean/animals/seahorse.jpg","[""ArrowLeft""]","revaluation","ocean","8","{""ArrowUp,ArrowLeft"":2,""ArrowUp,ArrowRight"":11,""ArrowDown,ArrowLeft"":8,""ArrowDown,ArrowRight"":27}","false","ArrowDown,ArrowLeft","","revaluation","1","0","","",""
"html-keyboard-response","219","906707","0.0-4.0-4.0-1.0","spark_pilot_norest","8201","4","19","Male","","","","","","","null","<div style=""font-size:60px;"">+</div>","null","fixation","","","","","","","","","1","","",""
"revaluation","220","910734","0.0-4.0-4.0-0.1","spark_pilot_norest","8201","4","19","Male","","false","","","","","[355.19999999925494]","./assets/img/ocean/animals/seahorse.jpg","[""ArrowRight""]","revaluation","ocean","27","{""ArrowUp,ArrowLeft"":2,""ArrowUp,ArrowRight"":11,""ArrowDown,ArrowLeft"":8,""ArrowDown,ArrowRight"":27}","true","ArrowDown,ArrowRight","","revaluation","1","2","","",""
"html-keyboard-response","221","911238","0.0-4.0-4.0-1.1","spark_pilot_norest","8201","4","19","Male","","","","","","","null","<div style=""font-size:60px;"">+</div>","null","fixation","","","","","","","","","3","","",""
"revaluation","222","915251","0.0-4.0-4.0-0.2","spark_pilot_norest","8201","4","19","Male","","false","","","","","[517.7999999988824]","./assets/img/ocean/animals/seahorse.jpg","[""ArrowRight""]","revaluation","ocean","27","{""ArrowUp,ArrowLeft"":2,""ArrowUp,ArrowRight"":11,""ArrowDown,ArrowLeft"":8,""ArrowDown,ArrowRight"":27}","true","ArrowDown,ArrowRight","","revaluation","1","4","","",""
"html-keyboard-response","223","915752","0.0-4.0-4.0-1.2","spark_pilot_norest","8201","4","19","Male","","","","","","","null","<div style=""font-size:60px;"">+</div>","null","fixation","","","","","","","","","5","","",""
"revaluation","224","919774","0.0-4.0-4.0-0.3","spark_pilot_norest","8201","4","19","Male","","false","","","","","[434.2999999988824]","./assets/img/ocean/animals/octopus.jpg","[""ArrowRight""]","revaluation","ocean","11","{""ArrowUp,ArrowLeft"":2,""ArrowUp,ArrowRight"":11,""ArrowDown,ArrowLeft"":8,""ArrowDown,ArrowRight"":27}","true","ArrowUp,ArrowRight","","revaluation","1","6","","",""
"html-keyboard-response","225","920278","0.0-4.0-4.0-1.3","spark_pilot_norest","8201","4","19","Male","","","","","","","null","<div style=""font-size:60px;"">+</div>","null","fixation","","","","","","","","","7","","",""
"revaluation","226","924302","0.0-4.0-4.0-0.4","spark_pilot_norest","8201","4","19","Male","","false","","","","","[876.1000000014901]","./assets/img/ocean/animals/seahorse.jpg","[""ArrowRight""]","revaluation","ocean","27","{""ArrowUp,ArrowLeft"":2,""ArrowUp,ArrowRight"":11,""ArrowDown,ArrowLeft"":8,""ArrowDown,ArrowRight"":27}","true","ArrowDown,ArrowRight","","revaluation","1","8","","",""
"html-keyboard-response","227","924803","0.0-4.0-4.0-1.4","spark_pilot_norest","8201","4","19","Male","","","","","","","null","<div style=""font-size:60px;"">+</div>","null","fixation","","","","","","","","","9","","",""
"revaluation","228","928825","0.0-4.0-4.0-0.5","spark_pilot_norest","8201","4","19","Male","","false","","","","","[765.7999999988824]","./assets/img/ocean/animals/octopus.jpg","[""ArrowLeft""]","revaluation","ocean","2","{""ArrowUp,ArrowLeft"":2,""ArrowUp,ArrowRight"":11,""ArrowDown,ArrowLeft"":8,""ArrowDown,ArrowRight"":27}","false","ArrowUp,ArrowLeft","","revaluation","1","10","","",""
"html-keyboard-response","229","929337","0.0-4.0-4.0-1.5","spark_pilot_norest","8201","4","19","Male","","","","","","","null","<div style=""font-size:60px;"">+</div>","null","fixation","","","","","","","","","11","","",""
"revaluation","230","933341","0.0-4.0-4.0-0.6","spark_pilot_norest","8201","4","19","Male","","false","","","","","[583.3000000007451]","./assets/img/ocean/animals/octopus.jpg","[""ArrowRight""]","revaluation","ocean","11","{""ArrowUp,ArrowLeft"":2,""ArrowUp,ArrowRight"":11,""ArrowDown,ArrowLeft"":8,""ArrowDown,ArrowRight"":27}","true","ArrowUp,ArrowRight","","revaluation","1","12","","",""
"html-keyboard-response","231","933843","0.0-4.0-4.0-1.6","spark_pilot_norest","8201","4","19","Male","","","","","","","null","<div style=""font-size:60px;"">+</div>","null","fixation","","","","","","","","","13","","",""
"revaluation","232","937847","0.0-4.0-4.0-0.7","spark_pilot_norest","8201","4","19","Male","","false","","","","","[558]","./assets/img/ocean/animals/seahorse.jpg","[""ArrowRight""]","revaluation","ocean","27","{""ArrowUp,ArrowLeft"":2,""ArrowUp,ArrowRight"":11,""ArrowDown,ArrowLeft"":8,""ArrowDown,ArrowRight"":27}","true","ArrowDown,ArrowRight","","revaluation","1","14","","",""
"html-keyboard-response","233","938349","0.0-4.0-4.0-1.7","spark_pilot_norest","8201","4","19","Male","","","","","","","null","<div style=""font-size:60px;"">+</div>","null","fixation","","","","","","","","","15","","",""
"revaluation","234","942352","0.0-4.0-4.0-0.8","spark_pilot_norest","8201","4","19","Male","","false","","","","","[450.7000000011176]","./assets/img/ocean/animals/octopus.jpg","[""ArrowRight""]","revaluation","ocean","11","{""ArrowUp,ArrowLeft"":2,""ArrowUp,ArrowRight"":11,""ArrowDown,ArrowLeft"":8,""ArrowDown,ArrowRight"":27}","true","ArrowUp,ArrowRight","","revaluation","1","16","","",""
"html-keyboard-response","235","942854","0.0-4.0-4.0-1.8","spark_pilot_norest","8201","4","19","Male","","","","","","","null","<div style=""font-size:60px;"">+</div>","null","fixation","","","","","","","","","17","","",""
"revaluation","236","946857","0.0-4.0-4.0-0.9","spark_pilot_norest","8201","4","19","Male","","false","","","","","[569]","./assets/img/ocean/animals/seahorse.jpg","[""ArrowRight""]","revaluation","ocean","27","{""ArrowUp,ArrowLeft"":2,""ArrowUp,ArrowRight"":11,""ArrowDown,ArrowLeft"":8,""ArrowDown,ArrowRight"":27}","true","ArrowDown,ArrowRight","","revaluation","1","18","","",""
"html-keyboard-response","237","947358","0.0-4.0-4.0-1.9","spark_pilot_norest","8201","4","19","Male","","","","","","","null","<div style=""font-size:60px;"">+</div>","null","fixation","","","","","","","","","19","","",""
"revaluation","238","951363","0.0-4.0-4.0-0.10","spark_pilot_norest","8201","4","19","Male","","false","","","","","[480]","./assets/img/ocean/animals/octopus.jpg","[""ArrowLeft""]","revaluation","ocean","2","{""ArrowUp,ArrowLeft"":2,""ArrowUp,ArrowRight"":11,""ArrowDown,ArrowLeft"":8,""ArrowDown,ArrowRight"":27}","false","ArrowUp,ArrowLeft","","revaluation","1","20","","",""
"html-keyboard-response","239","951865","0.0-4.0-4.0-1.10","spark_pilot_norest","8201","4","19","Male","","","","","","","null","<div style=""font-size:60px;"">+</div>","null","fixation","","","","","","","","","21","","",""
"revaluation","240","955869","0.0-4.0-4.0-0.11","spark_pilot_norest","8201","4","19","Male","","false","","","","","[374.3999999985099]","./assets/img/ocean/animals/octopus.jpg","[""ArrowRight""]","revaluation","ocean","11","{""ArrowUp,ArrowLeft"":2,""ArrowUp,ArrowRight"":11,""ArrowDown,ArrowLeft"":8,""ArrowDown,ArrowRight"":27}","true","ArrowUp,ArrowRight","","revaluation","1","22","","",""
"html-keyboard-response","241","956370","0.0-4.0-4.0-1.11","spark_pilot_norest","8201","4","19","Male","","","","","","","null","<div style=""font-size:60px;"">+</div>","null","fixation","","","","","","","","","23","","",""
"revaluation","242","960386","0.0-4.0-4.0-0.12","spark_pilot_norest","8201","4","19","Male","","false","","","","","[291.40000000037253]","./assets/img/ocean/animals/octopus.jpg","[""ArrowRight""]","revaluation","ocean","11","{""ArrowUp,ArrowLeft"":2,""ArrowUp,ArrowRight"":11,""ArrowDown,ArrowLeft"":8,""ArrowDown,ArrowRight"":27}","true","ArrowUp,ArrowRight","","revaluation","1","24","","",""
"html-keyboard-response","243","960888","0.0-4.0-4.0-1.12","spark_pilot_norest","8201","4","19","Male","","","","","","","null","<div style=""font-size:60px;"">+</div>","null","fixation","","","","","","","","","25","","",""
"revaluation","244","964892","0.0-4.0-4.0-0.13","spark_pilot_norest","8201","4","19","Male","","false","","","","","[296.8999999985099]","./assets/img/ocean/animals/seahorse.jpg","[""ArrowRight""]","revaluation","ocean","27","{""ArrowUp,ArrowLeft"":2,""ArrowUp,ArrowRight"":11,""ArrowDown,ArrowLeft"":8,""ArrowDown,ArrowRight"":27}","true","ArrowDown,ArrowRight","","revaluation","1","26","","",""
"html-keyboard-response","245","965394","0.0-4.0-4.0-1.13","spark_pilot_norest","8201","4","19","Male","","","","","","","null","<div style=""font-size:60px;"">+</div>","null","fixation","","","","","","","","","27","","",""
"revaluation","246","969398","0.0-4.0-4.0-0.14","spark_pilot_norest","8201","4","19","Male","","false","","","","","[61.19999999925494]","./assets/img/ocean/animals/octopus.jpg","[""ArrowRight""]","revaluation","ocean","11","{""ArrowUp,ArrowLeft"":2,""ArrowUp,ArrowRight"":11,""ArrowDown,ArrowLeft"":8,""ArrowDown,ArrowRight"":27}","true","ArrowUp,ArrowRight","","revaluation","1","28","","",""
"html-keyboard-response","247","969899","0.0-4.0-4.0-1.14","spark_pilot_norest","8201","4","19","Male","","","","","","","null","<div style=""font-size:60px;"">+</div>","null","fixation","","","","","","","","","29","","",""
"revaluation","248","973912","0.0-4.0-4.0-0.15","spark_pilot_norest","8201","4","19","Male","","false","","","","","[335]","./assets/img/ocean/animals/octopus.jpg","[""ArrowRight""]","revaluation","ocean","11","{""ArrowUp,ArrowLeft"":2,""ArrowUp,ArrowRight"":11,""ArrowDown,ArrowLeft"":8,""ArrowDown,ArrowRight"":27}","true","ArrowUp,ArrowRight","","revaluation","1","30","","",""
"html-keyboard-response","249","974414","0.0-4.0-4.0-1.15","spark_pilot_norest","8201","4","19","Male","","","","","","","null","<div style=""font-size:60px;"">+</div>","null","fixation","","","","","","","","","31","","",""
"revaluation","250","978418","0.0-4.0-4.0-0.16","spark_pilot_norest","8201","4","19","Male","","false","","","","","[247]","./assets/img/ocean/animals/seahorse.jpg","[""ArrowRight""]","revaluation","ocean","27","{""ArrowUp,ArrowLeft"":2,""ArrowUp,ArrowRight"":11,""ArrowDown,ArrowLeft"":8,""ArrowDown,ArrowRight"":27}","true","ArrowDown,ArrowRight","","revaluation","1","32","","",""
"html-keyboard-response","251","978920","0.0-4.0-4.0-1.16","spark_pilot_norest","8201","4","19","Male","","","","","","","null","<div style=""font-size:60px;"">+</div>","null","fixation","","","","","","","","","33","","",""
"revaluation","252","982924","0.0-4.0-4.0-0.17","spark_pilot_norest","8201","4","19","Male","","false","","","","","[476.69999999925494]","./assets/img/ocean/animals/seahorse.jpg","[""ArrowRight""]","revaluation","ocean","27","{""ArrowUp,ArrowLeft"":2,""ArrowUp,ArrowRight"":11,""ArrowDown,ArrowLeft"":8,""ArrowDown,ArrowRight"":27}","true","ArrowDown,ArrowRight","","revaluation","1","34","","",""
"html-keyboard-response","253","983425","0.0-4.0-4.0-1.17","spark_pilot_norest","8201","4","19","Male","","","","","","","null","<div style=""font-size:60px;"">+</div>","null","fixation","","","","","","","","","35","","",""
"learning-instructions","254","992044","0.0-4.0-5.0-0.0","spark_pilot_norest","8201","4","19","Male","","","","","","","null","<p> You have almost finished this part of the game! </p>
            <p> We are going to ask you to make a few more choices. </p>","","instructions","","","","","","","","","","","",""
"learning-instructions","255","1008029","0.0-4.0-5.0-0.1","spark_pilot_norest","8201","4","19","Male","","","","","","","null","<p> First, you need to decide whether to go up or down. When you see each picture, use the arrow keys to make your choice. </p>
            <p><b>You will not see which animal you found, but try to get to the one that will give you the most treasure.</b></p>","","instructions","","","","","","","","","","","",""
"html-keyboard-response","256","1009032","0.0-4.0-6.0-0.0","spark_pilot_norest","8201","4","19","Male","","","","","","","null","<div style=""font-size:100px;color:red;"">Starting in...</div>","null","","","","","","","","","","","","",""
"html-keyboard-response","257","1010044","0.0-4.0-6.0-1.0","spark_pilot_norest","8201","4","19","Male","","","","","","","null","<div style=""font-size:200px;color:red;"">3</div>","null","","","","","","","","","","","","",""
"html-keyboard-response","258","1011058","0.0-4.0-6.0-2.0","spark_pilot_norest","8201","4","19","Male","","","","","","","null","<div style=""font-size:200px;color:red;"">2</div>","null","","","","","","","","","","","","",""
"html-keyboard-response","259","1012061","0.0-4.0-6.0-3.0","spark_pilot_norest","8201","4","19","Male","","","","","","","null","<div style=""font-size:200px;color:red;"">1</div>","null","","","","","","","","","","","","",""
"revaluation","260","1013200","0.0-4.0-7.0-0.0","spark_pilot_norest","8201","4","19","Male","","false","","","","","[1137.5]","./assets/img/ocean/test/1.jpg","[""ArrowUp""]","first stage test","ocean","0","{""ArrowUp,ArrowLeft"":2,""ArrowUp,ArrowRight"":11,""ArrowDown,ArrowLeft"":8,""ArrowDown,ArrowRight"":27}","false","ArrowUp","false","revaluation","1","","","",""
"html-keyboard-response","261","1013704","0.0-4.0-7.0-1.0","spark_pilot_norest","8201","4","19","Male","","","","","","","null","<div style=""font-size:60px;"">+</div>","null","fixation","","","","","","","","","","","",""
"revaluation","262","1014469","0.0-4.0-7.0-0.1","spark_pilot_norest","8201","4","19","Male","","false","","","","","[763.3999999985099]","./assets/img/ocean/test/3.jpg","[""ArrowUp""]","first stage test","ocean","0","{""ArrowUp,ArrowLeft"":2,""ArrowUp,ArrowRight"":11,""ArrowDown,ArrowLeft"":8,""ArrowDown,ArrowRight"":27}","false","ArrowUp","false","revaluation","1","","","",""
"html-keyboard-response","263","1014971","0.0-4.0-7.0-1.1","spark_pilot_norest","8201","4","19","Male","","","","","","","null","<div style=""font-size:60px;"">+</div>","null","fixation","","","","","","","","","","","",""
"revaluation","264","1015441","0.0-4.0-7.0-0.2","spark_pilot_norest","8201","4","19","Male","","false","","","","","[467.90000000037253]","./assets/img/ocean/test/0.jpg","[""ArrowUp""]","first stage test","ocean","0","{""ArrowUp,ArrowLeft"":2,""ArrowUp,ArrowRight"":11,""ArrowDown,ArrowLeft"":8,""ArrowDown,ArrowRight"":27}","false","ArrowUp","false","revaluation","1","","","",""
"html-keyboard-response","265","1015954","0.0-4.0-7.0-1.2","spark_pilot_norest","8201","4","19","Male","","","","","","","null","<div style=""font-size:60px;"">+</div>","null","fixation","","","","","","","","","","","",""
"revaluation","266","1016218","0.0-4.0-7.0-0.3","spark_pilot_norest","8201","4","19","Male","","false","","","","","[261.3999999985099]","./assets/img/ocean/test/2.jpg","[""ArrowUp""]","first stage test","ocean","0","{""ArrowUp,ArrowLeft"":2,""ArrowUp,ArrowRight"":11,""ArrowDown,ArrowLeft"":8,""ArrowDown,ArrowRight"":27}","false","ArrowUp","false","revaluation","1","","","",""
"html-keyboard-response","267","1016722","0.0-4.0-7.0-1.3","spark_pilot_norest","8201","4","19","Male","","","","","","","null","<div style=""font-size:60px;"">+</div>","null","fixation","","","","","","","","","","","",""
"learning-instructions","268","1030067","0.0-4.0-8.0-0.0","spark_pilot_norest","8201","4","19","Male","","","","","","","null","<p> Now you will see the animals again and can search their chests for treasure. </p>
            <p> This time, you will not see how much treasure you earned, but you will earn more bonus money for making better choices. </p>","","instructions","","","","","","","","","","","",""
"html-keyboard-response","269","1031074","0.0-4.0-9.0-0.0","spark_pilot_norest","8201","4","19","Male","","","","","","","null","<div style=""font-size:100px;color:red;"">Starting in...</div>","null","","","","","","","","","","","","",""
"html-keyboard-response","270","1032084","0.0-4.0-9.0-1.0","spark_pilot_norest","8201","4","19","Male","","","","","","","null","<div style=""font-size:200px;color:red;"">3</div>","null","","","","","","","","","","","","",""
"html-keyboard-response","271","1033096","0.0-4.0-9.0-2.0","spark_pilot_norest","8201","4","19","Male","","","","","","","null","<div style=""font-size:200px;color:red;"">2</div>","null","","","","","","","","","","","","",""
"html-keyboard-response","272","1034098","0.0-4.0-9.0-3.0","spark_pilot_norest","8201","4","19","Male","","","","","","","null","<div style=""font-size:200px;color:red;"">1</div>","null","","","","","","","","","","","","",""
"revaluation","273","1034471","0.0-4.0-10.0-0.0","spark_pilot_norest","8201","4","19","Male","","false","","","","","[369.7999999988824]","./assets/img/ocean/animals/octopus.jpg","[""ArrowRight""]","second stage test","ocean","0","{""ArrowUp,ArrowLeft"":2,""ArrowUp,ArrowRight"":11,""ArrowDown,ArrowLeft"":8,""ArrowDown,ArrowRight"":27}","true","ArrowUp,ArrowRight","","revaluation","1","","","",""
"html-keyboard-response","274","1034975","0.0-4.0-10.0-1.0","spark_pilot_norest","8201","4","19","Male","","","","","","","null","<div style=""font-size:60px;"">+</div>","null","fixation","","","","","","","","","","","",""
"revaluation","275","1035171","0.0-4.0-10.0-0.1","spark_pilot_norest","8201","4","19","Male","","false","","","","","[194.09999999962747]","./assets/img/ocean/animals/octopus.jpg","[""ArrowRight""]","second stage test","ocean","0","{""ArrowUp,ArrowLeft"":2,""ArrowUp,ArrowRight"":11,""ArrowDown,ArrowLeft"":8,""ArrowDown,ArrowRight"":27}","true","ArrowUp,ArrowRight","","revaluation","1","","","",""
"html-keyboard-response","276","1035674","0.0-4.0-10.0-1.1","spark_pilot_norest","8201","4","19","Male","","","","","","","null","<div style=""font-size:60px;"">+</div>","null","fixation","","","","","","","","","","","",""
"revaluation","277","1035806","0.0-4.0-10.0-0.2","spark_pilot_norest","8201","4","19","Male","","false","","","","","[129.90000000037253]","./assets/img/ocean/animals/octopus.jpg","[""ArrowRight""]","second stage test","ocean","0","{""ArrowUp,ArrowLeft"":2,""ArrowUp,ArrowRight"":11,""ArrowDown,ArrowLeft"":8,""ArrowDown,ArrowRight"":27}","true","ArrowUp,ArrowRight","","revaluation","1","","","",""
"html-keyboard-response","278","1036313","0.0-4.0-10.0-1.2","spark_pilot_norest","8201","4","19","Male","","","","","","","null","<div style=""font-size:60px;"">+</div>","null","fixation","","","","","","","","","","","",""
"revaluation","279","1036428","0.0-4.0-10.0-0.3","spark_pilot_norest","8201","4","19","Male","","false","","","","","[113]","./assets/img/ocean/animals/octopus.jpg","[""ArrowRight""]","second stage test","ocean","0","{""ArrowUp,ArrowLeft"":2,""ArrowUp,ArrowRight"":11,""ArrowDown,ArrowLeft"":8,""ArrowDown,ArrowRight"":27}","true","ArrowUp,ArrowRight","","revaluation","1","","","",""
"html-keyboard-response","280","1036930","0.0-4.0-10.0-1.3","spark_pilot_norest","8201","4","19","Male","","","","","","","null","<div style=""font-size:60px;"">+</div>","null","fixation","","","","","","","","","","","",""
"revaluation","281","1037357","0.0-4.0-10.0-0.4","spark_pilot_norest","8201","4","19","Male","","false","","","","","[425.80000000074506]","./assets/img/ocean/animals/seahorse.jpg","[""ArrowRight""]","second stage test","ocean","0","{""ArrowUp,ArrowLeft"":2,""ArrowUp,ArrowRight"":11,""ArrowDown,ArrowLeft"":8,""ArrowDown,ArrowRight"":27}","true","ArrowDown,ArrowRight","","revaluation","1","","","",""
"html-keyboard-response","282","1037870","0.0-4.0-10.0-1.4","spark_pilot_norest","8201","4","19","Male","","","","","","","null","<div style=""font-size:60px;"">+</div>","null","fixation","","","","","","","","","","","",""
"revaluation","283","1038217","0.0-4.0-10.0-0.5","spark_pilot_norest","8201","4","19","Male","","false","","","","","[344.59999999962747]","./assets/img/ocean/animals/seahorse.jpg","[""ArrowRight""]","second stage test","ocean","0","{""ArrowUp,ArrowLeft"":2,""ArrowUp,ArrowRight"":11,""ArrowDown,ArrowLeft"":8,""ArrowDown,ArrowRight"":27}","true","ArrowDown,ArrowRight","","revaluation","1","","","",""
"html-keyboard-response","284","1038717","0.0-4.0-10.0-1.5","spark_pilot_norest","8201","4","19","Male","","","","","","","null","<div style=""font-size:60px;"">+</div>","null","fixation","","","","","","","","","","","",""
"revaluation","285","1038988","0.0-4.0-10.0-0.6","spark_pilot_norest","8201","4","19","Male","","false","","","","","[268.80000000074506]","./assets/img/ocean/animals/seahorse.jpg","[""ArrowRight""]","second stage test","ocean","0","{""ArrowUp,ArrowLeft"":2,""ArrowUp,ArrowRight"":11,""ArrowDown,ArrowLeft"":8,""ArrowDown,ArrowRight"":27}","true","ArrowDown,ArrowRight","","revaluation","1","","","",""
"html-keyboard-response","286","1039491","0.0-4.0-10.0-1.6","spark_pilot_norest","8201","4","19","Male","","","","","","","null","<div style=""font-size:60px;"">+</div>","null","fixation","","","","","","","","","","","",""
"revaluation","287","1039743","0.0-4.0-10.0-0.7","spark_pilot_norest","8201","4","19","Male","","false","","","","","[250.09999999962747]","./assets/img/ocean/animals/seahorse.jpg","[""ArrowRight""]","second stage test","ocean","0","{""ArrowUp,ArrowLeft"":2,""ArrowUp,ArrowRight"":11,""ArrowDown,ArrowLeft"":8,""ArrowDown,ArrowRight"":27}","true","ArrowDown,ArrowRight","","revaluation","1","","","",""
"html-keyboard-response","288","1040257","0.0-4.0-10.0-1.7","spark_pilot_norest","8201","4","19","Male","","","","","","","null","<div style=""font-size:60px;"">+</div>","null","fixation","","","","","","","","","","","",""
"learning-instructions","289","1044376","0.0-4.0-0.1-0.2","spark_pilot_norest","8201","4","19","Male","","","","","","","1358.5999999996275","<p> This time you are searching for treasure in the <b>canyon</b>.</p>","","instructions","","","","","","","","","","","",""
"learning-instructions","290","1062549","0.0-4.0-0.1-0.3","spark_pilot_norest","8201","4","19","Male","","","","","","","917.5999999996275","<p><b>New</b> animals with <b>new</b> treasure chests live here. You need to explore to discover where the animal with the best treasure chest is.</p>
                    <p> Like before, once you figure out which animal has the chest with the most treasure, you should try to get to that animal and select that chest! </p>","","instructions","","","","","","","","","","","",""
"learning-instructions","291","1078357","0.0-4.0-1.1-0.1","spark_pilot_norest","8201","4","19","Male","","","","","","","1076.800000000745","<p> Remember, when you see a picture of the place, use the up and down keys to <b>find an animal</b>.</p>
            <p> When you encounter an animal, you should use the left and right keys to <b>select a treasure chest</b>.</p>
            <p> Don't forget to look out for the robber! </p>","","instructions","","","","","","","","","","","",""
"revaluation","292","1084383","0.0-4.0-2.1-0.50","spark_pilot_norest","8201","4","19","Male","","false","","","","","[862.8000000007451,447.80000000074506]","./assets/img/canyon/memory/6.jpg","[""ArrowUp"",""ArrowRight""]","value training","canyon","10","{""ArrowUp,ArrowLeft"":23,""ArrowUp,ArrowRight"":10,""ArrowDown,ArrowLeft"":8,""ArrowDown,ArrowRight"":30}","false","ArrowUp,ArrowRight","false","original","2","0","","",""
"html-keyboard-response","293","1084886","0.0-4.0-2.1-1.50","spark_pilot_norest","8201","4","19","Male","","","","","","","null","<div style=""font-size:60px;"">+</div>","null","fixation","","","","","","","","","1","","",""
"revaluation","294","1090906","0.0-4.0-2.1-0.51","spark_pilot_norest","8201","4","19","Male","","false","","","","","[400.5,280]","./assets/img/canyon/memory/41.jpg","[""ArrowUp"",""ArrowLeft""]","value training","canyon","23","{""ArrowUp,ArrowLeft"":23,""ArrowUp,ArrowRight"":10,""ArrowDown,ArrowLeft"":8,""ArrowDown,ArrowRight"":30}","false","ArrowUp,ArrowLeft","false","original","2","2","","",""
"html-keyboard-response","295","1091412","0.0-4.0-2.1-1.51","spark_pilot_norest","8201","4","19","Male","","","","","","","null","<div style=""font-size:60px;"">+</div>","null","fixation","","","","","","","","","3","","",""
"revaluation","296","1095434","0.0-4.0-2.1-0.52","spark_pilot_norest","8201","4","19","Male","","false","","","","","[254.90000000037253]","./assets/img/canyon/catch/5.jpg","[""ArrowDown""]","value training","canyon","-10","{""ArrowUp,ArrowLeft"":23,""ArrowUp,ArrowRight"":10,""ArrowDown,ArrowLeft"":8,""ArrowDown,ArrowRight"":30}","false","ArrowDown","true","original","2","4","","",""
"html-keyboard-response","297","1095951","0.0-4.0-2.1-1.52","spark_pilot_norest","8201","4","19","Male","","","","","","","null","<div style=""font-size:60px;"">+</div>","null","fixation","","","","","","","","","5","","",""
"revaluation","298","1101984","0.0-4.0-2.1-0.53","spark_pilot_norest","8201","4","19","Male","","false","","","","","[424.40000000037253,590.8000000007451]","./assets/img/canyon/memory/40.jpg","[""ArrowDown"",""ArrowRight""]","value training","canyon","30","{""ArrowUp,ArrowLeft"":23,""ArrowUp,ArrowRight"":10,""ArrowDown,ArrowLeft"":8,""ArrowDown,ArrowRight"":30}","true","ArrowDown,ArrowRight","false","original","2","6","","",""
"html-keyboard-response","299","1102485","0.0-4.0-2.1-1.53","spark_pilot_norest","8201","4","19","Male","","","","","","","null","<div style=""font-size:60px;"">+</div>","null","fixation","","","","","","","","","7","","",""
"revaluation","300","1108502","0.0-4.0-2.1-0.54","spark_pilot_norest","8201","4","19","Male","","false","","","","","[381,280.59999999962747]","./assets/img/canyon/memory/9.jpg","[""ArrowDown"",""ArrowLeft""]","value training","canyon","8","{""ArrowUp,ArrowLeft"":23,""ArrowUp,ArrowRight"":10,""ArrowDown,ArrowLeft"":8,""ArrowDown,ArrowRight"":30}","false","ArrowDown,ArrowLeft","false","original","2","8","","",""
"html-keyboard-response","301","1109004","0.0-4.0-2.1-1.54","spark_pilot_norest","8201","4","19","Male","","","","","","","null","<div style=""font-size:60px;"">+</div>","null","fixation","","","","","","","","","9","","",""
"revaluation","302","1115009","0.0-4.0-2.1-0.55","spark_pilot_norest","8201","4","19","Male","","false","","","","","[717.7000000011176,387.80000000074506]","./assets/img/canyon/memory/18.jpg","[""ArrowDown"",""ArrowRight""]","value training","canyon","30","{""ArrowUp,ArrowLeft"":23,""ArrowUp,ArrowRight"":10,""ArrowDown,ArrowLeft"":8,""ArrowDown,ArrowRight"":30}","true","ArrowDown,ArrowRight","false","original","2","10","","",""
"html-keyboard-response","303","1115511","0.0-4.0-2.1-1.55","spark_pilot_norest","8201","4","19","Male","","","","","","","null","<div style=""font-size:60px;"">+</div>","null","fixation","","","","","","","","","11","","",""
"revaluation","304","1121515","0.0-4.0-2.1-0.56","spark_pilot_norest","8201","4","19","Male","","false","","","","","[775.9000000003725,380.40000000037253]","./assets/img/canyon/memory/27.jpg","[""ArrowDown"",""ArrowRight""]","value training","canyon","30","{""ArrowUp,ArrowLeft"":23,""ArrowUp,ArrowRight"":10,""ArrowDown,ArrowLeft"":8,""ArrowDown,ArrowRight"":30}","true","ArrowDown,ArrowRight","false","original","2","12","","",""
"html-keyboard-response","305","1122017","0.0-4.0-2.1-1.56","spark_pilot_norest","8201","4","19","Male","","","","","","","null","<div style=""font-size:60px;"">+</div>","null","fixation","","","","","","","","","13","","",""
"revaluation","306","1128022","0.0-4.0-2.1-0.57","spark_pilot_norest","8201","4","19","Male","","false","","","","","[717.3999999985099,443.90000000037253]","./assets/img/canyon/memory/0.jpg","[""ArrowDown"",""ArrowRight""]","value training","canyon","30","{""ArrowUp,ArrowLeft"":23,""ArrowUp,ArrowRight"":10,""ArrowDown,ArrowLeft"":8,""ArrowDown,ArrowRight"":30}","true","ArrowDown,ArrowRight","false","original","2","14","","",""
"html-keyboard-response","307","1128523","0.0-4.0-2.1-1.57","spark_pilot_norest","8201","4","19","Male","","","","","","","null","<div style=""font-size:60px;"">+</div>","null","fixation","","","","","","","","","15","","",""
"revaluation","308","1134528","0.0-4.0-2.1-0.58","spark_pilot_norest","8201","4","19","Male","","false","","","","","[579.0999999996275,381]","./assets/img/canyon/memory/9.jpg","[""ArrowDown"",""ArrowRight""]","value training","canyon","30","{""ArrowUp,ArrowLeft"":23,""ArrowUp,ArrowRight"":10,""ArrowDown,ArrowLeft"":8,""ArrowDown,ArrowRight"":30}","true","ArrowDown,ArrowRight","false","original","2","16","","",""
"html-keyboard-response","309","1135029","0.0-4.0-2.1-1.58","spark_pilot_norest","8201","4","19","Male","","","","","","","null","<div style=""font-size:60px;"">+</div>","null","fixation","","","","","","","","","17","","",""
"revaluation","310","1141034","0.0-4.0-2.1-0.59","spark_pilot_norest","8201","4","19","Male","","false","","","","","[434.09999999962747,930.7000000011176]","./assets/img/canyon/memory/12.jpg","[""ArrowDown"",""ArrowRight""]","value training","canyon","30","{""ArrowUp,ArrowLeft"":23,""ArrowUp,ArrowRight"":10,""ArrowDown,ArrowLeft"":8,""ArrowDown,ArrowRight"":30}","true","ArrowDown,ArrowRight","false","original","2","18","","",""
"html-keyboard-response","311","1141536","0.0-4.0-2.1-1.59","spark_pilot_norest","8201","4","19","Male","","","","","","","null","<div style=""font-size:60px;"">+</div>","null","fixation","","","","","","","","","19","","",""
"revaluation","312","1145541","0.0-4.0-2.1-0.60","spark_pilot_norest","8201","4","19","Male","","false","","","","","[711.9000000003725]","./assets/img/canyon/catch/7.jpg","[""spaceBar""]","value training","canyon","0","{""ArrowUp,ArrowLeft"":23,""ArrowUp,ArrowRight"":10,""ArrowDown,ArrowLeft"":8,""ArrowDown,ArrowRight"":30}","true","spaceBar","true","original","2","20","","",""
"html-keyboard-response","313","1146042","0.0-4.0-2.1-1.60","spark_pilot_norest","8201","4","19","Male","","","","","","","null","<div style=""font-size:60px;"">+</div>","null","fixation","","","","","","","","","21","","",""
