"trial_type","trial_index","time_elapsed","internal_node_id","task_version","subject_id","assigned_condition","age","gender","success","timeout","failed_images","failed_audio","failed_video","browser_interaction","rt","stimulus","response","task_part","environment","score","rewardMap","correct","fullState","isCatch","condition","order","trial_num","key_press","ground_truth","bonus"
"pavlovia","0","1942","0.0-0.0","spark_pilot_norest","8632","3","14","Male","","","","","","","","","","","","","","","","","","","","","",""
"preload","1","27330","0.0-1.0","spark_pilot_norest","8632","3","14","Male","true","false","[]","[]","[]","[{""event"":""fullscreenenter"",""trial"":2,""time"":38519}]","","","","","","","","","","","","","","","",""
"fullscreen","2","39494","0.0-2.0","spark_pilot_norest","8632","3","14","Male","true","","","","","","","","","","","","","","","","","","","","",""
"audio-button-response","3","41489","0.0-3.0-0.0-0.0","spark_pilot_norest","8632","3","14","Male","","","","","","","1051","./assets/audio/audiotest/turtle.mp3","2","audio_test","","","","","","","","","","","",""
"learning-instructions","4","52212","0.0-3.0-1.0-0.0","spark_pilot_norest","8632","3","14","Male","","","","","","","3757.5","<p> Welcome! Please remember to stay in fullscreen mode and don't click away from the experiment. </p>","","instructions","","","","","","","","","","","",""
"learning-instructions","5","62520","0.0-3.0-1.0-0.1","spark_pilot_norest","8632","3","14","Male","","","","","","","1193.0999999642372","<p> Today you will be playing a game to earn treasure. </p>
            <p> At the end of the experiment, you will earn a bonus based on how much treasure you find. </p>
            <img src='./assets/img/instructions/treasure.jpg' class='instructions-image'>","","instructions","","","","","","","","","","","",""
"learning-instructions","6","75816","0.0-3.0-1.0-0.2","spark_pilot_norest","8632","3","14","Male","","","","","","","4977.100000023842","<p> Animals have hidden treasure in treasure chests. </p>
            <p> You need to first find an animal and then choose which of their treasure chests to search. </p>
            <img src='./assets/img/space/animals/cat.jpg' class='instructions-image'>","","instructions","","","","","","","","","","","",""
"learning-instructions","7","90661","0.0-3.0-1.0-0.3","spark_pilot_norest","8632","3","14","Male","","","","","","","1669","<p> In each round, you will search for treasure in a different place. In the real game, there will be two rounds. </p>
            <p> You will begin with a separate, practice round where you will search for treasure in outer space. </p>
            <img src='./assets/img/space/0.jpg' class='instructions-image'>","","instructions","","","","","","","","","","","",""
"learning-instructions","8","104031","0.0-3.0-1.0-0.4","spark_pilot_norest","8632","3","14","Male","","","","","","","1948.8999999761581","<p> On every turn, you will see a picture of the place that you are in, but the specific image may be different each time. </p>
            <p> For example, both of these images mean you are in outer space. </p>
            <img src='./assets/img/instructions/outerspace.jpg' class='instructions-image'>","","instructions","","","","","","","","","","","",""
"learning-instructions","9","116663","0.0-3.0-1.0-0.5","spark_pilot_norest","8632","3","14","Male","","","","","","","4800.199999988079","<p> You need to decide which direction to travel in. </p>
            <p> You can choose between going <b>up or down</b> by using the arrow keys. </p>
            <img src='./assets/img/instructions/updown.jpg' class='instructions-image'>","","instructions","","","","","","","","","","","",""
"learning-instructions","10","128684","0.0-3.0-1.0-0.6","spark_pilot_norest","8632","3","14","Male","","","","","","","3202.099999964237","<p> You will have <b>2 seconds</b> to make your choice. </p>
            <p> If you do not make a choice within 2 seconds, you will not find an animal or earn treasure. </p>
            <img src='./assets/img/instructions/2seconds.jpg' class='instructions-image'>","","instructions","","","","","","","","","","","",""
"learning-instructions","11","136830","0.0-3.0-1.0-0.7","spark_pilot_norest","8632","3","14","Male","","","","","","","1108.6000000238419","<p> Let’s try practicing that now! </p>
            <p> When you see a picture of the place you are in, press the <b>up</b> key to travel up. </p>
            <img src='./assets/img/instructions/pressUp.jpg' class='instructions-image'>","","instructions","","","","","","","","","","","",""
"revaluation","12","140852","0.0-3.0-2.0-0.0","spark_pilot_norest","8632","3","14","Male","","false","","","","","[1253.1000000238419]","./assets/img/space/0.jpg","[""ArrowUp""]","first stage practice","space","0","null","null","ArrowUp","false","","","","","",""
"html-keyboard-response","13","141368","0.0-3.0-2.0-1.0","spark_pilot_norest","8632","3","14","Male","","","","","","","null","<div style=""font-size:60px;"">+</div>","null","fixation","","","","","","","","","","","",""
"revaluation","14","145395","0.0-3.0-2.0-0.1","spark_pilot_norest","8632","3","14","Male","","false","","","","","[801.3000000119209]","./assets/img/space/1.jpg","[""ArrowUp""]","first stage practice","space","0","null","null","ArrowUp","false","","","","","",""
"html-keyboard-response","15","145903","0.0-3.0-2.0-1.1","spark_pilot_norest","8632","3","14","Male","","","","","","","null","<div style=""font-size:60px;"">+</div>","null","fixation","","","","","","","","","","","",""
"revaluation","16","149917","0.0-3.0-2.0-0.2","spark_pilot_norest","8632","3","14","Male","","false","","","","","[1269.9000000357628]","./assets/img/space/2.jpg","[""ArrowUp""]","first stage practice","space","0","null","null","ArrowUp","false","","","","","",""
"html-keyboard-response","17","150427","0.0-3.0-2.0-1.2","spark_pilot_norest","8632","3","14","Male","","","","","","","null","<div style=""font-size:60px;"">+</div>","null","fixation","","","","","","","","","","","",""
"learning-instructions","18","156262","0.0-3.0-3.0-0.0","spark_pilot_norest","8632","3","14","Male","","","","","","","1130.4000000357628","<p> Great job! Now try pressing the <b>down</b> key to travel down. </p>
            <img src='./assets/img/instructions/pressDown.jpg' class='instructions-image'>","","instructions","","","","","","","","","","","",""
"revaluation","19","160287","0.0-3.0-4.0-0.0","spark_pilot_norest","8632","3","14","Male","","false","","","","","[912.1999999880791]","./assets/img/space/3.jpg","[""ArrowDown""]","first stage practice","space","0","null","null","ArrowDown","false","","","","","",""
"html-keyboard-response","20","160798","0.0-3.0-4.0-1.0","spark_pilot_norest","8632","3","14","Male","","","","","","","null","<div style=""font-size:60px;"">+</div>","null","fixation","","","","","","","","","","","",""
"revaluation","21","164823","0.0-3.0-4.0-0.1","spark_pilot_norest","8632","3","14","Male","","false","","","","","[653.1999999880791]","./assets/img/space/4.jpg","[""ArrowDown""]","first stage practice","space","0","null","null","ArrowDown","false","","","","","",""
"html-keyboard-response","22","165333","0.0-3.0-4.0-1.1","spark_pilot_norest","8632","3","14","Male","","","","","","","null","<div style=""font-size:60px;"">+</div>","null","fixation","","","","","","","","","","","",""
"revaluation","23","169344","0.0-3.0-4.0-0.2","spark_pilot_norest","8632","3","14","Male","","false","","","","","[511]","./assets/img/space/5.jpg","[""ArrowDown""]","first stage practice","space","0","null","null","ArrowDown","false","","","","","",""
"html-keyboard-response","24","169854","0.0-3.0-4.0-1.2","spark_pilot_norest","8632","3","14","Male","","","","","","","null","<div style=""font-size:60px;"">+</div>","null","fixation","","","","","","","","","","","",""
"learning-instructions","25","185109","0.0-3.0-5.0-0.0","spark_pilot_norest","8632","3","14","Male","","","","","","","5386.900000035763","<p> The animals don’t move, so the animal in the upper part of a place will stay in the upper part of a place, and the animal in the lower part of a place will stay in the lower part of a place. </p>","","instructions","","","","","","","","","","","",""
"learning-instructions","26","245608","0.0-3.0-5.0-0.1","spark_pilot_norest","8632","3","14","Male","","","","","","","51365.69999998808","<p> Each animal has two treasure chests for you to choose from. </p>
            <p> The amount of treasure in each chest can range from <b> 0 to 40 pieces.</b></p>","","instructions","","","","","","","","","","","",""
"learning-instructions","27","258197","0.0-3.0-5.0-0.2","spark_pilot_norest","8632","3","14","Male","","","","","","","1385.800000011921","<p> You should decide which chest to search for treasure by using the <b>left</b> and <b>right</b> arrow keys. </p>
            <p><b> Pay attention to which animal is on the screen, as the animals have different treasure chests. </b></p>
            <img src='./assets/img/instructions/leftright.jpg' class='instructions-image'>","","instructions","","","","","","","","","","","",""
"learning-instructions","28","265397","0.0-3.0-5.0-0.3","spark_pilot_norest","8632","3","14","Male","","","","","","","835.8000000119209","<p> Let’s try practicing that now. </p>
            <p> When you see an animal, choose which chest to search for treasure. </p>
            <img src='./assets/img/instructions/chooseChest.jpg' class='instructions-image'>","","instructions","","","","","","","","","","","",""
"revaluation","29","269402","0.0-3.0-6.0-0.0","spark_pilot_norest","8632","3","14","Male","","false","","","","","[589.6999999880791]","./assets/img/space/animals/rabbit.jpg","[""ArrowLeft""]","second stage practice","space","15","{""ArrowUp,ArrowLeft"":3,""ArrowUp,ArrowRight"":36,""ArrowDown,ArrowLeft"":15,""ArrowDown,ArrowRight"":23}","false","ArrowDown,ArrowLeft","","","","","","",""
"html-keyboard-response","30","269915","0.0-3.0-6.0-1.0","spark_pilot_norest","8632","3","14","Male","","","","","","","null","<div style=""font-size:60px;"">+</div>","null","fixation","","","","","","","","","","","",""
"revaluation","31","273918","0.0-3.0-6.0-0.1","spark_pilot_norest","8632","3","14","Male","","false","","","","","[1084.8999999761581]","./assets/img/space/animals/cat.jpg","[""ArrowRight""]","second stage practice","space","36","{""ArrowUp,ArrowLeft"":3,""ArrowUp,ArrowRight"":36,""ArrowDown,ArrowLeft"":15,""ArrowDown,ArrowRight"":23}","true","ArrowUp,ArrowRight","","","","","","",""
"html-keyboard-response","32","274422","0.0-3.0-6.0-1.1","spark_pilot_norest","8632","3","14","Male","","","","","","","null","<div style=""font-size:60px;"">+</div>","null","fixation","","","","","","","","","","","",""
"revaluation","33","278440","0.0-3.0-6.0-0.2","spark_pilot_norest","8632","3","14","Male","","false","","","","","[237.39999997615814]","./assets/img/space/animals/rabbit.jpg","[""ArrowRight""]","second stage practice","space","23","{""ArrowUp,ArrowLeft"":3,""ArrowUp,ArrowRight"":36,""ArrowDown,ArrowLeft"":15,""ArrowDown,ArrowRight"":23}","true","ArrowDown,ArrowRight","","","","","","",""
"html-keyboard-response","34","278952","0.0-3.0-6.0-1.2","spark_pilot_norest","8632","3","14","Male","","","","","","","null","<div style=""font-size:60px;"">+</div>","null","fixation","","","","","","","","","","","",""
"revaluation","35","282956","0.0-3.0-6.0-0.3","spark_pilot_norest","8632","3","14","Male","","false","","","","","[19.399999976158142]","./assets/img/space/animals/cat.jpg","[""ArrowRight""]","second stage practice","space","36","{""ArrowUp,ArrowLeft"":3,""ArrowUp,ArrowRight"":36,""ArrowDown,ArrowLeft"":15,""ArrowDown,ArrowRight"":23}","true","ArrowUp,ArrowRight","","","","","","",""
"html-keyboard-response","36","283461","0.0-3.0-6.0-1.3","spark_pilot_norest","8632","3","14","Male","","","","","","","null","<div style=""font-size:60px;"">+</div>","null","fixation","","","","","","","","","","","",""
"learning-instructions","37","301326","0.0-3.0-7.0-0.0","spark_pilot_norest","8632","3","14","Male","","","","","","","1035","<p> Great job. Now let’s try putting it together. </p>
            <p> On each turn, you will first see a picture to remind you of the place you are in, and you need to choose whether to go up or down. </p>
            <p> Then you will see an animal and choose which of its chests to search for treasure. </p>","","instructions","","","","","","","","","","","",""
"learning-instructions","38","310173","0.0-3.0-7.0-0.1","spark_pilot_norest","8632","3","14","Male","","","","","","","572","<p> When you choose whether to go up or down, try to go to the animal with the chest with the most treasure. </p>
            <p> Try practicing that now! </p>","","instructions","","","","","","","","","","","",""
"revaluation","39","316197","0.0-3.0-8.0-0.0","spark_pilot_norest","8632","3","14","Male","","false","","","","","[1031.5,1014.1999999880791]","./assets/img/space/6.jpg","[""ArrowUp"",""ArrowRight""]","full practice","space","36","{""ArrowUp,ArrowLeft"":3,""ArrowUp,ArrowRight"":36,""ArrowDown,ArrowLeft"":15,""ArrowDown,ArrowRight"":23}","true","ArrowUp,ArrowRight","false","","","","","",""
"html-keyboard-response","40","316703","0.0-3.0-8.0-1.0","spark_pilot_norest","8632","3","14","Male","","","","","","","null","<div style=""font-size:60px;"">+</div>","null","fixation","","","","","","","","","","","",""
"revaluation","41","322738","0.0-3.0-8.0-0.1","spark_pilot_norest","8632","3","14","Male","","false","","","","","[748.5999999642372,334.89999997615814]","./assets/img/space/7.jpg","[""ArrowDown"",""ArrowRight""]","full practice","space","23","{""ArrowUp,ArrowLeft"":3,""ArrowUp,ArrowRight"":36,""ArrowDown,ArrowLeft"":15,""ArrowDown,ArrowRight"":23}","false","ArrowDown,ArrowRight","false","","","","","",""
"html-keyboard-response","42","323245","0.0-3.0-8.0-1.1","spark_pilot_norest","8632","3","14","Male","","","","","","","null","<div style=""font-size:60px;"">+</div>","null","fixation","","","","","","","","","","","",""
"revaluation","43","329269","0.0-3.0-8.0-0.2","spark_pilot_norest","8632","3","14","Male","","false","","","","","[45.59999996423721,363.39999997615814]","./assets/img/space/8.jpg","[""ArrowDown"",""ArrowRight""]","full practice","space","23","{""ArrowUp,ArrowLeft"":3,""ArrowUp,ArrowRight"":36,""ArrowDown,ArrowLeft"":15,""ArrowDown,ArrowRight"":23}","false","ArrowDown,ArrowRight","false","","","","","",""
"html-keyboard-response","44","329784","0.0-3.0-8.0-1.2","spark_pilot_norest","8632","3","14","Male","","","","","","","null","<div style=""font-size:60px;"">+</div>","null","fixation","","","","","","","","","","","",""
"revaluation","45","335789","0.0-3.0-8.0-0.3","spark_pilot_norest","8632","3","14","Male","","false","","","","","[155.89999997615814,261.5999999642372]","./assets/img/space/9.jpg","[""ArrowDown"",""ArrowRight""]","full practice","space","23","{""ArrowUp,ArrowLeft"":3,""ArrowUp,ArrowRight"":36,""ArrowDown,ArrowLeft"":15,""ArrowDown,ArrowRight"":23}","false","ArrowDown,ArrowRight","false","","","","","",""
"html-keyboard-response","46","336291","0.0-3.0-8.0-1.3","spark_pilot_norest","8632","3","14","Male","","","","","","","null","<div style=""font-size:60px;"">+</div>","null","fixation","","","","","","","","","","","",""
"revaluation","47","342295","0.0-3.0-8.0-0.4","spark_pilot_norest","8632","3","14","Male","","false","","","","","[139.19999998807907,502.60000002384186]","./assets/img/space/10.jpg","[""ArrowDown"",""ArrowLeft""]","full practice","space","15","{""ArrowUp,ArrowLeft"":3,""ArrowUp,ArrowRight"":36,""ArrowDown,ArrowLeft"":15,""ArrowDown,ArrowRight"":23}","false","ArrowDown,ArrowLeft","false","","","","","",""
"html-keyboard-response","48","342796","0.0-3.0-8.0-1.4","spark_pilot_norest","8632","3","14","Male","","","","","","","null","<div style=""font-size:60px;"">+</div>","null","fixation","","","","","","","","","","","",""
"learning-instructions","49","353830","0.0-3.0-9.0-0.0","spark_pilot_norest","8632","3","14","Male","","","","","","","722.4000000357628","<p> One last thing: sometimes, you will see a robber. The robber can be anywhere in the picture. </p>
            <p> If you do not stop them, you will lose treasure. </p>
            <img src='./assets/img/instructions/robber.jpg' class='instructions-image'>","","instructions","","","","","","","","","","","",""
"learning-instructions","50","361797","0.0-3.0-9.0-0.1","spark_pilot_norest","8632","3","14","Male","","","","","","","789.8999999761581","<p> If you see the robber, you should <b>press the space bar</b> rather than using the arrow keys. </p>
            <p> Try practicing that now! </p>","","instructions","","","","","","","","","","","",""
"revaluation","51","365802","0.0-3.0-10.0-0.0","spark_pilot_norest","8632","3","14","Male","","false","","","","","[765.3000000119209]","./assets/img/space/catch/0.jpg","[""spaceBar""]","catch practice","space","0","{""ArrowUp,ArrowLeft"":3,""ArrowUp,ArrowRight"":36,""ArrowDown,ArrowLeft"":15,""ArrowDown,ArrowRight"":23}","true","spaceBar","true","","","","","",""
"html-keyboard-response","52","366304","0.0-3.0-10.0-1.0","spark_pilot_norest","8632","3","14","Male","","","","","","","null","<div style=""font-size:60px;"">+</div>","null","fixation","","","","","","","","","","","",""
"revaluation","53","370310","0.0-3.0-10.0-0.1","spark_pilot_norest","8632","3","14","Male","","false","","","","","[835.6000000238419]","./assets/img/space/catch/1.jpg","[""spaceBar""]","catch practice","space","0","{""ArrowUp,ArrowLeft"":3,""ArrowUp,ArrowRight"":36,""ArrowDown,ArrowLeft"":15,""ArrowDown,ArrowRight"":23}","true","spaceBar","true","","","","","",""
"html-keyboard-response","54","370811","0.0-3.0-10.0-1.1","spark_pilot_norest","8632","3","14","Male","","","","","","","null","<div style=""font-size:60px;"">+</div>","null","fixation","","","","","","","","","","","",""
"revaluation","55","374817","0.0-3.0-10.0-0.2","spark_pilot_norest","8632","3","14","Male","","false","","","","","[589.8999999761581]","./assets/img/space/catch/2.jpg","[""spaceBar""]","catch practice","space","0","{""ArrowUp,ArrowLeft"":3,""ArrowUp,ArrowRight"":36,""ArrowDown,ArrowLeft"":15,""ArrowDown,ArrowRight"":23}","true","spaceBar","true","","","","","",""
"html-keyboard-response","56","375318","0.0-3.0-10.0-1.2","spark_pilot_norest","8632","3","14","Male","","","","","","","null","<div style=""font-size:60px;"">+</div>","null","fixation","","","","","","","","","","","",""
"learning-instructions","57","381757","0.0-3.0-11.0-0.0-0.0","spark_pilot_norest","8632","3","14","Male","","","","","","","1179.800000011921","<p> Now, you will practice a shortened version of the game to get a sense of how it all fits together. </p>","","instructions","","","","","","","","","","","",""
"learning-instructions","58","387941","0.0-3.0-11.0-0.0-0.1","spark_pilot_norest","8632","3","14","Male","","","","","","","2993.599999964237","<p>This time you are searching for treasure in outer space.</p>","","instructions","","","","","","","","","","","",""
"learning-instructions","59","404605","0.0-3.0-11.0-1.0-0.0","spark_pilot_norest","8632","3","14","Male","","","","","","","1898","<p> Remember, when you see a picture of the place, use the up and down keys to <b>find an animal</b>.</p>
            <p> When you encounter an animal, you should use the left and right keys to <b>select a treasure chest</b>.</p>
            <p> Don't forget to look out for the robber! </p>","","instructions","","","","","","","","","","","",""
"revaluation","60","410633","0.0-3.0-11.0-2.0-0.0","spark_pilot_norest","8632","3","14","Male","","false","","","","","[630,703.1999999880791]","./assets/img/space/11.jpg","[""ArrowDown"",""ArrowLeft""]","practice block","space","15","{""ArrowUp,ArrowLeft"":3,""ArrowUp,ArrowRight"":36,""ArrowDown,ArrowLeft"":15,""ArrowDown,ArrowRight"":23}","false","ArrowDown,ArrowLeft","false","","","","","",""
"html-keyboard-response","61","411145","0.0-3.0-11.0-2.0-1.0","spark_pilot_norest","8632","3","14","Male","","","","","","","null","<div style=""font-size:60px;"">+</div>","null","fixation","","","","","","","","","","","",""
"revaluation","62","417172","0.0-3.0-11.0-2.0-0.1","spark_pilot_norest","8632","3","14","Male","","false","","","","","[965,790.1999999880791]","./assets/img/space/12.jpg","[""ArrowDown"",""ArrowLeft""]","practice block","space","15","{""ArrowUp,ArrowLeft"":3,""ArrowUp,ArrowRight"":36,""ArrowDown,ArrowLeft"":15,""ArrowDown,ArrowRight"":23}","false","ArrowDown,ArrowLeft","false","","","","","",""
"html-keyboard-response","63","417678","0.0-3.0-11.0-2.0-1.1","spark_pilot_norest","8632","3","14","Male","","","","","","","null","<div style=""font-size:60px;"">+</div>","null","fixation","","","","","","","","","","","",""
"revaluation","64","423698","0.0-3.0-11.0-2.0-0.2","spark_pilot_norest","8632","3","14","Male","","false","","","","","[738.8000000119209,68.40000003576279]","./assets/img/space/13.jpg","[""ArrowDown"",""ArrowRight""]","practice block","space","23","{""ArrowUp,ArrowLeft"":3,""ArrowUp,ArrowRight"":36,""ArrowDown,ArrowLeft"":15,""ArrowDown,ArrowRight"":23}","false","ArrowDown,ArrowRight","false","","","","","",""
"html-keyboard-response","65","424211","0.0-3.0-11.0-2.0-1.2","spark_pilot_norest","8632","3","14","Male","","","","","","","null","<div style=""font-size:60px;"">+</div>","null","fixation","","","","","","","","","","","",""
"revaluation","66","430229","0.0-3.0-11.0-2.0-0.3","spark_pilot_norest","8632","3","14","Male","","false","","","","","[861.6999999880791,1169.3999999761581]","./assets/img/space/14.jpg","[""ArrowUp"",""ArrowRight""]","practice block","space","36","{""ArrowUp,ArrowLeft"":3,""ArrowUp,ArrowRight"":36,""ArrowDown,ArrowLeft"":15,""ArrowDown,ArrowRight"":23}","true","ArrowUp,ArrowRight","false","","","","","",""
"html-keyboard-response","67","430744","0.0-3.0-11.0-2.0-1.3","spark_pilot_norest","8632","3","14","Male","","","","","","","null","<div style=""font-size:60px;"">+</div>","null","fixation","","","","","","","","","","","",""
"revaluation","68","436764","0.0-3.0-11.0-2.0-0.4","spark_pilot_norest","8632","3","14","Male","","false","","","","","[1247.6000000238419,317]","./assets/img/space/11.jpg","[""ArrowUp"",""ArrowRight""]","practice block","space","36","{""ArrowUp,ArrowLeft"":3,""ArrowUp,ArrowRight"":36,""ArrowDown,ArrowLeft"":15,""ArrowDown,ArrowRight"":23}","true","ArrowUp,ArrowRight","false","","","","","",""
"html-keyboard-response","69","437265","0.0-3.0-11.0-2.0-1.4","spark_pilot_norest","8632","3","14","Male","","","","","","","null","<div style=""font-size:60px;"">+</div>","null","fixation","","","","","","","","","","","",""
"revaluation","70","443269","0.0-3.0-11.0-2.0-0.5","spark_pilot_norest","8632","3","14","Male","","false","","","","","[1249.0999999642372,358]","./assets/img/space/12.jpg","[""ArrowUp"",""ArrowRight""]","practice block","space","36","{""ArrowUp,ArrowLeft"":3,""ArrowUp,ArrowRight"":36,""ArrowDown,ArrowLeft"":15,""ArrowDown,ArrowRight"":23}","true","ArrowUp,ArrowRight","false","","","","","",""
"html-keyboard-response","71","443771","0.0-3.0-11.0-2.0-1.5","spark_pilot_norest","8632","3","14","Male","","","","","","","null","<div style=""font-size:60px;"">+</div>","null","fixation","","","","","","","","","","","",""
"revaluation","72","449775","0.0-3.0-11.0-2.0-0.6","spark_pilot_norest","8632","3","14","Male","","false","","","","","[598.8999999761581,574.3999999761581]","./assets/img/space/13.jpg","[""ArrowUp"",""ArrowRight""]","practice block","space","36","{""ArrowUp,ArrowLeft"":3,""ArrowUp,ArrowRight"":36,""ArrowDown,ArrowLeft"":15,""ArrowDown,ArrowRight"":23}","true","ArrowUp,ArrowRight","false","","","","","",""
"html-keyboard-response","73","450278","0.0-3.0-11.0-2.0-1.6","spark_pilot_norest","8632","3","14","Male","","","","","","","null","<div style=""font-size:60px;"">+</div>","null","fixation","","","","","","","","","","","",""
"revaluation","74","456282","0.0-3.0-11.0-2.0-0.7","spark_pilot_norest","8632","3","14","Male","","false","","","","","[1367.800000011921,473.9000000357628]","./assets/img/space/14.jpg","[""ArrowUp"",""ArrowRight""]","practice block","space","36","{""ArrowUp,ArrowLeft"":3,""ArrowUp,ArrowRight"":36,""ArrowDown,ArrowLeft"":15,""ArrowDown,ArrowRight"":23}","true","ArrowUp,ArrowRight","false","","","","","",""
"html-keyboard-response","75","456784","0.0-3.0-11.0-2.0-1.7","spark_pilot_norest","8632","3","14","Male","","","","","","","null","<div style=""font-size:60px;"">+</div>","null","fixation","","","","","","","","","","","",""
"revaluation","76","460787","0.0-3.0-11.0-2.0-0.8","spark_pilot_norest","8632","3","14","Male","","false","","","","","[757.5]","./assets/img/space/catch/3.jpg","[""spaceBar""]","practice block","space","0","{""ArrowUp,ArrowLeft"":3,""ArrowUp,ArrowRight"":36,""ArrowDown,ArrowLeft"":15,""ArrowDown,ArrowRight"":23}","true","spaceBar","true","","","","","",""
"html-keyboard-response","77","461289","0.0-3.0-11.0-2.0-1.8","spark_pilot_norest","8632","3","14","Male","","","","","","","null","<div style=""font-size:60px;"">+</div>","null","fixation","","","","","","","","","","","",""
"learning-instructions","78","482069","0.0-3.0-11.0-3.0-0.0","spark_pilot_norest","8632","3","14","Male","","","","","","","7855","<p> Now, you will travel with a friend who will choose whether you go up or down first. </p>
            <p> On these turns, you will just see the animal that they found. You will still get to choose which chest to search for treasure.</p>","","instructions","","","","","","","","","","","",""
"revaluation","79","486082","0.0-3.0-11.0-4.0-0.0","spark_pilot_norest","8632","3","14","Male","","false","","","","","[1054.9000000357628]","./assets/img/space/animals/cat.jpg","[""ArrowLeft""]","practice block","space","3","{""ArrowUp,ArrowLeft"":3,""ArrowUp,ArrowRight"":36,""ArrowDown,ArrowLeft"":15,""ArrowDown,ArrowRight"":23}","false","ArrowUp,ArrowLeft","","","","","","",""
"html-keyboard-response","80","486590","0.0-3.0-11.0-4.0-1.0","spark_pilot_norest","8632","3","14","Male","","","","","","","null","<div style=""font-size:60px;"">+</div>","null","fixation","","","","","","","","","","","",""
"revaluation","81","490602","0.0-3.0-11.0-4.0-0.1","spark_pilot_norest","8632","3","14","Male","","false","","","","","[366.7999999523163]","./assets/img/space/animals/cat.jpg","[""ArrowRight""]","practice block","space","36","{""ArrowUp,ArrowLeft"":3,""ArrowUp,ArrowRight"":36,""ArrowDown,ArrowLeft"":15,""ArrowDown,ArrowRight"":23}","true","ArrowUp,ArrowRight","","","","","","",""
"html-keyboard-response","82","491112","0.0-3.0-11.0-4.0-1.1","spark_pilot_norest","8632","3","14","Male","","","","","","","null","<div style=""font-size:60px;"">+</div>","null","fixation","","","","","","","","","","","",""
"revaluation","83","495134","0.0-3.0-11.0-4.0-0.2","spark_pilot_norest","8632","3","14","Male","","false","","","","","[1420.3999999761581]","./assets/img/space/animals/rabbit.jpg","[""ArrowLeft""]","practice block","space","15","{""ArrowUp,ArrowLeft"":3,""ArrowUp,ArrowRight"":36,""ArrowDown,ArrowLeft"":15,""ArrowDown,ArrowRight"":23}","false","ArrowDown,ArrowLeft","","","","","","",""
"html-keyboard-response","84","495650","0.0-3.0-11.0-4.0-1.2","spark_pilot_norest","8632","3","14","Male","","","","","","","null","<div style=""font-size:60px;"">+</div>","null","fixation","","","","","","","","","","","",""
"revaluation","85","499660","0.0-3.0-11.0-4.0-0.3","spark_pilot_norest","8632","3","14","Male","","false","","","","","[199.89999997615814]","./assets/img/space/animals/rabbit.jpg","[""ArrowRight""]","practice block","space","23","{""ArrowUp,ArrowLeft"":3,""ArrowUp,ArrowRight"":36,""ArrowDown,ArrowLeft"":15,""ArrowDown,ArrowRight"":23}","true","ArrowDown,ArrowRight","","","","","","",""
"html-keyboard-response","86","500170","0.0-3.0-11.0-4.0-1.3","spark_pilot_norest","8632","3","14","Male","","","","","","","null","<div style=""font-size:60px;"">+</div>","null","fixation","","","","","","","","","","","",""
"learning-instructions","87","508306","0.0-3.0-11.0-5.0-0.0","spark_pilot_norest","8632","3","14","Male","","","","","","","null","<p> You have almost finished this part of the game! </p>
            <p> We are going to ask you to make a few more choices. </p>","","instructions","","","","","","","","","","","",""
"learning-instructions","88","524338","0.0-3.0-11.0-5.0-0.1","spark_pilot_norest","8632","3","14","Male","","","","","","","null","<p> First, you need to decide whether to go up or down. When you see each picture, use the arrow keys to make your choice. </p>
            <p><b>You will not see which animal you found, but try to get to the one that will give you the most treasure.</b></p>","","instructions","","","","","","","","","","","",""
"html-keyboard-response","89","525350","0.0-3.0-11.0-6.0-0.0","spark_pilot_norest","8632","3","14","Male","","","","","","","null","<div style=""font-size:100px;color:red;"">Starting in...</div>","null","","","","","","","","","","","","",""
"html-keyboard-response","90","526358","0.0-3.0-11.0-6.0-1.0","spark_pilot_norest","8632","3","14","Male","","","","","","","null","<div style=""font-size:200px;color:red;"">3</div>","null","","","","","","","","","","","","",""
"html-keyboard-response","91","527374","0.0-3.0-11.0-6.0-2.0","spark_pilot_norest","8632","3","14","Male","","","","","","","null","<div style=""font-size:200px;color:red;"">2</div>","null","","","","","","","","","","","","",""
"html-keyboard-response","92","528388","0.0-3.0-11.0-6.0-3.0","spark_pilot_norest","8632","3","14","Male","","","","","","","null","<div style=""font-size:200px;color:red;"">1</div>","null","","","","","","","","","","","","",""
"revaluation","93","529000","0.0-3.0-11.0-7.0","spark_pilot_norest","8632","3","14","Male","","false","","","","","[610.4000000357628]","./assets/img/space/15.jpg","[""ArrowUp""]","practice block","space","0","{""ArrowUp,ArrowLeft"":3,""ArrowUp,ArrowRight"":36,""ArrowDown,ArrowLeft"":15,""ArrowDown,ArrowRight"":23}","true","ArrowUp","false","","","","","",""
"html-keyboard-response","94","529506","0.0-3.0-11.0-8.0","spark_pilot_norest","8632","3","14","Male","","","","","","","null","<div style=""font-size:60px;"">+</div>","null","fixation","","","","","","","","","","","",""
"learning-instructions","95","542902","0.0-3.0-11.0-9.0-0.0","spark_pilot_norest","8632","3","14","Male","","","","","","","null","<p> Now you will see the animals again and can search their chests for treasure. </p>
            <p> This time, you will not see how much treasure you earned, but you will earn more bonus money for making better choices. </p>","","instructions","","","","","","","","","","","",""
"html-keyboard-response","96","543912","0.0-3.0-11.0-10.0-0.0","spark_pilot_norest","8632","3","14","Male","","","","","","","null","<div style=""font-size:100px;color:red;"">Starting in...</div>","null","","","","","","","","","","","","",""
"html-keyboard-response","97","544926","0.0-3.0-11.0-10.0-1.0","spark_pilot_norest","8632","3","14","Male","","","","","","","null","<div style=""font-size:200px;color:red;"">3</div>","null","","","","","","","","","","","","",""
"html-keyboard-response","98","545936","0.0-3.0-11.0-10.0-2.0","spark_pilot_norest","8632","3","14","Male","","","","","","","null","<div style=""font-size:200px;color:red;"">2</div>","null","","","","","","","","","","","","",""
"html-keyboard-response","99","546941","0.0-3.0-11.0-10.0-3.0","spark_pilot_norest","8632","3","14","Male","","","","","","","null","<div style=""font-size:200px;color:red;"">1</div>","null","","","","","","","","","","","","",""
"revaluation","100","547436","0.0-3.0-11.0-11.0-0.0","spark_pilot_norest","8632","3","14","Male","","false","","","","","[493.89999997615814]","./assets/img/space/animals/cat.jpg","[""ArrowLeft""]","practice block","space","0","{""ArrowUp,ArrowLeft"":3,""ArrowUp,ArrowRight"":36,""ArrowDown,ArrowLeft"":15,""ArrowDown,ArrowRight"":23}","false","ArrowUp,ArrowLeft","","","","","","",""
"html-keyboard-response","101","547939","0.0-3.0-11.0-11.0-1.0","spark_pilot_norest","8632","3","14","Male","","","","","","","null","<div style=""font-size:60px;"">+</div>","null","fixation","","","","","","","","","","","",""
"revaluation","102","548321","0.0-3.0-11.0-11.0-0.1","spark_pilot_norest","8632","3","14","Male","","false","","","","","[380.80000001192093]","./assets/img/space/animals/rabbit.jpg","[""ArrowLeft""]","practice block","space","0","{""ArrowUp,ArrowLeft"":3,""ArrowUp,ArrowRight"":36,""ArrowDown,ArrowLeft"":15,""ArrowDown,ArrowRight"":23}","false","ArrowDown,ArrowLeft","","","","","","",""
"html-keyboard-response","103","548836","0.0-3.0-11.0-11.0-1.1","spark_pilot_norest","8632","3","14","Male","","","","","","","null","<div style=""font-size:60px;"">+</div>","null","fixation","","","","","","","","","","","",""
"learning-instructions","104","554868","0.0-3.0-12.0-0.0","spark_pilot_norest","8632","3","14","Male","","","","","","","1444.3999999761581","<p> Before you start, we're going to ask you a few questions about how the game works. </p>","","instructions","","","","","","","","","","","",""
"comp-q","105","561829","0.0-3.0-13.0-0.0-0.0","spark_pilot_norest","8632","3","14","Male","","","","","","","1372.6000000238419","<p> <b> True or False? </b> </p>
            <p> There can be 50 pieces of treasure in a given animal's chest. </p>","1","comp_question","","","","true","","","","","","","",""
"comp-q","106","570220","0.0-3.0-13.0-0.0-1.0","spark_pilot_norest","8632","3","14","Male","","","","","","","1726.5999999642372","<p> <b> That's right! </b> The amount of treasure in each chest can range from 0 to 40 pieces. </p>","0","comp_answer","","","","","","","","","","","",""
"comp-q","107","578142","0.0-3.0-13.0-0.1-0.1","spark_pilot_norest","8632","3","14","Male","","","","","","","797.8999999761581","<p> <b> True or False? </b> </p><p> In this game, all animals have the same amount of treasure in their left and right chests. </p>","1","comp_question","","","","true","","","","","","","",""
"comp-q","108","584405","0.0-3.0-13.0-0.1-1.1","spark_pilot_norest","8632","3","14","Male","","","","","","","1031.300000011921","<p> <b> That's right! </b> Animals have different amounts of treasure in their treasure chests. </p>","0","comp_answer","","","","","","","","","","","",""
"comp-q","109","592596","0.0-3.0-13.0-0.2-0.2","spark_pilot_norest","8632","3","14","Male","","","","","","","2342.2000000476837","<p> <b> True or False? </b> </p><p> The same animal will always be there if you go up in the same place. </p>","1","comp_question","","","","false","","","","","","","",""
"comp-q","110","600549","0.0-3.0-13.0-0.2-1.2","spark_pilot_norest","8632","3","14","Male","","","","","","","1645.699999988079","<p> <b>Incorrect.</b> One animal lives in the upper part and one lives in the lower part of every place. </p>","0","comp_answer","","","","","","","","","","","",""
"comp-q","111","607918","0.0-3.0-13.0-0.3-0.3","spark_pilot_norest","8632","3","14","Male","","","","","","","1543.6000000238419","<p> <b> True or False? </b> </p><p> The same animal will always be there if you go up in the same place. </p>","0","comp_question","","","","true","","","","","","","",""
"comp-q","112","614941","0.0-3.0-13.0-0.3-1.3","spark_pilot_norest","8632","3","14","Male","","","","","","","567.1999999880791","<p> <b> That's right! </b> One animal lives in the upper part and one lives in the lower part of every place. </p>","0","comp_answer","","","","","","","","","","","",""
"comp-q","113","620989","0.0-3.0-13.0-0.4-0.4","spark_pilot_norest","8632","3","14","Male","","","","","","","526","<p> <b> True or False? </b> </p><p> If you see a different picture, it means you are in a new place. </p>","0","comp_question","","","","false","","","","","","","",""
"comp-q","114","633206","0.0-3.0-13.0-0.4-1.4","spark_pilot_norest","8632","3","14","Male","","","","","","","1112","<p> <b>Incorrect.</b> Lots of different images may show the same place. For example,  you may see three different images that all remind you that you are in outer space. </p>","0","comp_answer","","","","","","","","","","","",""
"comp-q","115","639302","0.0-3.0-13.0-0.5-0.5","spark_pilot_norest","8632","3","14","Male","","","","","","","597.0999999642372","<p> <b> True or False? </b> </p><p> If you see a different picture, it means you are in a new place. </p>","1","comp_question","","","","true","","","","","","","",""
"comp-q","116","652085","0.0-3.0-13.0-0.5-1.5","spark_pilot_norest","8632","3","14","Male","","","","","","","1540.5999999642372","<p> <b> That's right! </b> Lots of different images may show the same place. For example,  you may see three different images that all remind you that you are in outer space. </p>","0","comp_answer","","","","","","","","","","","",""
"learning-instructions","117","662893","0.0-3.0-14.0-0.0","spark_pilot_norest","8632","3","14","Male","","","","","","","948.9000000357628","<p> Good job. Remember to do your best because the amount of treasure you earn will be converted into bonus money. </p>
            <p> It’s time to start the real game! </p>","","instructions","","","","","","","","","","","",""
"learning-instructions","118","667005","0.0-4.0-0.0-0.0","spark_pilot_norest","8632","3","14","Male","","","","","","","1400.4000000357628","<p> This time you are searching for treasure in the <b>ocean</b>.</p>","","instructions","","","","","","","","","","","",""
"learning-instructions","119","685421","0.0-4.0-0.0-0.1","spark_pilot_norest","8632","3","14","Male","","","","","","","1118.1000000238419","<p><b>New</b> animals with <b>new</b> treasure chests live here. You need to explore to discover where the animal with the best treasure chest is.</p>
                    <p> Like before, once you figure out which animal has the chest with the most treasure, you should try to get to that animal and select that chest! </p>","","instructions","","","","","","","","","","","",""
"learning-instructions","120","700981","0.0-4.0-1.0-0.0","spark_pilot_norest","8632","3","14","Male","","","","","","","838.0999999642372","<p> Remember, when you see a picture of the place, use the up and down keys to <b>find an animal</b>.</p>
            <p> When you encounter an animal, you should use the left and right keys to <b>select a treasure chest</b>.</p>
            <p> Don't forget to look out for the robber! </p>","","instructions","","","","","","","","","","","",""
"revaluation","121","706992","0.0-4.0-2.0-0.0","spark_pilot_norest","8632","3","14","Male","","false","","","","","[1414.9000000357628,1821.199999988079]","./assets/img/ocean/memory/2.jpg","[""ArrowDown"",""ArrowLeft""]","value training","ocean","8","{""ArrowUp,ArrowLeft"":23,""ArrowUp,ArrowRight"":10,""ArrowDown,ArrowLeft"":8,""ArrowDown,ArrowRight"":30}","false","ArrowDown,ArrowLeft","false","original","1","0","","",""
"html-keyboard-response","122","707495","0.0-4.0-2.0-1.0","spark_pilot_norest","8632","3","14","Male","","","","","","","null","<div style=""font-size:60px;"">+</div>","null","fixation","","","","","","","","","1","","",""
"revaluation","123","711516","0.0-4.0-2.0-0.1","spark_pilot_norest","8632","3","14","Male","","false","","","","","[1383.300000011921]","./assets/img/ocean/catch/7.jpg","[""spaceBar""]","value training","ocean","0","{""ArrowUp,ArrowLeft"":23,""ArrowUp,ArrowRight"":10,""ArrowDown,ArrowLeft"":8,""ArrowDown,ArrowRight"":30}","true","spaceBar","true","original","1","2","","",""
"html-keyboard-response","124","712024","0.0-4.0-2.0-1.1","spark_pilot_norest","8632","3","14","Male","","","","","","","null","<div style=""font-size:60px;"">+</div>","null","fixation","","","","","","","","","3","","",""
"revaluation","125","718050","0.0-4.0-2.0-0.2","spark_pilot_norest","8632","3","14","Male","","false","","","","","[760.2999999523163,415.60000002384186]","./assets/img/ocean/memory/11.jpg","[""ArrowDown"",""ArrowRight""]","value training","ocean","30","{""ArrowUp,ArrowLeft"":23,""ArrowUp,ArrowRight"":10,""ArrowDown,ArrowLeft"":8,""ArrowDown,ArrowRight"":30}","true","ArrowDown,ArrowRight","false","original","1","4","","",""
"html-keyboard-response","126","718556","0.0-4.0-2.0-1.2","spark_pilot_norest","8632","3","14","Male","","","","","","","null","<div style=""font-size:60px;"">+</div>","null","fixation","","","","","","","","","5","","",""
"revaluation","127","724595","0.0-4.0-2.0-0.3","spark_pilot_norest","8632","3","14","Male","","false","","","","","[223.39999997615814,677.1000000238419]","./assets/img/ocean/memory/31.jpg","[""ArrowUp"",""ArrowLeft""]","value training","ocean","23","{""ArrowUp,ArrowLeft"":23,""ArrowUp,ArrowRight"":10,""ArrowDown,ArrowLeft"":8,""ArrowDown,ArrowRight"":30}","false","ArrowUp,ArrowLeft","false","original","1","6","","",""
"html-keyboard-response","128","725106","0.0-4.0-2.0-1.3","spark_pilot_norest","8632","3","14","Male","","","","","","","null","<div style=""font-size:60px;"">+</div>","null","fixation","","","","","","","","","7","","",""
"revaluation","129","731130","0.0-4.0-2.0-0.4","spark_pilot_norest","8632","3","14","Male","","false","","","","","[965.3999999761581,508.19999998807907]","./assets/img/ocean/memory/31.jpg","[""ArrowUp"",""ArrowRight""]","value training","ocean","10","{""ArrowUp,ArrowLeft"":23,""ArrowUp,ArrowRight"":10,""ArrowDown,ArrowLeft"":8,""ArrowDown,ArrowRight"":30}","false","ArrowUp,ArrowRight","false","original","1","8","","",""
"html-keyboard-response","130","731631","0.0-4.0-2.0-1.4","spark_pilot_norest","8632","3","14","Male","","","","","","","null","<div style=""font-size:60px;"">+</div>","null","fixation","","","","","","","","","9","","",""
"revaluation","131","737636","0.0-4.0-2.0-0.5","spark_pilot_norest","8632","3","14","Male","","false","","","","","[804.3000000119209,442.4000000357628]","./assets/img/ocean/memory/34.jpg","[""ArrowDown"",""ArrowRight""]","value training","ocean","30","{""ArrowUp,ArrowLeft"":23,""ArrowUp,ArrowRight"":10,""ArrowDown,ArrowLeft"":8,""ArrowDown,ArrowRight"":30}","true","ArrowDown,ArrowRight","false","original","1","10","","",""
"html-keyboard-response","132","738137","0.0-4.0-2.0-1.5","spark_pilot_norest","8632","3","14","Male","","","","","","","null","<div style=""font-size:60px;"">+</div>","null","fixation","","","","","","","","","11","","",""
"revaluation","133","744143","0.0-4.0-2.0-0.6","spark_pilot_norest","8632","3","14","Male","","false","","","","","[1083.2000000476837,452.19999998807907]","./assets/img/ocean/memory/35.jpg","[""ArrowDown"",""ArrowRight""]","value training","ocean","30","{""ArrowUp,ArrowLeft"":23,""ArrowUp,ArrowRight"":10,""ArrowDown,ArrowLeft"":8,""ArrowDown,ArrowRight"":30}","true","ArrowDown,ArrowRight","false","original","1","12","","",""
"html-keyboard-response","134","744645","0.0-4.0-2.0-1.6","spark_pilot_norest","8632","3","14","Male","","","","","","","null","<div style=""font-size:60px;"">+</div>","null","fixation","","","","","","","","","13","","",""
"revaluation","135","750649","0.0-4.0-2.0-0.7","spark_pilot_norest","8632","3","14","Male","","false","","","","","[556.8000000119209,327.2000000476837]","./assets/img/ocean/memory/18.jpg","[""ArrowDown"",""ArrowRight""]","value training","ocean","30","{""ArrowUp,ArrowLeft"":23,""ArrowUp,ArrowRight"":10,""ArrowDown,ArrowLeft"":8,""ArrowDown,ArrowRight"":30}","true","ArrowDown,ArrowRight","false","original","1","14","","",""
"html-keyboard-response","136","751151","0.0-4.0-2.0-1.7","spark_pilot_norest","8632","3","14","Male","","","","","","","null","<div style=""font-size:60px;"">+</div>","null","fixation","","","","","","","","","15","","",""
"revaluation","137","757154","0.0-4.0-2.0-0.8","spark_pilot_norest","8632","3","14","Male","","false","","","","","[417.0999999642372,521.1999999880791]","./assets/img/ocean/memory/3.jpg","[""ArrowDown"",""ArrowRight""]","value training","ocean","30","{""ArrowUp,ArrowLeft"":23,""ArrowUp,ArrowRight"":10,""ArrowDown,ArrowLeft"":8,""ArrowDown,ArrowRight"":30}","true","ArrowDown,ArrowRight","false","original","1","16","","",""
"html-keyboard-response","138","757656","0.0-4.0-2.0-1.8","spark_pilot_norest","8632","3","14","Male","","","","","","","null","<div style=""font-size:60px;"">+</div>","null","fixation","","","","","","","","","17","","",""
"revaluation","139","763662","0.0-4.0-2.0-0.9","spark_pilot_norest","8632","3","14","Male","","false","","","","","[668.3000000119209,688.0999999642372]","./assets/img/ocean/memory/23.jpg","[""ArrowDown"",""ArrowRight""]","value training","ocean","30","{""ArrowUp,ArrowLeft"":23,""ArrowUp,ArrowRight"":10,""ArrowDown,ArrowLeft"":8,""ArrowDown,ArrowRight"":30}","true","ArrowDown,ArrowRight","false","original","1","18","","",""
"html-keyboard-response","140","764163","0.0-4.0-2.0-1.9","spark_pilot_norest","8632","3","14","Male","","","","","","","null","<div style=""font-size:60px;"">+</div>","null","fixation","","","","","","","","","19","","",""
"revaluation","141","770168","0.0-4.0-2.0-0.10","spark_pilot_norest","8632","3","14","Male","","false","","","","","[1047.1000000238419,620.0999999642372]","./assets/img/ocean/memory/34.jpg","[""ArrowDown"",""ArrowRight""]","value training","ocean","30","{""ArrowUp,ArrowLeft"":23,""ArrowUp,ArrowRight"":10,""ArrowDown,ArrowLeft"":8,""ArrowDown,ArrowRight"":30}","true","ArrowDown,ArrowRight","false","original","1","20","","",""
"html-keyboard-response","142","770669","0.0-4.0-2.0-1.10","spark_pilot_norest","8632","3","14","Male","","","","","","","null","<div style=""font-size:60px;"">+</div>","null","fixation","","","","","","","","","21","","",""
"revaluation","143","776673","0.0-4.0-2.0-0.11","spark_pilot_norest","8632","3","14","Male","","false","","","","","[512.1000000238419,402]","./assets/img/ocean/memory/18.jpg","[""ArrowDown"",""ArrowRight""]","value training","ocean","30","{""ArrowUp,ArrowLeft"":23,""ArrowUp,ArrowRight"":10,""ArrowDown,ArrowLeft"":8,""ArrowDown,ArrowRight"":30}","true","ArrowDown,ArrowRight","false","original","1","22","","",""
"html-keyboard-response","144","777175","0.0-4.0-2.0-1.11","spark_pilot_norest","8632","3","14","Male","","","","","","","null","<div style=""font-size:60px;"">+</div>","null","fixation","","","","","","","","","23","","",""
"revaluation","145","781178","0.0-4.0-2.0-0.12","spark_pilot_norest","8632","3","14","Male","","false","","","","","[684.5]","./assets/img/ocean/catch/6.jpg","[""spaceBar""]","value training","ocean","0","{""ArrowUp,ArrowLeft"":23,""ArrowUp,ArrowRight"":10,""ArrowDown,ArrowLeft"":8,""ArrowDown,ArrowRight"":30}","true","spaceBar","true","original","1","24","","",""
"html-keyboard-response","146","781680","0.0-4.0-2.0-1.12","spark_pilot_norest","8632","3","14","Male","","","","","","","null","<div style=""font-size:60px;"">+</div>","null","fixation","","","","","","","","","25","","",""
"revaluation","147","787684","0.0-4.0-2.0-0.13","spark_pilot_norest","8632","3","14","Male","","false","","","","","[1241.300000011921,516.3000000119209]","./assets/img/ocean/memory/16.jpg","[""ArrowDown"",""ArrowRight""]","value training","ocean","30","{""ArrowUp,ArrowLeft"":23,""ArrowUp,ArrowRight"":10,""ArrowDown,ArrowLeft"":8,""ArrowDown,ArrowRight"":30}","true","ArrowDown,ArrowRight","false","original","1","26","","",""
"html-keyboard-response","148","788185","0.0-4.0-2.0-1.13","spark_pilot_norest","8632","3","14","Male","","","","","","","null","<div style=""font-size:60px;"">+</div>","null","fixation","","","","","","","","","27","","",""
"revaluation","149","794188","0.0-4.0-2.0-0.14","spark_pilot_norest","8632","3","14","Male","","false","","","","","[375.80000001192093,410.5999999642372]","./assets/img/ocean/memory/16.jpg","[""ArrowDown"",""ArrowRight""]","value training","ocean","30","{""ArrowUp,ArrowLeft"":23,""ArrowUp,ArrowRight"":10,""ArrowDown,ArrowLeft"":8,""ArrowDown,ArrowRight"":30}","true","ArrowDown,ArrowRight","false","original","1","28","","",""
"html-keyboard-response","150","794690","0.0-4.0-2.0-1.14","spark_pilot_norest","8632","3","14","Male","","","","","","","null","<div style=""font-size:60px;"">+</div>","null","fixation","","","","","","","","","29","","",""
"revaluation","151","800692","0.0-4.0-2.0-0.15","spark_pilot_norest","8632","3","14","Male","","false","","","","","[979.6000000238419,621.1000000238419]","./assets/img/ocean/memory/39.jpg","[""ArrowDown"",""ArrowRight""]","value training","ocean","30","{""ArrowUp,ArrowLeft"":23,""ArrowUp,ArrowRight"":10,""ArrowDown,ArrowLeft"":8,""ArrowDown,ArrowRight"":30}","true","ArrowDown,ArrowRight","false","original","1","30","","",""
"html-keyboard-response","152","801194","0.0-4.0-2.0-1.15","spark_pilot_norest","8632","3","14","Male","","","","","","","null","<div style=""font-size:60px;"">+</div>","null","fixation","","","","","","","","","31","","",""
"revaluation","153","807198","0.0-4.0-2.0-0.16","spark_pilot_norest","8632","3","14","Male","","false","","","","","[668.6999999880791,605.3999999761581]","./assets/img/ocean/memory/11.jpg","[""ArrowDown"",""ArrowRight""]","value training","ocean","30","{""ArrowUp,ArrowLeft"":23,""ArrowUp,ArrowRight"":10,""ArrowDown,ArrowLeft"":8,""ArrowDown,ArrowRight"":30}","true","ArrowDown,ArrowRight","false","original","1","32","","",""
"html-keyboard-response","154","807700","0.0-4.0-2.0-1.16","spark_pilot_norest","8632","3","14","Male","","","","","","","null","<div style=""font-size:60px;"">+</div>","null","fixation","","","","","","","","","33","","",""
"revaluation","155","813705","0.0-4.0-2.0-0.17","spark_pilot_norest","8632","3","14","Male","","false","","","","","[625.2999999523163,417.0999999642372]","./assets/img/ocean/memory/6.jpg","[""ArrowDown"",""ArrowRight""]","value training","ocean","30","{""ArrowUp,ArrowLeft"":23,""ArrowUp,ArrowRight"":10,""ArrowDown,ArrowLeft"":8,""ArrowDown,ArrowRight"":30}","true","ArrowDown,ArrowRight","false","original","1","34","","",""
"html-keyboard-response","156","814206","0.0-4.0-2.0-1.17","spark_pilot_norest","8632","3","14","Male","","","","","","","null","<div style=""font-size:60px;"">+</div>","null","fixation","","","","","","","","","35","","",""
"revaluation","157","820209","0.0-4.0-2.0-0.18","spark_pilot_norest","8632","3","14","Male","","false","","","","","[487.69999998807907,392.4000000357628]","./assets/img/ocean/memory/3.jpg","[""ArrowDown"",""ArrowRight""]","value training","ocean","30","{""ArrowUp,ArrowLeft"":23,""ArrowUp,ArrowRight"":10,""ArrowDown,ArrowLeft"":8,""ArrowDown,ArrowRight"":30}","true","ArrowDown,ArrowRight","false","original","1","36","","",""
"html-keyboard-response","158","820712","0.0-4.0-2.0-1.18","spark_pilot_norest","8632","3","14","Male","","","","","","","null","<div style=""font-size:60px;"">+</div>","null","fixation","","","","","","","","","37","","",""
"revaluation","159","826719","0.0-4.0-2.0-0.19","spark_pilot_norest","8632","3","14","Male","","false","","","","","[1031.199999988079,497.19999998807907]","./assets/img/ocean/memory/20.jpg","[""ArrowDown"",""ArrowRight""]","value training","ocean","30","{""ArrowUp,ArrowLeft"":23,""ArrowUp,ArrowRight"":10,""ArrowDown,ArrowLeft"":8,""ArrowDown,ArrowRight"":30}","true","ArrowDown,ArrowRight","false","original","1","38","","",""
"html-keyboard-response","160","827221","0.0-4.0-2.0-1.19","spark_pilot_norest","8632","3","14","Male","","","","","","","null","<div style=""font-size:60px;"">+</div>","null","fixation","","","","","","","","","39","","",""
"revaluation","161","833225","0.0-4.0-2.0-0.20","spark_pilot_norest","8632","3","14","Male","","false","","","","","[661.3000000119209,519.1999999880791]","./assets/img/ocean/memory/40.jpg","[""ArrowDown"",""ArrowRight""]","value training","ocean","30","{""ArrowUp,ArrowLeft"":23,""ArrowUp,ArrowRight"":10,""ArrowDown,ArrowLeft"":8,""ArrowDown,ArrowRight"":30}","true","ArrowDown,ArrowRight","false","original","1","40","","",""
"html-keyboard-response","162","833726","0.0-4.0-2.0-1.20","spark_pilot_norest","8632","3","14","Male","","","","","","","null","<div style=""font-size:60px;"">+</div>","null","fixation","","","","","","","","","41","","",""
"revaluation","163","839730","0.0-4.0-2.0-0.21","spark_pilot_norest","8632","3","14","Male","","false","","","","","[1028.2999999523163,648.3000000119209]","./assets/img/ocean/memory/21.jpg","[""ArrowDown"",""ArrowRight""]","value training","ocean","30","{""ArrowUp,ArrowLeft"":23,""ArrowUp,ArrowRight"":10,""ArrowDown,ArrowLeft"":8,""ArrowDown,ArrowRight"":30}","true","ArrowDown,ArrowRight","false","original","1","42","","",""
"html-keyboard-response","164","840232","0.0-4.0-2.0-1.21","spark_pilot_norest","8632","3","14","Male","","","","","","","null","<div style=""font-size:60px;"">+</div>","null","fixation","","","","","","","","","43","","",""
"revaluation","165","846235","0.0-4.0-2.0-0.22","spark_pilot_norest","8632","3","14","Male","","false","","","","","[580.3000000119209,689.4000000357628]","./assets/img/ocean/memory/7.jpg","[""ArrowDown"",""ArrowRight""]","value training","ocean","30","{""ArrowUp,ArrowLeft"":23,""ArrowUp,ArrowRight"":10,""ArrowDown,ArrowLeft"":8,""ArrowDown,ArrowRight"":30}","true","ArrowDown,ArrowRight","false","original","1","44","","",""
"html-keyboard-response","166","846737","0.0-4.0-2.0-1.22","spark_pilot_norest","8632","3","14","Male","","","","","","","null","<div style=""font-size:60px;"">+</div>","null","fixation","","","","","","","","","45","","",""
"revaluation","167","852741","0.0-4.0-2.0-0.23","spark_pilot_norest","8632","3","14","Male","","false","","","","","[712.8000000119209,591.8999999761581]","./assets/img/ocean/memory/10.jpg","[""ArrowDown"",""ArrowRight""]","value training","ocean","30","{""ArrowUp,ArrowLeft"":23,""ArrowUp,ArrowRight"":10,""ArrowDown,ArrowLeft"":8,""ArrowDown,ArrowRight"":30}","true","ArrowDown,ArrowRight","false","original","1","46","","",""
"html-keyboard-response","168","853243","0.0-4.0-2.0-1.23","spark_pilot_norest","8632","3","14","Male","","","","","","","null","<div style=""font-size:60px;"">+</div>","null","fixation","","","","","","","","","47","","",""
"revaluation","169","859247","0.0-4.0-2.0-0.24","spark_pilot_norest","8632","3","14","Male","","false","","","","","[755,353.89999997615814]","./assets/img/ocean/memory/9.jpg","[""ArrowDown"",""ArrowRight""]","value training","ocean","30","{""ArrowUp,ArrowLeft"":23,""ArrowUp,ArrowRight"":10,""ArrowDown,ArrowLeft"":8,""ArrowDown,ArrowRight"":30}","true","ArrowDown,ArrowRight","false","original","1","48","","",""
"html-keyboard-response","170","859749","0.0-4.0-2.0-1.24","spark_pilot_norest","8632","3","14","Male","","","","","","","null","<div style=""font-size:60px;"">+</div>","null","fixation","","","","","","","","","49","","",""
"revaluation","171","865755","0.0-4.0-2.0-0.25","spark_pilot_norest","8632","3","14","Male","","false","","","","","[564.6999999880791,91.29999995231628]","./assets/img/ocean/memory/9.jpg","[""ArrowDown"",""ArrowRight""]","value training","ocean","30","{""ArrowUp,ArrowLeft"":23,""ArrowUp,ArrowRight"":10,""ArrowDown,ArrowLeft"":8,""ArrowDown,ArrowRight"":30}","true","ArrowDown,ArrowRight","false","original","1","50","","",""
"html-keyboard-response","172","866256","0.0-4.0-2.0-1.25","spark_pilot_norest","8632","3","14","Male","","","","","","","null","<div style=""font-size:60px;"">+</div>","null","fixation","","","","","","","","","51","","",""
"revaluation","173","872261","0.0-4.0-2.0-0.26","spark_pilot_norest","8632","3","14","Male","","false","","","","","[653.2999999523163,442.0999999642372]","./assets/img/ocean/memory/13.jpg","[""ArrowDown"",""ArrowRight""]","value training","ocean","30","{""ArrowUp,ArrowLeft"":23,""ArrowUp,ArrowRight"":10,""ArrowDown,ArrowLeft"":8,""ArrowDown,ArrowRight"":30}","true","ArrowDown,ArrowRight","false","original","1","52","","",""
"html-keyboard-response","174","872762","0.0-4.0-2.0-1.26","spark_pilot_norest","8632","3","14","Male","","","","","","","null","<div style=""font-size:60px;"">+</div>","null","fixation","","","","","","","","","53","","",""
"revaluation","175","876766","0.0-4.0-2.0-0.27","spark_pilot_norest","8632","3","14","Male","","false","","","","","[566]","./assets/img/ocean/catch/4.jpg","[""spaceBar""]","value training","ocean","0","{""ArrowUp,ArrowLeft"":23,""ArrowUp,ArrowRight"":10,""ArrowDown,ArrowLeft"":8,""ArrowDown,ArrowRight"":30}","true","spaceBar","true","original","1","54","","",""
"html-keyboard-response","176","877267","0.0-4.0-2.0-1.27","spark_pilot_norest","8632","3","14","Male","","","","","","","null","<div style=""font-size:60px;"">+</div>","null","fixation","","","","","","","","","55","","",""
"revaluation","177","883271","0.0-4.0-2.0-0.28","spark_pilot_norest","8632","3","14","Male","","false","","","","","[796.8000000119209,396]","./assets/img/ocean/memory/12.jpg","[""ArrowDown"",""ArrowRight""]","value training","ocean","30","{""ArrowUp,ArrowLeft"":23,""ArrowUp,ArrowRight"":10,""ArrowDown,ArrowLeft"":8,""ArrowDown,ArrowRight"":30}","true","ArrowDown,ArrowRight","false","original","1","56","","",""
"html-keyboard-response","178","883773","0.0-4.0-2.0-1.28","spark_pilot_norest","8632","3","14","Male","","","","","","","null","<div style=""font-size:60px;"">+</div>","null","fixation","","","","","","","","","57","","",""
"revaluation","179","889776","0.0-4.0-2.0-0.29","spark_pilot_norest","8632","3","14","Male","","false","","","","","[290.9000000357628,404.80000001192093]","./assets/img/ocean/memory/23.jpg","[""ArrowDown"",""ArrowRight""]","value training","ocean","30","{""ArrowUp,ArrowLeft"":23,""ArrowUp,ArrowRight"":10,""ArrowDown,ArrowLeft"":8,""ArrowDown,ArrowRight"":30}","true","ArrowDown,ArrowRight","false","original","1","58","","",""
"html-keyboard-response","180","890278","0.0-4.0-2.0-1.29","spark_pilot_norest","8632","3","14","Male","","","","","","","null","<div style=""font-size:60px;"">+</div>","null","fixation","","","","","","","","","59","","",""
"revaluation","181","896282","0.0-4.0-2.0-0.30","spark_pilot_norest","8632","3","14","Male","","false","","","","","[770.5,64.10000002384186]","./assets/img/ocean/memory/20.jpg","[""ArrowDown"",""ArrowRight""]","value training","ocean","30","{""ArrowUp,ArrowLeft"":23,""ArrowUp,ArrowRight"":10,""ArrowDown,ArrowLeft"":8,""ArrowDown,ArrowRight"":30}","true","ArrowDown,ArrowRight","false","original","1","60","","",""
"html-keyboard-response","182","896783","0.0-4.0-2.0-1.30","spark_pilot_norest","8632","3","14","Male","","","","","","","null","<div style=""font-size:60px;"">+</div>","null","fixation","","","","","","","","","61","","",""
"revaluation","183","902788","0.0-4.0-2.0-0.31","spark_pilot_norest","8632","3","14","Male","","false","","","","","[504.89999997615814,325.9000000357628]","./assets/img/ocean/memory/5.jpg","[""ArrowDown"",""ArrowRight""]","value training","ocean","30","{""ArrowUp,ArrowLeft"":23,""ArrowUp,ArrowRight"":10,""ArrowDown,ArrowLeft"":8,""ArrowDown,ArrowRight"":30}","true","ArrowDown,ArrowRight","false","original","1","62","","",""
"html-keyboard-response","184","903290","0.0-4.0-2.0-1.31","spark_pilot_norest","8632","3","14","Male","","","","","","","null","<div style=""font-size:60px;"">+</div>","null","fixation","","","","","","","","","63","","",""
"revaluation","185","909295","0.0-4.0-2.0-0.32","spark_pilot_norest","8632","3","14","Male","","false","","","","","[304.7999999523163,414]","./assets/img/ocean/memory/35.jpg","[""ArrowDown"",""ArrowRight""]","value training","ocean","30","{""ArrowUp,ArrowLeft"":23,""ArrowUp,ArrowRight"":10,""ArrowDown,ArrowLeft"":8,""ArrowDown,ArrowRight"":30}","true","ArrowDown,ArrowRight","false","original","1","64","","",""
"html-keyboard-response","186","909796","0.0-4.0-2.0-1.32","spark_pilot_norest","8632","3","14","Male","","","","","","","null","<div style=""font-size:60px;"">+</div>","null","fixation","","","","","","","","","65","","",""
"revaluation","187","915801","0.0-4.0-2.0-0.33","spark_pilot_norest","8632","3","14","Male","","false","","","","","[576.4000000357628,510.30000001192093]","./assets/img/ocean/memory/27.jpg","[""ArrowDown"",""ArrowRight""]","value training","ocean","30","{""ArrowUp,ArrowLeft"":23,""ArrowUp,ArrowRight"":10,""ArrowDown,ArrowLeft"":8,""ArrowDown,ArrowRight"":30}","true","ArrowDown,ArrowRight","false","original","1","66","","",""
"html-keyboard-response","188","916302","0.0-4.0-2.0-1.33","spark_pilot_norest","8632","3","14","Male","","","","","","","null","<div style=""font-size:60px;"">+</div>","null","fixation","","","","","","","","","67","","",""
"revaluation","189","920306","0.0-4.0-2.0-0.34","spark_pilot_norest","8632","3","14","Male","","false","","","","","[798.2000000476837]","./assets/img/ocean/catch/3.jpg","[""spaceBar""]","value training","ocean","0","{""ArrowUp,ArrowLeft"":23,""ArrowUp,ArrowRight"":10,""ArrowDown,ArrowLeft"":8,""ArrowDown,ArrowRight"":30}","true","spaceBar","true","original","1","68","","",""
"html-keyboard-response","190","920807","0.0-4.0-2.0-1.34","spark_pilot_norest","8632","3","14","Male","","","","","","","null","<div style=""font-size:60px;"">+</div>","null","fixation","","","","","","","","","69","","",""
"revaluation","191","926811","0.0-4.0-2.0-0.35","spark_pilot_norest","8632","3","14","Male","","false","","","","","[689.6000000238419,445.89999997615814]","./assets/img/ocean/memory/7.jpg","[""ArrowDown"",""ArrowRight""]","value training","ocean","30","{""ArrowUp,ArrowLeft"":23,""ArrowUp,ArrowRight"":10,""ArrowDown,ArrowLeft"":8,""ArrowDown,ArrowRight"":30}","true","ArrowDown,ArrowRight","false","original","1","70","","",""
"html-keyboard-response","192","927312","0.0-4.0-2.0-1.35","spark_pilot_norest","8632","3","14","Male","","","","","","","null","<div style=""font-size:60px;"">+</div>","null","fixation","","","","","","","","","71","","",""
"revaluation","193","933316","0.0-4.0-2.0-0.36","spark_pilot_norest","8632","3","14","Male","","false","","","","","[626.1999999880791,484.69999998807907]","./assets/img/ocean/memory/40.jpg","[""ArrowDown"",""ArrowRight""]","value training","ocean","30","{""ArrowUp,ArrowLeft"":23,""ArrowUp,ArrowRight"":10,""ArrowDown,ArrowLeft"":8,""ArrowDown,ArrowRight"":30}","true","ArrowDown,ArrowRight","false","original","1","72","","",""
"html-keyboard-response","194","933817","0.0-4.0-2.0-1.36","spark_pilot_norest","8632","3","14","Male","","","","","","","null","<div style=""font-size:60px;"">+</div>","null","fixation","","","","","","","","","73","","",""
"revaluation","195","939822","0.0-4.0-2.0-0.37","spark_pilot_norest","8632","3","14","Male","","false","","","","","[513.1000000238419,507.30000001192093]","./assets/img/ocean/memory/6.jpg","[""ArrowDown"",""ArrowRight""]","value training","ocean","30","{""ArrowUp,ArrowLeft"":23,""ArrowUp,ArrowRight"":10,""ArrowDown,ArrowLeft"":8,""ArrowDown,ArrowRight"":30}","true","ArrowDown,ArrowRight","false","original","1","74","","",""
"html-keyboard-response","196","940323","0.0-4.0-2.0-1.37","spark_pilot_norest","8632","3","14","Male","","","","","","","null","<div style=""font-size:60px;"">+</div>","null","fixation","","","","","","","","","75","","",""
"revaluation","197","946327","0.0-4.0-2.0-0.38","spark_pilot_norest","8632","3","14","Male","","false","","","","","[858.1999999880791,538.0999999642372]","./assets/img/ocean/memory/13.jpg","[""ArrowDown"",""ArrowRight""]","value training","ocean","30","{""ArrowUp,ArrowLeft"":23,""ArrowUp,ArrowRight"":10,""ArrowDown,ArrowLeft"":8,""ArrowDown,ArrowRight"":30}","true","ArrowDown,ArrowRight","false","original","1","76","","",""
"html-keyboard-response","198","946828","0.0-4.0-2.0-1.38","spark_pilot_norest","8632","3","14","Male","","","","","","","null","<div style=""font-size:60px;"">+</div>","null","fixation","","","","","","","","","77","","",""
"revaluation","199","952834","0.0-4.0-2.0-0.39","spark_pilot_norest","8632","3","14","Male","","false","","","","","[643.6999999880791,622.3000000119209]","./assets/img/ocean/memory/27.jpg","[""ArrowDown"",""ArrowRight""]","value training","ocean","30","{""ArrowUp,ArrowLeft"":23,""ArrowUp,ArrowRight"":10,""ArrowDown,ArrowLeft"":8,""ArrowDown,ArrowRight"":30}","true","ArrowDown,ArrowRight","false","original","1","78","","",""
"html-keyboard-response","200","953336","0.0-4.0-2.0-1.39","spark_pilot_norest","8632","3","14","Male","","","","","","","null","<div style=""font-size:60px;"">+</div>","null","fixation","","","","","","","","","79","","",""
"revaluation","201","957339","0.0-4.0-2.0-0.40","spark_pilot_norest","8632","3","14","Male","","false","","","","","[725.6000000238419]","./assets/img/ocean/catch/2.jpg","[""spaceBar""]","value training","ocean","0","{""ArrowUp,ArrowLeft"":23,""ArrowUp,ArrowRight"":10,""ArrowDown,ArrowLeft"":8,""ArrowDown,ArrowRight"":30}","true","spaceBar","true","original","1","80","","",""
"html-keyboard-response","202","957840","0.0-4.0-2.0-1.40","spark_pilot_norest","8632","3","14","Male","","","","","","","null","<div style=""font-size:60px;"">+</div>","null","fixation","","","","","","","","","81","","",""
"revaluation","203","963843","0.0-4.0-2.0-0.41","spark_pilot_norest","8632","3","14","Male","","false","","","","","[1691.699999988079,908.6999999880791]","./assets/img/ocean/memory/39.jpg","[""ArrowDown"",""ArrowRight""]","value training","ocean","30","{""ArrowUp,ArrowLeft"":23,""ArrowUp,ArrowRight"":10,""ArrowDown,ArrowLeft"":8,""ArrowDown,ArrowRight"":30}","true","ArrowDown,ArrowRight","false","original","1","82","","",""
"html-keyboard-response","204","964345","0.0-4.0-2.0-1.41","spark_pilot_norest","8632","3","14","Male","","","","","","","null","<div style=""font-size:60px;"">+</div>","null","fixation","","","","","","","","","83","","",""
"revaluation","205","968348","0.0-4.0-2.0-0.42","spark_pilot_norest","8632","3","14","Male","","false","","","","","[824.1999999880791]","./assets/img/ocean/catch/1.jpg","[""spaceBar""]","value training","ocean","0","{""ArrowUp,ArrowLeft"":23,""ArrowUp,ArrowRight"":10,""ArrowDown,ArrowLeft"":8,""ArrowDown,ArrowRight"":30}","true","spaceBar","true","original","1","84","","",""
"html-keyboard-response","206","968849","0.0-4.0-2.0-1.42","spark_pilot_norest","8632","3","14","Male","","","","","","","null","<div style=""font-size:60px;"">+</div>","null","fixation","","","","","","","","","85","","",""
"revaluation","207","972853","0.0-4.0-2.0-0.43","spark_pilot_norest","8632","3","14","Male","","false","","","","","[859.7000000476837]","./assets/img/ocean/catch/5.jpg","[""spaceBar""]","value training","ocean","0","{""ArrowUp,ArrowLeft"":23,""ArrowUp,ArrowRight"":10,""ArrowDown,ArrowLeft"":8,""ArrowDown,ArrowRight"":30}","true","spaceBar","true","original","1","86","","",""
"html-keyboard-response","208","973355","0.0-4.0-2.0-1.43","spark_pilot_norest","8632","3","14","Male","","","","","","","null","<div style=""font-size:60px;"">+</div>","null","fixation","","","","","","","","","87","","",""
"revaluation","209","979359","0.0-4.0-2.0-0.44","spark_pilot_norest","8632","3","14","Male","","false","","","","","[1461.3999999761581,662.3999999761581]","./assets/img/ocean/memory/10.jpg","[""ArrowDown"",""ArrowRight""]","value training","ocean","30","{""ArrowUp,ArrowLeft"":23,""ArrowUp,ArrowRight"":10,""ArrowDown,ArrowLeft"":8,""ArrowDown,ArrowRight"":30}","true","ArrowDown,ArrowRight","false","original","1","88","","",""
"html-keyboard-response","210","979861","0.0-4.0-2.0-1.44","spark_pilot_norest","8632","3","14","Male","","","","","","","null","<div style=""font-size:60px;"">+</div>","null","fixation","","","","","","","","","89","","",""
"revaluation","211","985870","0.0-4.0-2.0-0.45","spark_pilot_norest","8632","3","14","Male","","false","","","","","[563.8000000119209,905.8000000119209]","./assets/img/ocean/memory/2.jpg","[""ArrowDown"",""ArrowRight""]","value training","ocean","30","{""ArrowUp,ArrowLeft"":23,""ArrowUp,ArrowRight"":10,""ArrowDown,ArrowLeft"":8,""ArrowDown,ArrowRight"":30}","true","ArrowDown,ArrowRight","false","original","1","90","","",""
"html-keyboard-response","212","986372","0.0-4.0-2.0-1.45","spark_pilot_norest","8632","3","14","Male","","","","","","","null","<div style=""font-size:60px;"">+</div>","null","fixation","","","","","","","","","91","","",""
"revaluation","213","992375","0.0-4.0-2.0-0.46","spark_pilot_norest","8632","3","14","Male","","false","","","","","[481.30000001192093,482.5999999642372]","./assets/img/ocean/memory/5.jpg","[""ArrowDown"",""ArrowRight""]","value training","ocean","30","{""ArrowUp,ArrowLeft"":23,""ArrowUp,ArrowRight"":10,""ArrowDown,ArrowLeft"":8,""ArrowDown,ArrowRight"":30}","true","ArrowDown,ArrowRight","false","original","1","92","","",""
"html-keyboard-response","214","992877","0.0-4.0-2.0-1.46","spark_pilot_norest","8632","3","14","Male","","","","","","","null","<div style=""font-size:60px;"">+</div>","null","fixation","","","","","","","","","93","","",""
"revaluation","215","998881","0.0-4.0-2.0-0.47","spark_pilot_norest","8632","3","14","Male","","false","","","","","[1064.300000011921,633.7999999523163]","./assets/img/ocean/memory/21.jpg","[""ArrowDown"",""ArrowRight""]","value training","ocean","30","{""ArrowUp,ArrowLeft"":23,""ArrowUp,ArrowRight"":10,""ArrowDown,ArrowLeft"":8,""ArrowDown,ArrowRight"":30}","true","ArrowDown,ArrowRight","false","original","1","94","","",""
"html-keyboard-response","216","999382","0.0-4.0-2.0-1.47","spark_pilot_norest","8632","3","14","Male","","","","","","","null","<div style=""font-size:60px;"">+</div>","null","fixation","","","","","","","","","95","","",""
"revaluation","217","1003385","0.0-4.0-2.0-0.48","spark_pilot_norest","8632","3","14","Male","","false","","","","","[842.5]","./assets/img/ocean/catch/0.jpg","[""spaceBar""]","value training","ocean","0","{""ArrowUp,ArrowLeft"":23,""ArrowUp,ArrowRight"":10,""ArrowDown,ArrowLeft"":8,""ArrowDown,ArrowRight"":30}","true","spaceBar","true","original","1","96","","",""
"html-keyboard-response","218","1003886","0.0-4.0-2.0-1.48","spark_pilot_norest","8632","3","14","Male","","","","","","","null","<div style=""font-size:60px;"">+</div>","null","fixation","","","","","","","","","97","","",""
"revaluation","219","1009889","0.0-4.0-2.0-0.49","spark_pilot_norest","8632","3","14","Male","","false","","","","","[641.1999999880791,300.10000002384186]","./assets/img/ocean/memory/12.jpg","[""ArrowDown"",""ArrowRight""]","value training","ocean","30","{""ArrowUp,ArrowLeft"":23,""ArrowUp,ArrowRight"":10,""ArrowDown,ArrowLeft"":8,""ArrowDown,ArrowRight"":30}","true","ArrowDown,ArrowRight","false","original","1","98","","",""
"html-keyboard-response","220","1010390","0.0-4.0-2.0-1.49","spark_pilot_norest","8632","3","14","Male","","","","","","","null","<div style=""font-size:60px;"">+</div>","null","fixation","","","","","","","","","99","","",""
"learning-instructions","221","1026662","0.0-4.0-3.0-0.0","spark_pilot_norest","8632","3","14","Male","","","","","","","3385.900000035763","<p> Now, you will travel with a friend who will choose whether you go up or down first. </p>
            <p> On these turns, you will just see the animal that they found. You will still get to choose which chest to search for treasure.</p>","","instructions","","","","","","","","","","","",""
"revaluation","222","1030681","0.0-4.0-4.0-0.0","spark_pilot_norest","8632","3","14","Male","","false","","","","","[898]","./assets/img/ocean/animals/seahorse.jpg","[""ArrowLeft""]","revaluation","ocean","23","{""ArrowUp,ArrowLeft"":23,""ArrowUp,ArrowRight"":10,""ArrowDown,ArrowLeft"":8,""ArrowDown,ArrowRight"":30}","true","ArrowUp,ArrowLeft","","original","1","0","","",""
"html-keyboard-response","223","1031186","0.0-4.0-4.0-1.0","spark_pilot_norest","8632","3","14","Male","","","","","","","null","<div style=""font-size:60px;"">+</div>","null","fixation","","","","","","","","","1","","",""
"revaluation","224","1035212","0.0-4.0-4.0-0.1","spark_pilot_norest","8632","3","14","Male","","false","","","","","[1006.3999999761581]","./assets/img/ocean/animals/octopus.jpg","[""ArrowRight""]","revaluation","ocean","30","{""ArrowUp,ArrowLeft"":23,""ArrowUp,ArrowRight"":10,""ArrowDown,ArrowLeft"":8,""ArrowDown,ArrowRight"":30}","true","ArrowDown,ArrowRight","","original","1","2","","",""
"html-keyboard-response","225","1035726","0.0-4.0-4.0-1.1","spark_pilot_norest","8632","3","14","Male","","","","","","","null","<div style=""font-size:60px;"">+</div>","null","fixation","","","","","","","","","3","","",""
"revaluation","226","1039761","0.0-4.0-4.0-0.2","spark_pilot_norest","8632","3","14","Male","","true","","","","","[]","./assets/img/ocean/animals/octopus.jpg","[]","revaluation","ocean","-5","{""ArrowUp,ArrowLeft"":23,""ArrowUp,ArrowRight"":10,""ArrowDown,ArrowLeft"":8,""ArrowDown,ArrowRight"":30}","false","ArrowDown","","original","1","4","","",""
"html-keyboard-response","227","1040262","0.0-4.0-4.0-1.2","spark_pilot_norest","8632","3","14","Male","","","","","","","null","<div style=""font-size:60px;"">+</div>","null","fixation","","","","","","","","","5","","",""
"revaluation","228","1044276","0.0-4.0-4.0-0.3","spark_pilot_norest","8632","3","14","Male","","false","","","","","[1098]","./assets/img/ocean/animals/seahorse.jpg","[""ArrowRight""]","revaluation","ocean","10","{""ArrowUp,ArrowLeft"":23,""ArrowUp,ArrowRight"":10,""ArrowDown,ArrowLeft"":8,""ArrowDown,ArrowRight"":30}","false","ArrowUp,ArrowRight","","original","1","6","","",""
"html-keyboard-response","229","1044782","0.0-4.0-4.0-1.3","spark_pilot_norest","8632","3","14","Male","","","","","","","null","<div style=""font-size:60px;"">+</div>","null","fixation","","","","","","","","","7","","",""
"revaluation","230","1048795","0.0-4.0-4.0-0.4","spark_pilot_norest","8632","3","14","Male","","false","","","","","[918.8999999761581]","./assets/img/ocean/animals/octopus.jpg","[""ArrowRight""]","revaluation","ocean","30","{""ArrowUp,ArrowLeft"":23,""ArrowUp,ArrowRight"":10,""ArrowDown,ArrowLeft"":8,""ArrowDown,ArrowRight"":30}","true","ArrowDown,ArrowRight","","original","1","8","","",""
"html-keyboard-response","231","1049302","0.0-4.0-4.0-1.4","spark_pilot_norest","8632","3","14","Male","","","","","","","null","<div style=""font-size:60px;"">+</div>","null","fixation","","","","","","","","","9","","",""
"revaluation","232","1053316","0.0-4.0-4.0-0.5","spark_pilot_norest","8632","3","14","Male","","false","","","","","[481.19999998807907]","./assets/img/ocean/animals/seahorse.jpg","[""ArrowLeft""]","revaluation","ocean","23","{""ArrowUp,ArrowLeft"":23,""ArrowUp,ArrowRight"":10,""ArrowDown,ArrowLeft"":8,""ArrowDown,ArrowRight"":30}","true","ArrowUp,ArrowLeft","","original","1","10","","",""
"html-keyboard-response","233","1053817","0.0-4.0-4.0-1.5","spark_pilot_norest","8632","3","14","Male","","","","","","","null","<div style=""font-size:60px;"">+</div>","null","fixation","","","","","","","","","11","","",""
"revaluation","234","1057821","0.0-4.0-4.0-0.6","spark_pilot_norest","8632","3","14","Male","","false","","","","","[430.30000001192093]","./assets/img/ocean/animals/octopus.jpg","[""ArrowRight""]","revaluation","ocean","30","{""ArrowUp,ArrowLeft"":23,""ArrowUp,ArrowRight"":10,""ArrowDown,ArrowLeft"":8,""ArrowDown,ArrowRight"":30}","true","ArrowDown,ArrowRight","","original","1","12","","",""
"html-keyboard-response","235","1058323","0.0-4.0-4.0-1.6","spark_pilot_norest","8632","3","14","Male","","","","","","","null","<div style=""font-size:60px;"">+</div>","null","fixation","","","","","","","","","13","","",""
"revaluation","236","1062325","0.0-4.0-4.0-0.7","spark_pilot_norest","8632","3","14","Male","","false","","","","","[500.89999997615814]","./assets/img/ocean/animals/octopus.jpg","[""ArrowRight""]","revaluation","ocean","30","{""ArrowUp,ArrowLeft"":23,""ArrowUp,ArrowRight"":10,""ArrowDown,ArrowLeft"":8,""ArrowDown,ArrowRight"":30}","true","ArrowDown,ArrowRight","","original","1","14","","",""
"html-keyboard-response","237","1062841","0.0-4.0-4.0-1.7","spark_pilot_norest","8632","3","14","Male","","","","","","","null","<div style=""font-size:60px;"">+</div>","null","fixation","","","","","","","","","15","","",""
"revaluation","238","1066846","0.0-4.0-4.0-0.8","spark_pilot_norest","8632","3","14","Male","","false","","","","","[854.6999999880791]","./assets/img/ocean/animals/octopus.jpg","[""ArrowRight""]","revaluation","ocean","30","{""ArrowUp,ArrowLeft"":23,""ArrowUp,ArrowRight"":10,""ArrowDown,ArrowLeft"":8,""ArrowDown,ArrowRight"":30}","true","ArrowDown,ArrowRight","","original","1","16","","",""
"html-keyboard-response","239","1067347","0.0-4.0-4.0-1.8","spark_pilot_norest","8632","3","14","Male","","","","","","","null","<div style=""font-size:60px;"">+</div>","null","fixation","","","","","","","","","17","","",""
"revaluation","240","1071350","0.0-4.0-4.0-0.9","spark_pilot_norest","8632","3","14","Male","","false","","","","","[996.2999999523163]","./assets/img/ocean/animals/octopus.jpg","[""ArrowRight""]","revaluation","ocean","30","{""ArrowUp,ArrowLeft"":23,""ArrowUp,ArrowRight"":10,""ArrowDown,ArrowLeft"":8,""ArrowDown,ArrowRight"":30}","true","ArrowDown,ArrowRight","","original","1","18","","",""
"html-keyboard-response","241","1071851","0.0-4.0-4.0-1.9","spark_pilot_norest","8632","3","14","Male","","","","","","","null","<div style=""font-size:60px;"">+</div>","null","fixation","","","","","","","","","19","","",""
"revaluation","242","1075856","0.0-4.0-4.0-0.10","spark_pilot_norest","8632","3","14","Male","","false","","","","","[895.1999999880791]","./assets/img/ocean/animals/seahorse.jpg","[""ArrowLeft""]","revaluation","ocean","23","{""ArrowUp,ArrowLeft"":23,""ArrowUp,ArrowRight"":10,""ArrowDown,ArrowLeft"":8,""ArrowDown,ArrowRight"":30}","true","ArrowUp,ArrowLeft","","original","1","20","","",""
"html-keyboard-response","243","1076358","0.0-4.0-4.0-1.10","spark_pilot_norest","8632","3","14","Male","","","","","","","null","<div style=""font-size:60px;"">+</div>","null","fixation","","","","","","","","","21","","",""
"revaluation","244","1080360","0.0-4.0-4.0-0.11","spark_pilot_norest","8632","3","14","Male","","false","","","","","[889.6000000238419]","./assets/img/ocean/animals/seahorse.jpg","[""ArrowLeft""]","revaluation","ocean","23","{""ArrowUp,ArrowLeft"":23,""ArrowUp,ArrowRight"":10,""ArrowDown,ArrowLeft"":8,""ArrowDown,ArrowRight"":30}","true","ArrowUp,ArrowLeft","","original","1","22","","",""
"html-keyboard-response","245","1080861","0.0-4.0-4.0-1.11","spark_pilot_norest","8632","3","14","Male","","","","","","","null","<div style=""font-size:60px;"">+</div>","null","fixation","","","","","","","","","23","","",""
"revaluation","246","1084863","0.0-4.0-4.0-0.12","spark_pilot_norest","8632","3","14","Male","","false","","","","","[448.89999997615814]","./assets/img/ocean/animals/octopus.jpg","[""ArrowLeft""]","revaluation","ocean","8","{""ArrowUp,ArrowLeft"":23,""ArrowUp,ArrowRight"":10,""ArrowDown,ArrowLeft"":8,""ArrowDown,ArrowRight"":30}","false","ArrowDown,ArrowLeft","","original","1","24","","",""
"html-keyboard-response","247","1085365","0.0-4.0-4.0-1.12","spark_pilot_norest","8632","3","14","Male","","","","","","","null","<div style=""font-size:60px;"">+</div>","null","fixation","","","","","","","","","25","","",""
"revaluation","248","1089368","0.0-4.0-4.0-0.13","spark_pilot_norest","8632","3","14","Male","","false","","","","","[608.6999999880791]","./assets/img/ocean/animals/seahorse.jpg","[""ArrowLeft""]","revaluation","ocean","23","{""ArrowUp,ArrowLeft"":23,""ArrowUp,ArrowRight"":10,""ArrowDown,ArrowLeft"":8,""ArrowDown,ArrowRight"":30}","true","ArrowUp,ArrowLeft","","original","1","26","","",""
"html-keyboard-response","249","1089870","0.0-4.0-4.0-1.13","spark_pilot_norest","8632","3","14","Male","","","","","","","null","<div style=""font-size:60px;"">+</div>","null","fixation","","","","","","","","","27","","",""
"revaluation","250","1093873","0.0-4.0-4.0-0.14","spark_pilot_norest","8632","3","14","Male","","false","","","","","[549.6000000238419]","./assets/img/ocean/animals/seahorse.jpg","[""ArrowLeft""]","revaluation","ocean","23","{""ArrowUp,ArrowLeft"":23,""ArrowUp,ArrowRight"":10,""ArrowDown,ArrowLeft"":8,""ArrowDown,ArrowRight"":30}","true","ArrowUp,ArrowLeft","","original","1","28","","",""
"html-keyboard-response","251","1094374","0.0-4.0-4.0-1.14","spark_pilot_norest","8632","3","14","Male","","","","","","","null","<div style=""font-size:60px;"">+</div>","null","fixation","","","","","","","","","29","","",""
"revaluation","252","1098379","0.0-4.0-4.0-0.15","spark_pilot_norest","8632","3","14","Male","","false","","","","","[593.7000000476837]","./assets/img/ocean/animals/octopus.jpg","[""ArrowRight""]","revaluation","ocean","30","{""ArrowUp,ArrowLeft"":23,""ArrowUp,ArrowRight"":10,""ArrowDown,ArrowLeft"":8,""ArrowDown,ArrowRight"":30}","true","ArrowDown,ArrowRight","","original","1","30","","",""
"html-keyboard-response","253","1098881","0.0-4.0-4.0-1.15","spark_pilot_norest","8632","3","14","Male","","","","","","","null","<div style=""font-size:60px;"">+</div>","null","fixation","","","","","","","","","31","","",""
"revaluation","254","1102884","0.0-4.0-4.0-0.16","spark_pilot_norest","8632","3","14","Male","","false","","","","","[588.6999999880791]","./assets/img/ocean/animals/seahorse.jpg","[""ArrowLeft""]","revaluation","ocean","23","{""ArrowUp,ArrowLeft"":23,""ArrowUp,ArrowRight"":10,""ArrowDown,ArrowLeft"":8,""ArrowDown,ArrowRight"":30}","true","ArrowUp,ArrowLeft","","original","1","32","","",""
"html-keyboard-response","255","1103385","0.0-4.0-4.0-1.16","spark_pilot_norest","8632","3","14","Male","","","","","","","null","<div style=""font-size:60px;"">+</div>","null","fixation","","","","","","","","","33","","",""
"revaluation","256","1107388","0.0-4.0-4.0-0.17","spark_pilot_norest","8632","3","14","Male","","false","","","","","[609.0999999642372]","./assets/img/ocean/animals/seahorse.jpg","[""ArrowLeft""]","revaluation","ocean","23","{""ArrowUp,ArrowLeft"":23,""ArrowUp,ArrowRight"":10,""ArrowDown,ArrowLeft"":8,""ArrowDown,ArrowRight"":30}","true","ArrowUp,ArrowLeft","","original","1","34","","",""
"html-keyboard-response","257","1107889","0.0-4.0-4.0-1.17","spark_pilot_norest","8632","3","14","Male","","","","","","","null","<div style=""font-size:60px;"">+</div>","null","fixation","","","","","","","","","35","","",""
"learning-instructions","258","1116017","0.0-4.0-5.0-0.0","spark_pilot_norest","8632","3","14","Male","","","","","","","null","<p> You have almost finished this part of the game! </p>
            <p> We are going to ask you to make a few more choices. </p>","","instructions","","","","","","","","","","","",""
"learning-instructions","259","1131995","0.0-4.0-5.0-0.1","spark_pilot_norest","8632","3","14","Male","","","","","","","null","<p> First, you need to decide whether to go up or down. When you see each picture, use the arrow keys to make your choice. </p>
            <p><b>You will not see which animal you found, but try to get to the one that will give you the most treasure.</b></p>","","instructions","","","","","","","","","","","",""
"html-keyboard-response","260","1133007","0.0-4.0-6.0-0.0","spark_pilot_norest","8632","3","14","Male","","","","","","","null","<div style=""font-size:100px;color:red;"">Starting in...</div>","null","","","","","","","","","","","","",""
"html-keyboard-response","261","1134017","0.0-4.0-6.0-1.0","spark_pilot_norest","8632","3","14","Male","","","","","","","null","<div style=""font-size:200px;color:red;"">3</div>","null","","","","","","","","","","","","",""
"html-keyboard-response","262","1135031","0.0-4.0-6.0-2.0","spark_pilot_norest","8632","3","14","Male","","","","","","","null","<div style=""font-size:200px;color:red;"">2</div>","null","","","","","","","","","","","","",""
"html-keyboard-response","263","1136047","0.0-4.0-6.0-3.0","spark_pilot_norest","8632","3","14","Male","","","","","","","null","<div style=""font-size:200px;color:red;"">1</div>","null","","","","","","","","","","","","",""
"revaluation","264","1137931","0.0-4.0-7.0-0.0","spark_pilot_norest","8632","3","14","Male","","false","","","","","[1882.5]","./assets/img/ocean/test/3.jpg","[""ArrowDown""]","first stage test","ocean","0","{""ArrowUp,ArrowLeft"":23,""ArrowUp,ArrowRight"":10,""ArrowDown,ArrowLeft"":8,""ArrowDown,ArrowRight"":30}","true","ArrowDown","false","original","1","","","",""
"html-keyboard-response","265","1138443","0.0-4.0-7.0-1.0","spark_pilot_norest","8632","3","14","Male","","","","","","","null","<div style=""font-size:60px;"">+</div>","null","fixation","","","","","","","","","","","",""
"revaluation","266","1139252","0.0-4.0-7.0-0.1","spark_pilot_norest","8632","3","14","Male","","false","","","","","[807.2000000476837]","./assets/img/ocean/test/0.jpg","[""ArrowDown""]","first stage test","ocean","0","{""ArrowUp,ArrowLeft"":23,""ArrowUp,ArrowRight"":10,""ArrowDown,ArrowLeft"":8,""ArrowDown,ArrowRight"":30}","true","ArrowDown","false","original","1","","","",""
"html-keyboard-response","267","1139759","0.0-4.0-7.0-1.1","spark_pilot_norest","8632","3","14","Male","","","","","","","null","<div style=""font-size:60px;"">+</div>","null","fixation","","","","","","","","","","","",""
"revaluation","268","1141027","0.0-4.0-7.0-0.2","spark_pilot_norest","8632","3","14","Male","","false","","","","","[1266.5]","./assets/img/ocean/test/2.jpg","[""ArrowUp""]","first stage test","ocean","0","{""ArrowUp,ArrowLeft"":23,""ArrowUp,ArrowRight"":10,""ArrowDown,ArrowLeft"":8,""ArrowDown,ArrowRight"":30}","false","ArrowUp","false","original","1","","","",""
"html-keyboard-response","269","1141537","0.0-4.0-7.0-1.2","spark_pilot_norest","8632","3","14","Male","","","","","","","null","<div style=""font-size:60px;"">+</div>","null","fixation","","","","","","","","","","","",""
"revaluation","270","1143858","0.0-4.0-7.0-0.3","spark_pilot_norest","8632","3","14","Male","","false","","","","","[2319.199999988079]","./assets/img/ocean/test/1.jpg","[""ArrowUp""]","first stage test","ocean","0","{""ArrowUp,ArrowLeft"":23,""ArrowUp,ArrowRight"":10,""ArrowDown,ArrowLeft"":8,""ArrowDown,ArrowRight"":30}","false","ArrowUp","false","original","1","","","",""
"html-keyboard-response","271","1144361","0.0-4.0-7.0-1.3","spark_pilot_norest","8632","3","14","Male","","","","","","","null","<div style=""font-size:60px;"">+</div>","null","fixation","","","","","","","","","","","",""
"learning-instructions","272","1157705","0.0-4.0-8.0-0.0","spark_pilot_norest","8632","3","14","Male","","","","","","","null","<p> Now you will see the animals again and can search their chests for treasure. </p>
            <p> This time, you will not see how much treasure you earned, but you will earn more bonus money for making better choices. </p>","","instructions","","","","","","","","","","","",""
"html-keyboard-response","273","1158718","0.0-4.0-9.0-0.0","spark_pilot_norest","8632","3","14","Male","","","","","","","null","<div style=""font-size:100px;color:red;"">Starting in...</div>","null","","","","","","","","","","","","",""
"html-keyboard-response","274","1159726","0.0-4.0-9.0-1.0","spark_pilot_norest","8632","3","14","Male","","","","","","","null","<div style=""font-size:200px;color:red;"">3</div>","null","","","","","","","","","","","","",""
"html-keyboard-response","275","1160728","0.0-4.0-9.0-2.0","spark_pilot_norest","8632","3","14","Male","","","","","","","null","<div style=""font-size:200px;color:red;"">2</div>","null","","","","","","","","","","","","",""
"html-keyboard-response","276","1161741","0.0-4.0-9.0-3.0","spark_pilot_norest","8632","3","14","Male","","","","","","","null","<div style=""font-size:200px;color:red;"">1</div>","null","","","","","","","","","","","","",""
"revaluation","277","1162371","0.0-4.0-10.0-0.0","spark_pilot_norest","8632","3","14","Male","","false","","","","","[628.6000000238419]","./assets/img/ocean/animals/seahorse.jpg","[""ArrowRight""]","second stage test","ocean","0","{""ArrowUp,ArrowLeft"":23,""ArrowUp,ArrowRight"":10,""ArrowDown,ArrowLeft"":8,""ArrowDown,ArrowRight"":30}","false","ArrowUp,ArrowRight","","original","1","","","",""
"html-keyboard-response","278","1162877","0.0-4.0-10.0-1.0","spark_pilot_norest","8632","3","14","Male","","","","","","","null","<div style=""font-size:60px;"">+</div>","null","fixation","","","","","","","","","","","",""
"revaluation","279","1163641","0.0-4.0-10.0-0.1","spark_pilot_norest","8632","3","14","Male","","false","","","","","[762.7000000476837]","./assets/img/ocean/animals/seahorse.jpg","[""ArrowLeft""]","second stage test","ocean","0","{""ArrowUp,ArrowLeft"":23,""ArrowUp,ArrowRight"":10,""ArrowDown,ArrowLeft"":8,""ArrowDown,ArrowRight"":30}","true","ArrowUp,ArrowLeft","","original","1","","","",""
"html-keyboard-response","280","1164155","0.0-4.0-10.0-1.1","spark_pilot_norest","8632","3","14","Male","","","","","","","null","<div style=""font-size:60px;"">+</div>","null","fixation","","","","","","","","","","","",""
"revaluation","281","1164581","0.0-4.0-10.0-0.2","spark_pilot_norest","8632","3","14","Male","","false","","","","","[424.5]","./assets/img/ocean/animals/seahorse.jpg","[""ArrowLeft""]","second stage test","ocean","0","{""ArrowUp,ArrowLeft"":23,""ArrowUp,ArrowRight"":10,""ArrowDown,ArrowLeft"":8,""ArrowDown,ArrowRight"":30}","true","ArrowUp,ArrowLeft","","original","1","","","",""
"html-keyboard-response","282","1165089","0.0-4.0-10.0-1.2","spark_pilot_norest","8632","3","14","Male","","","","","","","null","<div style=""font-size:60px;"">+</div>","null","fixation","","","","","","","","","","","",""
"revaluation","283","1165427","0.0-4.0-10.0-0.3","spark_pilot_norest","8632","3","14","Male","","false","","","","","[336.19999998807907]","./assets/img/ocean/animals/seahorse.jpg","[""ArrowLeft""]","second stage test","ocean","0","{""ArrowUp,ArrowLeft"":23,""ArrowUp,ArrowRight"":10,""ArrowDown,ArrowLeft"":8,""ArrowDown,ArrowRight"":30}","true","ArrowUp,ArrowLeft","","original","1","","","",""
"html-keyboard-response","284","1165936","0.0-4.0-10.0-1.3","spark_pilot_norest","8632","3","14","Male","","","","","","","null","<div style=""font-size:60px;"">+</div>","null","fixation","","","","","","","","","","","",""
"revaluation","285","1166585","0.0-4.0-10.0-0.4","spark_pilot_norest","8632","3","14","Male","","false","","","","","[646.4000000357628]","./assets/img/ocean/animals/octopus.jpg","[""ArrowRight""]","second stage test","ocean","0","{""ArrowUp,ArrowLeft"":23,""ArrowUp,ArrowRight"":10,""ArrowDown,ArrowLeft"":8,""ArrowDown,ArrowRight"":30}","true","ArrowDown,ArrowRight","","original","1","","","",""
"html-keyboard-response","286","1167097","0.0-4.0-10.0-1.4","spark_pilot_norest","8632","3","14","Male","","","","","","","null","<div style=""font-size:60px;"">+</div>","null","fixation","","","","","","","","","","","",""
"revaluation","287","1167630","0.0-4.0-10.0-0.5","spark_pilot_norest","8632","3","14","Male","","false","","","","","[531.5999999642372]","./assets/img/ocean/animals/octopus.jpg","[""ArrowRight""]","second stage test","ocean","0","{""ArrowUp,ArrowLeft"":23,""ArrowUp,ArrowRight"":10,""ArrowDown,ArrowLeft"":8,""ArrowDown,ArrowRight"":30}","true","ArrowDown,ArrowRight","","original","1","","","",""
"html-keyboard-response","288","1168143","0.0-4.0-10.0-1.5","spark_pilot_norest","8632","3","14","Male","","","","","","","null","<div style=""font-size:60px;"">+</div>","null","fixation","","","","","","","","","","","",""
"revaluation","289","1168740","0.0-4.0-10.0-0.6","spark_pilot_norest","8632","3","14","Male","","false","","","","","[593.8999999761581]","./assets/img/ocean/animals/octopus.jpg","[""ArrowRight""]","second stage test","ocean","0","{""ArrowUp,ArrowLeft"":23,""ArrowUp,ArrowRight"":10,""ArrowDown,ArrowLeft"":8,""ArrowDown,ArrowRight"":30}","true","ArrowDown,ArrowRight","","original","1","","","",""
"html-keyboard-response","290","1169242","0.0-4.0-10.0-1.6","spark_pilot_norest","8632","3","14","Male","","","","","","","null","<div style=""font-size:60px;"">+</div>","null","fixation","","","","","","","","","","","",""
"revaluation","291","1169634","0.0-4.0-10.0-0.7","spark_pilot_norest","8632","3","14","Male","","false","","","","","[389.5]","./assets/img/ocean/animals/octopus.jpg","[""ArrowRight""]","second stage test","ocean","0","{""ArrowUp,ArrowLeft"":23,""ArrowUp,ArrowRight"":10,""ArrowDown,ArrowLeft"":8,""ArrowDown,ArrowRight"":30}","true","ArrowDown,ArrowRight","","original","1","","","",""
"html-keyboard-response","292","1170141","0.0-4.0-10.0-1.7","spark_pilot_norest","8632","3","14","Male","","","","","","","null","<div style=""font-size:60px;"">+</div>","null","fixation","","","","","","","","","","","",""
"learning-instructions","293","1175359","0.0-4.0-0.1-0.2","spark_pilot_norest","8632","3","14","Male","","","","","","","2436.900000035763","<p> This time you are searching for treasure in the <b>canyon</b>.</p>","","instructions","","","","","","","","","","","",""
"learning-instructions","294","1195537","0.0-4.0-0.1-0.3","spark_pilot_norest","8632","3","14","Male","","","","","","","2934.899999976158","<p><b>New</b> animals with <b>new</b> treasure chests live here. You need to explore to discover where the animal with the best treasure chest is.</p>
                    <p> Like before, once you figure out which animal has the chest with the most treasure, you should try to get to that animal and select that chest! </p>","","instructions","","","","","","","","","","","",""
"learning-instructions","295","1210960","0.0-4.0-1.1-0.1","spark_pilot_norest","8632","3","14","Male","","","","","","","697.3000000119209","<p> Remember, when you see a picture of the place, use the up and down keys to <b>find an animal</b>.</p>
            <p> When you encounter an animal, you should use the left and right keys to <b>select a treasure chest</b>.</p>
            <p> Don't forget to look out for the robber! </p>","","instructions","","","","","","","","","","","",""
"revaluation","296","1216999","0.0-4.0-2.1-0.50","spark_pilot_norest","8632","3","14","Male","","false","","","","","[1167.800000011921,505]","./assets/img/canyon/memory/9.jpg","[""ArrowUp"",""ArrowLeft""]","value training","canyon","26","{""ArrowUp,ArrowLeft"":26,""ArrowUp,ArrowRight"":10,""ArrowDown,ArrowLeft"":5,""ArrowDown,ArrowRight"":17}","true","ArrowUp,ArrowLeft","false","revaluation","2","0","","",""
"html-keyboard-response","297","1217511","0.0-4.0-2.1-1.50","spark_pilot_norest","8632","3","14","Male","","","","","","","null","<div style=""font-size:60px;"">+</div>","null","fixation","","","","","","","","","1","","",""
"revaluation","298","1221530","0.0-4.0-2.1-0.51","spark_pilot_norest","8632","3","14","Male","","false","","","","","[342.60000002384186]","./assets/img/canyon/catch/1.jpg","[""ArrowUp""]","value training","canyon","-10","{""ArrowUp,ArrowLeft"":26,""ArrowUp,ArrowRight"":10,""ArrowDown,ArrowLeft"":5,""ArrowDown,ArrowRight"":17}","false","ArrowUp","true","revaluation","2","2","","",""
"html-keyboard-response","299","1222047","0.0-4.0-2.1-1.51","spark_pilot_norest","8632","3","14","Male","","","","","","","null","<div style=""font-size:60px;"">+</div>","null","fixation","","","","","","","","","3","","",""
"revaluation","300","1228074","0.0-4.0-2.1-0.52","spark_pilot_norest","8632","3","14","Male","","false","","","","","[770.1999999880791,1191.2000000476837]","./assets/img/canyon/memory/10.jpg","[""ArrowUp"",""ArrowRight""]","value training","canyon","10","{""ArrowUp,ArrowLeft"":26,""ArrowUp,ArrowRight"":10,""ArrowDown,ArrowLeft"":5,""ArrowDown,ArrowRight"":17}","false","ArrowUp,ArrowRight","false","revaluation","2","4","","",""
"html-keyboard-response","301","1228580","0.0-4.0-2.1-1.52","spark_pilot_norest","8632","3","14","Male","","","","","","","null","<div style=""font-size:60px;"">+</div>","null","fixation","","","","","","","","","5","","",""
"revaluation","302","1234591","0.0-4.0-2.1-0.53","spark_pilot_norest","8632","3","14","Male","","false","","","","","[880.4000000357628,647]","./assets/img/canyon/memory/39.jpg","[""ArrowDown"",""ArrowLeft""]","value training","canyon","5","{""ArrowUp,ArrowLeft"":26,""ArrowUp,ArrowRight"":10,""ArrowDown,ArrowLeft"":5,""ArrowDown,ArrowRight"":17}","false","ArrowDown,ArrowLeft","false","revaluation","2","6","","",""
"html-keyboard-response","303","1235095","0.0-4.0-2.1-1.53","spark_pilot_norest","8632","3","14","Male","","","","","","","null","<div style=""font-size:60px;"">+</div>","null","fixation","","","","","","","","","7","","",""
"revaluation","304","1241121","0.0-4.0-2.1-0.54","spark_pilot_norest","8632","3","14","Male","","false","","","","","[766.3000000119209,319.10000002384186]","./assets/img/canyon/memory/6.jpg","[""ArrowDown"",""ArrowRight""]","value training","canyon","17","{""ArrowUp,ArrowLeft"":26,""ArrowUp,ArrowRight"":10,""ArrowDown,ArrowLeft"":5,""ArrowDown,ArrowRight"":17}","false","ArrowDown,ArrowRight","false","revaluation","2","8","","",""
"html-keyboard-response","305","1241622","0.0-4.0-2.1-1.54","spark_pilot_norest","8632","3","14","Male","","","","","","","null","<div style=""font-size:60px;"">+</div>","null","fixation","","","","","","","","","9","","",""
"revaluation","306","1245625","0.0-4.0-2.1-0.55","spark_pilot_norest","8632","3","14","Male","","false","","","","","[1335.6000000238419]","./assets/img/canyon/catch/0.jpg","[""spaceBar""]","value training","canyon","0","{""ArrowUp,ArrowLeft"":26,""ArrowUp,ArrowRight"":10,""ArrowDown,ArrowLeft"":5,""ArrowDown,ArrowRight"":17}","true","spaceBar","true","revaluation","2","10","","",""
"html-keyboard-response","307","1246126","0.0-4.0-2.1-1.55","spark_pilot_norest","8632","3","14","Male","","","","","","","null","<div style=""font-size:60px;"">+</div>","null","fixation","","","","","","","","","11","","",""
"revaluation","308","1250129","0.0-4.0-2.1-0.56","spark_pilot_norest","8632","3","14","Male","","false","","","","","[941]","./assets/img/canyon/catch/6.jpg","[""spaceBar""]","value training","canyon","0","{""ArrowUp,ArrowLeft"":26,""ArrowUp,ArrowRight"":10,""ArrowDown,ArrowLeft"":5,""ArrowDown,ArrowRight"":17}","true","spaceBar","true","revaluation","2","12","","",""
"html-keyboard-response","309","1250631","0.0-4.0-2.1-1.56","spark_pilot_norest","8632","3","14","Male","","","","","","","null","<div style=""font-size:60px;"">+</div>","null","fixation","","","","","","","","","13","","",""
"revaluation","310","1256634","0.0-4.0-2.1-0.57","spark_pilot_norest","8632","3","14","Male","","false","","","","","[605.5999999642372,344.7000000476837]","./assets/img/canyon/memory/31.jpg","[""ArrowUp"",""ArrowLeft""]","value training","canyon","26","{""ArrowUp,ArrowLeft"":26,""ArrowUp,ArrowRight"":10,""ArrowDown,ArrowLeft"":5,""ArrowDown,ArrowRight"":17}","true","ArrowUp,ArrowLeft","false","revaluation","2","14","","",""
"html-keyboard-response","311","1257136","0.0-4.0-2.1-1.57","spark_pilot_norest","8632","3","14","Male","","","","","","","null","<div style=""font-size:60px;"">+</div>","null","fixation","","","","","","","","","15","","",""
"revaluation","312","1263141","0.0-4.0-2.1-0.58","spark_pilot_norest","8632","3","14","Male","","false","","","","","[901.6999999880791,552.9000000357628]","./assets/img/canyon/memory/12.jpg","[""ArrowUp"",""ArrowLeft""]","value training","canyon","26","{""ArrowUp,ArrowLeft"":26,""ArrowUp,ArrowRight"":10,""ArrowDown,ArrowLeft"":5,""ArrowDown,ArrowRight"":17}","true","ArrowUp,ArrowLeft","false","revaluation","2","16","","",""
"html-keyboard-response","313","1263643","0.0-4.0-2.1-1.58","spark_pilot_norest","8632","3","14","Male","","","","","","","null","<div style=""font-size:60px;"">+</div>","null","fixation","","","","","","","","","17","","",""
