"trial_type","trial_index","time_elapsed","internal_node_id","task_version","subject_id","assigned_condition","age","gender","browser_interaction","success","timeout","failed_images","failed_audio","failed_video","rt","stimulus","response","task_part","environment","score","rewardMap","correct","fullState","isCatch","condition","order","trial_num","key_press","ground_truth","bonus"
"pavlovia","0","1160","0.0-0.0","spark_pilot_norest","10572","5","23","Male","[{""event"":""blur"",""trial"":0,""time"":1142},{""event"":""focus"",""trial"":1,""time"":1329},{""event"":""blur"",""trial"":1,""time"":2762},{""event"":""focus"",""trial"":1,""time"":2821},{""event"":""blur"",""trial"":1,""time"":3556},{""event"":""focus"",""trial"":1,""time"":3616},{""event"":""blur"",""trial"":1,""time"":3737},{""event"":""focus"",""trial"":1,""time"":3790},{""event"":""blur"",""trial"":1,""time"":4505},{""event"":""focus"",""trial"":1,""time"":4551},{""event"":""blur"",""trial"":1,""time"":5973},{""event"":""focus"",""trial"":1,""time"":7905},{""event"":""blur"",""trial"":1,""time"":16213},{""event"":""focus"",""trial"":2,""time"":29154},{""event"":""fullscreenenter"",""trial"":2,""time"":29251},{""event"":""fullscreenexit"",""trial"":3,""time"":30776},{""event"":""blur"",""trial"":4,""time"":35724},{""event"":""focus"",""trial"":4,""time"":41546},{""event"":""blur"",""trial"":7,""time"":75581},{""event"":""focus"",""trial"":7,""time"":77807},{""event"":""blur"",""trial"":8,""time"":84807},{""event"":""focus"",""trial"":8,""time"":90331},{""event"":""blur"",""trial"":10,""time"":104513},{""event"":""focus"",""trial"":10,""time"":109187},{""event"":""blur"",""trial"":11,""time"":115829},{""event"":""focus"",""trial"":11,""time"":116527},{""event"":""blur"",""trial"":38,""time"":234066},{""event"":""focus"",""trial"":38,""time"":236802},{""event"":""blur"",""trial"":58,""time"":317095},{""event"":""focus"",""trial"":58,""time"":318325},{""event"":""blur"",""trial"":59,""time"":320766},{""event"":""focus"",""trial"":59,""time"":340396},{""event"":""blur"",""trial"":70,""time"":377222},{""event"":""focus"",""trial"":72,""time"":382475},{""event"":""blur"",""trial"":106,""time"":498835},{""event"":""focus"",""trial"":106,""time"":499714},{""event"":""blur"",""trial"":107,""time"":502862},{""event"":""focus"",""trial"":107,""time"":507450},{""event"":""blur"",""trial"":113,""time"":548450},{""event"":""focus"",""trial"":113,""time"":565950},{""event"":""blur"",""trial"":115,""time"":579538},{""event"":""focus"",""trial"":115,""time"":591056},{""event"":""blur"",""trial"":116,""time"":594426},{""event"":""focus"",""trial"":116,""time"":610775},{""event"":""blur"",""trial"":127,""time"":645602},{""event"":""focus"",""trial"":127,""time"":647689},{""event"":""blur"",""trial"":254,""time"":1029439},{""event"":""focus"",""trial"":254,""time"":1030736},{""event"":""blur"",""trial"":289,""time"":1086991},{""event"":""focus"",""trial"":289,""time"":1087994},{""event"":""blur"",""trial"":291,""time"":1116350},{""event"":""focus"",""trial"":291,""time"":1122410},{""event"":""blur"",""trial"":291,""time"":1123598},{""event"":""focus"",""trial"":291,""time"":1125610},{""event"":""blur"",""trial"":392,""time"":1449055},{""event"":""focus"",""trial"":392,""time"":1508156},{""event"":""blur"",""trial"":429,""time"":1597204},{""event"":""focus"",""trial"":430,""time"":1599327}]","","","","","","","","","","","","","","","","","","","","",""
"preload","1","23596","0.0-1.0","spark_pilot_norest","10572","5","23","Male","[{""event"":""blur"",""trial"":0,""time"":1142},{""event"":""focus"",""trial"":1,""time"":1329},{""event"":""blur"",""trial"":1,""time"":2762},{""event"":""focus"",""trial"":1,""time"":2821},{""event"":""blur"",""trial"":1,""time"":3556},{""event"":""focus"",""trial"":1,""time"":3616},{""event"":""blur"",""trial"":1,""time"":3737},{""event"":""focus"",""trial"":1,""time"":3790},{""event"":""blur"",""trial"":1,""time"":4505},{""event"":""focus"",""trial"":1,""time"":4551},{""event"":""blur"",""trial"":1,""time"":5973},{""event"":""focus"",""trial"":1,""time"":7905},{""event"":""blur"",""trial"":1,""time"":16213},{""event"":""focus"",""trial"":2,""time"":29154},{""event"":""fullscreenenter"",""trial"":2,""time"":29251},{""event"":""fullscreenexit"",""trial"":3,""time"":30776},{""event"":""blur"",""trial"":4,""time"":35724},{""event"":""focus"",""trial"":4,""time"":41546},{""event"":""blur"",""trial"":7,""time"":75581},{""event"":""focus"",""trial"":7,""time"":77807},{""event"":""blur"",""trial"":8,""time"":84807},{""event"":""focus"",""trial"":8,""time"":90331},{""event"":""blur"",""trial"":10,""time"":104513},{""event"":""focus"",""trial"":10,""time"":109187},{""event"":""blur"",""trial"":11,""time"":115829},{""event"":""focus"",""trial"":11,""time"":116527},{""event"":""blur"",""trial"":38,""time"":234066},{""event"":""focus"",""trial"":38,""time"":236802},{""event"":""blur"",""trial"":58,""time"":317095},{""event"":""focus"",""trial"":58,""time"":318325},{""event"":""blur"",""trial"":59,""time"":320766},{""event"":""focus"",""trial"":59,""time"":340396},{""event"":""blur"",""trial"":70,""time"":377222},{""event"":""focus"",""trial"":72,""time"":382475},{""event"":""blur"",""trial"":106,""time"":498835},{""event"":""focus"",""trial"":106,""time"":499714},{""event"":""blur"",""trial"":107,""time"":502862},{""event"":""focus"",""trial"":107,""time"":507450},{""event"":""blur"",""trial"":113,""time"":548450},{""event"":""focus"",""trial"":113,""time"":565950},{""event"":""blur"",""trial"":115,""time"":579538},{""event"":""focus"",""trial"":115,""time"":591056},{""event"":""blur"",""trial"":116,""time"":594426},{""event"":""focus"",""trial"":116,""time"":610775},{""event"":""blur"",""trial"":127,""time"":645602},{""event"":""focus"",""trial"":127,""time"":647689},{""event"":""blur"",""trial"":254,""time"":1029439},{""event"":""focus"",""trial"":254,""time"":1030736},{""event"":""blur"",""trial"":289,""time"":1086991},{""event"":""focus"",""trial"":289,""time"":1087994},{""event"":""blur"",""trial"":291,""time"":1116350},{""event"":""focus"",""trial"":291,""time"":1122410},{""event"":""blur"",""trial"":291,""time"":1123598},{""event"":""focus"",""trial"":291,""time"":1125610},{""event"":""blur"",""trial"":392,""time"":1449055},{""event"":""focus"",""trial"":392,""time"":1508156},{""event"":""blur"",""trial"":429,""time"":1597204},{""event"":""focus"",""trial"":430,""time"":1599327}]","true","false","[]","[]","[]","","","","","","","","","","","","","","","",""
"fullscreen","2","30238","0.0-2.0","spark_pilot_norest","10572","5","23","Male","[{""event"":""blur"",""trial"":0,""time"":1142},{""event"":""focus"",""trial"":1,""time"":1329},{""event"":""blur"",""trial"":1,""time"":2762},{""event"":""focus"",""trial"":1,""time"":2821},{""event"":""blur"",""trial"":1,""time"":3556},{""event"":""focus"",""trial"":1,""time"":3616},{""event"":""blur"",""trial"":1,""time"":3737},{""event"":""focus"",""trial"":1,""time"":3790},{""event"":""blur"",""trial"":1,""time"":4505},{""event"":""focus"",""trial"":1,""time"":4551},{""event"":""blur"",""trial"":1,""time"":5973},{""event"":""focus"",""trial"":1,""time"":7905},{""event"":""blur"",""trial"":1,""time"":16213},{""event"":""focus"",""trial"":2,""time"":29154},{""event"":""fullscreenenter"",""trial"":2,""time"":29251},{""event"":""fullscreenexit"",""trial"":3,""time"":30776},{""event"":""blur"",""trial"":4,""time"":35724},{""event"":""focus"",""trial"":4,""time"":41546},{""event"":""blur"",""trial"":7,""time"":75581},{""event"":""focus"",""trial"":7,""time"":77807},{""event"":""blur"",""trial"":8,""time"":84807},{""event"":""focus"",""trial"":8,""time"":90331},{""event"":""blur"",""trial"":10,""time"":104513},{""event"":""focus"",""trial"":10,""time"":109187},{""event"":""blur"",""trial"":11,""time"":115829},{""event"":""focus"",""trial"":11,""time"":116527},{""event"":""blur"",""trial"":38,""time"":234066},{""event"":""focus"",""trial"":38,""time"":236802},{""event"":""blur"",""trial"":58,""time"":317095},{""event"":""focus"",""trial"":58,""time"":318325},{""event"":""blur"",""trial"":59,""time"":320766},{""event"":""focus"",""trial"":59,""time"":340396},{""event"":""blur"",""trial"":70,""time"":377222},{""event"":""focus"",""trial"":72,""time"":382475},{""event"":""blur"",""trial"":106,""time"":498835},{""event"":""focus"",""trial"":106,""time"":499714},{""event"":""blur"",""trial"":107,""time"":502862},{""event"":""focus"",""trial"":107,""time"":507450},{""event"":""blur"",""trial"":113,""time"":548450},{""event"":""focus"",""trial"":113,""time"":565950},{""event"":""blur"",""trial"":115,""time"":579538},{""event"":""focus"",""trial"":115,""time"":591056},{""event"":""blur"",""trial"":116,""time"":594426},{""event"":""focus"",""trial"":116,""time"":610775},{""event"":""blur"",""trial"":127,""time"":645602},{""event"":""focus"",""trial"":127,""time"":647689},{""event"":""blur"",""trial"":254,""time"":1029439},{""event"":""focus"",""trial"":254,""time"":1030736},{""event"":""blur"",""trial"":289,""time"":1086991},{""event"":""focus"",""trial"":289,""time"":1087994},{""event"":""blur"",""trial"":291,""time"":1116350},{""event"":""focus"",""trial"":291,""time"":1122410},{""event"":""blur"",""trial"":291,""time"":1123598},{""event"":""focus"",""trial"":291,""time"":1125610},{""event"":""blur"",""trial"":392,""time"":1449055},{""event"":""focus"",""trial"":392,""time"":1508156},{""event"":""blur"",""trial"":429,""time"":1597204},{""event"":""focus"",""trial"":430,""time"":1599327}]","true","","","","","","","","","","","","","","","","","","","",""
"audio-button-response","3","31853","0.0-3.0-0.0-0.0","spark_pilot_norest","10572","5","23","Male","[{""event"":""blur"",""trial"":0,""time"":1142},{""event"":""focus"",""trial"":1,""time"":1329},{""event"":""blur"",""trial"":1,""time"":2762},{""event"":""focus"",""trial"":1,""time"":2821},{""event"":""blur"",""trial"":1,""time"":3556},{""event"":""focus"",""trial"":1,""time"":3616},{""event"":""blur"",""trial"":1,""time"":3737},{""event"":""focus"",""trial"":1,""time"":3790},{""event"":""blur"",""trial"":1,""time"":4505},{""event"":""focus"",""trial"":1,""time"":4551},{""event"":""blur"",""trial"":1,""time"":5973},{""event"":""focus"",""trial"":1,""time"":7905},{""event"":""blur"",""trial"":1,""time"":16213},{""event"":""focus"",""trial"":2,""time"":29154},{""event"":""fullscreenenter"",""trial"":2,""time"":29251},{""event"":""fullscreenexit"",""trial"":3,""time"":30776},{""event"":""blur"",""trial"":4,""time"":35724},{""event"":""focus"",""trial"":4,""time"":41546},{""event"":""blur"",""trial"":7,""time"":75581},{""event"":""focus"",""trial"":7,""time"":77807},{""event"":""blur"",""trial"":8,""time"":84807},{""event"":""focus"",""trial"":8,""time"":90331},{""event"":""blur"",""trial"":10,""time"":104513},{""event"":""focus"",""trial"":10,""time"":109187},{""event"":""blur"",""trial"":11,""time"":115829},{""event"":""focus"",""trial"":11,""time"":116527},{""event"":""blur"",""trial"":38,""time"":234066},{""event"":""focus"",""trial"":38,""time"":236802},{""event"":""blur"",""trial"":58,""time"":317095},{""event"":""focus"",""trial"":58,""time"":318325},{""event"":""blur"",""trial"":59,""time"":320766},{""event"":""focus"",""trial"":59,""time"":340396},{""event"":""blur"",""trial"":70,""time"":377222},{""event"":""focus"",""trial"":72,""time"":382475},{""event"":""blur"",""trial"":106,""time"":498835},{""event"":""focus"",""trial"":106,""time"":499714},{""event"":""blur"",""trial"":107,""time"":502862},{""event"":""focus"",""trial"":107,""time"":507450},{""event"":""blur"",""trial"":113,""time"":548450},{""event"":""focus"",""trial"":113,""time"":565950},{""event"":""blur"",""trial"":115,""time"":579538},{""event"":""focus"",""trial"":115,""time"":591056},{""event"":""blur"",""trial"":116,""time"":594426},{""event"":""focus"",""trial"":116,""time"":610775},{""event"":""blur"",""trial"":127,""time"":645602},{""event"":""focus"",""trial"":127,""time"":647689},{""event"":""blur"",""trial"":254,""time"":1029439},{""event"":""focus"",""trial"":254,""time"":1030736},{""event"":""blur"",""trial"":289,""time"":1086991},{""event"":""focus"",""trial"":289,""time"":1087994},{""event"":""blur"",""trial"":291,""time"":1116350},{""event"":""focus"",""trial"":291,""time"":1122410},{""event"":""blur"",""trial"":291,""time"":1123598},{""event"":""focus"",""trial"":291,""time"":1125610},{""event"":""blur"",""trial"":392,""time"":1449055},{""event"":""focus"",""trial"":392,""time"":1508156},{""event"":""blur"",""trial"":429,""time"":1597204},{""event"":""focus"",""trial"":430,""time"":1599327}]","","","","","","1611","./assets/audio/audiotest/turtle.mp3","2","audio_test","","","","","","","","","","","",""
"learning-instructions","4","41620","0.0-3.0-1.0-0.0","spark_pilot_norest","10572","5","23","Male","","","","","","","2790.199999988079","<p> Welcome! Please remember to stay in fullscreen mode and don't click away from the experiment. </p>","","instructions","","","","","","","","","","","",""
"learning-instructions","5","53748","0.0-3.0-1.0-0.1","spark_pilot_norest","10572","5","23","Male","","","","","","","3718.2999999970198","<p> Today you will be playing a game to earn treasure. </p>
            <p> At the end of the experiment, you will earn a bonus based on how much treasure you find. </p>
            <img src='./assets/img/instructions/treasure.jpg' class='instructions-image'>","","instructions","","","","","","","","","","","",""
"learning-instructions","6","63229","0.0-3.0-1.0-0.2","spark_pilot_norest","10572","5","23","Male","[{""event"":""blur"",""trial"":0,""time"":1142},{""event"":""focus"",""trial"":1,""time"":1329},{""event"":""blur"",""trial"":1,""time"":2762},{""event"":""focus"",""trial"":1,""time"":2821},{""event"":""blur"",""trial"":1,""time"":3556},{""event"":""focus"",""trial"":1,""time"":3616},{""event"":""blur"",""trial"":1,""time"":3737},{""event"":""focus"",""trial"":1,""time"":3790},{""event"":""blur"",""trial"":1,""time"":4505},{""event"":""focus"",""trial"":1,""time"":4551},{""event"":""blur"",""trial"":1,""time"":5973},{""event"":""focus"",""trial"":1,""time"":7905},{""event"":""blur"",""trial"":1,""time"":16213},{""event"":""focus"",""trial"":2,""time"":29154},{""event"":""fullscreenenter"",""trial"":2,""time"":29251},{""event"":""fullscreenexit"",""trial"":3,""time"":30776},{""event"":""blur"",""trial"":4,""time"":35724},{""event"":""focus"",""trial"":4,""time"":41546},{""event"":""blur"",""trial"":7,""time"":75581},{""event"":""focus"",""trial"":7,""time"":77807},{""event"":""blur"",""trial"":8,""time"":84807},{""event"":""focus"",""trial"":8,""time"":90331},{""event"":""blur"",""trial"":10,""time"":104513},{""event"":""focus"",""trial"":10,""time"":109187},{""event"":""blur"",""trial"":11,""time"":115829},{""event"":""focus"",""trial"":11,""time"":116527},{""event"":""blur"",""trial"":38,""time"":234066},{""event"":""focus"",""trial"":38,""time"":236802},{""event"":""blur"",""trial"":58,""time"":317095},{""event"":""focus"",""trial"":58,""time"":318325},{""event"":""blur"",""trial"":59,""time"":320766},{""event"":""focus"",""trial"":59,""time"":340396},{""event"":""blur"",""trial"":70,""time"":377222},{""event"":""focus"",""trial"":72,""time"":382475},{""event"":""blur"",""trial"":106,""time"":498835},{""event"":""focus"",""trial"":106,""time"":499714},{""event"":""blur"",""trial"":107,""time"":502862},{""event"":""focus"",""trial"":107,""time"":507450},{""event"":""blur"",""trial"":113,""time"":548450},{""event"":""focus"",""trial"":113,""time"":565950},{""event"":""blur"",""trial"":115,""time"":579538},{""event"":""focus"",""trial"":115,""time"":591056},{""event"":""blur"",""trial"":116,""time"":594426},{""event"":""focus"",""trial"":116,""time"":610775},{""event"":""blur"",""trial"":127,""time"":645602},{""event"":""focus"",""trial"":127,""time"":647689},{""event"":""blur"",""trial"":254,""time"":1029439},{""event"":""focus"",""trial"":254,""time"":1030736},{""event"":""blur"",""trial"":289,""time"":1086991},{""event"":""focus"",""trial"":289,""time"":1087994},{""event"":""blur"",""trial"":291,""time"":1116350},{""event"":""focus"",""trial"":291,""time"":1122410},{""event"":""blur"",""trial"":291,""time"":1123598},{""event"":""focus"",""trial"":291,""time"":1125610},{""event"":""blur"",""trial"":392,""time"":1449055},{""event"":""focus"",""trial"":392,""time"":1508156},{""event"":""blur"",""trial"":429,""time"":1597204},{""event"":""focus"",""trial"":430,""time"":1599327}]","","","","","","1218.6000000089407","<p> Animals have hidden treasure in treasure chests. </p>
            <p> You need to first find an animal and then choose which of their treasure chests to search. </p>
            <img src='./assets/img/space/animals/cat.jpg' class='instructions-image'>","","instructions","","","","","","","","","","","",""
"learning-instructions","7","77933","0.0-3.0-1.0-0.3","spark_pilot_norest","10572","5","23","Male","[{""event"":""blur"",""trial"":0,""time"":1142},{""event"":""focus"",""trial"":1,""time"":1329},{""event"":""blur"",""trial"":1,""time"":2762},{""event"":""focus"",""trial"":1,""time"":2821},{""event"":""blur"",""trial"":1,""time"":3556},{""event"":""focus"",""trial"":1,""time"":3616},{""event"":""blur"",""trial"":1,""time"":3737},{""event"":""focus"",""trial"":1,""time"":3790},{""event"":""blur"",""trial"":1,""time"":4505},{""event"":""focus"",""trial"":1,""time"":4551},{""event"":""blur"",""trial"":1,""time"":5973},{""event"":""focus"",""trial"":1,""time"":7905},{""event"":""blur"",""trial"":1,""time"":16213},{""event"":""focus"",""trial"":2,""time"":29154},{""event"":""fullscreenenter"",""trial"":2,""time"":29251},{""event"":""fullscreenexit"",""trial"":3,""time"":30776},{""event"":""blur"",""trial"":4,""time"":35724},{""event"":""focus"",""trial"":4,""time"":41546},{""event"":""blur"",""trial"":7,""time"":75581},{""event"":""focus"",""trial"":7,""time"":77807},{""event"":""blur"",""trial"":8,""time"":84807},{""event"":""focus"",""trial"":8,""time"":90331},{""event"":""blur"",""trial"":10,""time"":104513},{""event"":""focus"",""trial"":10,""time"":109187},{""event"":""blur"",""trial"":11,""time"":115829},{""event"":""focus"",""trial"":11,""time"":116527},{""event"":""blur"",""trial"":38,""time"":234066},{""event"":""focus"",""trial"":38,""time"":236802},{""event"":""blur"",""trial"":58,""time"":317095},{""event"":""focus"",""trial"":58,""time"":318325},{""event"":""blur"",""trial"":59,""time"":320766},{""event"":""focus"",""trial"":59,""time"":340396},{""event"":""blur"",""trial"":70,""time"":377222},{""event"":""focus"",""trial"":72,""time"":382475},{""event"":""blur"",""trial"":106,""time"":498835},{""event"":""focus"",""trial"":106,""time"":499714},{""event"":""blur"",""trial"":107,""time"":502862},{""event"":""focus"",""trial"":107,""time"":507450},{""event"":""blur"",""trial"":113,""time"":548450},{""event"":""focus"",""trial"":113,""time"":565950},{""event"":""blur"",""trial"":115,""time"":579538},{""event"":""focus"",""trial"":115,""time"":591056},{""event"":""blur"",""trial"":116,""time"":594426},{""event"":""focus"",""trial"":116,""time"":610775},{""event"":""blur"",""trial"":127,""time"":645602},{""event"":""focus"",""trial"":127,""time"":647689},{""event"":""blur"",""trial"":254,""time"":1029439},{""event"":""focus"",""trial"":254,""time"":1030736},{""event"":""blur"",""trial"":289,""time"":1086991},{""event"":""focus"",""trial"":289,""time"":1087994},{""event"":""blur"",""trial"":291,""time"":1116350},{""event"":""focus"",""trial"":291,""time"":1122410},{""event"":""blur"",""trial"":291,""time"":1123598},{""event"":""focus"",""trial"":291,""time"":1125610},{""event"":""blur"",""trial"":392,""time"":1449055},{""event"":""focus"",""trial"":392,""time"":1508156},{""event"":""blur"",""trial"":429,""time"":1597204},{""event"":""focus"",""trial"":430,""time"":1599327}]","","","","","","1560.9000000059605","<p> In each round, you will search for treasure in a different place. In the real game, there will be two rounds. </p>
            <p> You will begin with a separate, practice round where you will search for treasure in outer space. </p>
            <img src='./assets/img/space/0.jpg' class='instructions-image'>","","instructions","","","","","","","","","","","",""
"learning-instructions","8","90461","0.0-3.0-1.0-0.4","spark_pilot_norest","10572","5","23","Male","","","","","","","1099.9000000059605","<p> On every turn, you will see a picture of the place that you are in, but the specific image may be different each time. </p>
            <p> For example, both of these images mean you are in outer space. </p>
            <img src='./assets/img/instructions/outerspace.jpg' class='instructions-image'>","","instructions","","","","","","","","","","","",""
"learning-instructions","9","99469","0.0-3.0-1.0-0.5","spark_pilot_norest","10572","5","23","Male","[{""event"":""blur"",""trial"":0,""time"":1142},{""event"":""focus"",""trial"":1,""time"":1329},{""event"":""blur"",""trial"":1,""time"":2762},{""event"":""focus"",""trial"":1,""time"":2821},{""event"":""blur"",""trial"":1,""time"":3556},{""event"":""focus"",""trial"":1,""time"":3616},{""event"":""blur"",""trial"":1,""time"":3737},{""event"":""focus"",""trial"":1,""time"":3790},{""event"":""blur"",""trial"":1,""time"":4505},{""event"":""focus"",""trial"":1,""time"":4551},{""event"":""blur"",""trial"":1,""time"":5973},{""event"":""focus"",""trial"":1,""time"":7905},{""event"":""blur"",""trial"":1,""time"":16213},{""event"":""focus"",""trial"":2,""time"":29154},{""event"":""fullscreenenter"",""trial"":2,""time"":29251},{""event"":""fullscreenexit"",""trial"":3,""time"":30776},{""event"":""blur"",""trial"":4,""time"":35724},{""event"":""focus"",""trial"":4,""time"":41546},{""event"":""blur"",""trial"":7,""time"":75581},{""event"":""focus"",""trial"":7,""time"":77807},{""event"":""blur"",""trial"":8,""time"":84807},{""event"":""focus"",""trial"":8,""time"":90331},{""event"":""blur"",""trial"":10,""time"":104513},{""event"":""focus"",""trial"":10,""time"":109187},{""event"":""blur"",""trial"":11,""time"":115829},{""event"":""focus"",""trial"":11,""time"":116527},{""event"":""blur"",""trial"":38,""time"":234066},{""event"":""focus"",""trial"":38,""time"":236802},{""event"":""blur"",""trial"":58,""time"":317095},{""event"":""focus"",""trial"":58,""time"":318325},{""event"":""blur"",""trial"":59,""time"":320766},{""event"":""focus"",""trial"":59,""time"":340396},{""event"":""blur"",""trial"":70,""time"":377222},{""event"":""focus"",""trial"":72,""time"":382475},{""event"":""blur"",""trial"":106,""time"":498835},{""event"":""focus"",""trial"":106,""time"":499714},{""event"":""blur"",""trial"":107,""time"":502862},{""event"":""focus"",""trial"":107,""time"":507450},{""event"":""blur"",""trial"":113,""time"":548450},{""event"":""focus"",""trial"":113,""time"":565950},{""event"":""blur"",""trial"":115,""time"":579538},{""event"":""focus"",""trial"":115,""time"":591056},{""event"":""blur"",""trial"":116,""time"":594426},{""event"":""focus"",""trial"":116,""time"":610775},{""event"":""blur"",""trial"":127,""time"":645602},{""event"":""focus"",""trial"":127,""time"":647689},{""event"":""blur"",""trial"":254,""time"":1029439},{""event"":""focus"",""trial"":254,""time"":1030736},{""event"":""blur"",""trial"":289,""time"":1086991},{""event"":""focus"",""trial"":289,""time"":1087994},{""event"":""blur"",""trial"":291,""time"":1116350},{""event"":""focus"",""trial"":291,""time"":1122410},{""event"":""blur"",""trial"":291,""time"":1123598},{""event"":""focus"",""trial"":291,""time"":1125610},{""event"":""blur"",""trial"":392,""time"":1449055},{""event"":""focus"",""trial"":392,""time"":1508156},{""event"":""blur"",""trial"":429,""time"":1597204},{""event"":""focus"",""trial"":430,""time"":1599327}]","","","","","","1188.2000000029802","<p> You need to decide which direction to travel in. </p>
            <p> You can choose between going <b>up or down</b> by using the arrow keys. </p>
            <img src='./assets/img/instructions/updown.jpg' class='instructions-image'>","","instructions","","","","","","","","","","","",""
"learning-instructions","10","109261","0.0-3.0-1.0-0.6","spark_pilot_norest","10572","5","23","Male","[{""event"":""blur"",""trial"":0,""time"":1142},{""event"":""focus"",""trial"":1,""time"":1329},{""event"":""blur"",""trial"":1,""time"":2762},{""event"":""focus"",""trial"":1,""time"":2821},{""event"":""blur"",""trial"":1,""time"":3556},{""event"":""focus"",""trial"":1,""time"":3616},{""event"":""blur"",""trial"":1,""time"":3737},{""event"":""focus"",""trial"":1,""time"":3790},{""event"":""blur"",""trial"":1,""time"":4505},{""event"":""focus"",""trial"":1,""time"":4551},{""event"":""blur"",""trial"":1,""time"":5973},{""event"":""focus"",""trial"":1,""time"":7905},{""event"":""blur"",""trial"":1,""time"":16213},{""event"":""focus"",""trial"":2,""time"":29154},{""event"":""fullscreenenter"",""trial"":2,""time"":29251},{""event"":""fullscreenexit"",""trial"":3,""time"":30776},{""event"":""blur"",""trial"":4,""time"":35724},{""event"":""focus"",""trial"":4,""time"":41546},{""event"":""blur"",""trial"":7,""time"":75581},{""event"":""focus"",""trial"":7,""time"":77807},{""event"":""blur"",""trial"":8,""time"":84807},{""event"":""focus"",""trial"":8,""time"":90331},{""event"":""blur"",""trial"":10,""time"":104513},{""event"":""focus"",""trial"":10,""time"":109187},{""event"":""blur"",""trial"":11,""time"":115829},{""event"":""focus"",""trial"":11,""time"":116527},{""event"":""blur"",""trial"":38,""time"":234066},{""event"":""focus"",""trial"":38,""time"":236802},{""event"":""blur"",""trial"":58,""time"":317095},{""event"":""focus"",""trial"":58,""time"":318325},{""event"":""blur"",""trial"":59,""time"":320766},{""event"":""focus"",""trial"":59,""time"":340396},{""event"":""blur"",""trial"":70,""time"":377222},{""event"":""focus"",""trial"":72,""time"":382475},{""event"":""blur"",""trial"":106,""time"":498835},{""event"":""focus"",""trial"":106,""time"":499714},{""event"":""blur"",""trial"":107,""time"":502862},{""event"":""focus"",""trial"":107,""time"":507450},{""event"":""blur"",""trial"":113,""time"":548450},{""event"":""focus"",""trial"":113,""time"":565950},{""event"":""blur"",""trial"":115,""time"":579538},{""event"":""focus"",""trial"":115,""time"":591056},{""event"":""blur"",""trial"":116,""time"":594426},{""event"":""focus"",""trial"":116,""time"":610775},{""event"":""blur"",""trial"":127,""time"":645602},{""event"":""focus"",""trial"":127,""time"":647689},{""event"":""blur"",""trial"":254,""time"":1029439},{""event"":""focus"",""trial"":254,""time"":1030736},{""event"":""blur"",""trial"":289,""time"":1086991},{""event"":""focus"",""trial"":289,""time"":1087994},{""event"":""blur"",""trial"":291,""time"":1116350},{""event"":""focus"",""trial"":291,""time"":1122410},{""event"":""blur"",""trial"":291,""time"":1123598},{""event"":""focus"",""trial"":291,""time"":1125610},{""event"":""blur"",""trial"":392,""time"":1449055},{""event"":""focus"",""trial"":392,""time"":1508156},{""event"":""blur"",""trial"":429,""time"":1597204},{""event"":""focus"",""trial"":430,""time"":1599327}]","","","","","","979.8999999910593","<p> You will have <b>2 seconds</b> to make your choice. </p>
            <p> If you do not make a choice within 2 seconds, you will not find an animal or earn treasure. </p>
            <img src='./assets/img/instructions/2seconds.jpg' class='instructions-image'>","","instructions","","","","","","","","","","","",""
"learning-instructions","11","117357","0.0-3.0-1.0-0.7","spark_pilot_norest","10572","5","23","Male","","","","","","","1066.300000011921","<p> Let’s try practicing that now! </p>
            <p> When you see a picture of the place you are in, press the <b>up</b> key to travel up. </p>
            <img src='./assets/img/instructions/pressUp.jpg' class='instructions-image'>","","instructions","","","","","","","","","","","",""
"revaluation","12","121382","0.0-3.0-2.0-0.0","spark_pilot_norest","10572","5","23","Male","","","false","","","","[654.7000000029802]","./assets/img/space/0.jpg","[""ArrowUp""]","first stage practice","space","0","null","null","ArrowUp","false","","","","","",""
"html-keyboard-response","13","121899","0.0-3.0-2.0-1.0","spark_pilot_norest","10572","5","23","Male","","","","","","","null","<div style=""font-size:60px;"">+</div>","null","fixation","","","","","","","","","","","",""
"revaluation","14","125916","0.0-3.0-2.0-0.1","spark_pilot_norest","10572","5","23","Male","","","false","","","","[1485.9000000059605]","./assets/img/space/1.jpg","[""ArrowUp""]","first stage practice","space","0","null","null","ArrowUp","false","","","","","",""
"html-keyboard-response","15","126417","0.0-3.0-2.0-1.1","spark_pilot_norest","10572","5","23","Male","","","","","","","null","<div style=""font-size:60px;"">+</div>","null","fixation","","","","","","","","","","","",""
"revaluation","16","130426","0.0-3.0-2.0-0.2","spark_pilot_norest","10572","5","23","Male","","","false","","","","[601.2999999970198]","./assets/img/space/2.jpg","[""ArrowUp""]","first stage practice","space","0","null","null","ArrowUp","false","","","","","",""
"html-keyboard-response","17","130937","0.0-3.0-2.0-1.2","spark_pilot_norest","10572","5","23","Male","","","","","","","null","<div style=""font-size:60px;"">+</div>","null","fixation","","","","","","","","","","","",""
"learning-instructions","18","136639","0.0-3.0-3.0-0.0","spark_pilot_norest","10572","5","23","Male","","","","","","","1007.3999999910593","<p> Great job! Now try pressing the <b>down</b> key to travel down. </p>
            <img src='./assets/img/instructions/pressDown.jpg' class='instructions-image'>","","instructions","","","","","","","","","","","",""
"revaluation","19","140669","0.0-3.0-4.0-0.0","spark_pilot_norest","10572","5","23","Male","","","false","","","","[307.6000000089407]","./assets/img/space/3.jpg","[""ArrowDown""]","first stage practice","space","0","null","null","ArrowDown","false","","","","","",""
"html-keyboard-response","20","141185","0.0-3.0-4.0-1.0","spark_pilot_norest","10572","5","23","Male","","","","","","","null","<div style=""font-size:60px;"">+</div>","null","fixation","","","","","","","","","","","",""
"revaluation","21","145199","0.0-3.0-4.0-0.1","spark_pilot_norest","10572","5","23","Male","","","false","","","","[386.20000000298023]","./assets/img/space/4.jpg","[""ArrowDown""]","first stage practice","space","0","null","null","ArrowDown","false","","","","","",""
"html-keyboard-response","22","145700","0.0-3.0-4.0-1.1","spark_pilot_norest","10572","5","23","Male","","","","","","","null","<div style=""font-size:60px;"">+</div>","null","fixation","","","","","","","","","","","",""
"revaluation","23","149718","0.0-3.0-4.0-0.2","spark_pilot_norest","10572","5","23","Male","","","false","","","","[518.5999999940395]","./assets/img/space/5.jpg","[""ArrowDown""]","first stage practice","space","0","null","null","ArrowDown","false","","","","","",""
"html-keyboard-response","24","150221","0.0-3.0-4.0-1.2","spark_pilot_norest","10572","5","23","Male","","","","","","","null","<div style=""font-size:60px;"">+</div>","null","fixation","","","","","","","","","","","",""
"learning-instructions","25","163245","0.0-3.0-5.0-0.0","spark_pilot_norest","10572","5","23","Male","","","","","","","3175.2999999970198","<p> The animals don’t move, so the animal in the upper part of a place will stay in the upper part of a place, and the animal in the lower part of a place will stay in the lower part of a place. </p>","","instructions","","","","","","","","","","","",""
"learning-instructions","26","173133","0.0-3.0-5.0-0.1","spark_pilot_norest","10572","5","23","Male","","","","","","","762.7000000029802","<p> Each animal has two treasure chests for you to choose from. </p>
            <p> The amount of treasure in each chest can range from <b> 0 to 40 pieces.</b></p>","","instructions","","","","","","","","","","","",""
"learning-instructions","27","185235","0.0-3.0-5.0-0.2","spark_pilot_norest","10572","5","23","Male","","","","","","","906.6999999880791","<p> You should decide which chest to search for treasure by using the <b>left</b> and <b>right</b> arrow keys. </p>
            <p><b> Pay attention to which animal is on the screen, as the animals have different treasure chests. </b></p>
            <img src='./assets/img/instructions/leftright.jpg' class='instructions-image'>","","instructions","","","","","","","","","","","",""
"learning-instructions","28","192188","0.0-3.0-5.0-0.3","spark_pilot_norest","10572","5","23","Male","","","","","","","589.4000000059605","<p> Let’s try practicing that now. </p>
            <p> When you see an animal, choose which chest to search for treasure. </p>
            <img src='./assets/img/instructions/chooseChest.jpg' class='instructions-image'>","","instructions","","","","","","","","","","","",""
"revaluation","29","196218","0.0-3.0-6.0-0.0","spark_pilot_norest","10572","5","23","Male","","","false","","","","[533.5999999940395]","./assets/img/space/animals/cat.jpg","[""ArrowLeft""]","second stage practice","space","3","{""ArrowUp,ArrowLeft"":3,""ArrowUp,ArrowRight"":36,""ArrowDown,ArrowLeft"":15,""ArrowDown,ArrowRight"":23}","false","ArrowUp,ArrowLeft","","","","","","",""
"html-keyboard-response","30","196733","0.0-3.0-6.0-1.0","spark_pilot_norest","10572","5","23","Male","","","","","","","null","<div style=""font-size:60px;"">+</div>","null","fixation","","","","","","","","","","","",""
"revaluation","31","200756","0.0-3.0-6.0-0.1","spark_pilot_norest","10572","5","23","Male","","","false","","","","[715.4000000059605]","./assets/img/space/animals/cat.jpg","[""ArrowRight""]","second stage practice","space","36","{""ArrowUp,ArrowLeft"":3,""ArrowUp,ArrowRight"":36,""ArrowDown,ArrowLeft"":15,""ArrowDown,ArrowRight"":23}","true","ArrowUp,ArrowRight","","","","","","",""
"html-keyboard-response","32","201272","0.0-3.0-6.0-1.1","spark_pilot_norest","10572","5","23","Male","","","","","","","null","<div style=""font-size:60px;"">+</div>","null","fixation","","","","","","","","","","","",""
"revaluation","33","205285","0.0-3.0-6.0-0.2","spark_pilot_norest","10572","5","23","Male","","","false","","","","[328.70000000298023]","./assets/img/space/animals/rabbit.jpg","[""ArrowRight""]","second stage practice","space","23","{""ArrowUp,ArrowLeft"":3,""ArrowUp,ArrowRight"":36,""ArrowDown,ArrowLeft"":15,""ArrowDown,ArrowRight"":23}","true","ArrowDown,ArrowRight","","","","","","",""
"html-keyboard-response","34","205786","0.0-3.0-6.0-1.2","spark_pilot_norest","10572","5","23","Male","","","","","","","null","<div style=""font-size:60px;"">+</div>","null","fixation","","","","","","","","","","","",""
"revaluation","35","209794","0.0-3.0-6.0-0.3","spark_pilot_norest","10572","5","23","Male","","","false","","","","[710.1000000089407]","./assets/img/space/animals/rabbit.jpg","[""ArrowLeft""]","second stage practice","space","15","{""ArrowUp,ArrowLeft"":3,""ArrowUp,ArrowRight"":36,""ArrowDown,ArrowLeft"":15,""ArrowDown,ArrowRight"":23}","false","ArrowDown,ArrowLeft","","","","","","",""
"html-keyboard-response","36","210297","0.0-3.0-6.0-1.3","spark_pilot_norest","10572","5","23","Male","","","","","","","null","<div style=""font-size:60px;"">+</div>","null","fixation","","","","","","","","","","","",""
"learning-instructions","37","229323","0.0-3.0-7.0-0.0","spark_pilot_norest","10572","5","23","Male","[{""event"":""blur"",""trial"":0,""time"":1142},{""event"":""focus"",""trial"":1,""time"":1329},{""event"":""blur"",""trial"":1,""time"":2762},{""event"":""focus"",""trial"":1,""time"":2821},{""event"":""blur"",""trial"":1,""time"":3556},{""event"":""focus"",""trial"":1,""time"":3616},{""event"":""blur"",""trial"":1,""time"":3737},{""event"":""focus"",""trial"":1,""time"":3790},{""event"":""blur"",""trial"":1,""time"":4505},{""event"":""focus"",""trial"":1,""time"":4551},{""event"":""blur"",""trial"":1,""time"":5973},{""event"":""focus"",""trial"":1,""time"":7905},{""event"":""blur"",""trial"":1,""time"":16213},{""event"":""focus"",""trial"":2,""time"":29154},{""event"":""fullscreenenter"",""trial"":2,""time"":29251},{""event"":""fullscreenexit"",""trial"":3,""time"":30776},{""event"":""blur"",""trial"":4,""time"":35724},{""event"":""focus"",""trial"":4,""time"":41546},{""event"":""blur"",""trial"":7,""time"":75581},{""event"":""focus"",""trial"":7,""time"":77807},{""event"":""blur"",""trial"":8,""time"":84807},{""event"":""focus"",""trial"":8,""time"":90331},{""event"":""blur"",""trial"":10,""time"":104513},{""event"":""focus"",""trial"":10,""time"":109187},{""event"":""blur"",""trial"":11,""time"":115829},{""event"":""focus"",""trial"":11,""time"":116527},{""event"":""blur"",""trial"":38,""time"":234066},{""event"":""focus"",""trial"":38,""time"":236802},{""event"":""blur"",""trial"":58,""time"":317095},{""event"":""focus"",""trial"":58,""time"":318325},{""event"":""blur"",""trial"":59,""time"":320766},{""event"":""focus"",""trial"":59,""time"":340396},{""event"":""blur"",""trial"":70,""time"":377222},{""event"":""focus"",""trial"":72,""time"":382475},{""event"":""blur"",""trial"":106,""time"":498835},{""event"":""focus"",""trial"":106,""time"":499714},{""event"":""blur"",""trial"":107,""time"":502862},{""event"":""focus"",""trial"":107,""time"":507450},{""event"":""blur"",""trial"":113,""time"":548450},{""event"":""focus"",""trial"":113,""time"":565950},{""event"":""blur"",""trial"":115,""time"":579538},{""event"":""focus"",""trial"":115,""time"":591056},{""event"":""blur"",""trial"":116,""time"":594426},{""event"":""focus"",""trial"":116,""time"":610775},{""event"":""blur"",""trial"":127,""time"":645602},{""event"":""focus"",""trial"":127,""time"":647689},{""event"":""blur"",""trial"":254,""time"":1029439},{""event"":""focus"",""trial"":254,""time"":1030736},{""event"":""blur"",""trial"":289,""time"":1086991},{""event"":""focus"",""trial"":289,""time"":1087994},{""event"":""blur"",""trial"":291,""time"":1116350},{""event"":""focus"",""trial"":291,""time"":1122410},{""event"":""blur"",""trial"":291,""time"":1123598},{""event"":""focus"",""trial"":291,""time"":1125610},{""event"":""blur"",""trial"":392,""time"":1449055},{""event"":""focus"",""trial"":392,""time"":1508156},{""event"":""blur"",""trial"":429,""time"":1597204},{""event"":""focus"",""trial"":430,""time"":1599327}]","","","","","","2214.4000000059605","<p> Great job. Now let’s try putting it together. </p>
            <p> On each turn, you will first see a picture to remind you of the place you are in, and you need to choose whether to go up or down. </p>
            <p> Then you will see an animal and choose which of its chests to search for treasure. </p>","","instructions","","","","","","","","","","","",""
"learning-instructions","38","239705","0.0-3.0-7.0-0.1","spark_pilot_norest","10572","5","23","Male","","","","","","","2118.1000000089407","<p> When you choose whether to go up or down, try to go to the animal with the chest with the most treasure. </p>
            <p> Try practicing that now! </p>","","instructions","","","","","","","","","","","",""
"revaluation","39","245747","0.0-3.0-8.0-0.0","spark_pilot_norest","10572","5","23","Male","","","false","","","","[1045.7000000029802,1112]","./assets/img/space/6.jpg","[""ArrowUp"",""ArrowRight""]","full practice","space","36","{""ArrowUp,ArrowLeft"":3,""ArrowUp,ArrowRight"":36,""ArrowDown,ArrowLeft"":15,""ArrowDown,ArrowRight"":23}","true","ArrowUp,ArrowRight","false","","","","","",""
"html-keyboard-response","40","246261","0.0-3.0-8.0-1.0","spark_pilot_norest","10572","5","23","Male","","","","","","","null","<div style=""font-size:60px;"">+</div>","null","fixation","","","","","","","","","","","",""
"revaluation","41","252284","0.0-3.0-8.0-0.1","spark_pilot_norest","10572","5","23","Male","","","false","","","","[448.79999999701977,719.7000000029802]","./assets/img/space/7.jpg","[""ArrowUp"",""ArrowRight""]","full practice","space","36","{""ArrowUp,ArrowLeft"":3,""ArrowUp,ArrowRight"":36,""ArrowDown,ArrowLeft"":15,""ArrowDown,ArrowRight"":23}","true","ArrowUp,ArrowRight","false","","","","","",""
"html-keyboard-response","42","252797","0.0-3.0-8.0-1.1","spark_pilot_norest","10572","5","23","Male","","","","","","","null","<div style=""font-size:60px;"">+</div>","null","fixation","","","","","","","","","","","",""
"revaluation","43","258841","0.0-3.0-8.0-0.2","spark_pilot_norest","10572","5","23","Male","","","false","","","","[351.5,689.1999999880791]","./assets/img/space/8.jpg","[""ArrowDown"",""ArrowRight""]","full practice","space","23","{""ArrowUp,ArrowLeft"":3,""ArrowUp,ArrowRight"":36,""ArrowDown,ArrowLeft"":15,""ArrowDown,ArrowRight"":23}","false","ArrowDown,ArrowRight","false","","","","","",""
"html-keyboard-response","44","259353","0.0-3.0-8.0-1.2","spark_pilot_norest","10572","5","23","Male","","","","","","","null","<div style=""font-size:60px;"">+</div>","null","fixation","","","","","","","","","","","",""
"revaluation","45","265382","0.0-3.0-8.0-0.3","spark_pilot_norest","10572","5","23","Male","","","false","","","","[580.9000000059605,352.8999999910593]","./assets/img/space/9.jpg","[""ArrowUp"",""ArrowRight""]","full practice","space","36","{""ArrowUp,ArrowLeft"":3,""ArrowUp,ArrowRight"":36,""ArrowDown,ArrowLeft"":15,""ArrowDown,ArrowRight"":23}","true","ArrowUp,ArrowRight","false","","","","","",""
"html-keyboard-response","46","265894","0.0-3.0-8.0-1.3","spark_pilot_norest","10572","5","23","Male","","","","","","","null","<div style=""font-size:60px;"">+</div>","null","fixation","","","","","","","","","","","",""
"revaluation","47","271901","0.0-3.0-8.0-0.4","spark_pilot_norest","10572","5","23","Male","","","false","","","","[423.20000000298023,325.29999999701977]","./assets/img/space/10.jpg","[""ArrowUp"",""ArrowRight""]","full practice","space","36","{""ArrowUp,ArrowLeft"":3,""ArrowUp,ArrowRight"":36,""ArrowDown,ArrowLeft"":15,""ArrowDown,ArrowRight"":23}","true","ArrowUp,ArrowRight","false","","","","","",""
"html-keyboard-response","48","272402","0.0-3.0-8.0-1.4","spark_pilot_norest","10572","5","23","Male","","","","","","","null","<div style=""font-size:60px;"">+</div>","null","fixation","","","","","","","","","","","",""
"learning-instructions","49","284401","0.0-3.0-9.0-0.0","spark_pilot_norest","10572","5","23","Male","","","","","","","1678.9000000059605","<p> One last thing: sometimes, you will see a robber. The robber can be anywhere in the picture. </p>
            <p> If you do not stop them, you will lose treasure. </p>
            <img src='./assets/img/instructions/robber.jpg' class='instructions-image'>","","instructions","","","","","","","","","","","",""
"learning-instructions","50","292297","0.0-3.0-9.0-0.1","spark_pilot_norest","10572","5","23","Male","","","","","","","725","<p> If you see the robber, you should <b>press the space bar</b> rather than using the arrow keys. </p>
            <p> Try practicing that now! </p>","","instructions","","","","","","","","","","","",""
"revaluation","51","296317","0.0-3.0-10.0-0.0","spark_pilot_norest","10572","5","23","Male","","","false","","","","[1142.4000000059605]","./assets/img/space/catch/0.jpg","[""spaceBar""]","catch practice","space","0","{""ArrowUp,ArrowLeft"":3,""ArrowUp,ArrowRight"":36,""ArrowDown,ArrowLeft"":15,""ArrowDown,ArrowRight"":23}","true","spaceBar","true","","","","","",""
"html-keyboard-response","52","296820","0.0-3.0-10.0-1.0","spark_pilot_norest","10572","5","23","Male","","","","","","","null","<div style=""font-size:60px;"">+</div>","null","fixation","","","","","","","","","","","",""
"revaluation","53","300823","0.0-3.0-10.0-0.1","spark_pilot_norest","10572","5","23","Male","","","false","","","","[547.7000000029802]","./assets/img/space/catch/1.jpg","[""spaceBar""]","catch practice","space","0","{""ArrowUp,ArrowLeft"":3,""ArrowUp,ArrowRight"":36,""ArrowDown,ArrowLeft"":15,""ArrowDown,ArrowRight"":23}","true","spaceBar","true","","","","","",""
"html-keyboard-response","54","301338","0.0-3.0-10.0-1.1","spark_pilot_norest","10572","5","23","Male","","","","","","","null","<div style=""font-size:60px;"">+</div>","null","fixation","","","","","","","","","","","",""
"revaluation","55","305359","0.0-3.0-10.0-0.2","spark_pilot_norest","10572","5","23","Male","","","false","","","","[538.7999999970198]","./assets/img/space/catch/2.jpg","[""spaceBar""]","catch practice","space","0","{""ArrowUp,ArrowLeft"":3,""ArrowUp,ArrowRight"":36,""ArrowDown,ArrowLeft"":15,""ArrowDown,ArrowRight"":23}","true","spaceBar","true","","","","","",""
"html-keyboard-response","56","305874","0.0-3.0-10.0-1.2","spark_pilot_norest","10572","5","23","Male","","","","","","","null","<div style=""font-size:60px;"">+</div>","null","fixation","","","","","","","","","","","",""
"learning-instructions","57","313695","0.0-3.0-11.0-0.0-0.0","spark_pilot_norest","10572","5","23","Male","[{""event"":""blur"",""trial"":0,""time"":1142},{""event"":""focus"",""trial"":1,""time"":1329},{""event"":""blur"",""trial"":1,""time"":2762},{""event"":""focus"",""trial"":1,""time"":2821},{""event"":""blur"",""trial"":1,""time"":3556},{""event"":""focus"",""trial"":1,""time"":3616},{""event"":""blur"",""trial"":1,""time"":3737},{""event"":""focus"",""trial"":1,""time"":3790},{""event"":""blur"",""trial"":1,""time"":4505},{""event"":""focus"",""trial"":1,""time"":4551},{""event"":""blur"",""trial"":1,""time"":5973},{""event"":""focus"",""trial"":1,""time"":7905},{""event"":""blur"",""trial"":1,""time"":16213},{""event"":""focus"",""trial"":2,""time"":29154},{""event"":""fullscreenenter"",""trial"":2,""time"":29251},{""event"":""fullscreenexit"",""trial"":3,""time"":30776},{""event"":""blur"",""trial"":4,""time"":35724},{""event"":""focus"",""trial"":4,""time"":41546},{""event"":""blur"",""trial"":7,""time"":75581},{""event"":""focus"",""trial"":7,""time"":77807},{""event"":""blur"",""trial"":8,""time"":84807},{""event"":""focus"",""trial"":8,""time"":90331},{""event"":""blur"",""trial"":10,""time"":104513},{""event"":""focus"",""trial"":10,""time"":109187},{""event"":""blur"",""trial"":11,""time"":115829},{""event"":""focus"",""trial"":11,""time"":116527},{""event"":""blur"",""trial"":38,""time"":234066},{""event"":""focus"",""trial"":38,""time"":236802},{""event"":""blur"",""trial"":58,""time"":317095},{""event"":""focus"",""trial"":58,""time"":318325},{""event"":""blur"",""trial"":59,""time"":320766},{""event"":""focus"",""trial"":59,""time"":340396},{""event"":""blur"",""trial"":70,""time"":377222},{""event"":""focus"",""trial"":72,""time"":382475},{""event"":""blur"",""trial"":106,""time"":498835},{""event"":""focus"",""trial"":106,""time"":499714},{""event"":""blur"",""trial"":107,""time"":502862},{""event"":""focus"",""trial"":107,""time"":507450},{""event"":""blur"",""trial"":113,""time"":548450},{""event"":""focus"",""trial"":113,""time"":565950},{""event"":""blur"",""trial"":115,""time"":579538},{""event"":""focus"",""trial"":115,""time"":591056},{""event"":""blur"",""trial"":116,""time"":594426},{""event"":""focus"",""trial"":116,""time"":610775},{""event"":""blur"",""trial"":127,""time"":645602},{""event"":""focus"",""trial"":127,""time"":647689},{""event"":""blur"",""trial"":254,""time"":1029439},{""event"":""focus"",""trial"":254,""time"":1030736},{""event"":""blur"",""trial"":289,""time"":1086991},{""event"":""focus"",""trial"":289,""time"":1087994},{""event"":""blur"",""trial"":291,""time"":1116350},{""event"":""focus"",""trial"":291,""time"":1122410},{""event"":""blur"",""trial"":291,""time"":1123598},{""event"":""focus"",""trial"":291,""time"":1125610},{""event"":""blur"",""trial"":392,""time"":1449055},{""event"":""focus"",""trial"":392,""time"":1508156},{""event"":""blur"",""trial"":429,""time"":1597204},{""event"":""focus"",""trial"":430,""time"":1599327}]","","","","","","2574.6000000089407","<p> Now, you will practice a shortened version of the game to get a sense of how it all fits together. </p>","","instructions","","","","","","","","","","","",""
"learning-instructions","58","318391","0.0-3.0-11.0-0.0-0.1","spark_pilot_norest","10572","5","23","Male","[{""event"":""blur"",""trial"":0,""time"":1142},{""event"":""focus"",""trial"":1,""time"":1329},{""event"":""blur"",""trial"":1,""time"":2762},{""event"":""focus"",""trial"":1,""time"":2821},{""event"":""blur"",""trial"":1,""time"":3556},{""event"":""focus"",""trial"":1,""time"":3616},{""event"":""blur"",""trial"":1,""time"":3737},{""event"":""focus"",""trial"":1,""time"":3790},{""event"":""blur"",""trial"":1,""time"":4505},{""event"":""focus"",""trial"":1,""time"":4551},{""event"":""blur"",""trial"":1,""time"":5973},{""event"":""focus"",""trial"":1,""time"":7905},{""event"":""blur"",""trial"":1,""time"":16213},{""event"":""focus"",""trial"":2,""time"":29154},{""event"":""fullscreenenter"",""trial"":2,""time"":29251},{""event"":""fullscreenexit"",""trial"":3,""time"":30776},{""event"":""blur"",""trial"":4,""time"":35724},{""event"":""focus"",""trial"":4,""time"":41546},{""event"":""blur"",""trial"":7,""time"":75581},{""event"":""focus"",""trial"":7,""time"":77807},{""event"":""blur"",""trial"":8,""time"":84807},{""event"":""focus"",""trial"":8,""time"":90331},{""event"":""blur"",""trial"":10,""time"":104513},{""event"":""focus"",""trial"":10,""time"":109187},{""event"":""blur"",""trial"":11,""time"":115829},{""event"":""focus"",""trial"":11,""time"":116527},{""event"":""blur"",""trial"":38,""time"":234066},{""event"":""focus"",""trial"":38,""time"":236802},{""event"":""blur"",""trial"":58,""time"":317095},{""event"":""focus"",""trial"":58,""time"":318325},{""event"":""blur"",""trial"":59,""time"":320766},{""event"":""focus"",""trial"":59,""time"":340396},{""event"":""blur"",""trial"":70,""time"":377222},{""event"":""focus"",""trial"":72,""time"":382475},{""event"":""blur"",""trial"":106,""time"":498835},{""event"":""focus"",""trial"":106,""time"":499714},{""event"":""blur"",""trial"":107,""time"":502862},{""event"":""focus"",""trial"":107,""time"":507450},{""event"":""blur"",""trial"":113,""time"":548450},{""event"":""focus"",""trial"":113,""time"":565950},{""event"":""blur"",""trial"":115,""time"":579538},{""event"":""focus"",""trial"":115,""time"":591056},{""event"":""blur"",""trial"":116,""time"":594426},{""event"":""focus"",""trial"":116,""time"":610775},{""event"":""blur"",""trial"":127,""time"":645602},{""event"":""focus"",""trial"":127,""time"":647689},{""event"":""blur"",""trial"":254,""time"":1029439},{""event"":""focus"",""trial"":254,""time"":1030736},{""event"":""blur"",""trial"":289,""time"":1086991},{""event"":""focus"",""trial"":289,""time"":1087994},{""event"":""blur"",""trial"":291,""time"":1116350},{""event"":""focus"",""trial"":291,""time"":1122410},{""event"":""blur"",""trial"":291,""time"":1123598},{""event"":""focus"",""trial"":291,""time"":1125610},{""event"":""blur"",""trial"":392,""time"":1449055},{""event"":""focus"",""trial"":392,""time"":1508156},{""event"":""blur"",""trial"":429,""time"":1597204},{""event"":""focus"",""trial"":430,""time"":1599327}]","","","","","","1511.1000000089407","<p>This time you are searching for treasure in outer space.</p>","","instructions","","","","","","","","","","","",""
"learning-instructions","59","340495","0.0-3.0-11.0-1.0-0.0","spark_pilot_norest","10572","5","23","Male","","","","","","","7304.4000000059605","<p> Remember, when you see a picture of the place, use the up and down keys to <b>find an animal</b>.</p>
            <p> When you encounter an animal, you should use the left and right keys to <b>select a treasure chest</b>.</p>
            <p> Don't forget to look out for the robber! </p>","","instructions","","","","","","","","","","","",""
"revaluation","60","346520","0.0-3.0-11.0-2.0-0.0","spark_pilot_norest","10572","5","23","Male","","","false","","","","[1061.7000000029802,821.5999999940395]","./assets/img/space/11.jpg","[""ArrowUp"",""ArrowRight""]","practice block","space","36","{""ArrowUp,ArrowLeft"":3,""ArrowUp,ArrowRight"":36,""ArrowDown,ArrowLeft"":15,""ArrowDown,ArrowRight"":23}","true","ArrowUp,ArrowRight","false","","","","","",""
"html-keyboard-response","61","347020","0.0-3.0-11.0-2.0-1.0","spark_pilot_norest","10572","5","23","Male","","","","","","","null","<div style=""font-size:60px;"">+</div>","null","fixation","","","","","","","","","","","",""
"revaluation","62","353048","0.0-3.0-11.0-2.0-0.1","spark_pilot_norest","10572","5","23","Male","","","false","","","","[584.5,418.79999999701977]","./assets/img/space/12.jpg","[""ArrowUp"",""ArrowRight""]","practice block","space","36","{""ArrowUp,ArrowLeft"":3,""ArrowUp,ArrowRight"":36,""ArrowDown,ArrowLeft"":15,""ArrowDown,ArrowRight"":23}","true","ArrowUp,ArrowRight","false","","","","","",""
"html-keyboard-response","63","353561","0.0-3.0-11.0-2.0-1.1","spark_pilot_norest","10572","5","23","Male","","","","","","","null","<div style=""font-size:60px;"">+</div>","null","fixation","","","","","","","","","","","",""
"revaluation","64","359601","0.0-3.0-11.0-2.0-0.2","spark_pilot_norest","10572","5","23","Male","","","false","","","","[466.90000000596046,544.9000000059605]","./assets/img/space/13.jpg","[""ArrowUp"",""ArrowRight""]","practice block","space","36","{""ArrowUp,ArrowLeft"":3,""ArrowUp,ArrowRight"":36,""ArrowDown,ArrowLeft"":15,""ArrowDown,ArrowRight"":23}","true","ArrowUp,ArrowRight","false","","","","","",""
"html-keyboard-response","65","360118","0.0-3.0-11.0-2.0-1.2","spark_pilot_norest","10572","5","23","Male","","","","","","","null","<div style=""font-size:60px;"">+</div>","null","fixation","","","","","","","","","","","",""
"revaluation","66","366130","0.0-3.0-11.0-2.0-0.3","spark_pilot_norest","10572","5","23","Male","","","false","","","","[870.2000000029802,478.79999999701977]","./assets/img/space/14.jpg","[""ArrowUp"",""ArrowRight""]","practice block","space","36","{""ArrowUp,ArrowLeft"":3,""ArrowUp,ArrowRight"":36,""ArrowDown,ArrowLeft"":15,""ArrowDown,ArrowRight"":23}","true","ArrowUp,ArrowRight","false","","","","","",""
"html-keyboard-response","67","366630","0.0-3.0-11.0-2.0-1.3","spark_pilot_norest","10572","5","23","Male","","","","","","","null","<div style=""font-size:60px;"">+</div>","null","fixation","","","","","","","","","","","",""
"revaluation","68","372637","0.0-3.0-11.0-2.0-0.4","spark_pilot_norest","10572","5","23","Male","","","false","","","","[1269.2000000029802,291.40000000596046]","./assets/img/space/11.jpg","[""ArrowUp"",""ArrowRight""]","practice block","space","36","{""ArrowUp,ArrowLeft"":3,""ArrowUp,ArrowRight"":36,""ArrowDown,ArrowLeft"":15,""ArrowDown,ArrowRight"":23}","true","ArrowUp,ArrowRight","false","","","","","",""
"html-keyboard-response","69","373137","0.0-3.0-11.0-2.0-1.4","spark_pilot_norest","10572","5","23","Male","[{""event"":""blur"",""trial"":0,""time"":1142},{""event"":""focus"",""trial"":1,""time"":1329},{""event"":""blur"",""trial"":1,""time"":2762},{""event"":""focus"",""trial"":1,""time"":2821},{""event"":""blur"",""trial"":1,""time"":3556},{""event"":""focus"",""trial"":1,""time"":3616},{""event"":""blur"",""trial"":1,""time"":3737},{""event"":""focus"",""trial"":1,""time"":3790},{""event"":""blur"",""trial"":1,""time"":4505},{""event"":""focus"",""trial"":1,""time"":4551},{""event"":""blur"",""trial"":1,""time"":5973},{""event"":""focus"",""trial"":1,""time"":7905},{""event"":""blur"",""trial"":1,""time"":16213},{""event"":""focus"",""trial"":2,""time"":29154},{""event"":""fullscreenenter"",""trial"":2,""time"":29251},{""event"":""fullscreenexit"",""trial"":3,""time"":30776},{""event"":""blur"",""trial"":4,""time"":35724},{""event"":""focus"",""trial"":4,""time"":41546},{""event"":""blur"",""trial"":7,""time"":75581},{""event"":""focus"",""trial"":7,""time"":77807},{""event"":""blur"",""trial"":8,""time"":84807},{""event"":""focus"",""trial"":8,""time"":90331},{""event"":""blur"",""trial"":10,""time"":104513},{""event"":""focus"",""trial"":10,""time"":109187},{""event"":""blur"",""trial"":11,""time"":115829},{""event"":""focus"",""trial"":11,""time"":116527},{""event"":""blur"",""trial"":38,""time"":234066},{""event"":""focus"",""trial"":38,""time"":236802},{""event"":""blur"",""trial"":58,""time"":317095},{""event"":""focus"",""trial"":58,""time"":318325},{""event"":""blur"",""trial"":59,""time"":320766},{""event"":""focus"",""trial"":59,""time"":340396},{""event"":""blur"",""trial"":70,""time"":377222},{""event"":""focus"",""trial"":72,""time"":382475},{""event"":""blur"",""trial"":106,""time"":498835},{""event"":""focus"",""trial"":106,""time"":499714},{""event"":""blur"",""trial"":107,""time"":502862},{""event"":""focus"",""trial"":107,""time"":507450},{""event"":""blur"",""trial"":113,""time"":548450},{""event"":""focus"",""trial"":113,""time"":565950},{""event"":""blur"",""trial"":115,""time"":579538},{""event"":""focus"",""trial"":115,""time"":591056},{""event"":""blur"",""trial"":116,""time"":594426},{""event"":""focus"",""trial"":116,""time"":610775},{""event"":""blur"",""trial"":127,""time"":645602},{""event"":""focus"",""trial"":127,""time"":647689},{""event"":""blur"",""trial"":254,""time"":1029439},{""event"":""focus"",""trial"":254,""time"":1030736},{""event"":""blur"",""trial"":289,""time"":1086991},{""event"":""focus"",""trial"":289,""time"":1087994},{""event"":""blur"",""trial"":291,""time"":1116350},{""event"":""focus"",""trial"":291,""time"":1122410},{""event"":""blur"",""trial"":291,""time"":1123598},{""event"":""focus"",""trial"":291,""time"":1125610},{""event"":""blur"",""trial"":392,""time"":1449055},{""event"":""focus"",""trial"":392,""time"":1508156},{""event"":""blur"",""trial"":429,""time"":1597204},{""event"":""focus"",""trial"":430,""time"":1599327}]","","","","","","null","<div style=""font-size:60px;"">+</div>","null","fixation","","","","","","","","","","","",""
"revaluation","70","379143","0.0-3.0-11.0-2.0-0.5","spark_pilot_norest","10572","5","23","Male","","","false","","","","[828.4000000059605,329.20000000298023]","./assets/img/space/12.jpg","[""ArrowUp"",""ArrowRight""]","practice block","space","36","{""ArrowUp,ArrowLeft"":3,""ArrowUp,ArrowRight"":36,""ArrowDown,ArrowLeft"":15,""ArrowDown,ArrowRight"":23}","true","ArrowUp,ArrowRight","false","","","","","",""
"html-keyboard-response","71","379645","0.0-3.0-11.0-2.0-1.5","spark_pilot_norest","10572","5","23","Male","[{""event"":""blur"",""trial"":0,""time"":1142},{""event"":""focus"",""trial"":1,""time"":1329},{""event"":""blur"",""trial"":1,""time"":2762},{""event"":""focus"",""trial"":1,""time"":2821},{""event"":""blur"",""trial"":1,""time"":3556},{""event"":""focus"",""trial"":1,""time"":3616},{""event"":""blur"",""trial"":1,""time"":3737},{""event"":""focus"",""trial"":1,""time"":3790},{""event"":""blur"",""trial"":1,""time"":4505},{""event"":""focus"",""trial"":1,""time"":4551},{""event"":""blur"",""trial"":1,""time"":5973},{""event"":""focus"",""trial"":1,""time"":7905},{""event"":""blur"",""trial"":1,""time"":16213},{""event"":""focus"",""trial"":2,""time"":29154},{""event"":""fullscreenenter"",""trial"":2,""time"":29251},{""event"":""fullscreenexit"",""trial"":3,""time"":30776},{""event"":""blur"",""trial"":4,""time"":35724},{""event"":""focus"",""trial"":4,""time"":41546},{""event"":""blur"",""trial"":7,""time"":75581},{""event"":""focus"",""trial"":7,""time"":77807},{""event"":""blur"",""trial"":8,""time"":84807},{""event"":""focus"",""trial"":8,""time"":90331},{""event"":""blur"",""trial"":10,""time"":104513},{""event"":""focus"",""trial"":10,""time"":109187},{""event"":""blur"",""trial"":11,""time"":115829},{""event"":""focus"",""trial"":11,""time"":116527},{""event"":""blur"",""trial"":38,""time"":234066},{""event"":""focus"",""trial"":38,""time"":236802},{""event"":""blur"",""trial"":58,""time"":317095},{""event"":""focus"",""trial"":58,""time"":318325},{""event"":""blur"",""trial"":59,""time"":320766},{""event"":""focus"",""trial"":59,""time"":340396},{""event"":""blur"",""trial"":70,""time"":377222},{""event"":""focus"",""trial"":72,""time"":382475},{""event"":""blur"",""trial"":106,""time"":498835},{""event"":""focus"",""trial"":106,""time"":499714},{""event"":""blur"",""trial"":107,""time"":502862},{""event"":""focus"",""trial"":107,""time"":507450},{""event"":""blur"",""trial"":113,""time"":548450},{""event"":""focus"",""trial"":113,""time"":565950},{""event"":""blur"",""trial"":115,""time"":579538},{""event"":""focus"",""trial"":115,""time"":591056},{""event"":""blur"",""trial"":116,""time"":594426},{""event"":""focus"",""trial"":116,""time"":610775},{""event"":""blur"",""trial"":127,""time"":645602},{""event"":""focus"",""trial"":127,""time"":647689},{""event"":""blur"",""trial"":254,""time"":1029439},{""event"":""focus"",""trial"":254,""time"":1030736},{""event"":""blur"",""trial"":289,""time"":1086991},{""event"":""focus"",""trial"":289,""time"":1087994},{""event"":""blur"",""trial"":291,""time"":1116350},{""event"":""focus"",""trial"":291,""time"":1122410},{""event"":""blur"",""trial"":291,""time"":1123598},{""event"":""focus"",""trial"":291,""time"":1125610},{""event"":""blur"",""trial"":392,""time"":1449055},{""event"":""focus"",""trial"":392,""time"":1508156},{""event"":""blur"",""trial"":429,""time"":1597204},{""event"":""focus"",""trial"":430,""time"":1599327}]","","","","","","null","<div style=""font-size:60px;"">+</div>","null","fixation","","","","","","","","","","","",""
"revaluation","72","383651","0.0-3.0-11.0-2.0-0.6","spark_pilot_norest","10572","5","23","Male","","","true","","","","[]","./assets/img/space/13.jpg","[]","practice block","space","-5","{""ArrowUp,ArrowLeft"":3,""ArrowUp,ArrowRight"":36,""ArrowDown,ArrowLeft"":15,""ArrowDown,ArrowRight"":23}","false","","false","","","","","",""
"html-keyboard-response","73","384153","0.0-3.0-11.0-2.0-1.6","spark_pilot_norest","10572","5","23","Male","","","","","","","null","<div style=""font-size:60px;"">+</div>","null","fixation","","","","","","","","","","","",""
"revaluation","74","390162","0.0-3.0-11.0-2.0-0.7","spark_pilot_norest","10572","5","23","Male","","","false","","","","[649.5999999940395,383.3999999910593]","./assets/img/space/14.jpg","[""ArrowUp"",""ArrowRight""]","practice block","space","36","{""ArrowUp,ArrowLeft"":3,""ArrowUp,ArrowRight"":36,""ArrowDown,ArrowLeft"":15,""ArrowDown,ArrowRight"":23}","true","ArrowUp,ArrowRight","false","","","","","",""
"html-keyboard-response","75","390663","0.0-3.0-11.0-2.0-1.7","spark_pilot_norest","10572","5","23","Male","","","","","","","null","<div style=""font-size:60px;"">+</div>","null","fixation","","","","","","","","","","","",""
"revaluation","76","394667","0.0-3.0-11.0-2.0-0.8","spark_pilot_norest","10572","5","23","Male","","","false","","","","[844.2000000029802]","./assets/img/space/catch/3.jpg","[""spaceBar""]","practice block","space","0","{""ArrowUp,ArrowLeft"":3,""ArrowUp,ArrowRight"":36,""ArrowDown,ArrowLeft"":15,""ArrowDown,ArrowRight"":23}","true","spaceBar","true","","","","","",""
"html-keyboard-response","77","395169","0.0-3.0-11.0-2.0-1.8","spark_pilot_norest","10572","5","23","Male","","","","","","","null","<div style=""font-size:60px;"">+</div>","null","fixation","","","","","","","","","","","",""
"learning-instructions","78","409606","0.0-3.0-11.0-3.0-0.0","spark_pilot_norest","10572","5","23","Male","","","","","","","1163.3999999910593","<p> Now, you will travel with a friend who will choose whether you go up or down first. </p>
            <p> On these turns, you will just see the animal that they found. You will still get to choose which chest to search for treasure.</p>","","instructions","","","","","","","","","","","",""
"revaluation","79","413619","0.0-3.0-11.0-4.0-0.0","spark_pilot_norest","10572","5","23","Male","","","false","","","","[1149.7999999970198]","./assets/img/space/animals/cat.jpg","[""ArrowRight""]","practice block","space","36","{""ArrowUp,ArrowLeft"":3,""ArrowUp,ArrowRight"":36,""ArrowDown,ArrowLeft"":15,""ArrowDown,ArrowRight"":23}","true","ArrowUp,ArrowRight","","","","","","",""
"html-keyboard-response","80","414132","0.0-3.0-11.0-4.0-1.0","spark_pilot_norest","10572","5","23","Male","","","","","","","null","<div style=""font-size:60px;"">+</div>","null","fixation","","","","","","","","","","","",""
"revaluation","81","418149","0.0-3.0-11.0-4.0-0.1","spark_pilot_norest","10572","5","23","Male","","","false","","","","[527.2000000029802]","./assets/img/space/animals/cat.jpg","[""ArrowRight""]","practice block","space","36","{""ArrowUp,ArrowLeft"":3,""ArrowUp,ArrowRight"":36,""ArrowDown,ArrowLeft"":15,""ArrowDown,ArrowRight"":23}","true","ArrowUp,ArrowRight","","","","","","",""
"html-keyboard-response","82","418665","0.0-3.0-11.0-4.0-1.1","spark_pilot_norest","10572","5","23","Male","","","","","","","null","<div style=""font-size:60px;"">+</div>","null","fixation","","","","","","","","","","","",""
"revaluation","83","422692","0.0-3.0-11.0-4.0-0.2","spark_pilot_norest","10572","5","23","Male","","","false","","","","[738.5]","./assets/img/space/animals/rabbit.jpg","[""ArrowLeft""]","practice block","space","15","{""ArrowUp,ArrowLeft"":3,""ArrowUp,ArrowRight"":36,""ArrowDown,ArrowLeft"":15,""ArrowDown,ArrowRight"":23}","false","ArrowDown,ArrowLeft","","","","","","",""
"html-keyboard-response","84","423193","0.0-3.0-11.0-4.0-1.2","spark_pilot_norest","10572","5","23","Male","","","","","","","null","<div style=""font-size:60px;"">+</div>","null","fixation","","","","","","","","","","","",""
"revaluation","85","427214","0.0-3.0-11.0-4.0-0.3","spark_pilot_norest","10572","5","23","Male","","","false","","","","[1000.6000000089407]","./assets/img/space/animals/rabbit.jpg","[""ArrowRight""]","practice block","space","23","{""ArrowUp,ArrowLeft"":3,""ArrowUp,ArrowRight"":36,""ArrowDown,ArrowLeft"":15,""ArrowDown,ArrowRight"":23}","true","ArrowDown,ArrowRight","","","","","","",""
"html-keyboard-response","86","427730","0.0-3.0-11.0-4.0-1.3","spark_pilot_norest","10572","5","23","Male","","","","","","","null","<div style=""font-size:60px;"">+</div>","null","fixation","","","","","","","","","","","",""
"learning-instructions","87","435873","0.0-3.0-11.0-5.0-0.0","spark_pilot_norest","10572","5","23","Male","","","","","","","null","<p> You have almost finished this part of the game! </p>
            <p> We are going to ask you to make a few more choices. </p>","","instructions","","","","","","","","","","","",""
"learning-instructions","88","451924","0.0-3.0-11.0-5.0-0.1","spark_pilot_norest","10572","5","23","Male","","","","","","","null","<p> First, you need to decide whether to go up or down. When you see each picture, use the arrow keys to make your choice. </p>
            <p><b>You will not see which animal you found, but try to get to the one that will give you the most treasure.</b></p>","","instructions","","","","","","","","","","","",""
"html-keyboard-response","89","452928","0.0-3.0-11.0-6.0-0.0","spark_pilot_norest","10572","5","23","Male","","","","","","","null","<div style=""font-size:100px;color:red;"">Starting in...</div>","null","","","","","","","","","","","","",""
"html-keyboard-response","90","453944","0.0-3.0-11.0-6.0-1.0","spark_pilot_norest","10572","5","23","Male","","","","","","","null","<div style=""font-size:200px;color:red;"">3</div>","null","","","","","","","","","","","","",""
"html-keyboard-response","91","454947","0.0-3.0-11.0-6.0-2.0","spark_pilot_norest","10572","5","23","Male","","","","","","","null","<div style=""font-size:200px;color:red;"">2</div>","null","","","","","","","","","","","","",""
"html-keyboard-response","92","455958","0.0-3.0-11.0-6.0-3.0","spark_pilot_norest","10572","5","23","Male","","","","","","","null","<div style=""font-size:200px;color:red;"">1</div>","null","","","","","","","","","","","","",""
"revaluation","93","456381","0.0-3.0-11.0-7.0","spark_pilot_norest","10572","5","23","Male","","","false","","","","[420.20000000298023]","./assets/img/space/15.jpg","[""ArrowUp""]","practice block","space","0","{""ArrowUp,ArrowLeft"":3,""ArrowUp,ArrowRight"":36,""ArrowDown,ArrowLeft"":15,""ArrowDown,ArrowRight"":23}","true","ArrowUp","false","","","","","",""
"html-keyboard-response","94","456894","0.0-3.0-11.0-8.0","spark_pilot_norest","10572","5","23","Male","","","","","","","null","<div style=""font-size:60px;"">+</div>","null","fixation","","","","","","","","","","","",""
"learning-instructions","95","470297","0.0-3.0-11.0-9.0-0.0","spark_pilot_norest","10572","5","23","Male","","","","","","","null","<p> Now you will see the animals again and can search their chests for treasure. </p>
            <p> This time, you will not see how much treasure you earned, but you will earn more bonus money for making better choices. </p>","","instructions","","","","","","","","","","","",""
"html-keyboard-response","96","471298","0.0-3.0-11.0-10.0-0.0","spark_pilot_norest","10572","5","23","Male","","","","","","","null","<div style=""font-size:100px;color:red;"">Starting in...</div>","null","","","","","","","","","","","","",""
"html-keyboard-response","97","472301","0.0-3.0-11.0-10.0-1.0","spark_pilot_norest","10572","5","23","Male","","","","","","","null","<div style=""font-size:200px;color:red;"">3</div>","null","","","","","","","","","","","","",""
"html-keyboard-response","98","473313","0.0-3.0-11.0-10.0-2.0","spark_pilot_norest","10572","5","23","Male","","","","","","","null","<div style=""font-size:200px;color:red;"">2</div>","null","","","","","","","","","","","","",""
"html-keyboard-response","99","474324","0.0-3.0-11.0-10.0-3.0","spark_pilot_norest","10572","5","23","Male","","","","","","","null","<div style=""font-size:200px;color:red;"">1</div>","null","","","","","","","","","","","","",""
"revaluation","100","474852","0.0-3.0-11.0-11.0-0.0","spark_pilot_norest","10572","5","23","Male","","","false","","","","[524.8000000119209]","./assets/img/space/animals/cat.jpg","[""ArrowRight""]","practice block","space","0","{""ArrowUp,ArrowLeft"":3,""ArrowUp,ArrowRight"":36,""ArrowDown,ArrowLeft"":15,""ArrowDown,ArrowRight"":23}","true","ArrowUp,ArrowRight","","","","","","",""
"html-keyboard-response","101","475353","0.0-3.0-11.0-11.0-1.0","spark_pilot_norest","10572","5","23","Male","","","","","","","null","<div style=""font-size:60px;"">+</div>","null","fixation","","","","","","","","","","","",""
"revaluation","102","476180","0.0-3.0-11.0-11.0-0.1","spark_pilot_norest","10572","5","23","Male","","","false","","","","[822]","./assets/img/space/animals/rabbit.jpg","[""ArrowRight""]","practice block","space","0","{""ArrowUp,ArrowLeft"":3,""ArrowUp,ArrowRight"":36,""ArrowDown,ArrowLeft"":15,""ArrowDown,ArrowRight"":23}","true","ArrowDown,ArrowRight","","","","","","",""
"html-keyboard-response","103","476682","0.0-3.0-11.0-11.0-1.1","spark_pilot_norest","10572","5","23","Male","","","","","","","null","<div style=""font-size:60px;"">+</div>","null","fixation","","","","","","","","","","","",""
"learning-instructions","104","483059","0.0-3.0-12.0-0.0","spark_pilot_norest","10572","5","23","Male","","","","","","","1799.5","<p> Before you start, we're going to ask you a few questions about how the game works. </p>","","instructions","","","","","","","","","","","",""
"comp-q","105","489435","0.0-3.0-13.0-0.0-0.0","spark_pilot_norest","10572","5","23","Male","[{""event"":""blur"",""trial"":0,""time"":1142},{""event"":""focus"",""trial"":1,""time"":1329},{""event"":""blur"",""trial"":1,""time"":2762},{""event"":""focus"",""trial"":1,""time"":2821},{""event"":""blur"",""trial"":1,""time"":3556},{""event"":""focus"",""trial"":1,""time"":3616},{""event"":""blur"",""trial"":1,""time"":3737},{""event"":""focus"",""trial"":1,""time"":3790},{""event"":""blur"",""trial"":1,""time"":4505},{""event"":""focus"",""trial"":1,""time"":4551},{""event"":""blur"",""trial"":1,""time"":5973},{""event"":""focus"",""trial"":1,""time"":7905},{""event"":""blur"",""trial"":1,""time"":16213},{""event"":""focus"",""trial"":2,""time"":29154},{""event"":""fullscreenenter"",""trial"":2,""time"":29251},{""event"":""fullscreenexit"",""trial"":3,""time"":30776},{""event"":""blur"",""trial"":4,""time"":35724},{""event"":""focus"",""trial"":4,""time"":41546},{""event"":""blur"",""trial"":7,""time"":75581},{""event"":""focus"",""trial"":7,""time"":77807},{""event"":""blur"",""trial"":8,""time"":84807},{""event"":""focus"",""trial"":8,""time"":90331},{""event"":""blur"",""trial"":10,""time"":104513},{""event"":""focus"",""trial"":10,""time"":109187},{""event"":""blur"",""trial"":11,""time"":115829},{""event"":""focus"",""trial"":11,""time"":116527},{""event"":""blur"",""trial"":38,""time"":234066},{""event"":""focus"",""trial"":38,""time"":236802},{""event"":""blur"",""trial"":58,""time"":317095},{""event"":""focus"",""trial"":58,""time"":318325},{""event"":""blur"",""trial"":59,""time"":320766},{""event"":""focus"",""trial"":59,""time"":340396},{""event"":""blur"",""trial"":70,""time"":377222},{""event"":""focus"",""trial"":72,""time"":382475},{""event"":""blur"",""trial"":106,""time"":498835},{""event"":""focus"",""trial"":106,""time"":499714},{""event"":""blur"",""trial"":107,""time"":502862},{""event"":""focus"",""trial"":107,""time"":507450},{""event"":""blur"",""trial"":113,""time"":548450},{""event"":""focus"",""trial"":113,""time"":565950},{""event"":""blur"",""trial"":115,""time"":579538},{""event"":""focus"",""trial"":115,""time"":591056},{""event"":""blur"",""trial"":116,""time"":594426},{""event"":""focus"",""trial"":116,""time"":610775},{""event"":""blur"",""trial"":127,""time"":645602},{""event"":""focus"",""trial"":127,""time"":647689},{""event"":""blur"",""trial"":254,""time"":1029439},{""event"":""focus"",""trial"":254,""time"":1030736},{""event"":""blur"",""trial"":289,""time"":1086991},{""event"":""focus"",""trial"":289,""time"":1087994},{""event"":""blur"",""trial"":291,""time"":1116350},{""event"":""focus"",""trial"":291,""time"":1122410},{""event"":""blur"",""trial"":291,""time"":1123598},{""event"":""focus"",""trial"":291,""time"":1125610},{""event"":""blur"",""trial"":392,""time"":1449055},{""event"":""focus"",""trial"":392,""time"":1508156},{""event"":""blur"",""trial"":429,""time"":1597204},{""event"":""focus"",""trial"":430,""time"":1599327}]","","","","","","793.7000000029802","<p> <b> True or False? </b> </p>
            <p> There can be 50 pieces of treasure in a given animal's chest. </p>","1","comp_question","","","","true","","","","","","","",""
"comp-q","106","499803","0.0-3.0-13.0-0.0-1.0","spark_pilot_norest","10572","5","23","Male","[{""event"":""blur"",""trial"":0,""time"":1142},{""event"":""focus"",""trial"":1,""time"":1329},{""event"":""blur"",""trial"":1,""time"":2762},{""event"":""focus"",""trial"":1,""time"":2821},{""event"":""blur"",""trial"":1,""time"":3556},{""event"":""focus"",""trial"":1,""time"":3616},{""event"":""blur"",""trial"":1,""time"":3737},{""event"":""focus"",""trial"":1,""time"":3790},{""event"":""blur"",""trial"":1,""time"":4505},{""event"":""focus"",""trial"":1,""time"":4551},{""event"":""blur"",""trial"":1,""time"":5973},{""event"":""focus"",""trial"":1,""time"":7905},{""event"":""blur"",""trial"":1,""time"":16213},{""event"":""focus"",""trial"":2,""time"":29154},{""event"":""fullscreenenter"",""trial"":2,""time"":29251},{""event"":""fullscreenexit"",""trial"":3,""time"":30776},{""event"":""blur"",""trial"":4,""time"":35724},{""event"":""focus"",""trial"":4,""time"":41546},{""event"":""blur"",""trial"":7,""time"":75581},{""event"":""focus"",""trial"":7,""time"":77807},{""event"":""blur"",""trial"":8,""time"":84807},{""event"":""focus"",""trial"":8,""time"":90331},{""event"":""blur"",""trial"":10,""time"":104513},{""event"":""focus"",""trial"":10,""time"":109187},{""event"":""blur"",""trial"":11,""time"":115829},{""event"":""focus"",""trial"":11,""time"":116527},{""event"":""blur"",""trial"":38,""time"":234066},{""event"":""focus"",""trial"":38,""time"":236802},{""event"":""blur"",""trial"":58,""time"":317095},{""event"":""focus"",""trial"":58,""time"":318325},{""event"":""blur"",""trial"":59,""time"":320766},{""event"":""focus"",""trial"":59,""time"":340396},{""event"":""blur"",""trial"":70,""time"":377222},{""event"":""focus"",""trial"":72,""time"":382475},{""event"":""blur"",""trial"":106,""time"":498835},{""event"":""focus"",""trial"":106,""time"":499714},{""event"":""blur"",""trial"":107,""time"":502862},{""event"":""focus"",""trial"":107,""time"":507450},{""event"":""blur"",""trial"":113,""time"":548450},{""event"":""focus"",""trial"":113,""time"":565950},{""event"":""blur"",""trial"":115,""time"":579538},{""event"":""focus"",""trial"":115,""time"":591056},{""event"":""blur"",""trial"":116,""time"":594426},{""event"":""focus"",""trial"":116,""time"":610775},{""event"":""blur"",""trial"":127,""time"":645602},{""event"":""focus"",""trial"":127,""time"":647689},{""event"":""blur"",""trial"":254,""time"":1029439},{""event"":""focus"",""trial"":254,""time"":1030736},{""event"":""blur"",""trial"":289,""time"":1086991},{""event"":""focus"",""trial"":289,""time"":1087994},{""event"":""blur"",""trial"":291,""time"":1116350},{""event"":""focus"",""trial"":291,""time"":1122410},{""event"":""blur"",""trial"":291,""time"":1123598},{""event"":""focus"",""trial"":291,""time"":1125610},{""event"":""blur"",""trial"":392,""time"":1449055},{""event"":""focus"",""trial"":392,""time"":1508156},{""event"":""blur"",""trial"":429,""time"":1597204},{""event"":""focus"",""trial"":430,""time"":1599327}]","","","","","","3703.7000000029802","<p> <b> That's right! </b> The amount of treasure in each chest can range from 0 to 40 pieces. </p>","0","comp_answer","","","","","","","","","","","",""
"comp-q","107","507515","0.0-3.0-13.0-0.1-0.1","spark_pilot_norest","10572","5","23","Male","","","","","","","575.2000000029802","<p> <b> True or False? </b> </p><p> In this game, all animals have the same amount of treasure in their left and right chests. </p>","1","comp_question","","","","true","","","","","","","",""
"comp-q","108","514595","0.0-3.0-13.0-0.1-1.1","spark_pilot_norest","10572","5","23","Male","","","","","","","1845.4000000059605","<p> <b> That's right! </b> Animals have different amounts of treasure in their treasure chests. </p>","0","comp_answer","","","","","","","","","","","",""
"comp-q","109","521291","0.0-3.0-13.0-0.2-0.2","spark_pilot_norest","10572","5","23","Male","","","","","","","851.2999999970198","<p> <b> True or False? </b> </p><p> The same animal will always be there if you go up in the same place. </p>","0","comp_question","","","","true","","","","","","","",""
"comp-q","110","528723","0.0-3.0-13.0-0.2-1.2","spark_pilot_norest","10572","5","23","Male","","","","","","","973.5","<p> <b> That's right! </b> One animal lives in the upper part and one lives in the lower part of every place. </p>","0","comp_answer","","","","","","","","","","","",""
"comp-q","111","534867","0.0-3.0-13.0-0.3-0.3","spark_pilot_norest","10572","5","23","Male","","","","","","","627.5999999940395","<p> <b> True or False? </b> </p><p> If you see a different picture, it means you are in a new place. </p>","1","comp_question","","","","true","","","","","","","",""
"comp-q","112","546907","0.0-3.0-13.0-0.3-1.3","spark_pilot_norest","10572","5","23","Male","[{""event"":""blur"",""trial"":0,""time"":1142},{""event"":""focus"",""trial"":1,""time"":1329},{""event"":""blur"",""trial"":1,""time"":2762},{""event"":""focus"",""trial"":1,""time"":2821},{""event"":""blur"",""trial"":1,""time"":3556},{""event"":""focus"",""trial"":1,""time"":3616},{""event"":""blur"",""trial"":1,""time"":3737},{""event"":""focus"",""trial"":1,""time"":3790},{""event"":""blur"",""trial"":1,""time"":4505},{""event"":""focus"",""trial"":1,""time"":4551},{""event"":""blur"",""trial"":1,""time"":5973},{""event"":""focus"",""trial"":1,""time"":7905},{""event"":""blur"",""trial"":1,""time"":16213},{""event"":""focus"",""trial"":2,""time"":29154},{""event"":""fullscreenenter"",""trial"":2,""time"":29251},{""event"":""fullscreenexit"",""trial"":3,""time"":30776},{""event"":""blur"",""trial"":4,""time"":35724},{""event"":""focus"",""trial"":4,""time"":41546},{""event"":""blur"",""trial"":7,""time"":75581},{""event"":""focus"",""trial"":7,""time"":77807},{""event"":""blur"",""trial"":8,""time"":84807},{""event"":""focus"",""trial"":8,""time"":90331},{""event"":""blur"",""trial"":10,""time"":104513},{""event"":""focus"",""trial"":10,""time"":109187},{""event"":""blur"",""trial"":11,""time"":115829},{""event"":""focus"",""trial"":11,""time"":116527},{""event"":""blur"",""trial"":38,""time"":234066},{""event"":""focus"",""trial"":38,""time"":236802},{""event"":""blur"",""trial"":58,""time"":317095},{""event"":""focus"",""trial"":58,""time"":318325},{""event"":""blur"",""trial"":59,""time"":320766},{""event"":""focus"",""trial"":59,""time"":340396},{""event"":""blur"",""trial"":70,""time"":377222},{""event"":""focus"",""trial"":72,""time"":382475},{""event"":""blur"",""trial"":106,""time"":498835},{""event"":""focus"",""trial"":106,""time"":499714},{""event"":""blur"",""trial"":107,""time"":502862},{""event"":""focus"",""trial"":107,""time"":507450},{""event"":""blur"",""trial"":113,""time"":548450},{""event"":""focus"",""trial"":113,""time"":565950},{""event"":""blur"",""trial"":115,""time"":579538},{""event"":""focus"",""trial"":115,""time"":591056},{""event"":""blur"",""trial"":116,""time"":594426},{""event"":""focus"",""trial"":116,""time"":610775},{""event"":""blur"",""trial"":127,""time"":645602},{""event"":""focus"",""trial"":127,""time"":647689},{""event"":""blur"",""trial"":254,""time"":1029439},{""event"":""focus"",""trial"":254,""time"":1030736},{""event"":""blur"",""trial"":289,""time"":1086991},{""event"":""focus"",""trial"":289,""time"":1087994},{""event"":""blur"",""trial"":291,""time"":1116350},{""event"":""focus"",""trial"":291,""time"":1122410},{""event"":""blur"",""trial"":291,""time"":1123598},{""event"":""focus"",""trial"":291,""time"":1125610},{""event"":""blur"",""trial"":392,""time"":1449055},{""event"":""focus"",""trial"":392,""time"":1508156},{""event"":""blur"",""trial"":429,""time"":1597204},{""event"":""focus"",""trial"":430,""time"":1599327}]","","","","","","807.5","<p> <b> That's right! </b> Lots of different images may show the same place. For example,  you may see three different images that all remind you that you are in outer space. </p>","0","comp_answer","","","","","","","","","","","",""
"learning-instructions","113","566066","0.0-3.0-14.0-0.0","spark_pilot_norest","10572","5","23","Male","","","","","","","9276.800000011921","<p> Good job. Remember to do your best because the amount of treasure you earn will be converted into bonus money. </p>
            <p> It’s time to start the real game! </p>","","instructions","","","","","","","","","","","",""
"learning-instructions","114","570170","0.0-4.0-0.0-0.0","spark_pilot_norest","10572","5","23","Male","[{""event"":""blur"",""trial"":0,""time"":1142},{""event"":""focus"",""trial"":1,""time"":1329},{""event"":""blur"",""trial"":1,""time"":2762},{""event"":""focus"",""trial"":1,""time"":2821},{""event"":""blur"",""trial"":1,""time"":3556},{""event"":""focus"",""trial"":1,""time"":3616},{""event"":""blur"",""trial"":1,""time"":3737},{""event"":""focus"",""trial"":1,""time"":3790},{""event"":""blur"",""trial"":1,""time"":4505},{""event"":""focus"",""trial"":1,""time"":4551},{""event"":""blur"",""trial"":1,""time"":5973},{""event"":""focus"",""trial"":1,""time"":7905},{""event"":""blur"",""trial"":1,""time"":16213},{""event"":""focus"",""trial"":2,""time"":29154},{""event"":""fullscreenenter"",""trial"":2,""time"":29251},{""event"":""fullscreenexit"",""trial"":3,""time"":30776},{""event"":""blur"",""trial"":4,""time"":35724},{""event"":""focus"",""trial"":4,""time"":41546},{""event"":""blur"",""trial"":7,""time"":75581},{""event"":""focus"",""trial"":7,""time"":77807},{""event"":""blur"",""trial"":8,""time"":84807},{""event"":""focus"",""trial"":8,""time"":90331},{""event"":""blur"",""trial"":10,""time"":104513},{""event"":""focus"",""trial"":10,""time"":109187},{""event"":""blur"",""trial"":11,""time"":115829},{""event"":""focus"",""trial"":11,""time"":116527},{""event"":""blur"",""trial"":38,""time"":234066},{""event"":""focus"",""trial"":38,""time"":236802},{""event"":""blur"",""trial"":58,""time"":317095},{""event"":""focus"",""trial"":58,""time"":318325},{""event"":""blur"",""trial"":59,""time"":320766},{""event"":""focus"",""trial"":59,""time"":340396},{""event"":""blur"",""trial"":70,""time"":377222},{""event"":""focus"",""trial"":72,""time"":382475},{""event"":""blur"",""trial"":106,""time"":498835},{""event"":""focus"",""trial"":106,""time"":499714},{""event"":""blur"",""trial"":107,""time"":502862},{""event"":""focus"",""trial"":107,""time"":507450},{""event"":""blur"",""trial"":113,""time"":548450},{""event"":""focus"",""trial"":113,""time"":565950},{""event"":""blur"",""trial"":115,""time"":579538},{""event"":""focus"",""trial"":115,""time"":591056},{""event"":""blur"",""trial"":116,""time"":594426},{""event"":""focus"",""trial"":116,""time"":610775},{""event"":""blur"",""trial"":127,""time"":645602},{""event"":""focus"",""trial"":127,""time"":647689},{""event"":""blur"",""trial"":254,""time"":1029439},{""event"":""focus"",""trial"":254,""time"":1030736},{""event"":""blur"",""trial"":289,""time"":1086991},{""event"":""focus"",""trial"":289,""time"":1087994},{""event"":""blur"",""trial"":291,""time"":1116350},{""event"":""focus"",""trial"":291,""time"":1122410},{""event"":""blur"",""trial"":291,""time"":1123598},{""event"":""focus"",""trial"":291,""time"":1125610},{""event"":""blur"",""trial"":392,""time"":1449055},{""event"":""focus"",""trial"":392,""time"":1508156},{""event"":""blur"",""trial"":429,""time"":1597204},{""event"":""focus"",""trial"":430,""time"":1599327}]","","","","","","1331.9000000059605","<p> This time you are searching for treasure in the <b>canyon</b>.</p>","","instructions","","","","","","","","","","","",""
"learning-instructions","115","591138","0.0-4.0-0.0-0.1","spark_pilot_norest","10572","5","23","Male","[{""event"":""blur"",""trial"":0,""time"":1142},{""event"":""focus"",""trial"":1,""time"":1329},{""event"":""blur"",""trial"":1,""time"":2762},{""event"":""focus"",""trial"":1,""time"":2821},{""event"":""blur"",""trial"":1,""time"":3556},{""event"":""focus"",""trial"":1,""time"":3616},{""event"":""blur"",""trial"":1,""time"":3737},{""event"":""focus"",""trial"":1,""time"":3790},{""event"":""blur"",""trial"":1,""time"":4505},{""event"":""focus"",""trial"":1,""time"":4551},{""event"":""blur"",""trial"":1,""time"":5973},{""event"":""focus"",""trial"":1,""time"":7905},{""event"":""blur"",""trial"":1,""time"":16213},{""event"":""focus"",""trial"":2,""time"":29154},{""event"":""fullscreenenter"",""trial"":2,""time"":29251},{""event"":""fullscreenexit"",""trial"":3,""time"":30776},{""event"":""blur"",""trial"":4,""time"":35724},{""event"":""focus"",""trial"":4,""time"":41546},{""event"":""blur"",""trial"":7,""time"":75581},{""event"":""focus"",""trial"":7,""time"":77807},{""event"":""blur"",""trial"":8,""time"":84807},{""event"":""focus"",""trial"":8,""time"":90331},{""event"":""blur"",""trial"":10,""time"":104513},{""event"":""focus"",""trial"":10,""time"":109187},{""event"":""blur"",""trial"":11,""time"":115829},{""event"":""focus"",""trial"":11,""time"":116527},{""event"":""blur"",""trial"":38,""time"":234066},{""event"":""focus"",""trial"":38,""time"":236802},{""event"":""blur"",""trial"":58,""time"":317095},{""event"":""focus"",""trial"":58,""time"":318325},{""event"":""blur"",""trial"":59,""time"":320766},{""event"":""focus"",""trial"":59,""time"":340396},{""event"":""blur"",""trial"":70,""time"":377222},{""event"":""focus"",""trial"":72,""time"":382475},{""event"":""blur"",""trial"":106,""time"":498835},{""event"":""focus"",""trial"":106,""time"":499714},{""event"":""blur"",""trial"":107,""time"":502862},{""event"":""focus"",""trial"":107,""time"":507450},{""event"":""blur"",""trial"":113,""time"":548450},{""event"":""focus"",""trial"":113,""time"":565950},{""event"":""blur"",""trial"":115,""time"":579538},{""event"":""focus"",""trial"":115,""time"":591056},{""event"":""blur"",""trial"":116,""time"":594426},{""event"":""focus"",""trial"":116,""time"":610775},{""event"":""blur"",""trial"":127,""time"":645602},{""event"":""focus"",""trial"":127,""time"":647689},{""event"":""blur"",""trial"":254,""time"":1029439},{""event"":""focus"",""trial"":254,""time"":1030736},{""event"":""blur"",""trial"":289,""time"":1086991},{""event"":""focus"",""trial"":289,""time"":1087994},{""event"":""blur"",""trial"":291,""time"":1116350},{""event"":""focus"",""trial"":291,""time"":1122410},{""event"":""blur"",""trial"":291,""time"":1123598},{""event"":""focus"",""trial"":291,""time"":1125610},{""event"":""blur"",""trial"":392,""time"":1449055},{""event"":""focus"",""trial"":392,""time"":1508156},{""event"":""blur"",""trial"":429,""time"":1597204},{""event"":""focus"",""trial"":430,""time"":1599327}]","","","","","","3669.2999999970198","<p><b>New</b> animals with <b>new</b> treasure chests live here. You need to explore to discover where the animal with the best treasure chest is.</p>
                    <p> Like before, once you figure out which animal has the chest with the most treasure, you should try to get to that animal and select that chest! </p>","","instructions","","","","","","","","","","","",""
"learning-instructions","116","610875","0.0-4.0-1.0-0.0","spark_pilot_norest","10572","5","23","Male","","","","","","","5006.5","<p> Remember, when you see a picture of the place, use the up and down keys to <b>find an animal</b>.</p>
            <p> When you encounter an animal, you should use the left and right keys to <b>select a treasure chest</b>.</p>
            <p> Don't forget to look out for the robber! </p>","","instructions","","","","","","","","","","","",""
"revaluation","117","616894","0.0-4.0-2.0-0.0","spark_pilot_norest","10572","5","23","Male","","","false","","","","[1053.0999999940395,787.5999999940395]","./assets/img/canyon/memory/17.jpg","[""ArrowUp"",""ArrowLeft""]","value training","canyon","26","{""ArrowUp,ArrowLeft"":26,""ArrowUp,ArrowRight"":10,""ArrowDown,ArrowLeft"":5,""ArrowDown,ArrowRight"":17}","true","ArrowUp,ArrowLeft","false","original","1","0","","",""
"html-keyboard-response","118","617395","0.0-4.0-2.0-1.0","spark_pilot_norest","10572","5","23","Male","","","","","","","null","<div style=""font-size:60px;"">+</div>","null","fixation","","","","","","","","","1","","",""
"revaluation","119","623427","0.0-4.0-2.0-0.1","spark_pilot_norest","10572","5","23","Male","","","false","","","","[653,436.29999999701977]","./assets/img/canyon/memory/41.jpg","[""ArrowUp"",""ArrowRight""]","value training","canyon","10","{""ArrowUp,ArrowLeft"":26,""ArrowUp,ArrowRight"":10,""ArrowDown,ArrowLeft"":5,""ArrowDown,ArrowRight"":17}","false","ArrowUp,ArrowRight","false","original","1","2","","",""
"html-keyboard-response","120","623928","0.0-4.0-2.0-1.1","spark_pilot_norest","10572","5","23","Male","","","","","","","null","<div style=""font-size:60px;"">+</div>","null","fixation","","","","","","","","","3","","",""
"revaluation","121","629961","0.0-4.0-2.0-0.2","spark_pilot_norest","10572","5","23","Male","","","false","","","","[504.20000000298023,573.6999999880791]","./assets/img/canyon/memory/37.jpg","[""ArrowDown"",""ArrowLeft""]","value training","canyon","5","{""ArrowUp,ArrowLeft"":26,""ArrowUp,ArrowRight"":10,""ArrowDown,ArrowLeft"":5,""ArrowDown,ArrowRight"":17}","false","ArrowDown,ArrowLeft","false","original","1","4","","",""
"html-keyboard-response","122","630478","0.0-4.0-2.0-1.2","spark_pilot_norest","10572","5","23","Male","","","","","","","null","<div style=""font-size:60px;"">+</div>","null","fixation","","","","","","","","","5","","",""
"revaluation","123","636492","0.0-4.0-2.0-0.3","spark_pilot_norest","10572","5","23","Male","","","false","","","","[1098.199999988079,440.70000000298023]","./assets/img/canyon/memory/21.jpg","[""ArrowDown"",""ArrowRight""]","value training","canyon","17","{""ArrowUp,ArrowLeft"":26,""ArrowUp,ArrowRight"":10,""ArrowDown,ArrowLeft"":5,""ArrowDown,ArrowRight"":17}","false","ArrowDown,ArrowRight","false","original","1","6","","",""
"html-keyboard-response","124","636993","0.0-4.0-2.0-1.3","spark_pilot_norest","10572","5","23","Male","","","","","","","null","<div style=""font-size:60px;"">+</div>","null","fixation","","","","","","","","","7","","",""
"revaluation","125","642997","0.0-4.0-2.0-0.4","spark_pilot_norest","10572","5","23","Male","","","false","","","","[520.4000000059605,318.69999998807907]","./assets/img/canyon/memory/39.jpg","[""ArrowUp"",""ArrowLeft""]","value training","canyon","26","{""ArrowUp,ArrowLeft"":26,""ArrowUp,ArrowRight"":10,""ArrowDown,ArrowLeft"":5,""ArrowDown,ArrowRight"":17}","true","ArrowUp,ArrowLeft","false","original","1","8","","",""
"html-keyboard-response","126","643498","0.0-4.0-2.0-1.4","spark_pilot_norest","10572","5","23","Male","[{""event"":""blur"",""trial"":0,""time"":1142},{""event"":""focus"",""trial"":1,""time"":1329},{""event"":""blur"",""trial"":1,""time"":2762},{""event"":""focus"",""trial"":1,""time"":2821},{""event"":""blur"",""trial"":1,""time"":3556},{""event"":""focus"",""trial"":1,""time"":3616},{""event"":""blur"",""trial"":1,""time"":3737},{""event"":""focus"",""trial"":1,""time"":3790},{""event"":""blur"",""trial"":1,""time"":4505},{""event"":""focus"",""trial"":1,""time"":4551},{""event"":""blur"",""trial"":1,""time"":5973},{""event"":""focus"",""trial"":1,""time"":7905},{""event"":""blur"",""trial"":1,""time"":16213},{""event"":""focus"",""trial"":2,""time"":29154},{""event"":""fullscreenenter"",""trial"":2,""time"":29251},{""event"":""fullscreenexit"",""trial"":3,""time"":30776},{""event"":""blur"",""trial"":4,""time"":35724},{""event"":""focus"",""trial"":4,""time"":41546},{""event"":""blur"",""trial"":7,""time"":75581},{""event"":""focus"",""trial"":7,""time"":77807},{""event"":""blur"",""trial"":8,""time"":84807},{""event"":""focus"",""trial"":8,""time"":90331},{""event"":""blur"",""trial"":10,""time"":104513},{""event"":""focus"",""trial"":10,""time"":109187},{""event"":""blur"",""trial"":11,""time"":115829},{""event"":""focus"",""trial"":11,""time"":116527},{""event"":""blur"",""trial"":38,""time"":234066},{""event"":""focus"",""trial"":38,""time"":236802},{""event"":""blur"",""trial"":58,""time"":317095},{""event"":""focus"",""trial"":58,""time"":318325},{""event"":""blur"",""trial"":59,""time"":320766},{""event"":""focus"",""trial"":59,""time"":340396},{""event"":""blur"",""trial"":70,""time"":377222},{""event"":""focus"",""trial"":72,""time"":382475},{""event"":""blur"",""trial"":106,""time"":498835},{""event"":""focus"",""trial"":106,""time"":499714},{""event"":""blur"",""trial"":107,""time"":502862},{""event"":""focus"",""trial"":107,""time"":507450},{""event"":""blur"",""trial"":113,""time"":548450},{""event"":""focus"",""trial"":113,""time"":565950},{""event"":""blur"",""trial"":115,""time"":579538},{""event"":""focus"",""trial"":115,""time"":591056},{""event"":""blur"",""trial"":116,""time"":594426},{""event"":""focus"",""trial"":116,""time"":610775},{""event"":""blur"",""trial"":127,""time"":645602},{""event"":""focus"",""trial"":127,""time"":647689},{""event"":""blur"",""trial"":254,""time"":1029439},{""event"":""focus"",""trial"":254,""time"":1030736},{""event"":""blur"",""trial"":289,""time"":1086991},{""event"":""focus"",""trial"":289,""time"":1087994},{""event"":""blur"",""trial"":291,""time"":1116350},{""event"":""focus"",""trial"":291,""time"":1122410},{""event"":""blur"",""trial"":291,""time"":1123598},{""event"":""focus"",""trial"":291,""time"":1125610},{""event"":""blur"",""trial"":392,""time"":1449055},{""event"":""focus"",""trial"":392,""time"":1508156},{""event"":""blur"",""trial"":429,""time"":1597204},{""event"":""focus"",""trial"":430,""time"":1599327}]","","","","","","null","<div style=""font-size:60px;"">+</div>","null","fixation","","","","","","","","","9","","",""
"revaluation","127","649503","0.0-4.0-2.0-0.5","spark_pilot_norest","10572","5","23","Male","","","true","","","","[589.7000000029802]","./assets/img/canyon/memory/15.jpg","[""ArrowUp""]","value training","canyon","-5","{""ArrowUp,ArrowLeft"":26,""ArrowUp,ArrowRight"":10,""ArrowDown,ArrowLeft"":5,""ArrowDown,ArrowRight"":17}","false","ArrowUp","false","original","1","10","","",""
"html-keyboard-response","128","650004","0.0-4.0-2.0-1.5","spark_pilot_norest","10572","5","23","Male","","","","","","","null","<div style=""font-size:60px;"">+</div>","null","fixation","","","","","","","","","11","","",""
"revaluation","129","656012","0.0-4.0-2.0-0.6","spark_pilot_norest","10572","5","23","Male","","","false","","","","[1146,401]","./assets/img/canyon/memory/34.jpg","[""ArrowUp"",""ArrowLeft""]","value training","canyon","26","{""ArrowUp,ArrowLeft"":26,""ArrowUp,ArrowRight"":10,""ArrowDown,ArrowLeft"":5,""ArrowDown,ArrowRight"":17}","true","ArrowUp,ArrowLeft","false","original","1","12","","",""
"html-keyboard-response","130","656513","0.0-4.0-2.0-1.6","spark_pilot_norest","10572","5","23","Male","","","","","","","null","<div style=""font-size:60px;"">+</div>","null","fixation","","","","","","","","","13","","",""
"revaluation","131","662519","0.0-4.0-2.0-0.7","spark_pilot_norest","10572","5","23","Male","","","false","","","","[820.9000000059605,309.1000000089407]","./assets/img/canyon/memory/10.jpg","[""ArrowUp"",""ArrowLeft""]","value training","canyon","26","{""ArrowUp,ArrowLeft"":26,""ArrowUp,ArrowRight"":10,""ArrowDown,ArrowLeft"":5,""ArrowDown,ArrowRight"":17}","true","ArrowUp,ArrowLeft","false","original","1","14","","",""
"html-keyboard-response","132","663021","0.0-4.0-2.0-1.7","spark_pilot_norest","10572","5","23","Male","","","","","","","null","<div style=""font-size:60px;"">+</div>","null","fixation","","","","","","","","","15","","",""
"revaluation","133","667025","0.0-4.0-2.0-0.8","spark_pilot_norest","10572","5","23","Male","","","false","","","","[851]","./assets/img/canyon/catch/7.jpg","[""spaceBar""]","value training","canyon","0","{""ArrowUp,ArrowLeft"":26,""ArrowUp,ArrowRight"":10,""ArrowDown,ArrowLeft"":5,""ArrowDown,ArrowRight"":17}","true","spaceBar","true","original","1","16","","",""
"html-keyboard-response","134","667526","0.0-4.0-2.0-1.8","spark_pilot_norest","10572","5","23","Male","","","","","","","null","<div style=""font-size:60px;"">+</div>","null","fixation","","","","","","","","","17","","",""
"revaluation","135","673533","0.0-4.0-2.0-0.9","spark_pilot_norest","10572","5","23","Male","","","false","","","","[943.7999999970198,366.20000000298023]","./assets/img/canyon/memory/18.jpg","[""ArrowUp"",""ArrowLeft""]","value training","canyon","26","{""ArrowUp,ArrowLeft"":26,""ArrowUp,ArrowRight"":10,""ArrowDown,ArrowLeft"":5,""ArrowDown,ArrowRight"":17}","true","ArrowUp,ArrowLeft","false","original","1","18","","",""
"html-keyboard-response","136","674035","0.0-4.0-2.0-1.9","spark_pilot_norest","10572","5","23","Male","","","","","","","null","<div style=""font-size:60px;"">+</div>","null","fixation","","","","","","","","","19","","",""
"revaluation","137","680040","0.0-4.0-2.0-0.10","spark_pilot_norest","10572","5","23","Male","","","false","","","","[580.2000000029802,403.6000000089407]","./assets/img/canyon/memory/10.jpg","[""ArrowUp"",""ArrowLeft""]","value training","canyon","26","{""ArrowUp,ArrowLeft"":26,""ArrowUp,ArrowRight"":10,""ArrowDown,ArrowLeft"":5,""ArrowDown,ArrowRight"":17}","true","ArrowUp,ArrowLeft","false","original","1","20","","",""
