"trial_type","trial_index","time_elapsed","internal_node_id","task_version","subject_id","assigned_condition","age","gender","success","timeout","failed_images","failed_audio","failed_video","browser_interaction","rt","stimulus","response","task_part","environment","score","rewardMap","correct","fullState","isCatch","condition","order","trial_num","key_press","ground_truth","bonus"
"pavlovia","0","939","0.0-0.0","spark_pilot_norest","8615","4","13","Female","","","","","","","","","","","","","","","","","","","","","",""
"preload","1","15666","0.0-1.0","spark_pilot_norest","8615","4","13","Female","true","false","[]","[]","[]","[{""event"":""fullscreenenter"",""trial"":2,""time"":19982}]","","","","","","","","","","","","","","","",""
"fullscreen","2","20967","0.0-2.0","spark_pilot_norest","8615","4","13","Female","true","","","","","","","","","","","","","","","","","","","","",""
"audio-button-response","3","22873","0.0-3.0-0.0-0.0","spark_pilot_norest","8615","4","13","Female","","","","","","","1765","./assets/audio/audiotest/turtle.mp3","2","audio_test","","","","","","","","","","","",""
"learning-instructions","4","31712","0.0-3.0-1.0-0.0","spark_pilot_norest","8615","4","13","Female","","","","","","","1833.1000000238419","<p> Welcome! Please remember to stay in fullscreen mode and don't click away from the experiment. </p>","","instructions","","","","","","","","","","","",""
"learning-instructions","5","41454","0.0-3.0-1.0-0.1","spark_pilot_norest","8615","4","13","Female","","","","","","","1306.3000000715256","<p> Today you will be playing a game to earn treasure. </p>
            <p> At the end of the experiment, you will earn a bonus based on how much treasure you find. </p>
            <img src='./assets/img/instructions/treasure.jpg' class='instructions-image'>","","instructions","","","","","","","","","","","",""
"learning-instructions","6","53714","0.0-3.0-1.0-0.2","spark_pilot_norest","8615","4","13","Female","","","","","","","3976.5","<p> Animals have hidden treasure in treasure chests. </p>
            <p> You need to first find an animal and then choose which of their treasure chests to search. </p>
            <img src='./assets/img/space/animals/cat.jpg' class='instructions-image'>","","instructions","","","","","","","","","","","",""
"learning-instructions","7","69491","0.0-3.0-1.0-0.3","spark_pilot_norest","8615","4","13","Female","","","","","","","2592.7000000476837","<p> In each round, you will search for treasure in a different place. In the real game, there will be two rounds. </p>
            <p> You will begin with a separate, practice round where you will search for treasure in outer space. </p>
            <img src='./assets/img/space/0.jpg' class='instructions-image'>","","instructions","","","","","","","","","","","",""
"learning-instructions","8","82204","0.0-3.0-1.0-0.4","spark_pilot_norest","8615","4","13","Female","","","","","","","1263.3999999761581","<p> On every turn, you will see a picture of the place that you are in, but the specific image may be different each time. </p>
            <p> For example, both of these images mean you are in outer space. </p>
            <img src='./assets/img/instructions/outerspace.jpg' class='instructions-image'>","","instructions","","","","","","","","","","","",""
"learning-instructions","9","91052","0.0-3.0-1.0-0.5","spark_pilot_norest","8615","4","13","Female","","","","","","","997.8000000715256","<p> You need to decide which direction to travel in. </p>
            <p> You can choose between going <b>up or down</b> by using the arrow keys. </p>
            <img src='./assets/img/instructions/updown.jpg' class='instructions-image'>","","instructions","","","","","","","","","","","",""
"learning-instructions","10","101110","0.0-3.0-1.0-0.6","spark_pilot_norest","8615","4","13","Female","","","","","","","1227.1999999284744","<p> You will have <b>2 seconds</b> to make your choice. </p>
            <p> If you do not make a choice within 2 seconds, you will not find an animal or earn treasure. </p>
            <img src='./assets/img/instructions/2seconds.jpg' class='instructions-image'>","","instructions","","","","","","","","","","","",""
"learning-instructions","11","108983","0.0-3.0-1.0-0.7","spark_pilot_norest","8615","4","13","Female","","","","","","","816.3999999761581","<p> Let’s try practicing that now! </p>
            <p> When you see a picture of the place you are in, press the <b>up</b> key to travel up. </p>
            <img src='./assets/img/instructions/pressUp.jpg' class='instructions-image'>","","instructions","","","","","","","","","","","",""
"revaluation","12","113003","0.0-3.0-2.0-0.0","spark_pilot_norest","8615","4","13","Female","","false","","","","","[1296.7999999523163]","./assets/img/space/0.jpg","[""ArrowUp""]","first stage practice","space","0","null","null","ArrowUp","false","","","","","",""
"html-keyboard-response","13","113513","0.0-3.0-2.0-1.0","spark_pilot_norest","8615","4","13","Female","","","","","","","null","<div style=""font-size:60px;"">+</div>","null","fixation","","","","","","","","","","","",""
"revaluation","14","117530","0.0-3.0-2.0-0.1","spark_pilot_norest","8615","4","13","Female","","true","","","","","[]","./assets/img/space/1.jpg","[]","first stage practice","space","-5","null","null","","false","","","","","",""
"html-keyboard-response","15","118040","0.0-3.0-2.0-1.1","spark_pilot_norest","8615","4","13","Female","","","","","","","null","<div style=""font-size:60px;"">+</div>","null","fixation","","","","","","","","","","","",""
"revaluation","16","122058","0.0-3.0-2.0-0.2","spark_pilot_norest","8615","4","13","Female","","false","","","","","[880.5]","./assets/img/space/2.jpg","[""ArrowUp""]","first stage practice","space","0","null","null","ArrowUp","false","","","","","",""
"html-keyboard-response","17","122567","0.0-3.0-2.0-1.2","spark_pilot_norest","8615","4","13","Female","","","","","","","null","<div style=""font-size:60px;"">+</div>","null","fixation","","","","","","","","","","","",""
"learning-instructions","18","128580","0.0-3.0-3.0-0.0","spark_pilot_norest","8615","4","13","Female","","","","","","","1297.3999999761581","<p> Great job! Now try pressing the <b>down</b> key to travel down. </p>
            <img src='./assets/img/instructions/pressDown.jpg' class='instructions-image'>","","instructions","","","","","","","","","","","",""
"revaluation","19","132594","0.0-3.0-4.0-0.0","spark_pilot_norest","8615","4","13","Female","","false","","","","","[574.9000000953674]","./assets/img/space/3.jpg","[""ArrowDown""]","first stage practice","space","0","null","null","ArrowDown","false","","","","","",""
"html-keyboard-response","20","133103","0.0-3.0-4.0-1.0","spark_pilot_norest","8615","4","13","Female","","","","","","","null","<div style=""font-size:60px;"">+</div>","null","fixation","","","","","","","","","","","",""
"revaluation","21","137122","0.0-3.0-4.0-0.1","spark_pilot_norest","8615","4","13","Female","","false","","","","","[636.3999999761581]","./assets/img/space/4.jpg","[""ArrowDown""]","first stage practice","space","0","null","null","ArrowDown","false","","","","","",""
"html-keyboard-response","22","137633","0.0-3.0-4.0-1.1","spark_pilot_norest","8615","4","13","Female","","","","","","","null","<div style=""font-size:60px;"">+</div>","null","fixation","","","","","","","","","","","",""
"revaluation","23","141648","0.0-3.0-4.0-0.2","spark_pilot_norest","8615","4","13","Female","","false","","","","","[1948.7999999523163]","./assets/img/space/5.jpg","[""ArrowDown""]","first stage practice","space","0","null","null","ArrowDown","false","","","","","",""
"html-keyboard-response","24","142152","0.0-3.0-4.0-1.2","spark_pilot_norest","8615","4","13","Female","","","","","","","null","<div style=""font-size:60px;"">+</div>","null","fixation","","","","","","","","","","","",""
"learning-instructions","25","153748","0.0-3.0-5.0-0.0","spark_pilot_norest","8615","4","13","Female","","","","","","","1718","<p> The animals don’t move, so the animal in the upper part of a place will stay in the upper part of a place, and the animal in the lower part of a place will stay in the lower part of a place. </p>","","instructions","","","","","","","","","","","",""
"learning-instructions","26","163755","0.0-3.0-5.0-0.1","spark_pilot_norest","8615","4","13","Female","","","","","","","851.2000000476837","<p> Each animal has two treasure chests for you to choose from. </p>
            <p> The amount of treasure in each chest can range from <b> 0 to 40 pieces.</b></p>","","instructions","","","","","","","","","","","",""
"learning-instructions","27","175478","0.0-3.0-5.0-0.2","spark_pilot_norest","8615","4","13","Female","","","","","","","511.5","<p> You should decide which chest to search for treasure by using the <b>left</b> and <b>right</b> arrow keys. </p>
            <p><b> Pay attention to which animal is on the screen, as the animals have different treasure chests. </b></p>
            <img src='./assets/img/instructions/leftright.jpg' class='instructions-image'>","","instructions","","","","","","","","","","","",""
"learning-instructions","28","182661","0.0-3.0-5.0-0.3","spark_pilot_norest","8615","4","13","Female","","","","","","","791.6999999284744","<p> Let’s try practicing that now. </p>
            <p> When you see an animal, choose which chest to search for treasure. </p>
            <img src='./assets/img/instructions/chooseChest.jpg' class='instructions-image'>","","instructions","","","","","","","","","","","",""
"revaluation","29","186685","0.0-3.0-6.0-0.0","spark_pilot_norest","8615","4","13","Female","","false","","","","","[982.6000000238419]","./assets/img/space/animals/rabbit.jpg","[""ArrowRight""]","second stage practice","space","23","{""ArrowUp,ArrowLeft"":3,""ArrowUp,ArrowRight"":36,""ArrowDown,ArrowLeft"":15,""ArrowDown,ArrowRight"":23}","true","ArrowDown,ArrowRight","","","","","","",""
"html-keyboard-response","30","187197","0.0-3.0-6.0-1.0","spark_pilot_norest","8615","4","13","Female","","","","","","","null","<div style=""font-size:60px;"">+</div>","null","fixation","","","","","","","","","","","",""
"revaluation","31","191217","0.0-3.0-6.0-0.1","spark_pilot_norest","8615","4","13","Female","","false","","","","","[647.2999999523163]","./assets/img/space/animals/cat.jpg","[""ArrowLeft""]","second stage practice","space","3","{""ArrowUp,ArrowLeft"":3,""ArrowUp,ArrowRight"":36,""ArrowDown,ArrowLeft"":15,""ArrowDown,ArrowRight"":23}","false","ArrowUp,ArrowLeft","","","","","","",""
"html-keyboard-response","32","191725","0.0-3.0-6.0-1.1","spark_pilot_norest","8615","4","13","Female","","","","","","","null","<div style=""font-size:60px;"">+</div>","null","fixation","","","","","","","","","","","",""
"revaluation","33","195737","0.0-3.0-6.0-0.2","spark_pilot_norest","8615","4","13","Female","","false","","","","","[487.2999999523163]","./assets/img/space/animals/cat.jpg","[""ArrowRight""]","second stage practice","space","36","{""ArrowUp,ArrowLeft"":3,""ArrowUp,ArrowRight"":36,""ArrowDown,ArrowLeft"":15,""ArrowDown,ArrowRight"":23}","true","ArrowUp,ArrowRight","","","","","","",""
"html-keyboard-response","34","196241","0.0-3.0-6.0-1.2","spark_pilot_norest","8615","4","13","Female","","","","","","","null","<div style=""font-size:60px;"">+</div>","null","fixation","","","","","","","","","","","",""
"revaluation","35","200258","0.0-3.0-6.0-0.3","spark_pilot_norest","8615","4","13","Female","","false","","","","","[1143.2000000476837]","./assets/img/space/animals/rabbit.jpg","[""ArrowLeft""]","second stage practice","space","15","{""ArrowUp,ArrowLeft"":3,""ArrowUp,ArrowRight"":36,""ArrowDown,ArrowLeft"":15,""ArrowDown,ArrowRight"":23}","false","ArrowDown,ArrowLeft","","","","","","",""
"html-keyboard-response","36","200764","0.0-3.0-6.0-1.3","spark_pilot_norest","8615","4","13","Female","","","","","","","null","<div style=""font-size:60px;"">+</div>","null","fixation","","","","","","","","","","","",""
"learning-instructions","37","218713","0.0-3.0-7.0-0.0","spark_pilot_norest","8615","4","13","Female","","","","","","","1061","<p> Great job. Now let’s try putting it together. </p>
            <p> On each turn, you will first see a picture to remind you of the place you are in, and you need to choose whether to go up or down. </p>
            <p> Then you will see an animal and choose which of its chests to search for treasure. </p>","","instructions","","","","","","","","","","","",""
"learning-instructions","38","230372","0.0-3.0-7.0-0.1","spark_pilot_norest","8615","4","13","Female","","","","","","","3380","<p> When you choose whether to go up or down, try to go to the animal with the chest with the most treasure. </p>
            <p> Try practicing that now! </p>","","instructions","","","","","","","","","","","",""
"revaluation","39","236396","0.0-3.0-8.0-0.0","spark_pilot_norest","8615","4","13","Female","","false","","","","","[1313.1000000238419,784.7000000476837]","./assets/img/space/6.jpg","[""ArrowDown"",""ArrowRight""]","full practice","space","23","{""ArrowUp,ArrowLeft"":3,""ArrowUp,ArrowRight"":36,""ArrowDown,ArrowLeft"":15,""ArrowDown,ArrowRight"":23}","false","ArrowDown,ArrowRight","false","","","","","",""
"html-keyboard-response","40","236899","0.0-3.0-8.0-1.0","spark_pilot_norest","8615","4","13","Female","","","","","","","null","<div style=""font-size:60px;"">+</div>","null","fixation","","","","","","","","","","","",""
"revaluation","41","242927","0.0-3.0-8.0-0.1","spark_pilot_norest","8615","4","13","Female","","false","","","","","[1416.5,874.5]","./assets/img/space/7.jpg","[""ArrowUp"",""ArrowRight""]","full practice","space","36","{""ArrowUp,ArrowLeft"":3,""ArrowUp,ArrowRight"":36,""ArrowDown,ArrowLeft"":15,""ArrowDown,ArrowRight"":23}","true","ArrowUp,ArrowRight","false","","","","","",""
"html-keyboard-response","42","243437","0.0-3.0-8.0-1.1","spark_pilot_norest","8615","4","13","Female","","","","","","","null","<div style=""font-size:60px;"">+</div>","null","fixation","","","","","","","","","","","",""
"revaluation","43","249463","0.0-3.0-8.0-0.2","spark_pilot_norest","8615","4","13","Female","","false","","","","","[567,716.1000000238419]","./assets/img/space/8.jpg","[""ArrowDown"",""ArrowLeft""]","full practice","space","15","{""ArrowUp,ArrowLeft"":3,""ArrowUp,ArrowRight"":36,""ArrowDown,ArrowLeft"":15,""ArrowDown,ArrowRight"":23}","false","ArrowDown,ArrowLeft","false","","","","","",""
"html-keyboard-response","44","249974","0.0-3.0-8.0-1.2","spark_pilot_norest","8615","4","13","Female","","","","","","","null","<div style=""font-size:60px;"">+</div>","null","fixation","","","","","","","","","","","",""
"revaluation","45","255994","0.0-3.0-8.0-0.3","spark_pilot_norest","8615","4","13","Female","","false","","","","","[1194.1000000238419,857.0999999046326]","./assets/img/space/9.jpg","[""ArrowUp"",""ArrowRight""]","full practice","space","36","{""ArrowUp,ArrowLeft"":3,""ArrowUp,ArrowRight"":36,""ArrowDown,ArrowLeft"":15,""ArrowDown,ArrowRight"":23}","true","ArrowUp,ArrowRight","false","","","","","",""
"html-keyboard-response","46","256499","0.0-3.0-8.0-1.3","spark_pilot_norest","8615","4","13","Female","","","","","","","null","<div style=""font-size:60px;"">+</div>","null","fixation","","","","","","","","","","","",""
"revaluation","47","262523","0.0-3.0-8.0-0.4","spark_pilot_norest","8615","4","13","Female","","false","","","","","[532.3000000715256,457.5]","./assets/img/space/10.jpg","[""ArrowUp"",""ArrowRight""]","full practice","space","36","{""ArrowUp,ArrowLeft"":3,""ArrowUp,ArrowRight"":36,""ArrowDown,ArrowLeft"":15,""ArrowDown,ArrowRight"":23}","true","ArrowUp,ArrowRight","false","","","","","",""
"html-keyboard-response","48","263028","0.0-3.0-8.0-1.4","spark_pilot_norest","8615","4","13","Female","","","","","","","null","<div style=""font-size:60px;"">+</div>","null","fixation","","","","","","","","","","","",""
"learning-instructions","49","274669","0.0-3.0-9.0-0.0","spark_pilot_norest","8615","4","13","Female","","","","","","","1297.2000000476837","<p> One last thing: sometimes, you will see a robber. The robber can be anywhere in the picture. </p>
            <p> If you do not stop them, you will lose treasure. </p>
            <img src='./assets/img/instructions/robber.jpg' class='instructions-image'>","","instructions","","","","","","","","","","","",""
"learning-instructions","50","283215","0.0-3.0-9.0-0.1","spark_pilot_norest","8615","4","13","Female","","","","","","","1363","<p> If you see the robber, you should <b>press the space bar</b> rather than using the arrow keys. </p>
            <p> Try practicing that now! </p>","","instructions","","","","","","","","","","","",""
"revaluation","51","287228","0.0-3.0-10.0-0.0","spark_pilot_norest","8615","4","13","Female","","false","","","","","[883]","./assets/img/space/catch/0.jpg","[""spaceBar""]","catch practice","space","0","{""ArrowUp,ArrowLeft"":3,""ArrowUp,ArrowRight"":36,""ArrowDown,ArrowLeft"":15,""ArrowDown,ArrowRight"":23}","true","spaceBar","true","","","","","",""
"html-keyboard-response","52","287734","0.0-3.0-10.0-1.0","spark_pilot_norest","8615","4","13","Female","","","","","","","null","<div style=""font-size:60px;"">+</div>","null","fixation","","","","","","","","","","","",""
"revaluation","53","291751","0.0-3.0-10.0-0.1","spark_pilot_norest","8615","4","13","Female","","false","","","","","[466.2999999523163]","./assets/img/space/catch/1.jpg","[""spaceBar""]","catch practice","space","0","{""ArrowUp,ArrowLeft"":3,""ArrowUp,ArrowRight"":36,""ArrowDown,ArrowLeft"":15,""ArrowDown,ArrowRight"":23}","true","spaceBar","true","","","","","",""
"html-keyboard-response","54","292260","0.0-3.0-10.0-1.1","spark_pilot_norest","8615","4","13","Female","","","","","","","null","<div style=""font-size:60px;"">+</div>","null","fixation","","","","","","","","","","","",""
"revaluation","55","296278","0.0-3.0-10.0-0.2","spark_pilot_norest","8615","4","13","Female","","false","","","","","[488.39999997615814]","./assets/img/space/catch/2.jpg","[""spaceBar""]","catch practice","space","0","{""ArrowUp,ArrowLeft"":3,""ArrowUp,ArrowRight"":36,""ArrowDown,ArrowLeft"":15,""ArrowDown,ArrowRight"":23}","true","spaceBar","true","","","","","",""
"html-keyboard-response","56","296784","0.0-3.0-10.0-1.2","spark_pilot_norest","8615","4","13","Female","","","","","","","null","<div style=""font-size:60px;"">+</div>","null","fixation","","","","","","","","","","","",""
"learning-instructions","57","303159","0.0-3.0-11.0-0.0-0.0","spark_pilot_norest","8615","4","13","Female","","","","","","","1133.2999999523163","<p> Now, you will practice a shortened version of the game to get a sense of how it all fits together. </p>","","instructions","","","","","","","","","","","",""
"learning-instructions","58","307670","0.0-3.0-11.0-0.0-0.1","spark_pilot_norest","8615","4","13","Female","","","","","","","1314","<p>This time you are searching for treasure in outer space.</p>","","instructions","","","","","","","","","","","",""
"learning-instructions","59","325272","0.0-3.0-11.0-1.0-0.0","spark_pilot_norest","8615","4","13","Female","","","","","","","2789","<p> Remember, when you see a picture of the place, use the up and down keys to <b>find an animal</b>.</p>
            <p> When you encounter an animal, you should use the left and right keys to <b>select a treasure chest</b>.</p>
            <p> Don't forget to look out for the robber! </p>","","instructions","","","","","","","","","","","",""
"revaluation","60","331295","0.0-3.0-11.0-2.0-0.0","spark_pilot_norest","8615","4","13","Female","","false","","","","","[953.4000000953674,725.7000000476837]","./assets/img/space/11.jpg","[""ArrowDown"",""ArrowRight""]","practice block","space","23","{""ArrowUp,ArrowLeft"":3,""ArrowUp,ArrowRight"":36,""ArrowDown,ArrowLeft"":15,""ArrowDown,ArrowRight"":23}","false","ArrowDown,ArrowRight","false","","","","","",""
"html-keyboard-response","61","331800","0.0-3.0-11.0-2.0-1.0","spark_pilot_norest","8615","4","13","Female","","","","","","","null","<div style=""font-size:60px;"">+</div>","null","fixation","","","","","","","","","","","",""
"revaluation","62","337825","0.0-3.0-11.0-2.0-0.1","spark_pilot_norest","8615","4","13","Female","","false","","","","","[967.7999999523163,533.5]","./assets/img/space/12.jpg","[""ArrowUp"",""ArrowRight""]","practice block","space","36","{""ArrowUp,ArrowLeft"":3,""ArrowUp,ArrowRight"":36,""ArrowDown,ArrowLeft"":15,""ArrowDown,ArrowRight"":23}","true","ArrowUp,ArrowRight","false","","","","","",""
"html-keyboard-response","63","338336","0.0-3.0-11.0-2.0-1.1","spark_pilot_norest","8615","4","13","Female","","","","","","","null","<div style=""font-size:60px;"">+</div>","null","fixation","","","","","","","","","","","",""
"revaluation","64","344362","0.0-3.0-11.0-2.0-0.2","spark_pilot_norest","8615","4","13","Female","","false","","","","","[788.1999999284744,571.6999999284744]","./assets/img/space/13.jpg","[""ArrowDown"",""ArrowRight""]","practice block","space","23","{""ArrowUp,ArrowLeft"":3,""ArrowUp,ArrowRight"":36,""ArrowDown,ArrowLeft"":15,""ArrowDown,ArrowRight"":23}","false","ArrowDown,ArrowRight","false","","","","","",""
"html-keyboard-response","65","344869","0.0-3.0-11.0-2.0-1.2","spark_pilot_norest","8615","4","13","Female","","","","","","","null","<div style=""font-size:60px;"">+</div>","null","fixation","","","","","","","","","","","",""
"revaluation","66","350893","0.0-3.0-11.0-2.0-0.3","spark_pilot_norest","8615","4","13","Female","","false","","","","","[1039.5999999046326,753.8999999761581]","./assets/img/space/14.jpg","[""ArrowUp"",""ArrowRight""]","practice block","space","36","{""ArrowUp,ArrowLeft"":3,""ArrowUp,ArrowRight"":36,""ArrowDown,ArrowLeft"":15,""ArrowDown,ArrowRight"":23}","true","ArrowUp,ArrowRight","false","","","","","",""
"html-keyboard-response","67","351397","0.0-3.0-11.0-2.0-1.3","spark_pilot_norest","8615","4","13","Female","","","","","","","null","<div style=""font-size:60px;"">+</div>","null","fixation","","","","","","","","","","","",""
"revaluation","68","357425","0.0-3.0-11.0-2.0-0.4","spark_pilot_norest","8615","4","13","Female","","false","","","","","[768.1000000238419,450.90000009536743]","./assets/img/space/11.jpg","[""ArrowDown"",""ArrowRight""]","practice block","space","23","{""ArrowUp,ArrowLeft"":3,""ArrowUp,ArrowRight"":36,""ArrowDown,ArrowLeft"":15,""ArrowDown,ArrowRight"":23}","false","ArrowDown,ArrowRight","false","","","","","",""
"html-keyboard-response","69","357936","0.0-3.0-11.0-2.0-1.4","spark_pilot_norest","8615","4","13","Female","","","","","","","null","<div style=""font-size:60px;"">+</div>","null","fixation","","","","","","","","","","","",""
"revaluation","70","363961","0.0-3.0-11.0-2.0-0.5","spark_pilot_norest","8615","4","13","Female","","false","","","","","[431.10000002384186,563.7000000476837]","./assets/img/space/12.jpg","[""ArrowDown"",""ArrowRight""]","practice block","space","23","{""ArrowUp,ArrowLeft"":3,""ArrowUp,ArrowRight"":36,""ArrowDown,ArrowLeft"":15,""ArrowDown,ArrowRight"":23}","false","ArrowDown,ArrowRight","false","","","","","",""
"html-keyboard-response","71","364472","0.0-3.0-11.0-2.0-1.5","spark_pilot_norest","8615","4","13","Female","","","","","","","null","<div style=""font-size:60px;"">+</div>","null","fixation","","","","","","","","","","","",""
"revaluation","72","370498","0.0-3.0-11.0-2.0-0.6","spark_pilot_norest","8615","4","13","Female","","false","","","","","[1333.8999999761581,683.5999999046326]","./assets/img/space/13.jpg","[""ArrowDown"",""ArrowRight""]","practice block","space","23","{""ArrowUp,ArrowLeft"":3,""ArrowUp,ArrowRight"":36,""ArrowDown,ArrowLeft"":15,""ArrowDown,ArrowRight"":23}","false","ArrowDown,ArrowRight","false","","","","","",""
"html-keyboard-response","73","371009","0.0-3.0-11.0-2.0-1.6","spark_pilot_norest","8615","4","13","Female","","","","","","","null","<div style=""font-size:60px;"">+</div>","null","fixation","","","","","","","","","","","",""
"revaluation","74","377031","0.0-3.0-11.0-2.0-0.7","spark_pilot_norest","8615","4","13","Female","","false","","","","","[770.8000000715256,395.5]","./assets/img/space/14.jpg","[""ArrowUp"",""ArrowRight""]","practice block","space","36","{""ArrowUp,ArrowLeft"":3,""ArrowUp,ArrowRight"":36,""ArrowDown,ArrowLeft"":15,""ArrowDown,ArrowRight"":23}","true","ArrowUp,ArrowRight","false","","","","","",""
"html-keyboard-response","75","377537","0.0-3.0-11.0-2.0-1.7","spark_pilot_norest","8615","4","13","Female","","","","","","","null","<div style=""font-size:60px;"">+</div>","null","fixation","","","","","","","","","","","",""
"revaluation","76","381554","0.0-3.0-11.0-2.0-0.8","spark_pilot_norest","8615","4","13","Female","","false","","","","","[576.1999999284744]","./assets/img/space/catch/3.jpg","[""spaceBar""]","practice block","space","0","{""ArrowUp,ArrowLeft"":3,""ArrowUp,ArrowRight"":36,""ArrowDown,ArrowLeft"":15,""ArrowDown,ArrowRight"":23}","true","spaceBar","true","","","","","",""
"html-keyboard-response","77","382062","0.0-3.0-11.0-2.0-1.8","spark_pilot_norest","8615","4","13","Female","","","","","","","null","<div style=""font-size:60px;"">+</div>","null","fixation","","","","","","","","","","","",""
"learning-instructions","78","396833","0.0-3.0-11.0-3.0-0.0","spark_pilot_norest","8615","4","13","Female","","","","","","","1660.8000000715256","<p> Now, you will travel with a friend who will choose whether you go up or down first. </p>
            <p> On these turns, you will just see the animal that they found. You will still get to choose which chest to search for treasure.</p>","","instructions","","","","","","","","","","","",""
"revaluation","79","400849","0.0-3.0-11.0-4.0-0.0","spark_pilot_norest","8615","4","13","Female","","false","","","","","[807.3000000715256]","./assets/img/space/animals/cat.jpg","[""ArrowRight""]","practice block","space","36","{""ArrowUp,ArrowLeft"":3,""ArrowUp,ArrowRight"":36,""ArrowDown,ArrowLeft"":15,""ArrowDown,ArrowRight"":23}","true","ArrowUp,ArrowRight","","","","","","",""
"html-keyboard-response","80","401354","0.0-3.0-11.0-4.0-1.0","spark_pilot_norest","8615","4","13","Female","","","","","","","null","<div style=""font-size:60px;"">+</div>","null","fixation","","","","","","","","","","","",""
"revaluation","81","405371","0.0-3.0-11.0-4.0-0.1","spark_pilot_norest","8615","4","13","Female","","false","","","","","[697.2000000476837]","./assets/img/space/animals/rabbit.jpg","[""ArrowLeft""]","practice block","space","15","{""ArrowUp,ArrowLeft"":3,""ArrowUp,ArrowRight"":36,""ArrowDown,ArrowLeft"":15,""ArrowDown,ArrowRight"":23}","false","ArrowDown,ArrowLeft","","","","","","",""
"html-keyboard-response","82","405882","0.0-3.0-11.0-4.0-1.1","spark_pilot_norest","8615","4","13","Female","","","","","","","null","<div style=""font-size:60px;"">+</div>","null","fixation","","","","","","","","","","","",""
"revaluation","83","409899","0.0-3.0-11.0-4.0-0.2","spark_pilot_norest","8615","4","13","Female","","false","","","","","[326.39999997615814]","./assets/img/space/animals/rabbit.jpg","[""ArrowRight""]","practice block","space","23","{""ArrowUp,ArrowLeft"":3,""ArrowUp,ArrowRight"":36,""ArrowDown,ArrowLeft"":15,""ArrowDown,ArrowRight"":23}","true","ArrowDown,ArrowRight","","","","","","",""
"html-keyboard-response","84","410410","0.0-3.0-11.0-4.0-1.2","spark_pilot_norest","8615","4","13","Female","","","","","","","null","<div style=""font-size:60px;"">+</div>","null","fixation","","","","","","","","","","","",""
"revaluation","85","414427","0.0-3.0-11.0-4.0-0.3","spark_pilot_norest","8615","4","13","Female","","false","","","","","[362.7000000476837]","./assets/img/space/animals/cat.jpg","[""ArrowLeft""]","practice block","space","3","{""ArrowUp,ArrowLeft"":3,""ArrowUp,ArrowRight"":36,""ArrowDown,ArrowLeft"":15,""ArrowDown,ArrowRight"":23}","false","ArrowUp,ArrowLeft","","","","","","",""
"html-keyboard-response","86","414938","0.0-3.0-11.0-4.0-1.3","spark_pilot_norest","8615","4","13","Female","","","","","","","null","<div style=""font-size:60px;"">+</div>","null","fixation","","","","","","","","","","","",""
"learning-instructions","87","423088","0.0-3.0-11.0-5.0-0.0","spark_pilot_norest","8615","4","13","Female","","","","","","","null","<p> You have almost finished this part of the game! </p>
            <p> We are going to ask you to make a few more choices. </p>","","instructions","","","","","","","","","","","",""
"learning-instructions","88","439145","0.0-3.0-11.0-5.0-0.1","spark_pilot_norest","8615","4","13","Female","","","","","","","null","<p> First, you need to decide whether to go up or down. When you see each picture, use the arrow keys to make your choice. </p>
            <p><b>You will not see which animal you found, but try to get to the one that will give you the most treasure.</b></p>","","instructions","","","","","","","","","","","",""
"html-keyboard-response","89","440155","0.0-3.0-11.0-6.0-0.0","spark_pilot_norest","8615","4","13","Female","","","","","","","null","<div style=""font-size:100px;color:red;"">Starting in...</div>","null","","","","","","","","","","","","",""
"html-keyboard-response","90","441160","0.0-3.0-11.0-6.0-1.0","spark_pilot_norest","8615","4","13","Female","","","","","","","null","<div style=""font-size:200px;color:red;"">3</div>","null","","","","","","","","","","","","",""
"html-keyboard-response","91","442172","0.0-3.0-11.0-6.0-2.0","spark_pilot_norest","8615","4","13","Female","","","","","","","null","<div style=""font-size:200px;color:red;"">2</div>","null","","","","","","","","","","","","",""
"html-keyboard-response","92","443180","0.0-3.0-11.0-6.0-3.0","spark_pilot_norest","8615","4","13","Female","","","","","","","null","<div style=""font-size:200px;color:red;"">1</div>","null","","","","","","","","","","","","",""
"revaluation","93","444811","0.0-3.0-11.0-7.0","spark_pilot_norest","8615","4","13","Female","","false","","","","","[1628.2999999523163]","./assets/img/space/15.jpg","[""ArrowUp""]","practice block","space","0","{""ArrowUp,ArrowLeft"":3,""ArrowUp,ArrowRight"":36,""ArrowDown,ArrowLeft"":15,""ArrowDown,ArrowRight"":23}","true","ArrowUp","false","","","","","",""
"html-keyboard-response","94","445316","0.0-3.0-11.0-8.0","spark_pilot_norest","8615","4","13","Female","","","","","","","null","<div style=""font-size:60px;"">+</div>","null","fixation","","","","","","","","","","","",""
"learning-instructions","95","458728","0.0-3.0-11.0-9.0-0.0","spark_pilot_norest","8615","4","13","Female","","","","","","","null","<p> Now you will see the animals again and can search their chests for treasure. </p>
            <p> This time, you will not see how much treasure you earned, but you will earn more bonus money for making better choices. </p>","","instructions","","","","","","","","","","","",""
"html-keyboard-response","96","459739","0.0-3.0-11.0-10.0-0.0","spark_pilot_norest","8615","4","13","Female","","","","","","","null","<div style=""font-size:100px;color:red;"">Starting in...</div>","null","","","","","","","","","","","","",""
"html-keyboard-response","97","460747","0.0-3.0-11.0-10.0-1.0","spark_pilot_norest","8615","4","13","Female","","","","","","","null","<div style=""font-size:200px;color:red;"">3</div>","null","","","","","","","","","","","","",""
"html-keyboard-response","98","461756","0.0-3.0-11.0-10.0-2.0","spark_pilot_norest","8615","4","13","Female","","","","","","","null","<div style=""font-size:200px;color:red;"">2</div>","null","","","","","","","","","","","","",""
"html-keyboard-response","99","462765","0.0-3.0-11.0-10.0-3.0","spark_pilot_norest","8615","4","13","Female","","","","","","","null","<div style=""font-size:200px;color:red;"">1</div>","null","","","","","","","","","","","","",""
"revaluation","100","463506","0.0-3.0-11.0-11.0-0.0","spark_pilot_norest","8615","4","13","Female","","false","","","","","[738.1000000238419]","./assets/img/space/animals/cat.jpg","[""ArrowRight""]","practice block","space","0","{""ArrowUp,ArrowLeft"":3,""ArrowUp,ArrowRight"":36,""ArrowDown,ArrowLeft"":15,""ArrowDown,ArrowRight"":23}","true","ArrowUp,ArrowRight","","","","","","",""
"html-keyboard-response","101","464012","0.0-3.0-11.0-11.0-1.0","spark_pilot_norest","8615","4","13","Female","","","","","","","null","<div style=""font-size:60px;"">+</div>","null","fixation","","","","","","","","","","","",""
"revaluation","102","464759","0.0-3.0-11.0-11.0-0.1","spark_pilot_norest","8615","4","13","Female","","false","","","","","[743.6000000238419]","./assets/img/space/animals/rabbit.jpg","[""ArrowLeft""]","practice block","space","0","{""ArrowUp,ArrowLeft"":3,""ArrowUp,ArrowRight"":36,""ArrowDown,ArrowLeft"":15,""ArrowDown,ArrowRight"":23}","false","ArrowDown,ArrowLeft","","","","","","",""
"html-keyboard-response","103","465269","0.0-3.0-11.0-11.0-1.1","spark_pilot_norest","8615","4","13","Female","","","","","","","null","<div style=""font-size:60px;"">+</div>","null","fixation","","","","","","","","","","","",""
"learning-instructions","104","471141","0.0-3.0-12.0-0.0","spark_pilot_norest","8615","4","13","Female","","","","","","","1278.3000000715256","<p> Before you start, we're going to ask you a few questions about how the game works. </p>","","instructions","","","","","","","","","","","",""
"comp-q","105","477671","0.0-3.0-13.0-0.0-0.0","spark_pilot_norest","8615","4","13","Female","","","","","","","925.7000000476837","<p> <b> True or False? </b> </p>
            <p> There can be 50 pieces of treasure in a given animal's chest. </p>","1","comp_question","","","","true","","","","","","","",""
"comp-q","106","486024","0.0-3.0-13.0-0.0-1.0","spark_pilot_norest","8615","4","13","Female","","","","","","","1679","<p> <b> That's right! </b> The amount of treasure in each chest can range from 0 to 40 pieces. </p>","0","comp_answer","","","","","","","","","","","",""
"comp-q","107","494690","0.0-3.0-13.0-0.1-0.1","spark_pilot_norest","8615","4","13","Female","","","","","","","1526.7999999523163","<p> <b> True or False? </b> </p><p> In this game, all animals have the same amount of treasure in their left and right chests. </p>","1","comp_question","","","","true","","","","","","","",""
"comp-q","108","501755","0.0-3.0-13.0-0.1-1.1","spark_pilot_norest","8615","4","13","Female","","","","","","","1815.8999999761581","<p> <b> That's right! </b> Animals have different amounts of treasure in their treasure chests. </p>","0","comp_answer","","","","","","","","","","","",""
"comp-q","109","508620","0.0-3.0-13.0-0.2-0.2","spark_pilot_norest","8615","4","13","Female","","","","","","","1002.3000000715256","<p> <b> True or False? </b> </p><p> The same animal will always be there if you go up in the same place. </p>","1","comp_question","","","","false","","","","","","","",""
"comp-q","110","516102","0.0-3.0-13.0-0.2-1.2","spark_pilot_norest","8615","4","13","Female","","","","","","","1157.2999999523163","<p> <b>Incorrect.</b> One animal lives in the upper part and one lives in the lower part of every place. </p>","0","comp_answer","","","","","","","","","","","",""
"comp-q","111","523311","0.0-3.0-13.0-0.3-0.3","spark_pilot_norest","8615","4","13","Female","","","","","","","1388.6999999284744","<p> <b> True or False? </b> </p><p> The same animal will always be there if you go up in the same place. </p>","0","comp_question","","","","true","","","","","","","",""
"comp-q","112","531412","0.0-3.0-13.0-0.3-1.3","spark_pilot_norest","8615","4","13","Female","","","","","","","1635.6999999284744","<p> <b> That's right! </b> One animal lives in the upper part and one lives in the lower part of every place. </p>","0","comp_answer","","","","","","","","","","","",""
"comp-q","113","537805","0.0-3.0-13.0-0.4-0.4","spark_pilot_norest","8615","4","13","Female","","","","","","","852","<p> <b> True or False? </b> </p><p> If you see a different picture, it means you are in a new place. </p>","0","comp_question","","","","false","","","","","","","",""
"comp-q","114","549619","0.0-3.0-13.0-0.4-1.4","spark_pilot_norest","8615","4","13","Female","","","","","","","750.3999999761581","<p> <b>Incorrect.</b> Lots of different images may show the same place. For example,  you may see three different images that all remind you that you are in outer space. </p>","0","comp_answer","","","","","","","","","","","",""
"comp-q","115","555646","0.0-3.0-13.0-0.5-0.5","spark_pilot_norest","8615","4","13","Female","","","","","","","524.5999999046326","<p> <b> True or False? </b> </p><p> If you see a different picture, it means you are in a new place. </p>","1","comp_question","","","","true","","","","","","","",""
"comp-q","116","569242","0.0-3.0-13.0-0.5-1.5","spark_pilot_norest","8615","4","13","Female","","","","","","","2343.5","<p> <b> That's right! </b> Lots of different images may show the same place. For example,  you may see three different images that all remind you that you are in outer space. </p>","0","comp_answer","","","","","","","","","","","",""
"learning-instructions","117","582088","0.0-3.0-14.0-0.0","spark_pilot_norest","8615","4","13","Female","","","","","","","2952.2000000476837","<p> Good job. Remember to do your best because the amount of treasure you earn will be converted into bonus money. </p>
            <p> It’s time to start the real game! </p>","","instructions","","","","","","","","","","","",""
"learning-instructions","118","585606","0.0-4.0-0.0-0.0","spark_pilot_norest","8615","4","13","Female","","","","","","","805.3999999761581","<p> This time you are searching for treasure in the <b>ocean</b>.</p>","","instructions","","","","","","","","","","","",""
"learning-instructions","119","603876","0.0-4.0-0.0-0.1","spark_pilot_norest","8615","4","13","Female","","","","","","","928.6999999284744","<p><b>New</b> animals with <b>new</b> treasure chests live here. You need to explore to discover where the animal with the best treasure chest is.</p>
                    <p> Like before, once you figure out which animal has the chest with the most treasure, you should try to get to that animal and select that chest! </p>","","instructions","","","","","","","","","","","",""
"learning-instructions","120","619255","0.0-4.0-1.0-0.0","spark_pilot_norest","8615","4","13","Female","","","","","","","645.6000000238419","<p> Remember, when you see a picture of the place, use the up and down keys to <b>find an animal</b>.</p>
            <p> When you encounter an animal, you should use the left and right keys to <b>select a treasure chest</b>.</p>
            <p> Don't forget to look out for the robber! </p>","","instructions","","","","","","","","","","","",""
"revaluation","121","625282","0.0-4.0-2.0-0.0","spark_pilot_norest","8615","4","13","Female","","false","","","","","[632.2000000476837,523.5]","./assets/img/ocean/memory/11.jpg","[""ArrowUp"",""ArrowRight""]","value training","ocean","10","{""ArrowUp,ArrowLeft"":26,""ArrowUp,ArrowRight"":10,""ArrowDown,ArrowLeft"":5,""ArrowDown,ArrowRight"":17}","false","ArrowUp,ArrowRight","false","revaluation","1","0","","",""
"html-keyboard-response","122","625794","0.0-4.0-2.0-1.0","spark_pilot_norest","8615","4","13","Female","","","","","","","null","<div style=""font-size:60px;"">+</div>","null","fixation","","","","","","","","","1","","",""
"revaluation","123","631819","0.0-4.0-2.0-0.1","spark_pilot_norest","8615","4","13","Female","","false","","","","","[701.2999999523163,628.2999999523163]","./assets/img/ocean/memory/31.jpg","[""ArrowUp"",""ArrowLeft""]","value training","ocean","26","{""ArrowUp,ArrowLeft"":26,""ArrowUp,ArrowRight"":10,""ArrowDown,ArrowLeft"":5,""ArrowDown,ArrowRight"":17}","true","ArrowUp,ArrowLeft","false","revaluation","1","2","","",""
"html-keyboard-response","124","632331","0.0-4.0-2.0-1.1","spark_pilot_norest","8615","4","13","Female","","","","","","","null","<div style=""font-size:60px;"">+</div>","null","fixation","","","","","","","","","3","","",""
"revaluation","125","638362","0.0-4.0-2.0-0.2","spark_pilot_norest","8615","4","13","Female","","false","","","","","[513.7999999523163,564.3000000715256]","./assets/img/ocean/memory/33.jpg","[""ArrowDown"",""ArrowLeft""]","value training","ocean","5","{""ArrowUp,ArrowLeft"":26,""ArrowUp,ArrowRight"":10,""ArrowDown,ArrowLeft"":5,""ArrowDown,ArrowRight"":17}","false","ArrowDown,ArrowLeft","false","revaluation","1","4","","",""
"html-keyboard-response","126","638873","0.0-4.0-2.0-1.2","spark_pilot_norest","8615","4","13","Female","","","","","","","null","<div style=""font-size:60px;"">+</div>","null","fixation","","","","","","","","","5","","",""
"revaluation","127","644899","0.0-4.0-2.0-0.3","spark_pilot_norest","8615","4","13","Female","","false","","","","","[1460.2000000476837,416.3000000715256]","./assets/img/ocean/memory/34.jpg","[""ArrowDown"",""ArrowRight""]","value training","ocean","17","{""ArrowUp,ArrowLeft"":26,""ArrowUp,ArrowRight"":10,""ArrowDown,ArrowLeft"":5,""ArrowDown,ArrowRight"":17}","false","ArrowDown,ArrowRight","false","revaluation","1","6","","",""
"html-keyboard-response","128","645407","0.0-4.0-2.0-1.3","spark_pilot_norest","8615","4","13","Female","","","","","","","null","<div style=""font-size:60px;"">+</div>","null","fixation","","","","","","","","","7","","",""
"revaluation","129","651431","0.0-4.0-2.0-0.4","spark_pilot_norest","8615","4","13","Female","","false","","","","","[858.8999999761581,591.1999999284744]","./assets/img/ocean/memory/20.jpg","[""ArrowUp"",""ArrowLeft""]","value training","ocean","26","{""ArrowUp,ArrowLeft"":26,""ArrowUp,ArrowRight"":10,""ArrowDown,ArrowLeft"":5,""ArrowDown,ArrowRight"":17}","true","ArrowUp,ArrowLeft","false","revaluation","1","8","","",""
"html-keyboard-response","130","651936","0.0-4.0-2.0-1.4","spark_pilot_norest","8615","4","13","Female","","","","","","","null","<div style=""font-size:60px;"">+</div>","null","fixation","","","","","","","","","9","","",""
"revaluation","131","657962","0.0-4.0-2.0-0.5","spark_pilot_norest","8615","4","13","Female","","false","","","","","[956.6000000238419,494.60000002384186]","./assets/img/ocean/memory/25.jpg","[""ArrowUp"",""ArrowLeft""]","value training","ocean","26","{""ArrowUp,ArrowLeft"":26,""ArrowUp,ArrowRight"":10,""ArrowDown,ArrowLeft"":5,""ArrowDown,ArrowRight"":17}","true","ArrowUp,ArrowLeft","false","revaluation","1","10","","",""
"html-keyboard-response","132","658472","0.0-4.0-2.0-1.5","spark_pilot_norest","8615","4","13","Female","","","","","","","null","<div style=""font-size:60px;"">+</div>","null","fixation","","","","","","","","","11","","",""
"revaluation","133","664498","0.0-4.0-2.0-0.6","spark_pilot_norest","8615","4","13","Female","","false","","","","","[1127.7000000476837,569.5999999046326]","./assets/img/ocean/memory/22.jpg","[""ArrowUp"",""ArrowLeft""]","value training","ocean","26","{""ArrowUp,ArrowLeft"":26,""ArrowUp,ArrowRight"":10,""ArrowDown,ArrowLeft"":5,""ArrowDown,ArrowRight"":17}","true","ArrowUp,ArrowLeft","false","revaluation","1","12","","",""
"html-keyboard-response","134","665008","0.0-4.0-2.0-1.6","spark_pilot_norest","8615","4","13","Female","","","","","","","null","<div style=""font-size:60px;"">+</div>","null","fixation","","","","","","","","","13","","",""
"revaluation","135","671034","0.0-4.0-2.0-0.7","spark_pilot_norest","8615","4","13","Female","","false","","","","","[502.39999997615814,439.8000000715256]","./assets/img/ocean/memory/12.jpg","[""ArrowDown"",""ArrowRight""]","value training","ocean","17","{""ArrowUp,ArrowLeft"":26,""ArrowUp,ArrowRight"":10,""ArrowDown,ArrowLeft"":5,""ArrowDown,ArrowRight"":17}","false","ArrowDown,ArrowRight","false","revaluation","1","14","","",""
"html-keyboard-response","136","671544","0.0-4.0-2.0-1.7","spark_pilot_norest","8615","4","13","Female","","","","","","","null","<div style=""font-size:60px;"">+</div>","null","fixation","","","","","","","","","15","","",""
"revaluation","137","677571","0.0-4.0-2.0-0.8","spark_pilot_norest","8615","4","13","Female","","false","","","","","[1258.2000000476837,492.8000000715256]","./assets/img/ocean/memory/7.jpg","[""ArrowDown"",""ArrowRight""]","value training","ocean","17","{""ArrowUp,ArrowLeft"":26,""ArrowUp,ArrowRight"":10,""ArrowDown,ArrowLeft"":5,""ArrowDown,ArrowRight"":17}","false","ArrowDown,ArrowRight","false","revaluation","1","16","","",""
"html-keyboard-response","138","678081","0.0-4.0-2.0-1.8","spark_pilot_norest","8615","4","13","Female","","","","","","","null","<div style=""font-size:60px;"">+</div>","null","fixation","","","","","","","","","17","","",""
"revaluation","139","684107","0.0-4.0-2.0-0.9","spark_pilot_norest","8615","4","13","Female","","false","","","","","[863.2999999523163,487.2000000476837]","./assets/img/ocean/memory/14.jpg","[""ArrowUp"",""ArrowLeft""]","value training","ocean","26","{""ArrowUp,ArrowLeft"":26,""ArrowUp,ArrowRight"":10,""ArrowDown,ArrowLeft"":5,""ArrowDown,ArrowRight"":17}","true","ArrowUp,ArrowLeft","false","revaluation","1","18","","",""
"html-keyboard-response","140","684617","0.0-4.0-2.0-1.9","spark_pilot_norest","8615","4","13","Female","","","","","","","null","<div style=""font-size:60px;"">+</div>","null","fixation","","","","","","","","","19","","",""
"revaluation","141","690638","0.0-4.0-2.0-0.10","spark_pilot_norest","8615","4","13","Female","","false","","","","","[544.6999999284744,429.10000002384186]","./assets/img/ocean/memory/18.jpg","[""ArrowUp"",""ArrowLeft""]","value training","ocean","26","{""ArrowUp,ArrowLeft"":26,""ArrowUp,ArrowRight"":10,""ArrowDown,ArrowLeft"":5,""ArrowDown,ArrowRight"":17}","true","ArrowUp,ArrowLeft","false","revaluation","1","20","","",""
"html-keyboard-response","142","691142","0.0-4.0-2.0-1.10","spark_pilot_norest","8615","4","13","Female","","","","","","","null","<div style=""font-size:60px;"">+</div>","null","fixation","","","","","","","","","21","","",""
"revaluation","143","697167","0.0-4.0-2.0-0.11","spark_pilot_norest","8615","4","13","Female","","false","","","","","[684.1000000238419,430.7000000476837]","./assets/img/ocean/memory/2.jpg","[""ArrowDown"",""ArrowRight""]","value training","ocean","17","{""ArrowUp,ArrowLeft"":26,""ArrowUp,ArrowRight"":10,""ArrowDown,ArrowLeft"":5,""ArrowDown,ArrowRight"":17}","false","ArrowDown,ArrowRight","false","revaluation","1","22","","",""
"html-keyboard-response","144","697673","0.0-4.0-2.0-1.11","spark_pilot_norest","8615","4","13","Female","","","","","","","null","<div style=""font-size:60px;"">+</div>","null","fixation","","","","","","","","","23","","",""
"revaluation","145","703697","0.0-4.0-2.0-0.12","spark_pilot_norest","8615","4","13","Female","","false","","","","","[1124.8999999761581,474.2000000476837]","./assets/img/ocean/memory/3.jpg","[""ArrowUp"",""ArrowLeft""]","value training","ocean","26","{""ArrowUp,ArrowLeft"":26,""ArrowUp,ArrowRight"":10,""ArrowDown,ArrowLeft"":5,""ArrowDown,ArrowRight"":17}","true","ArrowUp,ArrowLeft","false","revaluation","1","24","","",""
"html-keyboard-response","146","704209","0.0-4.0-2.0-1.12","spark_pilot_norest","8615","4","13","Female","","","","","","","null","<div style=""font-size:60px;"">+</div>","null","fixation","","","","","","","","","25","","",""
"revaluation","147","710230","0.0-4.0-2.0-0.13","spark_pilot_norest","8615","4","13","Female","","false","","","","","[679.1000000238419,556.8999999761581]","./assets/img/ocean/memory/15.jpg","[""ArrowDown"",""ArrowRight""]","value training","ocean","17","{""ArrowUp,ArrowLeft"":26,""ArrowUp,ArrowRight"":10,""ArrowDown,ArrowLeft"":5,""ArrowDown,ArrowRight"":17}","false","ArrowDown,ArrowRight","false","revaluation","1","26","","",""
"html-keyboard-response","148","710734","0.0-4.0-2.0-1.13","spark_pilot_norest","8615","4","13","Female","","","","","","","null","<div style=""font-size:60px;"">+</div>","null","fixation","","","","","","","","","27","","",""
"revaluation","149","716759","0.0-4.0-2.0-0.14","spark_pilot_norest","8615","4","13","Female","","false","","","","","[884.5,622.2000000476837]","./assets/img/ocean/memory/16.jpg","[""ArrowUp"",""ArrowRight""]","value training","ocean","10","{""ArrowUp,ArrowLeft"":26,""ArrowUp,ArrowRight"":10,""ArrowDown,ArrowLeft"":5,""ArrowDown,ArrowRight"":17}","false","ArrowUp,ArrowRight","false","revaluation","1","28","","",""
"html-keyboard-response","150","717263","0.0-4.0-2.0-1.14","spark_pilot_norest","8615","4","13","Female","","","","","","","null","<div style=""font-size:60px;"">+</div>","null","fixation","","","","","","","","","29","","",""
"revaluation","151","723289","0.0-4.0-2.0-0.15","spark_pilot_norest","8615","4","13","Female","","false","","","","","[578.8000000715256,614.3000000715256]","./assets/img/ocean/memory/35.jpg","[""ArrowDown"",""ArrowLeft""]","value training","ocean","5","{""ArrowUp,ArrowLeft"":26,""ArrowUp,ArrowRight"":10,""ArrowDown,ArrowLeft"":5,""ArrowDown,ArrowRight"":17}","false","ArrowDown,ArrowLeft","false","revaluation","1","30","","",""
"html-keyboard-response","152","723800","0.0-4.0-2.0-1.15","spark_pilot_norest","8615","4","13","Female","","","","","","","null","<div style=""font-size:60px;"">+</div>","null","fixation","","","","","","","","","31","","",""
"revaluation","153","727817","0.0-4.0-2.0-0.16","spark_pilot_norest","8615","4","13","Female","","false","","","","","[893.8000000715256]","./assets/img/ocean/catch/1.jpg","[""spaceBar""]","value training","ocean","0","{""ArrowUp,ArrowLeft"":26,""ArrowUp,ArrowRight"":10,""ArrowDown,ArrowLeft"":5,""ArrowDown,ArrowRight"":17}","true","spaceBar","true","revaluation","1","32","","",""
"html-keyboard-response","154","728330","0.0-4.0-2.0-1.16","spark_pilot_norest","8615","4","13","Female","","","","","","","null","<div style=""font-size:60px;"">+</div>","null","fixation","","","","","","","","","33","","",""
"revaluation","155","734360","0.0-4.0-2.0-0.17","spark_pilot_norest","8615","4","13","Female","","false","","","","","[1032.9000000953674,538.7000000476837]","./assets/img/ocean/memory/34.jpg","[""ArrowUp"",""ArrowLeft""]","value training","ocean","26","{""ArrowUp,ArrowLeft"":26,""ArrowUp,ArrowRight"":10,""ArrowDown,ArrowLeft"":5,""ArrowDown,ArrowRight"":17}","true","ArrowUp,ArrowLeft","false","revaluation","1","34","","",""
"html-keyboard-response","156","734870","0.0-4.0-2.0-1.17","spark_pilot_norest","8615","4","13","Female","","","","","","","null","<div style=""font-size:60px;"">+</div>","null","fixation","","","","","","","","","35","","",""
"revaluation","157","740896","0.0-4.0-2.0-0.18","spark_pilot_norest","8615","4","13","Female","","false","","","","","[448.3000000715256,371.09999990463257]","./assets/img/ocean/memory/16.jpg","[""ArrowUp"",""ArrowRight""]","value training","ocean","10","{""ArrowUp,ArrowLeft"":26,""ArrowUp,ArrowRight"":10,""ArrowDown,ArrowLeft"":5,""ArrowDown,ArrowRight"":17}","false","ArrowUp,ArrowRight","false","revaluation","1","36","","",""
"html-keyboard-response","158","741407","0.0-4.0-2.0-1.18","spark_pilot_norest","8615","4","13","Female","","","","","","","null","<div style=""font-size:60px;"">+</div>","null","fixation","","","","","","","","","37","","",""
"revaluation","159","745424","0.0-4.0-2.0-0.19","spark_pilot_norest","8615","4","13","Female","","false","","","","","[1099.6000000238419]","./assets/img/ocean/catch/5.jpg","[""ArrowDown""]","value training","ocean","-10","{""ArrowUp,ArrowLeft"":26,""ArrowUp,ArrowRight"":10,""ArrowDown,ArrowLeft"":5,""ArrowDown,ArrowRight"":17}","false","ArrowDown","true","revaluation","1","38","","",""
"html-keyboard-response","160","745934","0.0-4.0-2.0-1.19","spark_pilot_norest","8615","4","13","Female","","","","","","","null","<div style=""font-size:60px;"">+</div>","null","fixation","","","","","","","","","39","","",""
"revaluation","161","751960","0.0-4.0-2.0-0.20","spark_pilot_norest","8615","4","13","Female","","false","","","","","[866.2000000476837,433.10000002384186]","./assets/img/ocean/memory/27.jpg","[""ArrowDown"",""ArrowRight""]","value training","ocean","17","{""ArrowUp,ArrowLeft"":26,""ArrowUp,ArrowRight"":10,""ArrowDown,ArrowLeft"":5,""ArrowDown,ArrowRight"":17}","false","ArrowDown,ArrowRight","false","revaluation","1","40","","",""
"html-keyboard-response","162","752471","0.0-4.0-2.0-1.20","spark_pilot_norest","8615","4","13","Female","","","","","","","null","<div style=""font-size:60px;"">+</div>","null","fixation","","","","","","","","","41","","",""
"revaluation","163","756488","0.0-4.0-2.0-0.21","spark_pilot_norest","8615","4","13","Female","","false","","","","","[670.0999999046326]","./assets/img/ocean/catch/4.jpg","[""spaceBar""]","value training","ocean","0","{""ArrowUp,ArrowLeft"":26,""ArrowUp,ArrowRight"":10,""ArrowDown,ArrowLeft"":5,""ArrowDown,ArrowRight"":17}","true","spaceBar","true","revaluation","1","42","","",""
"html-keyboard-response","164","756998","0.0-4.0-2.0-1.21","spark_pilot_norest","8615","4","13","Female","","","","","","","null","<div style=""font-size:60px;"">+</div>","null","fixation","","","","","","","","","43","","",""
"revaluation","165","763024","0.0-4.0-2.0-0.22","spark_pilot_norest","8615","4","13","Female","","false","","","","","[482.2000000476837,403.7999999523163]","./assets/img/ocean/memory/2.jpg","[""ArrowDown"",""ArrowLeft""]","value training","ocean","5","{""ArrowUp,ArrowLeft"":26,""ArrowUp,ArrowRight"":10,""ArrowDown,ArrowLeft"":5,""ArrowDown,ArrowRight"":17}","false","ArrowDown,ArrowLeft","false","revaluation","1","44","","",""
"html-keyboard-response","166","763535","0.0-4.0-2.0-1.22","spark_pilot_norest","8615","4","13","Female","","","","","","","null","<div style=""font-size:60px;"">+</div>","null","fixation","","","","","","","","","45","","",""
"revaluation","167","769559","0.0-4.0-2.0-0.23","spark_pilot_norest","8615","4","13","Female","","false","","","","","[758,713.3999999761581]","./assets/img/ocean/memory/5.jpg","[""ArrowUp"",""ArrowLeft""]","value training","ocean","26","{""ArrowUp,ArrowLeft"":26,""ArrowUp,ArrowRight"":10,""ArrowDown,ArrowLeft"":5,""ArrowDown,ArrowRight"":17}","true","ArrowUp,ArrowLeft","false","revaluation","1","46","","",""
"html-keyboard-response","168","770062","0.0-4.0-2.0-1.23","spark_pilot_norest","8615","4","13","Female","","","","","","","null","<div style=""font-size:60px;"">+</div>","null","fixation","","","","","","","","","47","","",""
"revaluation","169","776085","0.0-4.0-2.0-0.24","spark_pilot_norest","8615","4","13","Female","","false","","","","","[635.2000000476837,365.2999999523163]","./assets/img/ocean/memory/7.jpg","[""ArrowDown"",""ArrowRight""]","value training","ocean","17","{""ArrowUp,ArrowLeft"":26,""ArrowUp,ArrowRight"":10,""ArrowDown,ArrowLeft"":5,""ArrowDown,ArrowRight"":17}","false","ArrowDown,ArrowRight","false","revaluation","1","48","","",""
"html-keyboard-response","170","776590","0.0-4.0-2.0-1.24","spark_pilot_norest","8615","4","13","Female","","","","","","","null","<div style=""font-size:60px;"">+</div>","null","fixation","","","","","","","","","49","","",""
"revaluation","171","782615","0.0-4.0-2.0-0.25","spark_pilot_norest","8615","4","13","Female","","false","","","","","[983.7999999523163,1649]","./assets/img/ocean/memory/31.jpg","[""ArrowUp"",""ArrowLeft""]","value training","ocean","26","{""ArrowUp,ArrowLeft"":26,""ArrowUp,ArrowRight"":10,""ArrowDown,ArrowLeft"":5,""ArrowDown,ArrowRight"":17}","true","ArrowUp,ArrowLeft","false","revaluation","1","50","","",""
"html-keyboard-response","172","783129","0.0-4.0-2.0-1.25","spark_pilot_norest","8615","4","13","Female","","","","","","","null","<div style=""font-size:60px;"">+</div>","null","fixation","","","","","","","","","51","","",""
"revaluation","173","789157","0.0-4.0-2.0-0.26","spark_pilot_norest","8615","4","13","Female","","false","","","","","[744.7000000476837,436.7000000476837]","./assets/img/ocean/memory/33.jpg","[""ArrowDown"",""ArrowRight""]","value training","ocean","17","{""ArrowUp,ArrowLeft"":26,""ArrowUp,ArrowRight"":10,""ArrowDown,ArrowLeft"":5,""ArrowDown,ArrowRight"":17}","false","ArrowDown,ArrowRight","false","revaluation","1","52","","",""
"html-keyboard-response","174","789662","0.0-4.0-2.0-1.26","spark_pilot_norest","8615","4","13","Female","","","","","","","null","<div style=""font-size:60px;"">+</div>","null","fixation","","","","","","","","","53","","",""
"revaluation","175","795688","0.0-4.0-2.0-0.27","spark_pilot_norest","8615","4","13","Female","","false","","","","","[912.8000000715256,638.8999999761581]","./assets/img/ocean/memory/21.jpg","[""ArrowUp"",""ArrowLeft""]","value training","ocean","26","{""ArrowUp,ArrowLeft"":26,""ArrowUp,ArrowRight"":10,""ArrowDown,ArrowLeft"":5,""ArrowDown,ArrowRight"":17}","true","ArrowUp,ArrowLeft","false","revaluation","1","54","","",""
"html-keyboard-response","176","796199","0.0-4.0-2.0-1.27","spark_pilot_norest","8615","4","13","Female","","","","","","","null","<div style=""font-size:60px;"">+</div>","null","fixation","","","","","","","","","55","","",""
"revaluation","177","800216","0.0-4.0-2.0-0.28","spark_pilot_norest","8615","4","13","Female","","false","","","","","[930.4000000953674]","./assets/img/ocean/catch/6.jpg","[""spaceBar""]","value training","ocean","0","{""ArrowUp,ArrowLeft"":26,""ArrowUp,ArrowRight"":10,""ArrowDown,ArrowLeft"":5,""ArrowDown,ArrowRight"":17}","true","spaceBar","true","revaluation","1","56","","",""
"html-keyboard-response","178","800729","0.0-4.0-2.0-1.28","spark_pilot_norest","8615","4","13","Female","","","","","","","null","<div style=""font-size:60px;"">+</div>","null","fixation","","","","","","","","","57","","",""
"revaluation","179","806758","0.0-4.0-2.0-0.29","spark_pilot_norest","8615","4","13","Female","","false","","","","","[817.7000000476837,474.3000000715256]","./assets/img/ocean/memory/20.jpg","[""ArrowDown"",""ArrowRight""]","value training","ocean","17","{""ArrowUp,ArrowLeft"":26,""ArrowUp,ArrowRight"":10,""ArrowDown,ArrowLeft"":5,""ArrowDown,ArrowRight"":17}","false","ArrowDown,ArrowRight","false","revaluation","1","58","","",""
"html-keyboard-response","180","807269","0.0-4.0-2.0-1.29","spark_pilot_norest","8615","4","13","Female","","","","","","","null","<div style=""font-size:60px;"">+</div>","null","fixation","","","","","","","","","59","","",""
"revaluation","181","813295","0.0-4.0-2.0-0.30","spark_pilot_norest","8615","4","13","Female","","false","","","","","[579.3000000715256,395.5]","./assets/img/ocean/memory/12.jpg","[""ArrowUp"",""ArrowLeft""]","value training","ocean","26","{""ArrowUp,ArrowLeft"":26,""ArrowUp,ArrowRight"":10,""ArrowDown,ArrowLeft"":5,""ArrowDown,ArrowRight"":17}","true","ArrowUp,ArrowLeft","false","revaluation","1","60","","",""
"html-keyboard-response","182","813805","0.0-4.0-2.0-1.30","spark_pilot_norest","8615","4","13","Female","","","","","","","null","<div style=""font-size:60px;"">+</div>","null","fixation","","","","","","","","","61","","",""
"revaluation","183","819831","0.0-4.0-2.0-0.31","spark_pilot_norest","8615","4","13","Female","","false","","","","","[1426.5999999046326,907.2999999523163]","./assets/img/ocean/memory/23.jpg","[""ArrowDown"",""ArrowRight""]","value training","ocean","17","{""ArrowUp,ArrowLeft"":26,""ArrowUp,ArrowRight"":10,""ArrowDown,ArrowLeft"":5,""ArrowDown,ArrowRight"":17}","false","ArrowDown,ArrowRight","false","revaluation","1","62","","",""
"html-keyboard-response","184","820340","0.0-4.0-2.0-1.31","spark_pilot_norest","8615","4","13","Female","","","","","","","null","<div style=""font-size:60px;"">+</div>","null","fixation","","","","","","","","","63","","",""
"revaluation","185","826367","0.0-4.0-2.0-0.32","spark_pilot_norest","8615","4","13","Female","","false","","","","","[659.5,541.7999999523163]","./assets/img/ocean/memory/15.jpg","[""ArrowUp"",""ArrowLeft""]","value training","ocean","26","{""ArrowUp,ArrowLeft"":26,""ArrowUp,ArrowRight"":10,""ArrowDown,ArrowLeft"":5,""ArrowDown,ArrowRight"":17}","true","ArrowUp,ArrowLeft","false","revaluation","1","64","","",""
"html-keyboard-response","186","826878","0.0-4.0-2.0-1.32","spark_pilot_norest","8615","4","13","Female","","","","","","","null","<div style=""font-size:60px;"">+</div>","null","fixation","","","","","","","","","65","","",""
"revaluation","187","832904","0.0-4.0-2.0-0.33","spark_pilot_norest","8615","4","13","Female","","false","","","","","[954.8999999761581,492.89999997615814]","./assets/img/ocean/memory/18.jpg","[""ArrowUp"",""ArrowLeft""]","value training","ocean","26","{""ArrowUp,ArrowLeft"":26,""ArrowUp,ArrowRight"":10,""ArrowDown,ArrowLeft"":5,""ArrowDown,ArrowRight"":17}","true","ArrowUp,ArrowLeft","false","revaluation","1","66","","",""
"html-keyboard-response","188","833414","0.0-4.0-2.0-1.33","spark_pilot_norest","8615","4","13","Female","","","","","","","null","<div style=""font-size:60px;"">+</div>","null","fixation","","","","","","","","","67","","",""
"revaluation","189","839440","0.0-4.0-2.0-0.34","spark_pilot_norest","8615","4","13","Female","","false","","","","","[603.3000000715256,452]","./assets/img/ocean/memory/11.jpg","[""ArrowUp"",""ArrowLeft""]","value training","ocean","26","{""ArrowUp,ArrowLeft"":26,""ArrowUp,ArrowRight"":10,""ArrowDown,ArrowLeft"":5,""ArrowDown,ArrowRight"":17}","true","ArrowUp,ArrowLeft","false","revaluation","1","68","","",""
"html-keyboard-response","190","839950","0.0-4.0-2.0-1.34","spark_pilot_norest","8615","4","13","Female","","","","","","","null","<div style=""font-size:60px;"">+</div>","null","fixation","","","","","","","","","69","","",""
"revaluation","191","845974","0.0-4.0-2.0-0.35","spark_pilot_norest","8615","4","13","Female","","false","","","","","[572.6000000238419,394]","./assets/img/ocean/memory/23.jpg","[""ArrowUp"",""ArrowLeft""]","value training","ocean","26","{""ArrowUp,ArrowLeft"":26,""ArrowUp,ArrowRight"":10,""ArrowDown,ArrowLeft"":5,""ArrowDown,ArrowRight"":17}","true","ArrowUp,ArrowLeft","false","revaluation","1","70","","",""
"html-keyboard-response","192","846487","0.0-4.0-2.0-1.35","spark_pilot_norest","8615","4","13","Female","","","","","","","null","<div style=""font-size:60px;"">+</div>","null","fixation","","","","","","","","","71","","",""
"revaluation","193","850504","0.0-4.0-2.0-0.36","spark_pilot_norest","8615","4","13","Female","","false","","","","","[865.2999999523163]","./assets/img/ocean/catch/3.jpg","[""spaceBar""]","value training","ocean","0","{""ArrowUp,ArrowLeft"":26,""ArrowUp,ArrowRight"":10,""ArrowDown,ArrowLeft"":5,""ArrowDown,ArrowRight"":17}","true","spaceBar","true","revaluation","1","72","","",""
"html-keyboard-response","194","851015","0.0-4.0-2.0-1.36","spark_pilot_norest","8615","4","13","Female","","","","","","","null","<div style=""font-size:60px;"">+</div>","null","fixation","","","","","","","","","73","","",""
"revaluation","195","857038","0.0-4.0-2.0-0.37","spark_pilot_norest","8615","4","13","Female","","false","","","","","[545.6000000238419,687.5]","./assets/img/ocean/memory/24.jpg","[""ArrowUp"",""ArrowLeft""]","value training","ocean","26","{""ArrowUp,ArrowLeft"":26,""ArrowUp,ArrowRight"":10,""ArrowDown,ArrowLeft"":5,""ArrowDown,ArrowRight"":17}","true","ArrowUp,ArrowLeft","false","revaluation","1","74","","",""
"html-keyboard-response","196","857551","0.0-4.0-2.0-1.37","spark_pilot_norest","8615","4","13","Female","","","","","","","null","<div style=""font-size:60px;"">+</div>","null","fixation","","","","","","","","","75","","",""
"revaluation","197","861574","0.0-4.0-2.0-0.38","spark_pilot_norest","8615","4","13","Female","","false","","","","","[685]","./assets/img/ocean/catch/7.jpg","[""spaceBar""]","value training","ocean","0","{""ArrowUp,ArrowLeft"":26,""ArrowUp,ArrowRight"":10,""ArrowDown,ArrowLeft"":5,""ArrowDown,ArrowRight"":17}","true","spaceBar","true","revaluation","1","76","","",""
"html-keyboard-response","198","862085","0.0-4.0-2.0-1.38","spark_pilot_norest","8615","4","13","Female","","","","","","","null","<div style=""font-size:60px;"">+</div>","null","fixation","","","","","","","","","77","","",""
"revaluation","199","868110","0.0-4.0-2.0-0.39","spark_pilot_norest","8615","4","13","Female","","false","","","","","[520.7000000476837,367.2000000476837]","./assets/img/ocean/memory/5.jpg","[""ArrowUp"",""ArrowLeft""]","value training","ocean","26","{""ArrowUp,ArrowLeft"":26,""ArrowUp,ArrowRight"":10,""ArrowDown,ArrowLeft"":5,""ArrowDown,ArrowRight"":17}","true","ArrowUp,ArrowLeft","false","revaluation","1","78","","",""
"html-keyboard-response","200","868621","0.0-4.0-2.0-1.39","spark_pilot_norest","8615","4","13","Female","","","","","","","null","<div style=""font-size:60px;"">+</div>","null","fixation","","","","","","","","","79","","",""
"revaluation","201","872638","0.0-4.0-2.0-0.40","spark_pilot_norest","8615","4","13","Female","","false","","","","","[591.6000000238419]","./assets/img/ocean/catch/2.jpg","[""spaceBar""]","value training","ocean","0","{""ArrowUp,ArrowLeft"":26,""ArrowUp,ArrowRight"":10,""ArrowDown,ArrowLeft"":5,""ArrowDown,ArrowRight"":17}","true","spaceBar","true","revaluation","1","80","","",""
"html-keyboard-response","202","873148","0.0-4.0-2.0-1.40","spark_pilot_norest","8615","4","13","Female","","","","","","","null","<div style=""font-size:60px;"">+</div>","null","fixation","","","","","","","","","81","","",""
"revaluation","203","877166","0.0-4.0-2.0-0.41","spark_pilot_norest","8615","4","13","Female","","false","","","","","[667.5]","./assets/img/ocean/catch/0.jpg","[""spaceBar""]","value training","ocean","0","{""ArrowUp,ArrowLeft"":26,""ArrowUp,ArrowRight"":10,""ArrowDown,ArrowLeft"":5,""ArrowDown,ArrowRight"":17}","true","spaceBar","true","revaluation","1","82","","",""
"html-keyboard-response","204","877676","0.0-4.0-2.0-1.41","spark_pilot_norest","8615","4","13","Female","","","","","","","null","<div style=""font-size:60px;"">+</div>","null","fixation","","","","","","","","","83","","",""
"revaluation","205","883702","0.0-4.0-2.0-0.42","spark_pilot_norest","8615","4","13","Female","","false","","","","","[623.2999999523163,466.5]","./assets/img/ocean/memory/35.jpg","[""ArrowUp"",""ArrowLeft""]","value training","ocean","26","{""ArrowUp,ArrowLeft"":26,""ArrowUp,ArrowRight"":10,""ArrowDown,ArrowLeft"":5,""ArrowDown,ArrowRight"":17}","true","ArrowUp,ArrowLeft","false","revaluation","1","84","","",""
"html-keyboard-response","206","884212","0.0-4.0-2.0-1.42","spark_pilot_norest","8615","4","13","Female","","","","","","","null","<div style=""font-size:60px;"">+</div>","null","fixation","","","","","","","","","85","","",""
"revaluation","207","890238","0.0-4.0-2.0-0.43","spark_pilot_norest","8615","4","13","Female","","false","","","","","[1034.0999999046326,594.4000000953674]","./assets/img/ocean/memory/25.jpg","[""ArrowUp"",""ArrowLeft""]","value training","ocean","26","{""ArrowUp,ArrowLeft"":26,""ArrowUp,ArrowRight"":10,""ArrowDown,ArrowLeft"":5,""ArrowDown,ArrowRight"":17}","true","ArrowUp,ArrowLeft","false","revaluation","1","86","","",""
"html-keyboard-response","208","890748","0.0-4.0-2.0-1.43","spark_pilot_norest","8615","4","13","Female","","","","","","","null","<div style=""font-size:60px;"">+</div>","null","fixation","","","","","","","","","87","","",""
"revaluation","209","896775","0.0-4.0-2.0-0.44","spark_pilot_norest","8615","4","13","Female","","false","","","","","[806.1000000238419,538]","./assets/img/ocean/memory/22.jpg","[""ArrowUp"",""ArrowLeft""]","value training","ocean","26","{""ArrowUp,ArrowLeft"":26,""ArrowUp,ArrowRight"":10,""ArrowDown,ArrowLeft"":5,""ArrowDown,ArrowRight"":17}","true","ArrowUp,ArrowLeft","false","revaluation","1","88","","",""
"html-keyboard-response","210","897285","0.0-4.0-2.0-1.44","spark_pilot_norest","8615","4","13","Female","","","","","","","null","<div style=""font-size:60px;"">+</div>","null","fixation","","","","","","","","","89","","",""
"revaluation","211","903310","0.0-4.0-2.0-0.45","spark_pilot_norest","8615","4","13","Female","","false","","","","","[875.3000000715256,505.60000002384186]","./assets/img/ocean/memory/27.jpg","[""ArrowUp"",""ArrowLeft""]","value training","ocean","26","{""ArrowUp,ArrowLeft"":26,""ArrowUp,ArrowRight"":10,""ArrowDown,ArrowLeft"":5,""ArrowDown,ArrowRight"":17}","true","ArrowUp,ArrowLeft","false","revaluation","1","90","","",""
"html-keyboard-response","212","903822","0.0-4.0-2.0-1.45","spark_pilot_norest","8615","4","13","Female","","","","","","","null","<div style=""font-size:60px;"">+</div>","null","fixation","","","","","","","","","91","","",""
"revaluation","213","909843","0.0-4.0-2.0-0.46","spark_pilot_norest","8615","4","13","Female","","false","","","","","[1415.1000000238419,747.2999999523163]","./assets/img/ocean/memory/14.jpg","[""ArrowUp"",""ArrowLeft""]","value training","ocean","26","{""ArrowUp,ArrowLeft"":26,""ArrowUp,ArrowRight"":10,""ArrowDown,ArrowLeft"":5,""ArrowDown,ArrowRight"":17}","true","ArrowUp,ArrowLeft","false","revaluation","1","92","","",""
"html-keyboard-response","214","910346","0.0-4.0-2.0-1.46","spark_pilot_norest","8615","4","13","Female","","","","","","","null","<div style=""font-size:60px;"">+</div>","null","fixation","","","","","","","","","93","","",""
"revaluation","215","916372","0.0-4.0-2.0-0.47","spark_pilot_norest","8615","4","13","Female","","false","","","","","[1157.5999999046326,820.7000000476837]","./assets/img/ocean/memory/24.jpg","[""ArrowUp"",""ArrowLeft""]","value training","ocean","26","{""ArrowUp,ArrowLeft"":26,""ArrowUp,ArrowRight"":10,""ArrowDown,ArrowLeft"":5,""ArrowDown,ArrowRight"":17}","true","ArrowUp,ArrowLeft","false","revaluation","1","94","","",""
"html-keyboard-response","216","916876","0.0-4.0-2.0-1.47","spark_pilot_norest","8615","4","13","Female","","","","","","","null","<div style=""font-size:60px;"">+</div>","null","fixation","","","","","","","","","95","","",""
"revaluation","217","922902","0.0-4.0-2.0-0.48","spark_pilot_norest","8615","4","13","Female","","false","","","","","[809,624.5999999046326]","./assets/img/ocean/memory/21.jpg","[""ArrowUp"",""ArrowLeft""]","value training","ocean","26","{""ArrowUp,ArrowLeft"":26,""ArrowUp,ArrowRight"":10,""ArrowDown,ArrowLeft"":5,""ArrowDown,ArrowRight"":17}","true","ArrowUp,ArrowLeft","false","revaluation","1","96","","",""
"html-keyboard-response","218","923413","0.0-4.0-2.0-1.48","spark_pilot_norest","8615","4","13","Female","","","","","","","null","<div style=""font-size:60px;"">+</div>","null","fixation","","","","","","","","","97","","",""
"revaluation","219","927430","0.0-4.0-2.0-0.49","spark_pilot_norest","8615","4","13","Female","","true","","","","","[]","./assets/img/ocean/memory/3.jpg","[]","value training","ocean","-5","{""ArrowUp,ArrowLeft"":26,""ArrowUp,ArrowRight"":10,""ArrowDown,ArrowLeft"":5,""ArrowDown,ArrowRight"":17}","false","","false","revaluation","1","98","","",""
"html-keyboard-response","220","927941","0.0-4.0-2.0-1.49","spark_pilot_norest","8615","4","13","Female","","","","","","","null","<div style=""font-size:60px;"">+</div>","null","fixation","","","","","","","","","99","","",""
"learning-instructions","221","941858","0.0-4.0-3.0-0.0","spark_pilot_norest","8615","4","13","Female","","","","","","","864.8000000715256","<p> Now, you will travel with a friend who will choose whether you go up or down first. </p>
            <p> On these turns, you will just see the animal that they found. You will still get to choose which chest to search for treasure.</p>","","instructions","","","","","","","","","","","",""
"revaluation","222","945876","0.0-4.0-4.0-0.0","spark_pilot_norest","8615","4","13","Female","","false","","","","","[1151.7000000476837]","./assets/img/ocean/animals/seahorse.jpg","[""ArrowLeft""]","revaluation","ocean","8","{""ArrowUp,ArrowLeft"":2,""ArrowUp,ArrowRight"":11,""ArrowDown,ArrowLeft"":8,""ArrowDown,ArrowRight"":27}","false","ArrowDown,ArrowLeft","","revaluation","1","0","","",""
"html-keyboard-response","223","946386","0.0-4.0-4.0-1.0","spark_pilot_norest","8615","4","13","Female","","","","","","","null","<div style=""font-size:60px;"">+</div>","null","fixation","","","","","","","","","1","","",""
"revaluation","224","950403","0.0-4.0-4.0-0.1","spark_pilot_norest","8615","4","13","Female","","false","","","","","[705.1999999284744]","./assets/img/ocean/animals/octopus.jpg","[""ArrowLeft""]","revaluation","ocean","2","{""ArrowUp,ArrowLeft"":2,""ArrowUp,ArrowRight"":11,""ArrowDown,ArrowLeft"":8,""ArrowDown,ArrowRight"":27}","false","ArrowUp,ArrowLeft","","revaluation","1","2","","",""
"html-keyboard-response","225","950909","0.0-4.0-4.0-1.1","spark_pilot_norest","8615","4","13","Female","","","","","","","null","<div style=""font-size:60px;"">+</div>","null","fixation","","","","","","","","","3","","",""
"revaluation","226","954931","0.0-4.0-4.0-0.2","spark_pilot_norest","8615","4","13","Female","","false","","","","","[447.10000002384186]","./assets/img/ocean/animals/seahorse.jpg","[""ArrowRight""]","revaluation","ocean","27","{""ArrowUp,ArrowLeft"":2,""ArrowUp,ArrowRight"":11,""ArrowDown,ArrowLeft"":8,""ArrowDown,ArrowRight"":27}","true","ArrowDown,ArrowRight","","revaluation","1","4","","",""
"html-keyboard-response","227","955435","0.0-4.0-4.0-1.2","spark_pilot_norest","8615","4","13","Female","","","","","","","null","<div style=""font-size:60px;"">+</div>","null","fixation","","","","","","","","","5","","",""
"revaluation","228","959450","0.0-4.0-4.0-0.3","spark_pilot_norest","8615","4","13","Female","","false","","","","","[298.10000002384186]","./assets/img/ocean/animals/seahorse.jpg","[""ArrowRight""]","revaluation","ocean","27","{""ArrowUp,ArrowLeft"":2,""ArrowUp,ArrowRight"":11,""ArrowDown,ArrowLeft"":8,""ArrowDown,ArrowRight"":27}","true","ArrowDown,ArrowRight","","revaluation","1","6","","",""
"html-keyboard-response","229","959957","0.0-4.0-4.0-1.3","spark_pilot_norest","8615","4","13","Female","","","","","","","null","<div style=""font-size:60px;"">+</div>","null","fixation","","","","","","","","","7","","",""
"revaluation","230","963969","0.0-4.0-4.0-0.4","spark_pilot_norest","8615","4","13","Female","","false","","","","","[734.5]","./assets/img/ocean/animals/octopus.jpg","[""ArrowRight""]","revaluation","ocean","11","{""ArrowUp,ArrowLeft"":2,""ArrowUp,ArrowRight"":11,""ArrowDown,ArrowLeft"":8,""ArrowDown,ArrowRight"":27}","true","ArrowUp,ArrowRight","","revaluation","1","8","","",""
"html-keyboard-response","231","964476","0.0-4.0-4.0-1.4","spark_pilot_norest","8615","4","13","Female","","","","","","","null","<div style=""font-size:60px;"">+</div>","null","fixation","","","","","","","","","9","","",""
"revaluation","232","968492","0.0-4.0-4.0-0.5","spark_pilot_norest","8615","4","13","Female","","false","","","","","[391.2999999523163]","./assets/img/ocean/animals/seahorse.jpg","[""ArrowRight""]","revaluation","ocean","27","{""ArrowUp,ArrowLeft"":2,""ArrowUp,ArrowRight"":11,""ArrowDown,ArrowLeft"":8,""ArrowDown,ArrowRight"":27}","true","ArrowDown,ArrowRight","","revaluation","1","10","","",""
"html-keyboard-response","233","969001","0.0-4.0-4.0-1.5","spark_pilot_norest","8615","4","13","Female","","","","","","","null","<div style=""font-size:60px;"">+</div>","null","fixation","","","","","","","","","11","","",""
"revaluation","234","973009","0.0-4.0-4.0-0.6","spark_pilot_norest","8615","4","13","Female","","false","","","","","[431.39999997615814]","./assets/img/ocean/animals/octopus.jpg","[""ArrowRight""]","revaluation","ocean","11","{""ArrowUp,ArrowLeft"":2,""ArrowUp,ArrowRight"":11,""ArrowDown,ArrowLeft"":8,""ArrowDown,ArrowRight"":27}","true","ArrowUp,ArrowRight","","revaluation","1","12","","",""
"html-keyboard-response","235","973514","0.0-4.0-4.0-1.6","spark_pilot_norest","8615","4","13","Female","","","","","","","null","<div style=""font-size:60px;"">+</div>","null","fixation","","","","","","","","","13","","",""
"revaluation","236","977532","0.0-4.0-4.0-0.7","spark_pilot_norest","8615","4","13","Female","","false","","","","","[438.5]","./assets/img/ocean/animals/seahorse.jpg","[""ArrowRight""]","revaluation","ocean","27","{""ArrowUp,ArrowLeft"":2,""ArrowUp,ArrowRight"":11,""ArrowDown,ArrowLeft"":8,""ArrowDown,ArrowRight"":27}","true","ArrowDown,ArrowRight","","revaluation","1","14","","",""
"html-keyboard-response","237","978042","0.0-4.0-4.0-1.7","spark_pilot_norest","8615","4","13","Female","","","","","","","null","<div style=""font-size:60px;"">+</div>","null","fixation","","","","","","","","","15","","",""
"revaluation","238","982059","0.0-4.0-4.0-0.8","spark_pilot_norest","8615","4","13","Female","","false","","","","","[299.10000002384186]","./assets/img/ocean/animals/octopus.jpg","[""ArrowRight""]","revaluation","ocean","11","{""ArrowUp,ArrowLeft"":2,""ArrowUp,ArrowRight"":11,""ArrowDown,ArrowLeft"":8,""ArrowDown,ArrowRight"":27}","true","ArrowUp,ArrowRight","","revaluation","1","16","","",""
"html-keyboard-response","239","982564","0.0-4.0-4.0-1.8","spark_pilot_norest","8615","4","13","Female","","","","","","","null","<div style=""font-size:60px;"">+</div>","null","fixation","","","","","","","","","17","","",""
"revaluation","240","986581","0.0-4.0-4.0-0.9","spark_pilot_norest","8615","4","13","Female","","false","","","","","[746.8000000715256]","./assets/img/ocean/animals/seahorse.jpg","[""ArrowRight""]","revaluation","ocean","27","{""ArrowUp,ArrowLeft"":2,""ArrowUp,ArrowRight"":11,""ArrowDown,ArrowLeft"":8,""ArrowDown,ArrowRight"":27}","true","ArrowDown,ArrowRight","","revaluation","1","18","","",""
"html-keyboard-response","241","987092","0.0-4.0-4.0-1.9","spark_pilot_norest","8615","4","13","Female","","","","","","","null","<div style=""font-size:60px;"">+</div>","null","fixation","","","","","","","","","19","","",""
"revaluation","242","991110","0.0-4.0-4.0-0.10","spark_pilot_norest","8615","4","13","Female","","false","","","","","[377]","./assets/img/ocean/animals/octopus.jpg","[""ArrowRight""]","revaluation","ocean","11","{""ArrowUp,ArrowLeft"":2,""ArrowUp,ArrowRight"":11,""ArrowDown,ArrowLeft"":8,""ArrowDown,ArrowRight"":27}","true","ArrowUp,ArrowRight","","revaluation","1","20","","",""
"html-keyboard-response","243","991620","0.0-4.0-4.0-1.10","spark_pilot_norest","8615","4","13","Female","","","","","","","null","<div style=""font-size:60px;"">+</div>","null","fixation","","","","","","","","","21","","",""
"revaluation","244","995637","0.0-4.0-4.0-0.11","spark_pilot_norest","8615","4","13","Female","","false","","","","","[157.10000002384186]","./assets/img/ocean/animals/seahorse.jpg","[""ArrowRight""]","revaluation","ocean","27","{""ArrowUp,ArrowLeft"":2,""ArrowUp,ArrowRight"":11,""ArrowDown,ArrowLeft"":8,""ArrowDown,ArrowRight"":27}","true","ArrowDown,ArrowRight","","revaluation","1","22","","",""
"html-keyboard-response","245","996147","0.0-4.0-4.0-1.11","spark_pilot_norest","8615","4","13","Female","","","","","","","null","<div style=""font-size:60px;"">+</div>","null","fixation","","","","","","","","","23","","",""
"revaluation","246","1000158","0.0-4.0-4.0-0.12","spark_pilot_norest","8615","4","13","Female","","false","","","","","[142.89999997615814]","./assets/img/ocean/animals/octopus.jpg","[""ArrowRight""]","revaluation","ocean","11","{""ArrowUp,ArrowLeft"":2,""ArrowUp,ArrowRight"":11,""ArrowDown,ArrowLeft"":8,""ArrowDown,ArrowRight"":27}","true","ArrowUp,ArrowRight","","revaluation","1","24","","",""
"html-keyboard-response","247","1000669","0.0-4.0-4.0-1.12","spark_pilot_norest","8615","4","13","Female","","","","","","","null","<div style=""font-size:60px;"">+</div>","null","fixation","","","","","","","","","25","","",""
"revaluation","248","1004692","0.0-4.0-4.0-0.13","spark_pilot_norest","8615","4","13","Female","","false","","","","","[55.39999997615814]","./assets/img/ocean/animals/octopus.jpg","[""ArrowRight""]","revaluation","ocean","11","{""ArrowUp,ArrowLeft"":2,""ArrowUp,ArrowRight"":11,""ArrowDown,ArrowLeft"":8,""ArrowDown,ArrowRight"":27}","true","ArrowUp,ArrowRight","","revaluation","1","26","","",""
"html-keyboard-response","249","1005203","0.0-4.0-4.0-1.13","spark_pilot_norest","8615","4","13","Female","","","","","","","null","<div style=""font-size:60px;"">+</div>","null","fixation","","","","","","","","","27","","",""
"revaluation","250","1009221","0.0-4.0-4.0-0.14","spark_pilot_norest","8615","4","13","Female","","false","","","","","[129.79999995231628]","./assets/img/ocean/animals/seahorse.jpg","[""ArrowRight""]","revaluation","ocean","27","{""ArrowUp,ArrowLeft"":2,""ArrowUp,ArrowRight"":11,""ArrowDown,ArrowLeft"":8,""ArrowDown,ArrowRight"":27}","true","ArrowDown,ArrowRight","","revaluation","1","28","","",""
"html-keyboard-response","251","1009731","0.0-4.0-4.0-1.14","spark_pilot_norest","8615","4","13","Female","","","","","","","null","<div style=""font-size:60px;"">+</div>","null","fixation","","","","","","","","","29","","",""
"revaluation","252","1013742","0.0-4.0-4.0-0.15","spark_pilot_norest","8615","4","13","Female","","false","","","","","[335.5]","./assets/img/ocean/animals/seahorse.jpg","[""ArrowRight""]","revaluation","ocean","27","{""ArrowUp,ArrowLeft"":2,""ArrowUp,ArrowRight"":11,""ArrowDown,ArrowLeft"":8,""ArrowDown,ArrowRight"":27}","true","ArrowDown,ArrowRight","","revaluation","1","30","","",""
"html-keyboard-response","253","1014252","0.0-4.0-4.0-1.15","spark_pilot_norest","8615","4","13","Female","","","","","","","null","<div style=""font-size:60px;"">+</div>","null","fixation","","","","","","","","","31","","",""
"revaluation","254","1018264","0.0-4.0-4.0-0.16","spark_pilot_norest","8615","4","13","Female","","false","","","","","[188.70000004768372]","./assets/img/ocean/animals/octopus.jpg","[""ArrowRight""]","revaluation","ocean","11","{""ArrowUp,ArrowLeft"":2,""ArrowUp,ArrowRight"":11,""ArrowDown,ArrowLeft"":8,""ArrowDown,ArrowRight"":27}","true","ArrowUp,ArrowRight","","revaluation","1","32","","",""
"html-keyboard-response","255","1018769","0.0-4.0-4.0-1.16","spark_pilot_norest","8615","4","13","Female","","","","","","","null","<div style=""font-size:60px;"">+</div>","null","fixation","","","","","","","","","33","","",""
"revaluation","256","1022787","0.0-4.0-4.0-0.17","spark_pilot_norest","8615","4","13","Female","","false","","","","","[198.09999990463257]","./assets/img/ocean/animals/octopus.jpg","[""ArrowRight""]","revaluation","ocean","11","{""ArrowUp,ArrowLeft"":2,""ArrowUp,ArrowRight"":11,""ArrowDown,ArrowLeft"":8,""ArrowDown,ArrowRight"":27}","true","ArrowUp,ArrowRight","","revaluation","1","34","","",""
"html-keyboard-response","257","1023297","0.0-4.0-4.0-1.17","spark_pilot_norest","8615","4","13","Female","","","","","","","null","<div style=""font-size:60px;"">+</div>","null","fixation","","","","","","","","","35","","",""
"learning-instructions","258","1031561","0.0-4.0-5.0-0.0","spark_pilot_norest","8615","4","13","Female","","","","","","","null","<p> You have almost finished this part of the game! </p>
            <p> We are going to ask you to make a few more choices. </p>","","instructions","","","","","","","","","","","",""
"learning-instructions","259","1047537","0.0-4.0-5.0-0.1","spark_pilot_norest","8615","4","13","Female","","","","","","","null","<p> First, you need to decide whether to go up or down. When you see each picture, use the arrow keys to make your choice. </p>
            <p><b>You will not see which animal you found, but try to get to the one that will give you the most treasure.</b></p>","","instructions","","","","","","","","","","","",""
"html-keyboard-response","260","1048546","0.0-4.0-6.0-0.0","spark_pilot_norest","8615","4","13","Female","","","","","","","null","<div style=""font-size:100px;color:red;"">Starting in...</div>","null","","","","","","","","","","","","",""
"html-keyboard-response","261","1049555","0.0-4.0-6.0-1.0","spark_pilot_norest","8615","4","13","Female","","","","","","","null","<div style=""font-size:200px;color:red;"">3</div>","null","","","","","","","","","","","","",""
"html-keyboard-response","262","1050562","0.0-4.0-6.0-2.0","spark_pilot_norest","8615","4","13","Female","","","","","","","null","<div style=""font-size:200px;color:red;"">2</div>","null","","","","","","","","","","","","",""
"html-keyboard-response","263","1051571","0.0-4.0-6.0-3.0","spark_pilot_norest","8615","4","13","Female","","","","","","","null","<div style=""font-size:200px;color:red;"">1</div>","null","","","","","","","","","","","","",""
"revaluation","264","1052043","0.0-4.0-7.0-0.0","spark_pilot_norest","8615","4","13","Female","","false","","","","","[469.3000000715256]","./assets/img/ocean/test/1.jpg","[""ArrowUp""]","first stage test","ocean","0","{""ArrowUp,ArrowLeft"":2,""ArrowUp,ArrowRight"":11,""ArrowDown,ArrowLeft"":8,""ArrowDown,ArrowRight"":27}","false","ArrowUp","false","revaluation","1","","","",""
"html-keyboard-response","265","1052546","0.0-4.0-7.0-1.0","spark_pilot_norest","8615","4","13","Female","","","","","","","null","<div style=""font-size:60px;"">+</div>","null","fixation","","","","","","","","","","","",""
"revaluation","266","1053248","0.0-4.0-7.0-0.1","spark_pilot_norest","8615","4","13","Female","","false","","","","","[697.3000000715256]","./assets/img/ocean/test/2.jpg","[""ArrowDown""]","first stage test","ocean","0","{""ArrowUp,ArrowLeft"":2,""ArrowUp,ArrowRight"":11,""ArrowDown,ArrowLeft"":8,""ArrowDown,ArrowRight"":27}","true","ArrowDown","false","revaluation","1","","","",""
"html-keyboard-response","267","1053753","0.0-4.0-7.0-1.1","spark_pilot_norest","8615","4","13","Female","","","","","","","null","<div style=""font-size:60px;"">+</div>","null","fixation","","","","","","","","","","","",""
"revaluation","268","1054356","0.0-4.0-7.0-0.2","spark_pilot_norest","8615","4","13","Female","","false","","","","","[599.3000000715256]","./assets/img/ocean/test/0.jpg","[""ArrowUp""]","first stage test","ocean","0","{""ArrowUp,ArrowLeft"":2,""ArrowUp,ArrowRight"":11,""ArrowDown,ArrowLeft"":8,""ArrowDown,ArrowRight"":27}","false","ArrowUp","false","revaluation","1","","","",""
"html-keyboard-response","269","1054868","0.0-4.0-7.0-1.2","spark_pilot_norest","8615","4","13","Female","","","","","","","null","<div style=""font-size:60px;"">+</div>","null","fixation","","","","","","","","","","","",""
"revaluation","270","1055381","0.0-4.0-7.0-0.3","spark_pilot_norest","8615","4","13","Female","","false","","","","","[510.3000000715256]","./assets/img/ocean/test/3.jpg","[""ArrowDown""]","first stage test","ocean","0","{""ArrowUp,ArrowLeft"":2,""ArrowUp,ArrowRight"":11,""ArrowDown,ArrowLeft"":8,""ArrowDown,ArrowRight"":27}","true","ArrowDown","false","revaluation","1","","","",""
"html-keyboard-response","271","1055892","0.0-4.0-7.0-1.3","spark_pilot_norest","8615","4","13","Female","","","","","","","null","<div style=""font-size:60px;"">+</div>","null","fixation","","","","","","","","","","","",""
"learning-instructions","272","1069241","0.0-4.0-8.0-0.0","spark_pilot_norest","8615","4","13","Female","","","","","","","null","<p> Now you will see the animals again and can search their chests for treasure. </p>
            <p> This time, you will not see how much treasure you earned, but you will earn more bonus money for making better choices. </p>","","instructions","","","","","","","","","","","",""
"html-keyboard-response","273","1070251","0.0-4.0-9.0-0.0","spark_pilot_norest","8615","4","13","Female","","","","","","","null","<div style=""font-size:100px;color:red;"">Starting in...</div>","null","","","","","","","","","","","","",""
"html-keyboard-response","274","1071257","0.0-4.0-9.0-1.0","spark_pilot_norest","8615","4","13","Female","","","","","","","null","<div style=""font-size:200px;color:red;"">3</div>","null","","","","","","","","","","","","",""
"html-keyboard-response","275","1072266","0.0-4.0-9.0-2.0","spark_pilot_norest","8615","4","13","Female","","","","","","","null","<div style=""font-size:200px;color:red;"">2</div>","null","","","","","","","","","","","","",""
"html-keyboard-response","276","1073274","0.0-4.0-9.0-3.0","spark_pilot_norest","8615","4","13","Female","","","","","","","null","<div style=""font-size:200px;color:red;"">1</div>","null","","","","","","","","","","","","",""
"revaluation","277","1074097","0.0-4.0-10.0-0.0","spark_pilot_norest","8615","4","13","Female","","false","","","","","[819.3000000715256]","./assets/img/ocean/animals/octopus.jpg","[""ArrowRight""]","second stage test","ocean","0","{""ArrowUp,ArrowLeft"":2,""ArrowUp,ArrowRight"":11,""ArrowDown,ArrowLeft"":8,""ArrowDown,ArrowRight"":27}","true","ArrowUp,ArrowRight","","revaluation","1","","","",""
"html-keyboard-response","278","1074599","0.0-4.0-10.0-1.0","spark_pilot_norest","8615","4","13","Female","","","","","","","null","<div style=""font-size:60px;"">+</div>","null","fixation","","","","","","","","","","","",""
"revaluation","279","1075153","0.0-4.0-10.0-0.1","spark_pilot_norest","8615","4","13","Female","","false","","","","","[549.8999999761581]","./assets/img/ocean/animals/octopus.jpg","[""ArrowRight""]","second stage test","ocean","0","{""ArrowUp,ArrowLeft"":2,""ArrowUp,ArrowRight"":11,""ArrowDown,ArrowLeft"":8,""ArrowDown,ArrowRight"":27}","true","ArrowUp,ArrowRight","","revaluation","1","","","",""
"html-keyboard-response","280","1075657","0.0-4.0-10.0-1.1","spark_pilot_norest","8615","4","13","Female","","","","","","","null","<div style=""font-size:60px;"">+</div>","null","fixation","","","","","","","","","","","",""
"revaluation","281","1076135","0.0-4.0-10.0-0.2","spark_pilot_norest","8615","4","13","Female","","false","","","","","[474]","./assets/img/ocean/animals/octopus.jpg","[""ArrowRight""]","second stage test","ocean","0","{""ArrowUp,ArrowLeft"":2,""ArrowUp,ArrowRight"":11,""ArrowDown,ArrowLeft"":8,""ArrowDown,ArrowRight"":27}","true","ArrowUp,ArrowRight","","revaluation","1","","","",""
"html-keyboard-response","282","1076640","0.0-4.0-10.0-1.2","spark_pilot_norest","8615","4","13","Female","","","","","","","null","<div style=""font-size:60px;"">+</div>","null","fixation","","","","","","","","","","","",""
"revaluation","283","1077053","0.0-4.0-10.0-0.3","spark_pilot_norest","8615","4","13","Female","","false","","","","","[408.5]","./assets/img/ocean/animals/octopus.jpg","[""ArrowRight""]","second stage test","ocean","0","{""ArrowUp,ArrowLeft"":2,""ArrowUp,ArrowRight"":11,""ArrowDown,ArrowLeft"":8,""ArrowDown,ArrowRight"":27}","true","ArrowUp,ArrowRight","","revaluation","1","","","",""
"html-keyboard-response","284","1077559","0.0-4.0-10.0-1.3","spark_pilot_norest","8615","4","13","Female","","","","","","","null","<div style=""font-size:60px;"">+</div>","null","fixation","","","","","","","","","","","",""
"revaluation","285","1077995","0.0-4.0-10.0-0.4","spark_pilot_norest","8615","4","13","Female","","false","","","","","[432.6999999284744]","./assets/img/ocean/animals/seahorse.jpg","[""ArrowLeft""]","second stage test","ocean","0","{""ArrowUp,ArrowLeft"":2,""ArrowUp,ArrowRight"":11,""ArrowDown,ArrowLeft"":8,""ArrowDown,ArrowRight"":27}","false","ArrowDown,ArrowLeft","","revaluation","1","","","",""
"html-keyboard-response","286","1078500","0.0-4.0-10.0-1.4","spark_pilot_norest","8615","4","13","Female","","","","","","","null","<div style=""font-size:60px;"">+</div>","null","fixation","","","","","","","","","","","",""
"revaluation","287","1078932","0.0-4.0-10.0-0.5","spark_pilot_norest","8615","4","13","Female","","false","","","","","[428.89999997615814]","./assets/img/ocean/animals/seahorse.jpg","[""ArrowLeft""]","second stage test","ocean","0","{""ArrowUp,ArrowLeft"":2,""ArrowUp,ArrowRight"":11,""ArrowDown,ArrowLeft"":8,""ArrowDown,ArrowRight"":27}","false","ArrowDown,ArrowLeft","","revaluation","1","","","",""
"html-keyboard-response","288","1079440","0.0-4.0-10.0-1.5","spark_pilot_norest","8615","4","13","Female","","","","","","","null","<div style=""font-size:60px;"">+</div>","null","fixation","","","","","","","","","","","",""
"revaluation","289","1079880","0.0-4.0-10.0-0.6","spark_pilot_norest","8615","4","13","Female","","false","","","","","[436]","./assets/img/ocean/animals/seahorse.jpg","[""ArrowLeft""]","second stage test","ocean","0","{""ArrowUp,ArrowLeft"":2,""ArrowUp,ArrowRight"":11,""ArrowDown,ArrowLeft"":8,""ArrowDown,ArrowRight"":27}","false","ArrowDown,ArrowLeft","","revaluation","1","","","",""
"html-keyboard-response","290","1080386","0.0-4.0-10.0-1.6","spark_pilot_norest","8615","4","13","Female","","","","","","","null","<div style=""font-size:60px;"">+</div>","null","fixation","","","","","","","","","","","",""
"revaluation","291","1080745","0.0-4.0-10.0-0.7","spark_pilot_norest","8615","4","13","Female","","false","","","","","[355.39999997615814]","./assets/img/ocean/animals/seahorse.jpg","[""ArrowLeft""]","second stage test","ocean","0","{""ArrowUp,ArrowLeft"":2,""ArrowUp,ArrowRight"":11,""ArrowDown,ArrowLeft"":8,""ArrowDown,ArrowRight"":27}","false","ArrowDown,ArrowLeft","","revaluation","1","","","",""
"html-keyboard-response","292","1081251","0.0-4.0-10.0-1.7","spark_pilot_norest","8615","4","13","Female","","","","","","","null","<div style=""font-size:60px;"">+</div>","null","fixation","","","","","","","","","","","",""
"learning-instructions","293","1087154","0.0-4.0-0.1-0.2","spark_pilot_norest","8615","4","13","Female","","","","","","","3121.5999999046326","<p> This time you are searching for treasure in the <b>canyon</b>.</p>","","instructions","","","","","","","","","","","",""
"learning-instructions","294","1105116","0.0-4.0-0.1-0.3","spark_pilot_norest","8615","4","13","Female","","","","","","","709.0999999046326","<p><b>New</b> animals with <b>new</b> treasure chests live here. You need to explore to discover where the animal with the best treasure chest is.</p>
                    <p> Like before, once you figure out which animal has the chest with the most treasure, you should try to get to that animal and select that chest! </p>","","instructions","","","","","","","","","","","",""
"learning-instructions","295","1120942","0.0-4.0-1.1-0.1","spark_pilot_norest","8615","4","13","Female","","","","","","","1093.2999999523163","<p> Remember, when you see a picture of the place, use the up and down keys to <b>find an animal</b>.</p>
            <p> When you encounter an animal, you should use the left and right keys to <b>select a treasure chest</b>.</p>
            <p> Don't forget to look out for the robber! </p>","","instructions","","","","","","","","","","","",""
"revaluation","296","1126967","0.0-4.0-2.1-0.50","spark_pilot_norest","8615","4","13","Female","","false","","","","","[837.9000000953674,536.6000000238419]","./assets/img/canyon/memory/16.jpg","[""ArrowUp"",""ArrowRight""]","value training","canyon","10","{""ArrowUp,ArrowLeft"":23,""ArrowUp,ArrowRight"":10,""ArrowDown,ArrowLeft"":8,""ArrowDown,ArrowRight"":30}","false","ArrowUp,ArrowRight","false","original","2","0","","",""
"html-keyboard-response","297","1127473","0.0-4.0-2.1-1.50","spark_pilot_norest","8615","4","13","Female","","","","","","","null","<div style=""font-size:60px;"">+</div>","null","fixation","","","","","","","","","1","","",""
"revaluation","298","1133495","0.0-4.0-2.1-0.51","spark_pilot_norest","8615","4","13","Female","","false","","","","","[661.8999999761581,352.7000000476837]","./assets/img/canyon/memory/20.jpg","[""ArrowUp"",""ArrowLeft""]","value training","canyon","23","{""ArrowUp,ArrowLeft"":23,""ArrowUp,ArrowRight"":10,""ArrowDown,ArrowLeft"":8,""ArrowDown,ArrowRight"":30}","false","ArrowUp,ArrowLeft","false","original","2","2","","",""
"html-keyboard-response","299","1134000","0.0-4.0-2.1-1.51","spark_pilot_norest","8615","4","13","Female","","","","","","","null","<div style=""font-size:60px;"">+</div>","null","fixation","","","","","","","","","3","","",""
"revaluation","300","1140023","0.0-4.0-2.1-0.52","spark_pilot_norest","8615","4","13","Female","","false","","","","","[531.1000000238419,503.10000002384186]","./assets/img/canyon/memory/35.jpg","[""ArrowDown"",""ArrowRight""]","value training","canyon","30","{""ArrowUp,ArrowLeft"":23,""ArrowUp,ArrowRight"":10,""ArrowDown,ArrowLeft"":8,""ArrowDown,ArrowRight"":30}","true","ArrowDown,ArrowRight","false","original","2","4","","",""
"html-keyboard-response","301","1140531","0.0-4.0-2.1-1.52","spark_pilot_norest","8615","4","13","Female","","","","","","","null","<div style=""font-size:60px;"">+</div>","null","fixation","","","","","","","","","5","","",""
"revaluation","302","1146551","0.0-4.0-2.1-0.53","spark_pilot_norest","8615","4","13","Female","","false","","","","","[733.8999999761581,336.7999999523163]","./assets/img/canyon/memory/27.jpg","[""ArrowDown"",""ArrowLeft""]","value training","canyon","8","{""ArrowUp,ArrowLeft"":23,""ArrowUp,ArrowRight"":10,""ArrowDown,ArrowLeft"":8,""ArrowDown,ArrowRight"":30}","false","ArrowDown,ArrowLeft","false","original","2","6","","",""
"html-keyboard-response","303","1147055","0.0-4.0-2.1-1.53","spark_pilot_norest","8615","4","13","Female","","","","","","","null","<div style=""font-size:60px;"">+</div>","null","fixation","","","","","","","","","7","","",""
"revaluation","304","1153083","0.0-4.0-2.1-0.54","spark_pilot_norest","8615","4","13","Female","","false","","","","","[607.4000000953674,404.39999997615814]","./assets/img/canyon/memory/3.jpg","[""ArrowUp"",""ArrowLeft""]","value training","canyon","23","{""ArrowUp,ArrowLeft"":23,""ArrowUp,ArrowRight"":10,""ArrowDown,ArrowLeft"":8,""ArrowDown,ArrowRight"":30}","false","ArrowUp,ArrowLeft","false","original","2","8","","",""
"html-keyboard-response","305","1153594","0.0-4.0-2.1-1.54","spark_pilot_norest","8615","4","13","Female","","","","","","","null","<div style=""font-size:60px;"">+</div>","null","fixation","","","","","","","","","9","","",""
"revaluation","306","1159614","0.0-4.0-2.1-0.55","spark_pilot_norest","8615","4","13","Female","","false","","","","","[862.1999999284744,593.6000000238419]","./assets/img/canyon/memory/15.jpg","[""ArrowDown"",""ArrowRight""]","value training","canyon","30","{""ArrowUp,ArrowLeft"":23,""ArrowUp,ArrowRight"":10,""ArrowDown,ArrowLeft"":8,""ArrowDown,ArrowRight"":30}","true","ArrowDown,ArrowRight","false","original","2","10","","",""
"html-keyboard-response","307","1160122","0.0-4.0-2.1-1.55","spark_pilot_norest","8615","4","13","Female","","","","","","","null","<div style=""font-size:60px;"">+</div>","null","fixation","","","","","","","","","11","","",""
"revaluation","308","1166144","0.0-4.0-2.1-0.56","spark_pilot_norest","8615","4","13","Female","","false","","","","","[770.1000000238419,424.10000002384186]","./assets/img/canyon/memory/18.jpg","[""ArrowDown"",""ArrowRight""]","value training","canyon","30","{""ArrowUp,ArrowLeft"":23,""ArrowUp,ArrowRight"":10,""ArrowDown,ArrowLeft"":8,""ArrowDown,ArrowRight"":30}","true","ArrowDown,ArrowRight","false","original","2","12","","",""
"html-keyboard-response","309","1166655","0.0-4.0-2.1-1.56","spark_pilot_norest","8615","4","13","Female","","","","","","","null","<div style=""font-size:60px;"">+</div>","null","fixation","","","","","","","","","13","","",""
"revaluation","310","1172680","0.0-4.0-2.1-0.57","spark_pilot_norest","8615","4","13","Female","","false","","","","","[605.0999999046326,667.6999999284744]","./assets/img/canyon/memory/18.jpg","[""ArrowDown"",""ArrowRight""]","value training","canyon","30","{""ArrowUp,ArrowLeft"":23,""ArrowUp,ArrowRight"":10,""ArrowDown,ArrowLeft"":8,""ArrowDown,ArrowRight"":30}","true","ArrowDown,ArrowRight","false","original","2","14","","",""
"html-keyboard-response","311","1173191","0.0-4.0-2.1-1.57","spark_pilot_norest","8615","4","13","Female","","","","","","","null","<div style=""font-size:60px;"">+</div>","null","fixation","","","","","","","","","15","","",""
