"trial_type","trial_index","time_elapsed","internal_node_id","task_version","subject_id","assigned_condition","age","gender","success","timeout","failed_images","failed_audio","failed_video","browser_interaction","rt","stimulus","response","task_part","environment","score","rewardMap","correct","fullState","isCatch","condition","order","trial_num","key_press","ground_truth","bonus"
"pavlovia","0","2161","0.0-0.0","spark_pilot_norest","9112","7","9","Male","","","","","","","","","","","","","","","","","","","","","",""
"preload","1","19291","0.0-1.0","spark_pilot_norest","9112","7","9","Male","true","false","[]","[]","[]","[{""event"":""blur"",""trial"":2,""time"":23353},{""event"":""focus"",""trial"":2,""time"":36348},{""event"":""fullscreenenter"",""trial"":2,""time"":37571},{""event"":""blur"",""trial"":564,""time"":2067322},{""event"":""focus"",""trial"":564,""time"":2070094}]","","","","","","","","","","","","","","","",""
"fullscreen","2","38529","0.0-2.0","spark_pilot_norest","9112","7","9","Male","true","","","","","","","","","","","","","","","","","","","","",""
"audio-button-response","3","41505","0.0-3.0-0.0-0.0","spark_pilot_norest","9112","7","9","Male","","","","","","","2501","./assets/audio/audiotest/turtle.mp3","2","audio_test","","","","","","","","","","","",""
"learning-instructions","4","51820","0.0-3.0-1.0-0.0","spark_pilot_norest","9112","7","9","Male","","","","","","","3315.3999996185303","<p> Welcome! Please remember to stay in fullscreen mode and don't click away from the experiment. </p>","","instructions","","","","","","","","","","","",""
"learning-instructions","5","62214","0.0-3.0-1.0-0.1","spark_pilot_norest","9112","7","9","Male","","","","","","","1951","<p> Today you will be playing a game to earn treasure. </p>
            <p> At the end of the experiment, you will earn a bonus based on how much treasure you find. </p>
            <img src='./assets/img/instructions/treasure.jpg' class='instructions-image'>","","instructions","","","","","","","","","","","",""
"learning-instructions","6","72528","0.0-3.0-1.0-0.2","spark_pilot_norest","9112","7","9","Male","","","","","","","2044","<p> Animals have hidden treasure in treasure chests. </p>
            <p> You need to first find an animal and then choose which of their treasure chests to search. </p>
            <img src='./assets/img/space/animals/cat.jpg' class='instructions-image'>","","instructions","","","","","","","","","","","",""
"learning-instructions","7","90557","0.0-3.0-1.0-0.3","spark_pilot_norest","9112","7","9","Male","","","","","","","4822.300000190735","<p> In each round, you will search for treasure in a different place. In the real game, there will be two rounds. </p>
            <p> You will begin with a separate, practice round where you will search for treasure in outer space. </p>
            <img src='./assets/img/space/0.jpg' class='instructions-image'>","","instructions","","","","","","","","","","","",""
"learning-instructions","8","106355","0.0-3.0-1.0-0.4","spark_pilot_norest","9112","7","9","Male","","","","","","","4342.200000762939","<p> On every turn, you will see a picture of the place that you are in, but the specific image may be different each time. </p>
            <p> For example, both of these images mean you are in outer space. </p>
            <img src='./assets/img/instructions/outerspace.jpg' class='instructions-image'>","","instructions","","","","","","","","","","","",""
"learning-instructions","9","116277","0.0-3.0-1.0-0.5","spark_pilot_norest","9112","7","9","Male","","","","","","","2082.800000190735","<p> You need to decide which direction to travel in. </p>
            <p> You can choose between going <b>up or down</b> by using the arrow keys. </p>
            <img src='./assets/img/instructions/updown.jpg' class='instructions-image'>","","instructions","","","","","","","","","","","",""
"learning-instructions","10","128370","0.0-3.0-1.0-0.6","spark_pilot_norest","9112","7","9","Male","","","","","","","3235.800000190735","<p> You will have <b>2 seconds</b> to make your choice. </p>
            <p> If you do not make a choice within 2 seconds, you will not find an animal or earn treasure. </p>
            <img src='./assets/img/instructions/2seconds.jpg' class='instructions-image'>","","instructions","","","","","","","","","","","",""
"learning-instructions","11","138195","0.0-3.0-1.0-0.7","spark_pilot_norest","9112","7","9","Male","","","","","","","2771.2999992370605","<p> Let’s try practicing that now! </p>
            <p> When you see a picture of the place you are in, press the <b>up</b> key to travel up. </p>
            <img src='./assets/img/instructions/pressUp.jpg' class='instructions-image'>","","instructions","","","","","","","","","","","",""
"revaluation","12","142247","0.0-3.0-2.0-0.0","spark_pilot_norest","9112","7","9","Male","","true","","","","","[]","./assets/img/space/0.jpg","[]","first stage practice","space","-5","null","null","","false","","","","","",""
"html-keyboard-response","13","142752","0.0-3.0-2.0-1.0","spark_pilot_norest","9112","7","9","Male","","","","","","","null","<div style=""font-size:60px;"">+</div>","null","fixation","","","","","","","","","","","",""
"revaluation","14","146782","0.0-3.0-2.0-0.1","spark_pilot_norest","9112","7","9","Male","","true","","","","","[]","./assets/img/space/1.jpg","[]","first stage practice","space","-5","null","null","","false","","","","","",""
"html-keyboard-response","15","147287","0.0-3.0-2.0-1.1","spark_pilot_norest","9112","7","9","Male","","","","","","","null","<div style=""font-size:60px;"">+</div>","null","fixation","","","","","","","","","","","",""
"revaluation","16","151305","0.0-3.0-2.0-0.2","spark_pilot_norest","9112","7","9","Male","","true","","","","","[]","./assets/img/space/2.jpg","[]","first stage practice","space","-5","null","null","","false","","","","","",""
"html-keyboard-response","17","151821","0.0-3.0-2.0-1.2","spark_pilot_norest","9112","7","9","Male","","","","","","","null","<div style=""font-size:60px;"">+</div>","null","fixation","","","","","","","","","","","",""
"learning-instructions","18","162107","0.0-3.0-3.0-0.0","spark_pilot_norest","9112","7","9","Male","","","","","","","5573.700000762939","<p> Great job! Now try pressing the <b>down</b> key to travel down. </p>
            <img src='./assets/img/instructions/pressDown.jpg' class='instructions-image'>","","instructions","","","","","","","","","","","",""
"revaluation","19","166118","0.0-3.0-4.0-0.0","spark_pilot_norest","9112","7","9","Male","","false","","","","","[1142.6000003814697]","./assets/img/space/3.jpg","[""ArrowDown""]","first stage practice","space","0","null","null","ArrowDown","false","","","","","",""
"html-keyboard-response","20","166641","0.0-3.0-4.0-1.0","spark_pilot_norest","9112","7","9","Male","","","","","","","null","<div style=""font-size:60px;"">+</div>","null","fixation","","","","","","","","","","","",""
"revaluation","21","170653","0.0-3.0-4.0-0.1","spark_pilot_norest","9112","7","9","Male","","false","","","","","[1012.5]","./assets/img/space/4.jpg","[""ArrowDown""]","first stage practice","space","0","null","null","ArrowDown","false","","","","","",""
"html-keyboard-response","22","171156","0.0-3.0-4.0-1.1","spark_pilot_norest","9112","7","9","Male","","","","","","","null","<div style=""font-size:60px;"">+</div>","null","fixation","","","","","","","","","","","",""
"revaluation","23","175172","0.0-3.0-4.0-0.2","spark_pilot_norest","9112","7","9","Male","","true","","","","","[]","./assets/img/space/5.jpg","[]","first stage practice","space","-5","null","null","","false","","","","","",""
"html-keyboard-response","24","175688","0.0-3.0-4.0-1.2","spark_pilot_norest","9112","7","9","Male","","","","","","","null","<div style=""font-size:60px;"">+</div>","null","fixation","","","","","","","","","","","",""
"learning-instructions","25","189576","0.0-3.0-5.0-0.0","spark_pilot_norest","9112","7","9","Male","","","","","","","3953","<p> The animals don’t move, so the animal in the upper part of a place will stay in the upper part of a place, and the animal in the lower part of a place will stay in the lower part of a place. </p>","","instructions","","","","","","","","","","","",""
"learning-instructions","26","204826","0.0-3.0-5.0-0.1","spark_pilot_norest","9112","7","9","Male","","","","","","","6082.800000190735","<p> Each animal has two treasure chests for you to choose from. </p>
            <p> The amount of treasure in each chest can range from <b> 0 to 40 pieces.</b></p>","","instructions","","","","","","","","","","","",""
"learning-instructions","27","217203","0.0-3.0-5.0-0.2","spark_pilot_norest","9112","7","9","Male","","","","","","","1160.5","<p> You should decide which chest to search for treasure by using the <b>left</b> and <b>right</b> arrow keys. </p>
            <p><b> Pay attention to which animal is on the screen, as the animals have different treasure chests. </b></p>
            <img src='./assets/img/instructions/leftright.jpg' class='instructions-image'>","","instructions","","","","","","","","","","","",""
"learning-instructions","28","225095","0.0-3.0-5.0-0.3","spark_pilot_norest","9112","7","9","Male","","","","","","","1241.5999994277954","<p> Let’s try practicing that now. </p>
            <p> When you see an animal, choose which chest to search for treasure. </p>
            <img src='./assets/img/instructions/chooseChest.jpg' class='instructions-image'>","","instructions","","","","","","","","","","","",""
"revaluation","29","229124","0.0-3.0-6.0-0.0","spark_pilot_norest","9112","7","9","Male","","false","","","","","[633.5]","./assets/img/space/animals/cat.jpg","[""ArrowLeft""]","second stage practice","space","3","{""ArrowUp,ArrowLeft"":3,""ArrowUp,ArrowRight"":36,""ArrowDown,ArrowLeft"":15,""ArrowDown,ArrowRight"":23}","false","ArrowUp,ArrowLeft","","","","","","",""
"html-keyboard-response","30","229641","0.0-3.0-6.0-1.0","spark_pilot_norest","9112","7","9","Male","","","","","","","null","<div style=""font-size:60px;"">+</div>","null","fixation","","","","","","","","","","","",""
"revaluation","31","233656","0.0-3.0-6.0-0.1","spark_pilot_norest","9112","7","9","Male","","false","","","","","[800.6999998092651]","./assets/img/space/animals/rabbit.jpg","[""ArrowRight""]","second stage practice","space","23","{""ArrowUp,ArrowLeft"":3,""ArrowUp,ArrowRight"":36,""ArrowDown,ArrowLeft"":15,""ArrowDown,ArrowRight"":23}","true","ArrowDown,ArrowRight","","","","","","",""
"html-keyboard-response","32","234161","0.0-3.0-6.0-1.1","spark_pilot_norest","9112","7","9","Male","","","","","","","null","<div style=""font-size:60px;"">+</div>","null","fixation","","","","","","","","","","","",""
"revaluation","33","238201","0.0-3.0-6.0-0.2","spark_pilot_norest","9112","7","9","Male","","false","","","","","[501.9000005722046]","./assets/img/space/animals/rabbit.jpg","[""ArrowRight""]","second stage practice","space","23","{""ArrowUp,ArrowLeft"":3,""ArrowUp,ArrowRight"":36,""ArrowDown,ArrowLeft"":15,""ArrowDown,ArrowRight"":23}","true","ArrowDown,ArrowRight","","","","","","",""
"html-keyboard-response","34","238708","0.0-3.0-6.0-1.2","spark_pilot_norest","9112","7","9","Male","","","","","","","null","<div style=""font-size:60px;"">+</div>","null","fixation","","","","","","","","","","","",""
"revaluation","35","242740","0.0-3.0-6.0-0.3","spark_pilot_norest","9112","7","9","Male","","false","","","","","[478.30000019073486]","./assets/img/space/animals/cat.jpg","[""ArrowLeft""]","second stage practice","space","3","{""ArrowUp,ArrowLeft"":3,""ArrowUp,ArrowRight"":36,""ArrowDown,ArrowLeft"":15,""ArrowDown,ArrowRight"":23}","false","ArrowUp,ArrowLeft","","","","","","",""
"html-keyboard-response","36","243246","0.0-3.0-6.0-1.3","spark_pilot_norest","9112","7","9","Male","","","","","","","null","<div style=""font-size:60px;"">+</div>","null","fixation","","","","","","","","","","","",""
"learning-instructions","37","262112","0.0-3.0-7.0-0.0","spark_pilot_norest","9112","7","9","Male","","","","","","","2019.6999998092651","<p> Great job. Now let’s try putting it together. </p>
            <p> On each turn, you will first see a picture to remind you of the place you are in, and you need to choose whether to go up or down. </p>
            <p> Then you will see an animal and choose which of its chests to search for treasure. </p>","","instructions","","","","","","","","","","","",""
"learning-instructions","38","280082","0.0-3.0-7.0-0.1","spark_pilot_norest","9112","7","9","Male","","","","","","","9679.400000572205","<p> When you choose whether to go up or down, try to go to the animal with the chest with the most treasure. </p>
            <p> Try practicing that now! </p>","","instructions","","","","","","","","","","","",""
"revaluation","39","286096","0.0-3.0-8.0-0.0","spark_pilot_norest","9112","7","9","Male","","false","","","","","[660.5,1012.5]","./assets/img/space/6.jpg","[""ArrowUp"",""ArrowLeft""]","full practice","space","3","{""ArrowUp,ArrowLeft"":3,""ArrowUp,ArrowRight"":36,""ArrowDown,ArrowLeft"":15,""ArrowDown,ArrowRight"":23}","false","ArrowUp,ArrowLeft","false","","","","","",""
"html-keyboard-response","40","286610","0.0-3.0-8.0-1.0","spark_pilot_norest","9112","7","9","Male","","","","","","","null","<div style=""font-size:60px;"">+</div>","null","fixation","","","","","","","","","","","",""
"revaluation","41","292651","0.0-3.0-8.0-0.1","spark_pilot_norest","9112","7","9","Male","","false","","","","","[1791.1999998092651,951.1000003814697]","./assets/img/space/7.jpg","[""ArrowDown"",""ArrowRight""]","full practice","space","23","{""ArrowUp,ArrowLeft"":3,""ArrowUp,ArrowRight"":36,""ArrowDown,ArrowLeft"":15,""ArrowDown,ArrowRight"":23}","false","ArrowDown,ArrowRight","false","","","","","",""
"html-keyboard-response","42","293165","0.0-3.0-8.0-1.1","spark_pilot_norest","9112","7","9","Male","","","","","","","null","<div style=""font-size:60px;"">+</div>","null","fixation","","","","","","","","","","","",""
"revaluation","43","299191","0.0-3.0-8.0-0.2","spark_pilot_norest","9112","7","9","Male","","false","","","","","[1299.4000005722046,691]","./assets/img/space/8.jpg","[""ArrowDown"",""ArrowRight""]","full practice","space","23","{""ArrowUp,ArrowLeft"":3,""ArrowUp,ArrowRight"":36,""ArrowDown,ArrowLeft"":15,""ArrowDown,ArrowRight"":23}","false","ArrowDown,ArrowRight","false","","","","","",""
"html-keyboard-response","44","299699","0.0-3.0-8.0-1.2","spark_pilot_norest","9112","7","9","Male","","","","","","","null","<div style=""font-size:60px;"">+</div>","null","fixation","","","","","","","","","","","",""
"revaluation","45","303710","0.0-3.0-8.0-0.3","spark_pilot_norest","9112","7","9","Male","","true","","","","","[]","./assets/img/space/9.jpg","[]","full practice","space","-5","{""ArrowUp,ArrowLeft"":3,""ArrowUp,ArrowRight"":36,""ArrowDown,ArrowLeft"":15,""ArrowDown,ArrowRight"":23}","false","","false","","","","","",""
"html-keyboard-response","46","304214","0.0-3.0-8.0-1.3","spark_pilot_norest","9112","7","9","Male","","","","","","","null","<div style=""font-size:60px;"">+</div>","null","fixation","","","","","","","","","","","",""
"revaluation","47","310237","0.0-3.0-8.0-0.4","spark_pilot_norest","9112","7","9","Male","","false","","","","","[1022.3000001907349,656.9000005722046]","./assets/img/space/10.jpg","[""ArrowDown"",""ArrowRight""]","full practice","space","23","{""ArrowUp,ArrowLeft"":3,""ArrowUp,ArrowRight"":36,""ArrowDown,ArrowLeft"":15,""ArrowDown,ArrowRight"":23}","false","ArrowDown,ArrowRight","false","","","","","",""
"html-keyboard-response","48","310745","0.0-3.0-8.0-1.4","spark_pilot_norest","9112","7","9","Male","","","","","","","null","<div style=""font-size:60px;"">+</div>","null","fixation","","","","","","","","","","","",""
"learning-instructions","49","323305","0.0-3.0-9.0-0.0","spark_pilot_norest","9112","7","9","Male","","","","","","","1832.8000001907349","<p> One last thing: sometimes, you will see a robber. The robber can be anywhere in the picture. </p>
            <p> If you do not stop them, you will lose treasure. </p>
            <img src='./assets/img/instructions/robber.jpg' class='instructions-image'>","","instructions","","","","","","","","","","","",""
"learning-instructions","50","344506","0.0-3.0-9.0-0.1","spark_pilot_norest","9112","7","9","Male","","","","","","","13993.5","<p> If you see the robber, you should <b>press the space bar</b> rather than using the arrow keys. </p>
            <p> Try practicing that now! </p>","","instructions","","","","","","","","","","","",""
"revaluation","51","348528","0.0-3.0-10.0-0.0","spark_pilot_norest","9112","7","9","Male","","false","","","","","[1896.9000005722046]","./assets/img/space/catch/0.jpg","[""ArrowDown""]","catch practice","space","-10","{""ArrowUp,ArrowLeft"":3,""ArrowUp,ArrowRight"":36,""ArrowDown,ArrowLeft"":15,""ArrowDown,ArrowRight"":23}","false","ArrowDown","true","","","","","",""
"html-keyboard-response","52","349030","0.0-3.0-10.0-1.0","spark_pilot_norest","9112","7","9","Male","","","","","","","null","<div style=""font-size:60px;"">+</div>","null","fixation","","","","","","","","","","","",""
"revaluation","53","353045","0.0-3.0-10.0-0.1","spark_pilot_norest","9112","7","9","Male","","true","","","","","[]","./assets/img/space/catch/1.jpg","[]","catch practice","space","-5","{""ArrowUp,ArrowLeft"":3,""ArrowUp,ArrowRight"":36,""ArrowDown,ArrowLeft"":15,""ArrowDown,ArrowRight"":23}","false","","true","","","","","",""
"html-keyboard-response","54","353558","0.0-3.0-10.0-1.1","spark_pilot_norest","9112","7","9","Male","","","","","","","null","<div style=""font-size:60px;"">+</div>","null","fixation","","","","","","","","","","","",""
"revaluation","55","357581","0.0-3.0-10.0-0.2","spark_pilot_norest","9112","7","9","Male","","false","","","","","[707.3000001907349]","./assets/img/space/catch/2.jpg","[""spaceBar""]","catch practice","space","0","{""ArrowUp,ArrowLeft"":3,""ArrowUp,ArrowRight"":36,""ArrowDown,ArrowLeft"":15,""ArrowDown,ArrowRight"":23}","true","spaceBar","true","","","","","",""
"html-keyboard-response","56","358092","0.0-3.0-10.0-1.2","spark_pilot_norest","9112","7","9","Male","","","","","","","null","<div style=""font-size:60px;"">+</div>","null","fixation","","","","","","","","","","","",""
"learning-instructions","57","367783","0.0-3.0-11.0-0.0-0.0","spark_pilot_norest","9112","7","9","Male","","","","","","","4400","<p> Now, you will practice a shortened version of the game to get a sense of how it all fits together. </p>","","instructions","","","","","","","","","","","",""
"learning-instructions","58","372751","0.0-3.0-11.0-0.0-0.1","spark_pilot_norest","9112","7","9","Male","","","","","","","1748.3999996185303","<p>This time you are searching for treasure in outer space.</p>","","instructions","","","","","","","","","","","",""
"learning-instructions","59","388981","0.0-3.0-11.0-1.0-0.0","spark_pilot_norest","9112","7","9","Male","","","","","","","1398.3000001907349","<p> Remember, when you see a picture of the place, use the up and down keys to <b>find an animal</b>.</p>
            <p> When you encounter an animal, you should use the left and right keys to <b>select a treasure chest</b>.</p>
            <p> Don't forget to look out for the robber! </p>","","instructions","","","","","","","","","","","",""
"revaluation","60","395021","0.0-3.0-11.0-2.0-0.0","spark_pilot_norest","9112","7","9","Male","","false","","","","","[1237.1999998092651,904.0999994277954]","./assets/img/space/11.jpg","[""ArrowDown"",""ArrowLeft""]","practice block","space","15","{""ArrowUp,ArrowLeft"":3,""ArrowUp,ArrowRight"":36,""ArrowDown,ArrowLeft"":15,""ArrowDown,ArrowRight"":23}","false","ArrowDown,ArrowLeft","false","","","","","",""
"html-keyboard-response","61","395531","0.0-3.0-11.0-2.0-1.0","spark_pilot_norest","9112","7","9","Male","","","","","","","null","<div style=""font-size:60px;"">+</div>","null","fixation","","","","","","","","","","","",""
"revaluation","62","401561","0.0-3.0-11.0-2.0-0.1","spark_pilot_norest","9112","7","9","Male","","false","","","","","[1458.5,643.6000003814697]","./assets/img/space/12.jpg","[""ArrowDown"",""ArrowRight""]","practice block","space","23","{""ArrowUp,ArrowLeft"":3,""ArrowUp,ArrowRight"":36,""ArrowDown,ArrowLeft"":15,""ArrowDown,ArrowRight"":23}","false","ArrowDown,ArrowRight","false","","","","","",""
"html-keyboard-response","63","402081","0.0-3.0-11.0-2.0-1.1","spark_pilot_norest","9112","7","9","Male","","","","","","","null","<div style=""font-size:60px;"">+</div>","null","fixation","","","","","","","","","","","",""
"revaluation","64","408126","0.0-3.0-11.0-2.0-0.2","spark_pilot_norest","9112","7","9","Male","","false","","","","","[861.3999996185303,694.8000001907349]","./assets/img/space/13.jpg","[""ArrowDown"",""ArrowRight""]","practice block","space","23","{""ArrowUp,ArrowLeft"":3,""ArrowUp,ArrowRight"":36,""ArrowDown,ArrowLeft"":15,""ArrowDown,ArrowRight"":23}","false","ArrowDown,ArrowRight","false","","","","","",""
"html-keyboard-response","65","408636","0.0-3.0-11.0-2.0-1.2","spark_pilot_norest","9112","7","9","Male","","","","","","","null","<div style=""font-size:60px;"">+</div>","null","fixation","","","","","","","","","","","",""
"revaluation","66","414676","0.0-3.0-11.0-2.0-0.3","spark_pilot_norest","9112","7","9","Male","","false","","","","","[787.3999996185303,788.3000001907349]","./assets/img/space/14.jpg","[""ArrowDown"",""ArrowRight""]","practice block","space","23","{""ArrowUp,ArrowLeft"":3,""ArrowUp,ArrowRight"":36,""ArrowDown,ArrowLeft"":15,""ArrowDown,ArrowRight"":23}","false","ArrowDown,ArrowRight","false","","","","","",""
"html-keyboard-response","67","415179","0.0-3.0-11.0-2.0-1.3","spark_pilot_norest","9112","7","9","Male","","","","","","","null","<div style=""font-size:60px;"">+</div>","null","fixation","","","","","","","","","","","",""
"revaluation","68","421209","0.0-3.0-11.0-2.0-0.4","spark_pilot_norest","9112","7","9","Male","","false","","","","","[1483,1082.1000003814697]","./assets/img/space/11.jpg","[""ArrowUp"",""ArrowLeft""]","practice block","space","3","{""ArrowUp,ArrowLeft"":3,""ArrowUp,ArrowRight"":36,""ArrowDown,ArrowLeft"":15,""ArrowDown,ArrowRight"":23}","false","ArrowUp,ArrowLeft","false","","","","","",""
"html-keyboard-response","69","421712","0.0-3.0-11.0-2.0-1.4","spark_pilot_norest","9112","7","9","Male","","","","","","","null","<div style=""font-size:60px;"">+</div>","null","fixation","","","","","","","","","","","",""
"revaluation","70","427733","0.0-3.0-11.0-2.0-0.5","spark_pilot_norest","9112","7","9","Male","","false","","","","","[701.4000005722046,719.5999994277954]","./assets/img/space/12.jpg","[""ArrowDown"",""ArrowRight""]","practice block","space","23","{""ArrowUp,ArrowLeft"":3,""ArrowUp,ArrowRight"":36,""ArrowDown,ArrowLeft"":15,""ArrowDown,ArrowRight"":23}","false","ArrowDown,ArrowRight","false","","","","","",""
"html-keyboard-response","71","428245","0.0-3.0-11.0-2.0-1.5","spark_pilot_norest","9112","7","9","Male","","","","","","","null","<div style=""font-size:60px;"">+</div>","null","fixation","","","","","","","","","","","",""
"revaluation","72","434280","0.0-3.0-11.0-2.0-0.6","spark_pilot_norest","9112","7","9","Male","","false","","","","","[1164.3000001907349,751.3000001907349]","./assets/img/space/13.jpg","[""ArrowDown"",""ArrowRight""]","practice block","space","23","{""ArrowUp,ArrowLeft"":3,""ArrowUp,ArrowRight"":36,""ArrowDown,ArrowLeft"":15,""ArrowDown,ArrowRight"":23}","false","ArrowDown,ArrowRight","false","","","","","",""
"html-keyboard-response","73","434782","0.0-3.0-11.0-2.0-1.6","spark_pilot_norest","9112","7","9","Male","","","","","","","null","<div style=""font-size:60px;"">+</div>","null","fixation","","","","","","","","","","","",""
"revaluation","74","440811","0.0-3.0-11.0-2.0-0.7","spark_pilot_norest","9112","7","9","Male","","false","","","","","[767.2000007629395,822.6999998092651]","./assets/img/space/14.jpg","[""ArrowDown"",""ArrowLeft""]","practice block","space","15","{""ArrowUp,ArrowLeft"":3,""ArrowUp,ArrowRight"":36,""ArrowDown,ArrowLeft"":15,""ArrowDown,ArrowRight"":23}","false","ArrowDown,ArrowLeft","false","","","","","",""
"html-keyboard-response","75","441314","0.0-3.0-11.0-2.0-1.7","spark_pilot_norest","9112","7","9","Male","","","","","","","null","<div style=""font-size:60px;"">+</div>","null","fixation","","","","","","","","","","","",""
"revaluation","76","445325","0.0-3.0-11.0-2.0-0.8","spark_pilot_norest","9112","7","9","Male","","false","","","","","[835.0999994277954]","./assets/img/space/catch/3.jpg","[""spaceBar""]","practice block","space","0","{""ArrowUp,ArrowLeft"":3,""ArrowUp,ArrowRight"":36,""ArrowDown,ArrowLeft"":15,""ArrowDown,ArrowRight"":23}","true","spaceBar","true","","","","","",""
"html-keyboard-response","77","445831","0.0-3.0-11.0-2.0-1.8","spark_pilot_norest","9112","7","9","Male","","","","","","","null","<div style=""font-size:60px;"">+</div>","null","fixation","","","","","","","","","","","",""
"learning-instructions","78","460188","0.0-3.0-11.0-3.0-0.0","spark_pilot_norest","9112","7","9","Male","","","","","","","838.5","<p> Now, you will travel with a friend who will choose whether you go up or down first. </p>
            <p> On these turns, you will just see the animal that they found. You will still get to choose which chest to search for treasure.</p>","","instructions","","","","","","","","","","","",""
"revaluation","79","464207","0.0-3.0-11.0-4.0-0.0","spark_pilot_norest","9112","7","9","Male","","false","","","","","[1306.6999998092651]","./assets/img/space/animals/cat.jpg","[""ArrowRight""]","practice block","space","36","{""ArrowUp,ArrowLeft"":3,""ArrowUp,ArrowRight"":36,""ArrowDown,ArrowLeft"":15,""ArrowDown,ArrowRight"":23}","true","ArrowUp,ArrowRight","","","","","","",""
"html-keyboard-response","80","464713","0.0-3.0-11.0-4.0-1.0","spark_pilot_norest","9112","7","9","Male","","","","","","","null","<div style=""font-size:60px;"">+</div>","null","fixation","","","","","","","","","","","",""
"revaluation","81","468736","0.0-3.0-11.0-4.0-0.1","spark_pilot_norest","9112","7","9","Male","","false","","","","","[669.8000001907349]","./assets/img/space/animals/rabbit.jpg","[""ArrowRight""]","practice block","space","23","{""ArrowUp,ArrowLeft"":3,""ArrowUp,ArrowRight"":36,""ArrowDown,ArrowLeft"":15,""ArrowDown,ArrowRight"":23}","true","ArrowDown,ArrowRight","","","","","","",""
"html-keyboard-response","82","469241","0.0-3.0-11.0-4.0-1.1","spark_pilot_norest","9112","7","9","Male","","","","","","","null","<div style=""font-size:60px;"">+</div>","null","fixation","","","","","","","","","","","",""
"revaluation","83","473262","0.0-3.0-11.0-4.0-0.2","spark_pilot_norest","9112","7","9","Male","","false","","","","","[1298]","./assets/img/space/animals/cat.jpg","[""ArrowLeft""]","practice block","space","3","{""ArrowUp,ArrowLeft"":3,""ArrowUp,ArrowRight"":36,""ArrowDown,ArrowLeft"":15,""ArrowDown,ArrowRight"":23}","false","ArrowUp,ArrowLeft","","","","","","",""
"html-keyboard-response","84","473764","0.0-3.0-11.0-4.0-1.2","spark_pilot_norest","9112","7","9","Male","","","","","","","null","<div style=""font-size:60px;"">+</div>","null","fixation","","","","","","","","","","","",""
"revaluation","85","477778","0.0-3.0-11.0-4.0-0.3","spark_pilot_norest","9112","7","9","Male","","false","","","","","[614.1000003814697]","./assets/img/space/animals/rabbit.jpg","[""ArrowRight""]","practice block","space","23","{""ArrowUp,ArrowLeft"":3,""ArrowUp,ArrowRight"":36,""ArrowDown,ArrowLeft"":15,""ArrowDown,ArrowRight"":23}","true","ArrowDown,ArrowRight","","","","","","",""
"html-keyboard-response","86","478287","0.0-3.0-11.0-4.0-1.3","spark_pilot_norest","9112","7","9","Male","","","","","","","null","<div style=""font-size:60px;"">+</div>","null","fixation","","","","","","","","","","","",""
"learning-instructions","87","486445","0.0-3.0-11.0-5.0-0.0","spark_pilot_norest","9112","7","9","Male","","","","","","","null","<p> You have almost finished this part of the game! </p>
            <p> We are going to ask you to make a few more choices. </p>","","instructions","","","","","","","","","","","",""
"learning-instructions","88","502487","0.0-3.0-11.0-5.0-0.1","spark_pilot_norest","9112","7","9","Male","","","","","","","null","<p> First, you need to decide whether to go up or down. When you see each picture, use the arrow keys to make your choice. </p>
            <p><b>You will not see which animal you found, but try to get to the one that will give you the most treasure.</b></p>","","instructions","","","","","","","","","","","",""
"html-keyboard-response","89","503492","0.0-3.0-11.0-6.0-0.0","spark_pilot_norest","9112","7","9","Male","","","","","","","null","<div style=""font-size:100px;color:red;"">Starting in...</div>","null","","","","","","","","","","","","",""
"html-keyboard-response","90","504507","0.0-3.0-11.0-6.0-1.0","spark_pilot_norest","9112","7","9","Male","","","","","","","null","<div style=""font-size:200px;color:red;"">3</div>","null","","","","","","","","","","","","",""
"html-keyboard-response","91","505513","0.0-3.0-11.0-6.0-2.0","spark_pilot_norest","9112","7","9","Male","","","","","","","null","<div style=""font-size:200px;color:red;"">2</div>","null","","","","","","","","","","","","",""
"html-keyboard-response","92","506517","0.0-3.0-11.0-6.0-3.0","spark_pilot_norest","9112","7","9","Male","","","","","","","null","<div style=""font-size:200px;color:red;"">1</div>","null","","","","","","","","","","","","",""
"revaluation","93","508138","0.0-3.0-11.0-7.0","spark_pilot_norest","9112","7","9","Male","","false","","","","","[1617.6000003814697]","./assets/img/space/15.jpg","[""ArrowDown""]","practice block","space","0","{""ArrowUp,ArrowLeft"":3,""ArrowUp,ArrowRight"":36,""ArrowDown,ArrowLeft"":15,""ArrowDown,ArrowRight"":23}","false","ArrowDown","false","","","","","",""
"html-keyboard-response","94","508657","0.0-3.0-11.0-8.0","spark_pilot_norest","9112","7","9","Male","","","","","","","null","<div style=""font-size:60px;"">+</div>","null","fixation","","","","","","","","","","","",""
"learning-instructions","95","522067","0.0-3.0-11.0-9.0-0.0","spark_pilot_norest","9112","7","9","Male","","","","","","","null","<p> Now you will see the animals again and can search their chests for treasure. </p>
            <p> This time, you will not see how much treasure you earned, but you will earn more bonus money for making better choices. </p>","","instructions","","","","","","","","","","","",""
"html-keyboard-response","96","523073","0.0-3.0-11.0-10.0-0.0","spark_pilot_norest","9112","7","9","Male","","","","","","","null","<div style=""font-size:100px;color:red;"">Starting in...</div>","null","","","","","","","","","","","","",""
"html-keyboard-response","97","524087","0.0-3.0-11.0-10.0-1.0","spark_pilot_norest","9112","7","9","Male","","","","","","","null","<div style=""font-size:200px;color:red;"">3</div>","null","","","","","","","","","","","","",""
"html-keyboard-response","98","525096","0.0-3.0-11.0-10.0-2.0","spark_pilot_norest","9112","7","9","Male","","","","","","","null","<div style=""font-size:200px;color:red;"">2</div>","null","","","","","","","","","","","","",""
"html-keyboard-response","99","526108","0.0-3.0-11.0-10.0-3.0","spark_pilot_norest","9112","7","9","Male","","","","","","","null","<div style=""font-size:200px;color:red;"">1</div>","null","","","","","","","","","","","","",""
"revaluation","100","526916","0.0-3.0-11.0-11.0-0.0","spark_pilot_norest","9112","7","9","Male","","false","","","","","[804.6000003814697]","./assets/img/space/animals/cat.jpg","[""ArrowRight""]","practice block","space","0","{""ArrowUp,ArrowLeft"":3,""ArrowUp,ArrowRight"":36,""ArrowDown,ArrowLeft"":15,""ArrowDown,ArrowRight"":23}","true","ArrowUp,ArrowRight","","","","","","",""
"html-keyboard-response","101","527437","0.0-3.0-11.0-11.0-1.0","spark_pilot_norest","9112","7","9","Male","","","","","","","null","<div style=""font-size:60px;"">+</div>","null","fixation","","","","","","","","","","","",""
"revaluation","102","528340","0.0-3.0-11.0-11.0-0.1","spark_pilot_norest","9112","7","9","Male","","false","","","","","[900.7999992370605]","./assets/img/space/animals/rabbit.jpg","[""ArrowRight""]","practice block","space","0","{""ArrowUp,ArrowLeft"":3,""ArrowUp,ArrowRight"":36,""ArrowDown,ArrowLeft"":15,""ArrowDown,ArrowRight"":23}","true","ArrowDown,ArrowRight","","","","","","",""
"html-keyboard-response","103","528852","0.0-3.0-11.0-11.0-1.1","spark_pilot_norest","9112","7","9","Male","","","","","","","null","<div style=""font-size:60px;"">+</div>","null","fixation","","","","","","","","","","","",""
"learning-instructions","104","538197","0.0-3.0-12.0-0.0","spark_pilot_norest","9112","7","9","Male","","","","","","","4758.300000190735","<p> Before you start, we're going to ask you a few questions about how the game works. </p>","","instructions","","","","","","","","","","","",""
"comp-q","105","547747","0.0-3.0-13.0-0.0-0.0","spark_pilot_norest","9112","7","9","Male","","","","","","","3938.8999996185303","<p> <b> True or False? </b> </p>
            <p> There can be 50 pieces of treasure in a given animal's chest. </p>","0","comp_question","","","","false","","","","","","","",""
"comp-q","106","555736","0.0-3.0-13.0-0.0-1.0","spark_pilot_norest","9112","7","9","Male","","","","","","","1447.4000005722046","<p> <b>Incorrect.</b> The amount of treasure in each chest can range from 0 to 40 pieces. </p>","0","comp_answer","","","","","","","","","","","",""
"comp-q","107","562994","0.0-3.0-13.0-0.1-0.1","spark_pilot_norest","9112","7","9","Male","","","","","","","1695.5","<p> <b> True or False? </b> </p>
            <p> There can be 50 pieces of treasure in a given animal's chest. </p>","1","comp_question","","","","true","","","","","","","",""
"comp-q","108","571021","0.0-3.0-13.0-0.1-1.1","spark_pilot_norest","9112","7","9","Male","","","","","","","1362.1000003814697","<p> <b> That's right! </b> The amount of treasure in each chest can range from 0 to 40 pieces. </p>","0","comp_answer","","","","","","","","","","","",""
"comp-q","109","579969","0.0-3.0-13.0-0.2-0.2","spark_pilot_norest","9112","7","9","Male","","","","","","","1810.8000001907349","<p> <b> True or False? </b> </p><p> In this game, all animals have the same amount of treasure in their left and right chests. </p>","0","comp_question","","","","false","","","","","","","",""
"comp-q","110","586189","0.0-3.0-13.0-0.2-1.2","spark_pilot_norest","9112","7","9","Male","","","","","","","1109.7999992370605","<p> <b>Incorrect.</b> Animals have different amounts of treasure in their treasure chests. </p>","0","comp_answer","","","","","","","","","","","",""
"comp-q","111","594878","0.0-3.0-13.0-0.3-0.3","spark_pilot_norest","9112","7","9","Male","","","","","","","1598.6000003814697","<p> <b> True or False? </b> </p><p> In this game, all animals have the same amount of treasure in their left and right chests. </p>","1","comp_question","","","","true","","","","","","","",""
"comp-q","112","603218","0.0-3.0-13.0-0.3-1.3","spark_pilot_norest","9112","7","9","Male","","","","","","","3099.3999996185303","<p> <b> That's right! </b> Animals have different amounts of treasure in their treasure chests. </p>","0","comp_answer","","","","","","","","","","","",""
"comp-q","113","610649","0.0-3.0-13.0-0.4-0.4","spark_pilot_norest","9112","7","9","Male","","","","","","","1559.7999992370605","<p> <b> True or False? </b> </p><p> The same animal will always be there if you go up in the same place. </p>","1","comp_question","","","","false","","","","","","","",""
"comp-q","114","624521","0.0-3.0-13.0-0.4-1.4","spark_pilot_norest","9112","7","9","Male","","","","","","","7541.900000572205","<p> <b>Incorrect.</b> One animal lives in the upper part and one lives in the lower part of every place. </p>","0","comp_answer","","","","","","","","","","","",""
"comp-q","115","633480","0.0-3.0-13.0-0.5-0.5","spark_pilot_norest","9112","7","9","Male","","","","","","","3141.800000190735","<p> <b> True or False? </b> </p><p> The same animal will always be there if you go up in the same place. </p>","0","comp_question","","","","true","","","","","","","",""
"comp-q","116","647233","0.0-3.0-13.0-0.5-1.5","spark_pilot_norest","9112","7","9","Male","","","","","","","7273.699999809265","<p> <b> That's right! </b> One animal lives in the upper part and one lives in the lower part of every place. </p>","0","comp_answer","","","","","","","","","","","",""
"comp-q","117","655066","0.0-3.0-13.0-0.6-0.6","spark_pilot_norest","9112","7","9","Male","","","","","","","2258.3999996185303","<p> <b> True or False? </b> </p><p> If you see a different picture, it means you are in a new place. </p>","0","comp_question","","","","false","","","","","","","",""
"comp-q","118","667734","0.0-3.0-13.0-0.6-1.6","spark_pilot_norest","9112","7","9","Male","","","","","","","1536.0999994277954","<p> <b>Incorrect.</b> Lots of different images may show the same place. For example,  you may see three different images that all remind you that you are in outer space. </p>","0","comp_answer","","","","","","","","","","","",""
"comp-q","119","676037","0.0-3.0-13.0-0.7-0.7","spark_pilot_norest","9112","7","9","Male","","","","","","","2799.6000003814697","<p> <b> True or False? </b> </p><p> If you see a different picture, it means you are in a new place. </p>","0","comp_question","","","","false","","","","","","","",""
"comp-q","120","689895","0.0-3.0-13.0-0.7-1.7","spark_pilot_norest","9112","7","9","Male","","","","","","","2797.3999996185303","<p> <b>Incorrect.</b> Lots of different images may show the same place. For example,  you may see three different images that all remind you that you are in outer space. </p>","0","comp_answer","","","","","","","","","","","",""
"comp-q","121","696145","0.0-3.0-13.0-0.8-0.8","spark_pilot_norest","9112","7","9","Male","","","","","","","745.8999996185303","<p> <b> True or False? </b> </p><p> If you see a different picture, it means you are in a new place. </p>","1","comp_question","","","","true","","","","","","","",""
"comp-q","122","709631","0.0-3.0-13.0-0.8-1.8","spark_pilot_norest","9112","7","9","Male","","","","","","","2222.5","<p> <b> That's right! </b> Lots of different images may show the same place. For example,  you may see three different images that all remind you that you are in outer space. </p>","0","comp_answer","","","","","","","","","","","",""
"learning-instructions","123","721960","0.0-3.0-14.0-0.0","spark_pilot_norest","9112","7","9","Male","","","","","","","2431.8999996185303","<p> Good job. Remember to do your best because the amount of treasure you earn will be converted into bonus money. </p>
            <p> It’s time to start the real game! </p>","","instructions","","","","","","","","","","","",""
"learning-instructions","124","725905","0.0-4.0-0.0-0.0","spark_pilot_norest","9112","7","9","Male","","","","","","","1166.6000003814697","<p> This time you are searching for treasure in the <b>canyon</b>.</p>","","instructions","","","","","","","","","","","",""
"learning-instructions","125","746317","0.0-4.0-0.0-0.1","spark_pilot_norest","9112","7","9","Male","","","","","","","3078.2999992370605","<p><b>New</b> animals with <b>new</b> treasure chests live here. You need to explore to discover where the animal with the best treasure chest is.</p>
                    <p> Like before, once you figure out which animal has the chest with the most treasure, you should try to get to that animal and select that chest! </p>","","instructions","","","","","","","","","","","",""
"learning-instructions","126","763931","0.0-4.0-1.0-0.0","spark_pilot_norest","9112","7","9","Male","","","","","","","2881.800000190735","<p> Remember, when you see a picture of the place, use the up and down keys to <b>find an animal</b>.</p>
            <p> When you encounter an animal, you should use the left and right keys to <b>select a treasure chest</b>.</p>
            <p> Don't forget to look out for the robber! </p>","","instructions","","","","","","","","","","","",""
"revaluation","127","769968","0.0-4.0-2.0-0.0","spark_pilot_norest","9112","7","9","Male","","false","","","","","[1606.1000003814697,1269.1000003814697]","./assets/img/canyon/memory/19.jpg","[""ArrowDown"",""ArrowRight""]","value training","canyon","30","{""ArrowUp,ArrowLeft"":23,""ArrowUp,ArrowRight"":10,""ArrowDown,ArrowLeft"":8,""ArrowDown,ArrowRight"":30}","true","ArrowDown,ArrowRight","false","original","1","0","","",""
"html-keyboard-response","128","770477","0.0-4.0-2.0-1.0","spark_pilot_norest","9112","7","9","Male","","","","","","","null","<div style=""font-size:60px;"">+</div>","null","fixation","","","","","","","","","1","","",""
"revaluation","129","776517","0.0-4.0-2.0-0.1","spark_pilot_norest","9112","7","9","Male","","false","","","","","[1935.1999998092651,1699.4000005722046]","./assets/img/canyon/memory/35.jpg","[""ArrowDown"",""ArrowRight""]","value training","canyon","30","{""ArrowUp,ArrowLeft"":23,""ArrowUp,ArrowRight"":10,""ArrowDown,ArrowLeft"":8,""ArrowDown,ArrowRight"":30}","true","ArrowDown,ArrowRight","false","original","1","2","","",""
"html-keyboard-response","130","777027","0.0-4.0-2.0-1.1","spark_pilot_norest","9112","7","9","Male","","","","","","","null","<div style=""font-size:60px;"">+</div>","null","fixation","","","","","","","","","3","","",""
"revaluation","131","783047","0.0-4.0-2.0-0.2","spark_pilot_norest","9112","7","9","Male","","false","","","","","[605.4000005722046,1110.5]","./assets/img/canyon/memory/25.jpg","[""ArrowUp"",""ArrowLeft""]","value training","canyon","23","{""ArrowUp,ArrowLeft"":23,""ArrowUp,ArrowRight"":10,""ArrowDown,ArrowLeft"":8,""ArrowDown,ArrowRight"":30}","false","ArrowUp,ArrowLeft","false","original","1","4","","",""
"html-keyboard-response","132","783567","0.0-4.0-2.0-1.2","spark_pilot_norest","9112","7","9","Male","","","","","","","null","<div style=""font-size:60px;"">+</div>","null","fixation","","","","","","","","","5","","",""
"revaluation","133","789607","0.0-4.0-2.0-0.3","spark_pilot_norest","9112","7","9","Male","","false","","","","","[1645.5999994277954,992.1999998092651]","./assets/img/canyon/memory/22.jpg","[""ArrowUp"",""ArrowRight""]","value training","canyon","10","{""ArrowUp,ArrowLeft"":23,""ArrowUp,ArrowRight"":10,""ArrowDown,ArrowLeft"":8,""ArrowDown,ArrowRight"":30}","false","ArrowUp,ArrowRight","false","original","1","6","","",""
"html-keyboard-response","134","790127","0.0-4.0-2.0-1.3","spark_pilot_norest","9112","7","9","Male","","","","","","","null","<div style=""font-size:60px;"">+</div>","null","fixation","","","","","","","","","7","","",""
"revaluation","135","794134","0.0-4.0-2.0-0.4","spark_pilot_norest","9112","7","9","Male","","false","","","","","[1655.4000005722046]","./assets/img/canyon/catch/4.jpg","[""spaceBar""]","value training","canyon","0","{""ArrowUp,ArrowLeft"":23,""ArrowUp,ArrowRight"":10,""ArrowDown,ArrowLeft"":8,""ArrowDown,ArrowRight"":30}","true","spaceBar","true","original","1","8","","",""
"html-keyboard-response","136","794636","0.0-4.0-2.0-1.4","spark_pilot_norest","9112","7","9","Male","","","","","","","null","<div style=""font-size:60px;"">+</div>","null","fixation","","","","","","","","","9","","",""
"revaluation","137","800657","0.0-4.0-2.0-0.5","spark_pilot_norest","9112","7","9","Male","","false","","","","","[1628.1999998092651,691.1000003814697]","./assets/img/canyon/memory/13.jpg","[""ArrowUp"",""ArrowRight""]","value training","canyon","10","{""ArrowUp,ArrowLeft"":23,""ArrowUp,ArrowRight"":10,""ArrowDown,ArrowLeft"":8,""ArrowDown,ArrowRight"":30}","false","ArrowUp,ArrowRight","false","original","1","10","","",""
"html-keyboard-response","138","801166","0.0-4.0-2.0-1.5","spark_pilot_norest","9112","7","9","Male","","","","","","","null","<div style=""font-size:60px;"">+</div>","null","fixation","","","","","","","","","11","","",""
"revaluation","139","805180","0.0-4.0-2.0-0.6","spark_pilot_norest","9112","7","9","Male","","false","","","","","[687.3000001907349]","./assets/img/canyon/catch/0.jpg","[""spaceBar""]","value training","canyon","0","{""ArrowUp,ArrowLeft"":23,""ArrowUp,ArrowRight"":10,""ArrowDown,ArrowLeft"":8,""ArrowDown,ArrowRight"":30}","true","spaceBar","true","original","1","12","","",""
"html-keyboard-response","140","805683","0.0-4.0-2.0-1.6","spark_pilot_norest","9112","7","9","Male","","","","","","","null","<div style=""font-size:60px;"">+</div>","null","fixation","","","","","","","","","13","","",""
"revaluation","141","809692","0.0-4.0-2.0-0.7","spark_pilot_norest","9112","7","9","Male","","false","","","","","[1366.6000003814697]","./assets/img/canyon/catch/2.jpg","[""spaceBar""]","value training","canyon","0","{""ArrowUp,ArrowLeft"":23,""ArrowUp,ArrowRight"":10,""ArrowDown,ArrowLeft"":8,""ArrowDown,ArrowRight"":30}","true","spaceBar","true","original","1","14","","",""
"html-keyboard-response","142","810197","0.0-4.0-2.0-1.7","spark_pilot_norest","9112","7","9","Male","","","","","","","null","<div style=""font-size:60px;"">+</div>","null","fixation","","","","","","","","","15","","",""
"revaluation","143","814214","0.0-4.0-2.0-0.8","spark_pilot_norest","9112","7","9","Male","","true","","","","","[]","./assets/img/canyon/memory/7.jpg","[]","value training","canyon","-5","{""ArrowUp,ArrowLeft"":23,""ArrowUp,ArrowRight"":10,""ArrowDown,ArrowLeft"":8,""ArrowDown,ArrowRight"":30}","false","","false","original","1","16","","",""
"html-keyboard-response","144","814716","0.0-4.0-2.0-1.8","spark_pilot_norest","9112","7","9","Male","","","","","","","null","<div style=""font-size:60px;"">+</div>","null","fixation","","","","","","","","","17","","",""
"revaluation","145","820736","0.0-4.0-2.0-0.9","spark_pilot_norest","9112","7","9","Male","","false","","","","","[1022.1999998092651,602.3999996185303]","./assets/img/canyon/memory/25.jpg","[""ArrowUp"",""ArrowRight""]","value training","canyon","10","{""ArrowUp,ArrowLeft"":23,""ArrowUp,ArrowRight"":10,""ArrowDown,ArrowLeft"":8,""ArrowDown,ArrowRight"":30}","false","ArrowUp,ArrowRight","false","original","1","18","","",""
"html-keyboard-response","146","821241","0.0-4.0-2.0-1.9","spark_pilot_norest","9112","7","9","Male","","","","","","","null","<div style=""font-size:60px;"">+</div>","null","fixation","","","","","","","","","19","","",""
"revaluation","147","827252","0.0-4.0-2.0-0.10","spark_pilot_norest","9112","7","9","Male","","false","","","","","[861.6000003814697,516.9000005722046]","./assets/img/canyon/memory/4.jpg","[""ArrowUp"",""ArrowLeft""]","value training","canyon","23","{""ArrowUp,ArrowLeft"":23,""ArrowUp,ArrowRight"":10,""ArrowDown,ArrowLeft"":8,""ArrowDown,ArrowRight"":30}","false","ArrowUp,ArrowLeft","false","original","1","20","","",""
"html-keyboard-response","148","827754","0.0-4.0-2.0-1.10","spark_pilot_norest","9112","7","9","Male","","","","","","","null","<div style=""font-size:60px;"">+</div>","null","fixation","","","","","","","","","21","","",""
"revaluation","149","833768","0.0-4.0-2.0-0.11","spark_pilot_norest","9112","7","9","Male","","false","","","","","[1047.2999992370605,812.1999998092651]","./assets/img/canyon/memory/15.jpg","[""ArrowUp"",""ArrowRight""]","value training","canyon","10","{""ArrowUp,ArrowLeft"":23,""ArrowUp,ArrowRight"":10,""ArrowDown,ArrowLeft"":8,""ArrowDown,ArrowRight"":30}","false","ArrowUp,ArrowRight","false","original","1","22","","",""
"html-keyboard-response","150","834275","0.0-4.0-2.0-1.11","spark_pilot_norest","9112","7","9","Male","","","","","","","null","<div style=""font-size:60px;"">+</div>","null","fixation","","","","","","","","","23","","",""
"revaluation","151","838295","0.0-4.0-2.0-0.12","spark_pilot_norest","9112","7","9","Male","","false","","","","","[1232]","./assets/img/canyon/catch/5.jpg","[""spaceBar""]","value training","canyon","0","{""ArrowUp,ArrowLeft"":23,""ArrowUp,ArrowRight"":10,""ArrowDown,ArrowLeft"":8,""ArrowDown,ArrowRight"":30}","true","spaceBar","true","original","1","24","","",""
"html-keyboard-response","152","838804","0.0-4.0-2.0-1.12","spark_pilot_norest","9112","7","9","Male","","","","","","","null","<div style=""font-size:60px;"">+</div>","null","fixation","","","","","","","","","25","","",""
"revaluation","153","844815","0.0-4.0-2.0-0.13","spark_pilot_norest","9112","7","9","Male","","false","","","","","[1090.8999996185303,888.8999996185303]","./assets/img/canyon/memory/39.jpg","[""ArrowUp"",""ArrowRight""]","value training","canyon","10","{""ArrowUp,ArrowLeft"":23,""ArrowUp,ArrowRight"":10,""ArrowDown,ArrowLeft"":8,""ArrowDown,ArrowRight"":30}","false","ArrowUp,ArrowRight","false","original","1","26","","",""
"html-keyboard-response","154","845324","0.0-4.0-2.0-1.13","spark_pilot_norest","9112","7","9","Male","","","","","","","null","<div style=""font-size:60px;"">+</div>","null","fixation","","","","","","","","","27","","",""
"revaluation","155","851344","0.0-4.0-2.0-0.14","spark_pilot_norest","9112","7","9","Male","","false","","","","","[866.3000001907349,1910.5]","./assets/img/canyon/memory/9.jpg","[""ArrowUp"",""ArrowRight""]","value training","canyon","10","{""ArrowUp,ArrowLeft"":23,""ArrowUp,ArrowRight"":10,""ArrowDown,ArrowLeft"":8,""ArrowDown,ArrowRight"":30}","false","ArrowUp,ArrowRight","false","original","1","28","","",""
"html-keyboard-response","156","851858","0.0-4.0-2.0-1.14","spark_pilot_norest","9112","7","9","Male","","","","","","","null","<div style=""font-size:60px;"">+</div>","null","fixation","","","","","","","","","29","","",""
"revaluation","157","857874","0.0-4.0-2.0-0.15","spark_pilot_norest","9112","7","9","Male","","false","","","","","[1636.3000001907349,926.6999998092651]","./assets/img/canyon/memory/19.jpg","[""ArrowUp"",""ArrowLeft""]","value training","canyon","23","{""ArrowUp,ArrowLeft"":23,""ArrowUp,ArrowRight"":10,""ArrowDown,ArrowLeft"":8,""ArrowDown,ArrowRight"":30}","false","ArrowUp,ArrowLeft","false","original","1","30","","",""
"html-keyboard-response","158","858384","0.0-4.0-2.0-1.15","spark_pilot_norest","9112","7","9","Male","","","","","","","null","<div style=""font-size:60px;"">+</div>","null","fixation","","","","","","","","","31","","",""
"revaluation","159","864414","0.0-4.0-2.0-0.16","spark_pilot_norest","9112","7","9","Male","","false","","","","","[1572,1031.6999998092651]","./assets/img/canyon/memory/32.jpg","[""ArrowUp"",""ArrowRight""]","value training","canyon","10","{""ArrowUp,ArrowLeft"":23,""ArrowUp,ArrowRight"":10,""ArrowDown,ArrowLeft"":8,""ArrowDown,ArrowRight"":30}","false","ArrowUp,ArrowRight","false","original","1","32","","",""
"html-keyboard-response","160","864918","0.0-4.0-2.0-1.16","spark_pilot_norest","9112","7","9","Male","","","","","","","null","<div style=""font-size:60px;"">+</div>","null","fixation","","","","","","","","","33","","",""
"revaluation","161","870944","0.0-4.0-2.0-0.17","spark_pilot_norest","9112","7","9","Male","","false","","","","","[1261.3000001907349,1096.5]","./assets/img/canyon/memory/29.jpg","[""ArrowUp"",""ArrowLeft""]","value training","canyon","23","{""ArrowUp,ArrowLeft"":23,""ArrowUp,ArrowRight"":10,""ArrowDown,ArrowLeft"":8,""ArrowDown,ArrowRight"":30}","false","ArrowUp,ArrowLeft","false","original","1","34","","",""
"html-keyboard-response","162","871446","0.0-4.0-2.0-1.17","spark_pilot_norest","9112","7","9","Male","","","","","","","null","<div style=""font-size:60px;"">+</div>","null","fixation","","","","","","","","","35","","",""
"revaluation","163","875456","0.0-4.0-2.0-0.18","spark_pilot_norest","9112","7","9","Male","","true","","","","","[]","./assets/img/canyon/memory/2.jpg","[]","value training","canyon","-5","{""ArrowUp,ArrowLeft"":23,""ArrowUp,ArrowRight"":10,""ArrowDown,ArrowLeft"":8,""ArrowDown,ArrowRight"":30}","false","","false","original","1","36","","",""
"html-keyboard-response","164","875965","0.0-4.0-2.0-1.18","spark_pilot_norest","9112","7","9","Male","","","","","","","null","<div style=""font-size:60px;"">+</div>","null","fixation","","","","","","","","","37","","",""
"revaluation","165","881977","0.0-4.0-2.0-0.19","spark_pilot_norest","9112","7","9","Male","","false","","","","","[917.8000001907349,918.8000001907349]","./assets/img/canyon/memory/40.jpg","[""ArrowUp"",""ArrowRight""]","value training","canyon","10","{""ArrowUp,ArrowLeft"":23,""ArrowUp,ArrowRight"":10,""ArrowDown,ArrowLeft"":8,""ArrowDown,ArrowRight"":30}","false","ArrowUp,ArrowRight","false","original","1","38","","",""
"html-keyboard-response","166","882481","0.0-4.0-2.0-1.19","spark_pilot_norest","9112","7","9","Male","","","","","","","null","<div style=""font-size:60px;"">+</div>","null","fixation","","","","","","","","","39","","",""
"revaluation","167","888497","0.0-4.0-2.0-0.20","spark_pilot_norest","9112","7","9","Male","","false","","","","","[686.8000001907349,802.6000003814697]","./assets/img/canyon/memory/34.jpg","[""ArrowUp"",""ArrowRight""]","value training","canyon","10","{""ArrowUp,ArrowLeft"":23,""ArrowUp,ArrowRight"":10,""ArrowDown,ArrowLeft"":8,""ArrowDown,ArrowRight"":30}","false","ArrowUp,ArrowRight","false","original","1","40","","",""
"html-keyboard-response","168","889001","0.0-4.0-2.0-1.20","spark_pilot_norest","9112","7","9","Male","","","","","","","null","<div style=""font-size:60px;"">+</div>","null","fixation","","","","","","","","","41","","",""
"revaluation","169","895022","0.0-4.0-2.0-0.21","spark_pilot_norest","9112","7","9","Male","","false","","","","","[1138.1999998092651,953.5999994277954]","./assets/img/canyon/memory/10.jpg","[""ArrowUp"",""ArrowRight""]","value training","canyon","10","{""ArrowUp,ArrowLeft"":23,""ArrowUp,ArrowRight"":10,""ArrowDown,ArrowLeft"":8,""ArrowDown,ArrowRight"":30}","false","ArrowUp,ArrowRight","false","original","1","42","","",""
"html-keyboard-response","170","895525","0.0-4.0-2.0-1.21","spark_pilot_norest","9112","7","9","Male","","","","","","","null","<div style=""font-size:60px;"">+</div>","null","fixation","","","","","","","","","43","","",""
"revaluation","171","901538","0.0-4.0-2.0-0.22","spark_pilot_norest","9112","7","9","Male","","false","","","","","[1091.8000001907349,1811.6999998092651]","./assets/img/canyon/memory/41.jpg","[""ArrowUp"",""ArrowLeft""]","value training","canyon","23","{""ArrowUp,ArrowLeft"":23,""ArrowUp,ArrowRight"":10,""ArrowDown,ArrowLeft"":8,""ArrowDown,ArrowRight"":30}","false","ArrowUp,ArrowLeft","false","original","1","44","","",""
"html-keyboard-response","172","902042","0.0-4.0-2.0-1.22","spark_pilot_norest","9112","7","9","Male","","","","","","","null","<div style=""font-size:60px;"">+</div>","null","fixation","","","","","","","","","45","","",""
"revaluation","173","906058","0.0-4.0-2.0-0.23","spark_pilot_norest","9112","7","9","Male","","true","","","","","[]","./assets/img/canyon/memory/31.jpg","[]","value training","canyon","-5","{""ArrowUp,ArrowLeft"":23,""ArrowUp,ArrowRight"":10,""ArrowDown,ArrowLeft"":8,""ArrowDown,ArrowRight"":30}","false","","false","original","1","46","","",""
"html-keyboard-response","174","906565","0.0-4.0-2.0-1.23","spark_pilot_norest","9112","7","9","Male","","","","","","","null","<div style=""font-size:60px;"">+</div>","null","fixation","","","","","","","","","47","","",""
"revaluation","175","912579","0.0-4.0-2.0-0.24","spark_pilot_norest","9112","7","9","Male","","false","","","","","[1036.9000005722046,1619.1000003814697]","./assets/img/canyon/memory/28.jpg","[""ArrowUp"",""ArrowLeft""]","value training","canyon","23","{""ArrowUp,ArrowLeft"":23,""ArrowUp,ArrowRight"":10,""ArrowDown,ArrowLeft"":8,""ArrowDown,ArrowRight"":30}","false","ArrowUp,ArrowLeft","false","original","1","48","","",""
"html-keyboard-response","176","913087","0.0-4.0-2.0-1.24","spark_pilot_norest","9112","7","9","Male","","","","","","","null","<div style=""font-size:60px;"">+</div>","null","fixation","","","","","","","","","49","","",""
"revaluation","177","919104","0.0-4.0-2.0-0.25","spark_pilot_norest","9112","7","9","Male","","true","","","","","[981.1999998092651]","./assets/img/canyon/memory/32.jpg","[""ArrowUp""]","value training","canyon","-5","{""ArrowUp,ArrowLeft"":23,""ArrowUp,ArrowRight"":10,""ArrowDown,ArrowLeft"":8,""ArrowDown,ArrowRight"":30}","false","ArrowUp","false","original","1","50","","",""
"html-keyboard-response","178","919609","0.0-4.0-2.0-1.25","spark_pilot_norest","9112","7","9","Male","","","","","","","null","<div style=""font-size:60px;"">+</div>","null","fixation","","","","","","","","","51","","",""
"revaluation","179","925638","0.0-4.0-2.0-0.26","spark_pilot_norest","9112","7","9","Male","","false","","","","","[1277.2000007629395,601.1000003814697]","./assets/img/canyon/memory/5.jpg","[""ArrowUp"",""ArrowLeft""]","value training","canyon","23","{""ArrowUp,ArrowLeft"":23,""ArrowUp,ArrowRight"":10,""ArrowDown,ArrowLeft"":8,""ArrowDown,ArrowRight"":30}","false","ArrowUp,ArrowLeft","false","original","1","52","","",""
"html-keyboard-response","180","926142","0.0-4.0-2.0-1.26","spark_pilot_norest","9112","7","9","Male","","","","","","","null","<div style=""font-size:60px;"">+</div>","null","fixation","","","","","","","","","53","","",""
"revaluation","181","930150","0.0-4.0-2.0-0.27","spark_pilot_norest","9112","7","9","Male","","false","","","","","[1050.6999998092651]","./assets/img/canyon/catch/7.jpg","[""spaceBar""]","value training","canyon","0","{""ArrowUp,ArrowLeft"":23,""ArrowUp,ArrowRight"":10,""ArrowDown,ArrowLeft"":8,""ArrowDown,ArrowRight"":30}","true","spaceBar","true","original","1","54","","",""
"html-keyboard-response","182","930651","0.0-4.0-2.0-1.27","spark_pilot_norest","9112","7","9","Male","","","","","","","null","<div style=""font-size:60px;"">+</div>","null","fixation","","","","","","","","","55","","",""
"revaluation","183","936669","0.0-4.0-2.0-0.28","spark_pilot_norest","9112","7","9","Male","","false","","","","","[1521.6999998092651,1530.0999994277954]","./assets/img/canyon/memory/6.jpg","[""ArrowUp"",""ArrowRight""]","value training","canyon","10","{""ArrowUp,ArrowLeft"":23,""ArrowUp,ArrowRight"":10,""ArrowDown,ArrowLeft"":8,""ArrowDown,ArrowRight"":30}","false","ArrowUp,ArrowRight","false","original","1","56","","",""
"html-keyboard-response","184","937171","0.0-4.0-2.0-1.28","spark_pilot_norest","9112","7","9","Male","","","","","","","null","<div style=""font-size:60px;"">+</div>","null","fixation","","","","","","","","","57","","",""
"revaluation","185","943186","0.0-4.0-2.0-0.29","spark_pilot_norest","9112","7","9","Male","","true","","","","","[1333.6000003814697]","./assets/img/canyon/memory/34.jpg","[""ArrowUp""]","value training","canyon","-5","{""ArrowUp,ArrowLeft"":23,""ArrowUp,ArrowRight"":10,""ArrowDown,ArrowLeft"":8,""ArrowDown,ArrowRight"":30}","false","ArrowUp","false","original","1","58","","",""
"html-keyboard-response","186","943690","0.0-4.0-2.0-1.29","spark_pilot_norest","9112","7","9","Male","","","","","","","null","<div style=""font-size:60px;"">+</div>","null","fixation","","","","","","","","","59","","",""
"revaluation","187","949711","0.0-4.0-2.0-0.30","spark_pilot_norest","9112","7","9","Male","","false","","","","","[1118.1999998092651,707.0999994277954]","./assets/img/canyon/memory/2.jpg","[""ArrowUp"",""ArrowLeft""]","value training","canyon","23","{""ArrowUp,ArrowLeft"":23,""ArrowUp,ArrowRight"":10,""ArrowDown,ArrowLeft"":8,""ArrowDown,ArrowRight"":30}","false","ArrowUp,ArrowLeft","false","original","1","60","","",""
"html-keyboard-response","188","950215","0.0-4.0-2.0-1.30","spark_pilot_norest","9112","7","9","Male","","","","","","","null","<div style=""font-size:60px;"">+</div>","null","fixation","","","","","","","","","61","","",""
"revaluation","189","956229","0.0-4.0-2.0-0.31","spark_pilot_norest","9112","7","9","Male","","false","","","","","[1398.3999996185303,1030]","./assets/img/canyon/memory/41.jpg","[""ArrowUp"",""ArrowLeft""]","value training","canyon","23","{""ArrowUp,ArrowLeft"":23,""ArrowUp,ArrowRight"":10,""ArrowDown,ArrowLeft"":8,""ArrowDown,ArrowRight"":30}","false","ArrowUp,ArrowLeft","false","original","1","62","","",""
"html-keyboard-response","190","956732","0.0-4.0-2.0-1.31","spark_pilot_norest","9112","7","9","Male","","","","","","","null","<div style=""font-size:60px;"">+</div>","null","fixation","","","","","","","","","63","","",""
"revaluation","191","962757","0.0-4.0-2.0-0.32","spark_pilot_norest","9112","7","9","Male","","false","","","","","[1353,1546.6000003814697]","./assets/img/canyon/memory/22.jpg","[""ArrowUp"",""ArrowLeft""]","value training","canyon","23","{""ArrowUp,ArrowLeft"":23,""ArrowUp,ArrowRight"":10,""ArrowDown,ArrowLeft"":8,""ArrowDown,ArrowRight"":30}","false","ArrowUp,ArrowLeft","false","original","1","64","","",""
"html-keyboard-response","192","963260","0.0-4.0-2.0-1.32","spark_pilot_norest","9112","7","9","Male","","","","","","","null","<div style=""font-size:60px;"">+</div>","null","fixation","","","","","","","","","65","","",""
"revaluation","193","969283","0.0-4.0-2.0-0.33","spark_pilot_norest","9112","7","9","Male","","false","","","","","[1034.3000001907349,769.5]","./assets/img/canyon/memory/4.jpg","[""ArrowUp"",""ArrowLeft""]","value training","canyon","23","{""ArrowUp,ArrowLeft"":23,""ArrowUp,ArrowRight"":10,""ArrowDown,ArrowLeft"":8,""ArrowDown,ArrowRight"":30}","false","ArrowUp,ArrowLeft","false","original","1","66","","",""
"html-keyboard-response","194","969791","0.0-4.0-2.0-1.33","spark_pilot_norest","9112","7","9","Male","","","","","","","null","<div style=""font-size:60px;"">+</div>","null","fixation","","","","","","","","","67","","",""
"revaluation","195","975824","0.0-4.0-2.0-0.34","spark_pilot_norest","9112","7","9","Male","","false","","","","","[991.7999992370605,971.1000003814697]","./assets/img/canyon/memory/9.jpg","[""ArrowUp"",""ArrowLeft""]","value training","canyon","23","{""ArrowUp,ArrowLeft"":23,""ArrowUp,ArrowRight"":10,""ArrowDown,ArrowLeft"":8,""ArrowDown,ArrowRight"":30}","false","ArrowUp,ArrowLeft","false","original","1","68","","",""
"html-keyboard-response","196","976328","0.0-4.0-2.0-1.34","spark_pilot_norest","9112","7","9","Male","","","","","","","null","<div style=""font-size:60px;"">+</div>","null","fixation","","","","","","","","","69","","",""
"revaluation","197","982343","0.0-4.0-2.0-0.35","spark_pilot_norest","9112","7","9","Male","","false","","","","","[725.4000005722046,847.5999994277954]","./assets/img/canyon/memory/28.jpg","[""ArrowUp"",""ArrowLeft""]","value training","canyon","23","{""ArrowUp,ArrowLeft"":23,""ArrowUp,ArrowRight"":10,""ArrowDown,ArrowLeft"":8,""ArrowDown,ArrowRight"":30}","false","ArrowUp,ArrowLeft","false","original","1","70","","",""
"html-keyboard-response","198","982853","0.0-4.0-2.0-1.35","spark_pilot_norest","9112","7","9","Male","","","","","","","null","<div style=""font-size:60px;"">+</div>","null","fixation","","","","","","","","","71","","",""
"revaluation","199","988875","0.0-4.0-2.0-0.36","spark_pilot_norest","9112","7","9","Male","","false","","","","","[854.8000001907349,1117.4000005722046]","./assets/img/canyon/memory/5.jpg","[""ArrowUp"",""ArrowLeft""]","value training","canyon","23","{""ArrowUp,ArrowLeft"":23,""ArrowUp,ArrowRight"":10,""ArrowDown,ArrowLeft"":8,""ArrowDown,ArrowRight"":30}","false","ArrowUp,ArrowLeft","false","original","1","72","","",""
"html-keyboard-response","200","989378","0.0-4.0-2.0-1.36","spark_pilot_norest","9112","7","9","Male","","","","","","","null","<div style=""font-size:60px;"">+</div>","null","fixation","","","","","","","","","73","","",""
"revaluation","201","995393","0.0-4.0-2.0-0.37","spark_pilot_norest","9112","7","9","Male","","false","","","","","[756.2000007629395,773.5]","./assets/img/canyon/memory/39.jpg","[""ArrowUp"",""ArrowLeft""]","value training","canyon","23","{""ArrowUp,ArrowLeft"":23,""ArrowUp,ArrowRight"":10,""ArrowDown,ArrowLeft"":8,""ArrowDown,ArrowRight"":30}","false","ArrowUp,ArrowLeft","false","original","1","74","","",""
"html-keyboard-response","202","995899","0.0-4.0-2.0-1.37","spark_pilot_norest","9112","7","9","Male","","","","","","","null","<div style=""font-size:60px;"">+</div>","null","fixation","","","","","","","","","75","","",""
"revaluation","203","999916","0.0-4.0-2.0-0.38","spark_pilot_norest","9112","7","9","Male","","false","","","","","[784.2000007629395]","./assets/img/canyon/catch/3.jpg","[""spaceBar""]","value training","canyon","0","{""ArrowUp,ArrowLeft"":23,""ArrowUp,ArrowRight"":10,""ArrowDown,ArrowLeft"":8,""ArrowDown,ArrowRight"":30}","true","spaceBar","true","original","1","76","","",""
"html-keyboard-response","204","1000421","0.0-4.0-2.0-1.38","spark_pilot_norest","9112","7","9","Male","","","","","","","null","<div style=""font-size:60px;"">+</div>","null","fixation","","","","","","","","","77","","",""
"revaluation","205","1006431","0.0-4.0-2.0-0.39","spark_pilot_norest","9112","7","9","Male","","true","","","","","[1310.6999998092651]","./assets/img/canyon/memory/35.jpg","[""ArrowUp""]","value training","canyon","-5","{""ArrowUp,ArrowLeft"":23,""ArrowUp,ArrowRight"":10,""ArrowDown,ArrowLeft"":8,""ArrowDown,ArrowRight"":30}","false","ArrowUp","false","original","1","78","","",""
"html-keyboard-response","206","1006939","0.0-4.0-2.0-1.39","spark_pilot_norest","9112","7","9","Male","","","","","","","null","<div style=""font-size:60px;"">+</div>","null","fixation","","","","","","","","","79","","",""
"revaluation","207","1012971","0.0-4.0-2.0-0.40","spark_pilot_norest","9112","7","9","Male","","false","","","","","[1006.6999998092651,591.1000003814697]","./assets/img/canyon/memory/15.jpg","[""ArrowUp"",""ArrowLeft""]","value training","canyon","23","{""ArrowUp,ArrowLeft"":23,""ArrowUp,ArrowRight"":10,""ArrowDown,ArrowLeft"":8,""ArrowDown,ArrowRight"":30}","false","ArrowUp,ArrowLeft","false","original","1","80","","",""
"html-keyboard-response","208","1013481","0.0-4.0-2.0-1.40","spark_pilot_norest","9112","7","9","Male","","","","","","","null","<div style=""font-size:60px;"">+</div>","null","fixation","","","","","","","","","81","","",""
"revaluation","209","1019500","0.0-4.0-2.0-0.41","spark_pilot_norest","9112","7","9","Male","","false","","","","","[771.5,788.6000003814697]","./assets/img/canyon/memory/31.jpg","[""ArrowUp"",""ArrowLeft""]","value training","canyon","23","{""ArrowUp,ArrowLeft"":23,""ArrowUp,ArrowRight"":10,""ArrowDown,ArrowLeft"":8,""ArrowDown,ArrowRight"":30}","false","ArrowUp,ArrowLeft","false","original","1","82","","",""
"html-keyboard-response","210","1020009","0.0-4.0-2.0-1.41","spark_pilot_norest","9112","7","9","Male","","","","","","","null","<div style=""font-size:60px;"">+</div>","null","fixation","","","","","","","","","83","","",""
"revaluation","211","1026026","0.0-4.0-2.0-0.42","spark_pilot_norest","9112","7","9","Male","","false","","","","","[811.3999996185303,910.6000003814697]","./assets/img/canyon/memory/40.jpg","[""ArrowUp"",""ArrowLeft""]","value training","canyon","23","{""ArrowUp,ArrowLeft"":23,""ArrowUp,ArrowRight"":10,""ArrowDown,ArrowLeft"":8,""ArrowDown,ArrowRight"":30}","false","ArrowUp,ArrowLeft","false","original","1","84","","",""
"html-keyboard-response","212","1026543","0.0-4.0-2.0-1.42","spark_pilot_norest","9112","7","9","Male","","","","","","","null","<div style=""font-size:60px;"">+</div>","null","fixation","","","","","","","","","85","","",""
"revaluation","213","1032578","0.0-4.0-2.0-0.43","spark_pilot_norest","9112","7","9","Male","","false","","","","","[616.5,1071.5999994277954]","./assets/img/canyon/memory/7.jpg","[""ArrowUp"",""ArrowLeft""]","value training","canyon","23","{""ArrowUp,ArrowLeft"":23,""ArrowUp,ArrowRight"":10,""ArrowDown,ArrowLeft"":8,""ArrowDown,ArrowRight"":30}","false","ArrowUp,ArrowLeft","false","original","1","86","","",""
"html-keyboard-response","214","1033087","0.0-4.0-2.0-1.43","spark_pilot_norest","9112","7","9","Male","","","","","","","null","<div style=""font-size:60px;"">+</div>","null","fixation","","","","","","","","","87","","",""
"revaluation","215","1039104","0.0-4.0-2.0-0.44","spark_pilot_norest","9112","7","9","Male","","false","","","","","[914.6999998092651,693.1999998092651]","./assets/img/canyon/memory/6.jpg","[""ArrowUp"",""ArrowLeft""]","value training","canyon","23","{""ArrowUp,ArrowLeft"":23,""ArrowUp,ArrowRight"":10,""ArrowDown,ArrowLeft"":8,""ArrowDown,ArrowRight"":30}","false","ArrowUp,ArrowLeft","false","original","1","88","","",""
"html-keyboard-response","216","1039612","0.0-4.0-2.0-1.44","spark_pilot_norest","9112","7","9","Male","","","","","","","null","<div style=""font-size:60px;"">+</div>","null","fixation","","","","","","","","","89","","",""
"revaluation","217","1043629","0.0-4.0-2.0-0.45","spark_pilot_norest","9112","7","9","Male","","false","","","","","[905.7000007629395]","./assets/img/canyon/catch/1.jpg","[""spaceBar""]","value training","canyon","0","{""ArrowUp,ArrowLeft"":23,""ArrowUp,ArrowRight"":10,""ArrowDown,ArrowLeft"":8,""ArrowDown,ArrowRight"":30}","true","spaceBar","true","original","1","90","","",""
"html-keyboard-response","218","1044138","0.0-4.0-2.0-1.45","spark_pilot_norest","9112","7","9","Male","","","","","","","null","<div style=""font-size:60px;"">+</div>","null","fixation","","","","","","","","","91","","",""
"revaluation","219","1050152","0.0-4.0-2.0-0.46","spark_pilot_norest","9112","7","9","Male","","false","","","","","[895.6000003814697,915.8000001907349]","./assets/img/canyon/memory/29.jpg","[""ArrowUp"",""ArrowLeft""]","value training","canyon","23","{""ArrowUp,ArrowLeft"":23,""ArrowUp,ArrowRight"":10,""ArrowDown,ArrowLeft"":8,""ArrowDown,ArrowRight"":30}","false","ArrowUp,ArrowLeft","false","original","1","92","","",""
"html-keyboard-response","220","1050655","0.0-4.0-2.0-1.46","spark_pilot_norest","9112","7","9","Male","","","","","","","null","<div style=""font-size:60px;"">+</div>","null","fixation","","","","","","","","","93","","",""
"revaluation","221","1056673","0.0-4.0-2.0-0.47","spark_pilot_norest","9112","7","9","Male","","false","","","","","[640,990.3000001907349]","./assets/img/canyon/memory/10.jpg","[""ArrowUp"",""ArrowLeft""]","value training","canyon","23","{""ArrowUp,ArrowLeft"":23,""ArrowUp,ArrowRight"":10,""ArrowDown,ArrowLeft"":8,""ArrowDown,ArrowRight"":30}","false","ArrowUp,ArrowLeft","false","original","1","94","","",""
"html-keyboard-response","222","1057183","0.0-4.0-2.0-1.47","spark_pilot_norest","9112","7","9","Male","","","","","","","null","<div style=""font-size:60px;"">+</div>","null","fixation","","","","","","","","","95","","",""
"revaluation","223","1063204","0.0-4.0-2.0-0.48","spark_pilot_norest","9112","7","9","Male","","false","","","","","[482.6000003814697,852.6999998092651]","./assets/img/canyon/memory/13.jpg","[""ArrowUp"",""ArrowLeft""]","value training","canyon","23","{""ArrowUp,ArrowLeft"":23,""ArrowUp,ArrowRight"":10,""ArrowDown,ArrowLeft"":8,""ArrowDown,ArrowRight"":30}","false","ArrowUp,ArrowLeft","false","original","1","96","","",""
"html-keyboard-response","224","1063715","0.0-4.0-2.0-1.48","spark_pilot_norest","9112","7","9","Male","","","","","","","null","<div style=""font-size:60px;"">+</div>","null","fixation","","","","","","","","","97","","",""
"revaluation","225","1067726","0.0-4.0-2.0-0.49","spark_pilot_norest","9112","7","9","Male","","false","","","","","[528.1000003814697]","./assets/img/canyon/catch/6.jpg","[""spaceBar""]","value training","canyon","0","{""ArrowUp,ArrowLeft"":23,""ArrowUp,ArrowRight"":10,""ArrowDown,ArrowLeft"":8,""ArrowDown,ArrowRight"":30}","true","spaceBar","true","original","1","98","","",""
"html-keyboard-response","226","1068230","0.0-4.0-2.0-1.49","spark_pilot_norest","9112","7","9","Male","","","","","","","null","<div style=""font-size:60px;"">+</div>","null","fixation","","","","","","","","","99","","",""
"learning-instructions","227","1084393","0.0-4.0-3.0-0.0","spark_pilot_norest","9112","7","9","Male","","","","","","","2768.8999996185303","<p> Now, you will travel with a friend who will choose whether you go up or down first. </p>
            <p> On these turns, you will just see the animal that they found. You will still get to choose which chest to search for treasure.</p>","","instructions","","","","","","","","","","","",""
"revaluation","228","1088413","0.0-4.0-4.0-0.0","spark_pilot_norest","9112","7","9","Male","","false","","","","","[1143.5]","./assets/img/canyon/animals/lion.jpg","[""ArrowLeft""]","revaluation","canyon","23","{""ArrowUp,ArrowLeft"":23,""ArrowUp,ArrowRight"":10,""ArrowDown,ArrowLeft"":8,""ArrowDown,ArrowRight"":30}","true","ArrowUp,ArrowLeft","","original","1","0","","",""
"html-keyboard-response","229","1088923","0.0-4.0-4.0-1.0","spark_pilot_norest","9112","7","9","Male","","","","","","","null","<div style=""font-size:60px;"">+</div>","null","fixation","","","","","","","","","1","","",""
"revaluation","230","1092934","0.0-4.0-4.0-0.1","spark_pilot_norest","9112","7","9","Male","","false","","","","","[1465.6999998092651]","./assets/img/canyon/animals/giraffe.jpg","[""ArrowLeft""]","revaluation","canyon","8","{""ArrowUp,ArrowLeft"":23,""ArrowUp,ArrowRight"":10,""ArrowDown,ArrowLeft"":8,""ArrowDown,ArrowRight"":30}","false","ArrowDown,ArrowLeft","","original","1","2","","",""
"html-keyboard-response","231","1093443","0.0-4.0-4.0-1.1","spark_pilot_norest","9112","7","9","Male","","","","","","","null","<div style=""font-size:60px;"">+</div>","null","fixation","","","","","","","","","3","","",""
"revaluation","232","1097458","0.0-4.0-4.0-0.2","spark_pilot_norest","9112","7","9","Male","","false","","","","","[806.2000007629395]","./assets/img/canyon/animals/lion.jpg","[""ArrowRight""]","revaluation","canyon","10","{""ArrowUp,ArrowLeft"":23,""ArrowUp,ArrowRight"":10,""ArrowDown,ArrowLeft"":8,""ArrowDown,ArrowRight"":30}","false","ArrowUp,ArrowRight","","original","1","4","","",""
"html-keyboard-response","233","1097964","0.0-4.0-4.0-1.2","spark_pilot_norest","9112","7","9","Male","","","","","","","null","<div style=""font-size:60px;"">+</div>","null","fixation","","","","","","","","","5","","",""
"revaluation","234","1101983","0.0-4.0-4.0-0.3","spark_pilot_norest","9112","7","9","Male","","false","","","","","[569.1000003814697]","./assets/img/canyon/animals/lion.jpg","[""ArrowLeft""]","revaluation","canyon","23","{""ArrowUp,ArrowLeft"":23,""ArrowUp,ArrowRight"":10,""ArrowDown,ArrowLeft"":8,""ArrowDown,ArrowRight"":30}","true","ArrowUp,ArrowLeft","","original","1","6","","",""
"html-keyboard-response","235","1102492","0.0-4.0-4.0-1.3","spark_pilot_norest","9112","7","9","Male","","","","","","","null","<div style=""font-size:60px;"">+</div>","null","fixation","","","","","","","","","7","","",""
"revaluation","236","1106517","0.0-4.0-4.0-0.4","spark_pilot_norest","9112","7","9","Male","","false","","","","","[695.5999994277954]","./assets/img/canyon/animals/giraffe.jpg","[""ArrowLeft""]","revaluation","canyon","8","{""ArrowUp,ArrowLeft"":23,""ArrowUp,ArrowRight"":10,""ArrowDown,ArrowLeft"":8,""ArrowDown,ArrowRight"":30}","false","ArrowDown,ArrowLeft","","original","1","8","","",""
"html-keyboard-response","237","1107022","0.0-4.0-4.0-1.4","spark_pilot_norest","9112","7","9","Male","","","","","","","null","<div style=""font-size:60px;"">+</div>","null","fixation","","","","","","","","","9","","",""
"revaluation","238","1111057","0.0-4.0-4.0-0.5","spark_pilot_norest","9112","7","9","Male","","false","","","","","[711.8999996185303]","./assets/img/canyon/animals/lion.jpg","[""ArrowLeft""]","revaluation","canyon","23","{""ArrowUp,ArrowLeft"":23,""ArrowUp,ArrowRight"":10,""ArrowDown,ArrowLeft"":8,""ArrowDown,ArrowRight"":30}","true","ArrowUp,ArrowLeft","","original","1","10","","",""
"html-keyboard-response","239","1111562","0.0-4.0-4.0-1.5","spark_pilot_norest","9112","7","9","Male","","","","","","","null","<div style=""font-size:60px;"">+</div>","null","fixation","","","","","","","","","11","","",""
"revaluation","240","1115581","0.0-4.0-4.0-0.6","spark_pilot_norest","9112","7","9","Male","","false","","","","","[587.0999994277954]","./assets/img/canyon/animals/giraffe.jpg","[""ArrowRight""]","revaluation","canyon","30","{""ArrowUp,ArrowLeft"":23,""ArrowUp,ArrowRight"":10,""ArrowDown,ArrowLeft"":8,""ArrowDown,ArrowRight"":30}","true","ArrowDown,ArrowRight","","original","1","12","","",""
"html-keyboard-response","241","1116083","0.0-4.0-4.0-1.6","spark_pilot_norest","9112","7","9","Male","","","","","","","null","<div style=""font-size:60px;"">+</div>","null","fixation","","","","","","","","","13","","",""
"revaluation","242","1120096","0.0-4.0-4.0-0.7","spark_pilot_norest","9112","7","9","Male","","false","","","","","[576.1000003814697]","./assets/img/canyon/animals/giraffe.jpg","[""ArrowLeft""]","revaluation","canyon","8","{""ArrowUp,ArrowLeft"":23,""ArrowUp,ArrowRight"":10,""ArrowDown,ArrowLeft"":8,""ArrowDown,ArrowRight"":30}","false","ArrowDown,ArrowLeft","","original","1","14","","",""
"html-keyboard-response","243","1120601","0.0-4.0-4.0-1.7","spark_pilot_norest","9112","7","9","Male","","","","","","","null","<div style=""font-size:60px;"">+</div>","null","fixation","","","","","","","","","15","","",""
"revaluation","244","1124623","0.0-4.0-4.0-0.8","spark_pilot_norest","9112","7","9","Male","","false","","","","","[624.8999996185303]","./assets/img/canyon/animals/giraffe.jpg","[""ArrowRight""]","revaluation","canyon","30","{""ArrowUp,ArrowLeft"":23,""ArrowUp,ArrowRight"":10,""ArrowDown,ArrowLeft"":8,""ArrowDown,ArrowRight"":30}","true","ArrowDown,ArrowRight","","original","1","16","","",""
"html-keyboard-response","245","1125125","0.0-4.0-4.0-1.8","spark_pilot_norest","9112","7","9","Male","","","","","","","null","<div style=""font-size:60px;"">+</div>","null","fixation","","","","","","","","","17","","",""
"revaluation","246","1129143","0.0-4.0-4.0-0.9","spark_pilot_norest","9112","7","9","Male","","false","","","","","[714.6000003814697]","./assets/img/canyon/animals/giraffe.jpg","[""ArrowRight""]","revaluation","canyon","30","{""ArrowUp,ArrowLeft"":23,""ArrowUp,ArrowRight"":10,""ArrowDown,ArrowLeft"":8,""ArrowDown,ArrowRight"":30}","true","ArrowDown,ArrowRight","","original","1","18","","",""
"html-keyboard-response","247","1129651","0.0-4.0-4.0-1.9","spark_pilot_norest","9112","7","9","Male","","","","","","","null","<div style=""font-size:60px;"">+</div>","null","fixation","","","","","","","","","19","","",""
"revaluation","248","1133678","0.0-4.0-4.0-0.10","spark_pilot_norest","9112","7","9","Male","","false","","","","","[458.29999923706055]","./assets/img/canyon/animals/lion.jpg","[""ArrowRight""]","revaluation","canyon","10","{""ArrowUp,ArrowLeft"":23,""ArrowUp,ArrowRight"":10,""ArrowDown,ArrowLeft"":8,""ArrowDown,ArrowRight"":30}","false","ArrowUp,ArrowRight","","original","1","20","","",""
"html-keyboard-response","249","1134183","0.0-4.0-4.0-1.10","spark_pilot_norest","9112","7","9","Male","","","","","","","null","<div style=""font-size:60px;"">+</div>","null","fixation","","","","","","","","","21","","",""
"revaluation","250","1138203","0.0-4.0-4.0-0.11","spark_pilot_norest","9112","7","9","Male","","false","","","","","[872.6000003814697]","./assets/img/canyon/animals/giraffe.jpg","[""ArrowRight""]","revaluation","canyon","30","{""ArrowUp,ArrowLeft"":23,""ArrowUp,ArrowRight"":10,""ArrowDown,ArrowLeft"":8,""ArrowDown,ArrowRight"":30}","true","ArrowDown,ArrowRight","","original","1","22","","",""
"html-keyboard-response","251","1138711","0.0-4.0-4.0-1.11","spark_pilot_norest","9112","7","9","Male","","","","","","","null","<div style=""font-size:60px;"">+</div>","null","fixation","","","","","","","","","23","","",""
"revaluation","252","1142731","0.0-4.0-4.0-0.12","spark_pilot_norest","9112","7","9","Male","","false","","","","","[835.3000001907349]","./assets/img/canyon/animals/lion.jpg","[""ArrowRight""]","revaluation","canyon","10","{""ArrowUp,ArrowLeft"":23,""ArrowUp,ArrowRight"":10,""ArrowDown,ArrowLeft"":8,""ArrowDown,ArrowRight"":30}","false","ArrowUp,ArrowRight","","original","1","24","","",""
"html-keyboard-response","253","1143235","0.0-4.0-4.0-1.12","spark_pilot_norest","9112","7","9","Male","","","","","","","null","<div style=""font-size:60px;"">+</div>","null","fixation","","","","","","","","","25","","",""
"revaluation","254","1147256","0.0-4.0-4.0-0.13","spark_pilot_norest","9112","7","9","Male","","false","","","","","[1522.2000007629395]","./assets/img/canyon/animals/lion.jpg","[""ArrowLeft""]","revaluation","canyon","23","{""ArrowUp,ArrowLeft"":23,""ArrowUp,ArrowRight"":10,""ArrowDown,ArrowLeft"":8,""ArrowDown,ArrowRight"":30}","true","ArrowUp,ArrowLeft","","original","1","26","","",""
"html-keyboard-response","255","1147760","0.0-4.0-4.0-1.13","spark_pilot_norest","9112","7","9","Male","","","","","","","null","<div style=""font-size:60px;"">+</div>","null","fixation","","","","","","","","","27","","",""
"revaluation","256","1151782","0.0-4.0-4.0-0.14","spark_pilot_norest","9112","7","9","Male","","false","","","","","[379.69999980926514]","./assets/img/canyon/animals/giraffe.jpg","[""ArrowRight""]","revaluation","canyon","30","{""ArrowUp,ArrowLeft"":23,""ArrowUp,ArrowRight"":10,""ArrowDown,ArrowLeft"":8,""ArrowDown,ArrowRight"":30}","true","ArrowDown,ArrowRight","","original","1","28","","",""
"html-keyboard-response","257","1152283","0.0-4.0-4.0-1.14","spark_pilot_norest","9112","7","9","Male","","","","","","","null","<div style=""font-size:60px;"">+</div>","null","fixation","","","","","","","","","29","","",""
"revaluation","258","1156308","0.0-4.0-4.0-0.15","spark_pilot_norest","9112","7","9","Male","","false","","","","","[365]","./assets/img/canyon/animals/lion.jpg","[""ArrowLeft""]","revaluation","canyon","23","{""ArrowUp,ArrowLeft"":23,""ArrowUp,ArrowRight"":10,""ArrowDown,ArrowLeft"":8,""ArrowDown,ArrowRight"":30}","true","ArrowUp,ArrowLeft","","original","1","30","","",""
"html-keyboard-response","259","1156809","0.0-4.0-4.0-1.15","spark_pilot_norest","9112","7","9","Male","","","","","","","null","<div style=""font-size:60px;"">+</div>","null","fixation","","","","","","","","","31","","",""
"revaluation","260","1160828","0.0-4.0-4.0-0.16","spark_pilot_norest","9112","7","9","Male","","false","","","","","[527]","./assets/img/canyon/animals/giraffe.jpg","[""ArrowRight""]","revaluation","canyon","30","{""ArrowUp,ArrowLeft"":23,""ArrowUp,ArrowRight"":10,""ArrowDown,ArrowLeft"":8,""ArrowDown,ArrowRight"":30}","true","ArrowDown,ArrowRight","","original","1","32","","",""
"html-keyboard-response","261","1161337","0.0-4.0-4.0-1.16","spark_pilot_norest","9112","7","9","Male","","","","","","","null","<div style=""font-size:60px;"">+</div>","null","fixation","","","","","","","","","33","","",""
"revaluation","262","1165354","0.0-4.0-4.0-0.17","spark_pilot_norest","9112","7","9","Male","","false","","","","","[634]","./assets/img/canyon/animals/lion.jpg","[""ArrowLeft""]","revaluation","canyon","23","{""ArrowUp,ArrowLeft"":23,""ArrowUp,ArrowRight"":10,""ArrowDown,ArrowLeft"":8,""ArrowDown,ArrowRight"":30}","true","ArrowUp,ArrowLeft","","original","1","34","","",""
"html-keyboard-response","263","1165861","0.0-4.0-4.0-1.17","spark_pilot_norest","9112","7","9","Male","","","","","","","null","<div style=""font-size:60px;"">+</div>","null","fixation","","","","","","","","","35","","",""
"learning-instructions","264","1174456","0.0-4.0-5.0-0.0","spark_pilot_norest","9112","7","9","Male","","","","","","","null","<p> You have almost finished this part of the game! </p>
            <p> We are going to ask you to make a few more choices. </p>","","instructions","","","","","","","","","","","",""
"learning-instructions","265","1190438","0.0-4.0-5.0-0.1","spark_pilot_norest","9112","7","9","Male","","","","","","","null","<p> First, you need to decide whether to go up or down. When you see each picture, use the arrow keys to make your choice. </p>
            <p><b>You will not see which animal you found, but try to get to the one that will give you the most treasure.</b></p>","","instructions","","","","","","","","","","","",""
"html-keyboard-response","266","1191447","0.0-4.0-6.0-0.0","spark_pilot_norest","9112","7","9","Male","","","","","","","null","<div style=""font-size:100px;color:red;"">Starting in...</div>","null","","","","","","","","","","","","",""
"html-keyboard-response","267","1192456","0.0-4.0-6.0-1.0","spark_pilot_norest","9112","7","9","Male","","","","","","","null","<div style=""font-size:200px;color:red;"">3</div>","null","","","","","","","","","","","","",""
"html-keyboard-response","268","1193469","0.0-4.0-6.0-2.0","spark_pilot_norest","9112","7","9","Male","","","","","","","null","<div style=""font-size:200px;color:red;"">2</div>","null","","","","","","","","","","","","",""
"html-keyboard-response","269","1194479","0.0-4.0-6.0-3.0","spark_pilot_norest","9112","7","9","Male","","","","","","","null","<div style=""font-size:200px;color:red;"">1</div>","null","","","","","","","","","","","","",""
"revaluation","270","1195246","0.0-4.0-7.0-0.0","spark_pilot_norest","9112","7","9","Male","","false","","","","","[763.8999996185303]","./assets/img/canyon/test/1.jpg","[""ArrowUp""]","first stage test","canyon","0","{""ArrowUp,ArrowLeft"":23,""ArrowUp,ArrowRight"":10,""ArrowDown,ArrowLeft"":8,""ArrowDown,ArrowRight"":30}","false","ArrowUp","false","original","1","","","",""
"html-keyboard-response","271","1195755","0.0-4.0-7.0-1.0","spark_pilot_norest","9112","7","9","Male","","","","","","","null","<div style=""font-size:60px;"">+</div>","null","fixation","","","","","","","","","","","",""
"revaluation","272","1196809","0.0-4.0-7.0-0.1","spark_pilot_norest","9112","7","9","Male","","false","","","","","[1049.4000005722046]","./assets/img/canyon/test/2.jpg","[""ArrowUp""]","first stage test","canyon","0","{""ArrowUp,ArrowLeft"":23,""ArrowUp,ArrowRight"":10,""ArrowDown,ArrowLeft"":8,""ArrowDown,ArrowRight"":30}","false","ArrowUp","false","original","1","","","",""
"html-keyboard-response","273","1197325","0.0-4.0-7.0-1.1","spark_pilot_norest","9112","7","9","Male","","","","","","","null","<div style=""font-size:60px;"">+</div>","null","fixation","","","","","","","","","","","",""
"revaluation","274","1198190","0.0-4.0-7.0-0.2","spark_pilot_norest","9112","7","9","Male","","false","","","","","[861.3000001907349]","./assets/img/canyon/test/0.jpg","[""ArrowUp""]","first stage test","canyon","0","{""ArrowUp,ArrowLeft"":23,""ArrowUp,ArrowRight"":10,""ArrowDown,ArrowLeft"":8,""ArrowDown,ArrowRight"":30}","false","ArrowUp","false","original","1","","","",""
"html-keyboard-response","275","1198705","0.0-4.0-7.0-1.2","spark_pilot_norest","9112","7","9","Male","","","","","","","null","<div style=""font-size:60px;"">+</div>","null","fixation","","","","","","","","","","","",""
"revaluation","276","1199348","0.0-4.0-7.0-0.3","spark_pilot_norest","9112","7","9","Male","","false","","","","","[639.3000001907349]","./assets/img/canyon/test/3.jpg","[""ArrowUp""]","first stage test","canyon","0","{""ArrowUp,ArrowLeft"":23,""ArrowUp,ArrowRight"":10,""ArrowDown,ArrowLeft"":8,""ArrowDown,ArrowRight"":30}","false","ArrowUp","false","original","1","","","",""
"html-keyboard-response","277","1199861","0.0-4.0-7.0-1.3","spark_pilot_norest","9112","7","9","Male","","","","","","","null","<div style=""font-size:60px;"">+</div>","null","fixation","","","","","","","","","","","",""
"learning-instructions","278","1213209","0.0-4.0-8.0-0.0","spark_pilot_norest","9112","7","9","Male","","","","","","","null","<p> Now you will see the animals again and can search their chests for treasure. </p>
            <p> This time, you will not see how much treasure you earned, but you will earn more bonus money for making better choices. </p>","","instructions","","","","","","","","","","","",""
"html-keyboard-response","279","1214217","0.0-4.0-9.0-0.0","spark_pilot_norest","9112","7","9","Male","","","","","","","null","<div style=""font-size:100px;color:red;"">Starting in...</div>","null","","","","","","","","","","","","",""
"html-keyboard-response","280","1215222","0.0-4.0-9.0-1.0","spark_pilot_norest","9112","7","9","Male","","","","","","","null","<div style=""font-size:200px;color:red;"">3</div>","null","","","","","","","","","","","","",""
"html-keyboard-response","281","1216230","0.0-4.0-9.0-2.0","spark_pilot_norest","9112","7","9","Male","","","","","","","null","<div style=""font-size:200px;color:red;"">2</div>","null","","","","","","","","","","","","",""
"html-keyboard-response","282","1217239","0.0-4.0-9.0-3.0","spark_pilot_norest","9112","7","9","Male","","","","","","","null","<div style=""font-size:200px;color:red;"">1</div>","null","","","","","","","","","","","","",""
"revaluation","283","1217990","0.0-4.0-10.0-0.0","spark_pilot_norest","9112","7","9","Male","","false","","","","","[746]","./assets/img/canyon/animals/lion.jpg","[""ArrowLeft""]","second stage test","canyon","0","{""ArrowUp,ArrowLeft"":23,""ArrowUp,ArrowRight"":10,""ArrowDown,ArrowLeft"":8,""ArrowDown,ArrowRight"":30}","true","ArrowUp,ArrowLeft","","original","1","","","",""
"html-keyboard-response","284","1218497","0.0-4.0-10.0-1.0","spark_pilot_norest","9112","7","9","Male","","","","","","","null","<div style=""font-size:60px;"">+</div>","null","fixation","","","","","","","","","","","",""
"revaluation","285","1219463","0.0-4.0-10.0-0.1","spark_pilot_norest","9112","7","9","Male","","false","","","","","[962.0999994277954]","./assets/img/canyon/animals/lion.jpg","[""ArrowLeft""]","second stage test","canyon","0","{""ArrowUp,ArrowLeft"":23,""ArrowUp,ArrowRight"":10,""ArrowDown,ArrowLeft"":8,""ArrowDown,ArrowRight"":30}","true","ArrowUp,ArrowLeft","","original","1","","","",""
"html-keyboard-response","286","1219974","0.0-4.0-10.0-1.1","spark_pilot_norest","9112","7","9","Male","","","","","","","null","<div style=""font-size:60px;"">+</div>","null","fixation","","","","","","","","","","","",""
"revaluation","287","1220467","0.0-4.0-10.0-0.2","spark_pilot_norest","9112","7","9","Male","","false","","","","","[487.9000005722046]","./assets/img/canyon/animals/lion.jpg","[""ArrowLeft""]","second stage test","canyon","0","{""ArrowUp,ArrowLeft"":23,""ArrowUp,ArrowRight"":10,""ArrowDown,ArrowLeft"":8,""ArrowDown,ArrowRight"":30}","true","ArrowUp,ArrowLeft","","original","1","","","",""
"html-keyboard-response","288","1220979","0.0-4.0-10.0-1.2","spark_pilot_norest","9112","7","9","Male","","","","","","","null","<div style=""font-size:60px;"">+</div>","null","fixation","","","","","","","","","","","",""
"revaluation","289","1221549","0.0-4.0-10.0-0.3","spark_pilot_norest","9112","7","9","Male","","false","","","","","[564.6000003814697]","./assets/img/canyon/animals/lion.jpg","[""ArrowLeft""]","second stage test","canyon","0","{""ArrowUp,ArrowLeft"":23,""ArrowUp,ArrowRight"":10,""ArrowDown,ArrowLeft"":8,""ArrowDown,ArrowRight"":30}","true","ArrowUp,ArrowLeft","","original","1","","","",""
"html-keyboard-response","290","1222056","0.0-4.0-10.0-1.3","spark_pilot_norest","9112","7","9","Male","","","","","","","null","<div style=""font-size:60px;"">+</div>","null","fixation","","","","","","","","","","","",""
"revaluation","291","1222707","0.0-4.0-10.0-0.4","spark_pilot_norest","9112","7","9","Male","","false","","","","","[644.6999998092651]","./assets/img/canyon/animals/giraffe.jpg","[""ArrowRight""]","second stage test","canyon","0","{""ArrowUp,ArrowLeft"":23,""ArrowUp,ArrowRight"":10,""ArrowDown,ArrowLeft"":8,""ArrowDown,ArrowRight"":30}","true","ArrowDown,ArrowRight","","original","1","","","",""
"html-keyboard-response","292","1223209","0.0-4.0-10.0-1.4","spark_pilot_norest","9112","7","9","Male","","","","","","","null","<div style=""font-size:60px;"">+</div>","null","fixation","","","","","","","","","","","",""
"revaluation","293","1223846","0.0-4.0-10.0-0.5","spark_pilot_norest","9112","7","9","Male","","false","","","","","[626.9000005722046]","./assets/img/canyon/animals/giraffe.jpg","[""ArrowRight""]","second stage test","canyon","0","{""ArrowUp,ArrowLeft"":23,""ArrowUp,ArrowRight"":10,""ArrowDown,ArrowLeft"":8,""ArrowDown,ArrowRight"":30}","true","ArrowDown,ArrowRight","","original","1","","","",""
"html-keyboard-response","294","1224360","0.0-4.0-10.0-1.5","spark_pilot_norest","9112","7","9","Male","","","","","","","null","<div style=""font-size:60px;"">+</div>","null","fixation","","","","","","","","","","","",""
"revaluation","295","1224783","0.0-4.0-10.0-0.6","spark_pilot_norest","9112","7","9","Male","","false","","","","","[418.80000019073486]","./assets/img/canyon/animals/giraffe.jpg","[""ArrowRight""]","second stage test","canyon","0","{""ArrowUp,ArrowLeft"":23,""ArrowUp,ArrowRight"":10,""ArrowDown,ArrowLeft"":8,""ArrowDown,ArrowRight"":30}","true","ArrowDown,ArrowRight","","original","1","","","",""
"html-keyboard-response","296","1225288","0.0-4.0-10.0-1.6","spark_pilot_norest","9112","7","9","Male","","","","","","","null","<div style=""font-size:60px;"">+</div>","null","fixation","","","","","","","","","","","",""
"revaluation","297","1225723","0.0-4.0-10.0-0.7","spark_pilot_norest","9112","7","9","Male","","false","","","","","[429.30000019073486]","./assets/img/canyon/animals/giraffe.jpg","[""ArrowRight""]","second stage test","canyon","0","{""ArrowUp,ArrowLeft"":23,""ArrowUp,ArrowRight"":10,""ArrowDown,ArrowLeft"":8,""ArrowDown,ArrowRight"":30}","true","ArrowDown,ArrowRight","","original","1","","","",""
"html-keyboard-response","298","1226229","0.0-4.0-10.0-1.7","spark_pilot_norest","9112","7","9","Male","","","","","","","null","<div style=""font-size:60px;"">+</div>","null","fixation","","","","","","","","","","","",""
"learning-instructions","299","1246445","0.0-4.0-0.1-0.2","spark_pilot_norest","9112","7","9","Male","","","","","","","17483.900000572205","<p> This time you are searching for treasure in the <b>ocean</b>.</p>","","instructions","","","","","","","","","","","",""
"learning-instructions","300","1283567","0.0-4.0-0.1-0.3","spark_pilot_norest","9112","7","9","Male","","","","","","","19865.300000190735","<p><b>New</b> animals with <b>new</b> treasure chests live here. You need to explore to discover where the animal with the best treasure chest is.</p>
                    <p> Like before, once you figure out which animal has the chest with the most treasure, you should try to get to that animal and select that chest! </p>","","instructions","","","","","","","","","","","",""
"learning-instructions","301","1300297","0.0-4.0-1.1-0.1","spark_pilot_norest","9112","7","9","Male","","","","","","","1995.8000001907349","<p> Remember, when you see a picture of the place, use the up and down keys to <b>find an animal</b>.</p>
            <p> When you encounter an animal, you should use the left and right keys to <b>select a treasure chest</b>.</p>
            <p> Don't forget to look out for the robber! </p>","","instructions","","","","","","","","","","","",""
"revaluation","302","1304334","0.0-4.0-2.1-0.50","spark_pilot_norest","9112","7","9","Male","","true","","","","","[]","./assets/img/ocean/memory/25.jpg","[]","value training","ocean","-5","{""ArrowUp,ArrowLeft"":26,""ArrowUp,ArrowRight"":10,""ArrowDown,ArrowLeft"":5,""ArrowDown,ArrowRight"":17}","false","","false","revaluation","2","0","","",""
"html-keyboard-response","303","1304850","0.0-4.0-2.1-1.50","spark_pilot_norest","9112","7","9","Male","","","","","","","null","<div style=""font-size:60px;"">+</div>","null","fixation","","","","","","","","","1","","",""
"revaluation","304","1310891","0.0-4.0-2.1-0.51","spark_pilot_norest","9112","7","9","Male","","false","","","","","[763.6000003814697,1249.3999996185303]","./assets/img/ocean/memory/4.jpg","[""ArrowDown"",""ArrowLeft""]","value training","ocean","5","{""ArrowUp,ArrowLeft"":26,""ArrowUp,ArrowRight"":10,""ArrowDown,ArrowLeft"":5,""ArrowDown,ArrowRight"":17}","false","ArrowDown,ArrowLeft","false","revaluation","2","2","","",""
"html-keyboard-response","305","1311400","0.0-4.0-2.1-1.51","spark_pilot_norest","9112","7","9","Male","","","","","","","null","<div style=""font-size:60px;"">+</div>","null","fixation","","","","","","","","","3","","",""
"revaluation","306","1317447","0.0-4.0-2.1-0.52","spark_pilot_norest","9112","7","9","Male","","false","","","","","[984.5,934.6999998092651]","./assets/img/ocean/memory/29.jpg","[""ArrowUp"",""ArrowRight""]","value training","ocean","10","{""ArrowUp,ArrowLeft"":26,""ArrowUp,ArrowRight"":10,""ArrowDown,ArrowLeft"":5,""ArrowDown,ArrowRight"":17}","false","ArrowUp,ArrowRight","false","revaluation","2","4","","",""
"html-keyboard-response","307","1317949","0.0-4.0-2.1-1.52","spark_pilot_norest","9112","7","9","Male","","","","","","","null","<div style=""font-size:60px;"">+</div>","null","fixation","","","","","","","","","5","","",""
"revaluation","308","1323971","0.0-4.0-2.1-0.53","spark_pilot_norest","9112","7","9","Male","","false","","","","","[1612.3999996185303,841.8000001907349]","./assets/img/ocean/memory/19.jpg","[""ArrowDown"",""ArrowLeft""]","value training","ocean","5","{""ArrowUp,ArrowLeft"":26,""ArrowUp,ArrowRight"":10,""ArrowDown,ArrowLeft"":5,""ArrowDown,ArrowRight"":17}","false","ArrowDown,ArrowLeft","false","revaluation","2","6","","",""
"html-keyboard-response","309","1324488","0.0-4.0-2.1-1.53","spark_pilot_norest","9112","7","9","Male","","","","","","","null","<div style=""font-size:60px;"">+</div>","null","fixation","","","","","","","","","7","","",""
"revaluation","310","1328501","0.0-4.0-2.1-0.54","spark_pilot_norest","9112","7","9","Male","","false","","","","","[1109.1999998092651]","./assets/img/ocean/catch/6.jpg","[""spaceBar""]","value training","ocean","0","{""ArrowUp,ArrowLeft"":26,""ArrowUp,ArrowRight"":10,""ArrowDown,ArrowLeft"":5,""ArrowDown,ArrowRight"":17}","true","spaceBar","true","revaluation","2","8","","",""
"html-keyboard-response","311","1329013","0.0-4.0-2.1-1.54","spark_pilot_norest","9112","7","9","Male","","","","","","","null","<div style=""font-size:60px;"">+</div>","null","fixation","","","","","","","","","9","","",""
"revaluation","312","1333025","0.0-4.0-2.1-0.55","spark_pilot_norest","9112","7","9","Male","","false","","","","","[894.3999996185303]","./assets/img/ocean/catch/3.jpg","[""spaceBar""]","value training","ocean","0","{""ArrowUp,ArrowLeft"":26,""ArrowUp,ArrowRight"":10,""ArrowDown,ArrowLeft"":5,""ArrowDown,ArrowRight"":17}","true","spaceBar","true","revaluation","2","10","","",""
"html-keyboard-response","313","1333529","0.0-4.0-2.1-1.55","spark_pilot_norest","9112","7","9","Male","","","","","","","null","<div style=""font-size:60px;"">+</div>","null","fixation","","","","","","","","","11","","",""
"revaluation","314","1339543","0.0-4.0-2.1-0.56","spark_pilot_norest","9112","7","9","Male","","false","","","","","[1792.1999998092651,1523.6000003814697]","./assets/img/ocean/memory/9.jpg","[""ArrowUp"",""ArrowRight""]","value training","ocean","10","{""ArrowUp,ArrowLeft"":26,""ArrowUp,ArrowRight"":10,""ArrowDown,ArrowLeft"":5,""ArrowDown,ArrowRight"":17}","false","ArrowUp,ArrowRight","false","revaluation","2","12","","",""
"html-keyboard-response","315","1340050","0.0-4.0-2.1-1.56","spark_pilot_norest","9112","7","9","Male","","","","","","","null","<div style=""font-size:60px;"">+</div>","null","fixation","","","","","","","","","13","","",""
