"trial_type","trial_index","time_elapsed","internal_node_id","task_version","subject_id","assigned_condition","age","gender","success","timeout","failed_images","failed_audio","failed_video","browser_interaction","rt","stimulus","response","task_part","environment","score","rewardMap","correct","fullState","isCatch","condition","order","trial_num","key_press","ground_truth","bonus"
"pavlovia","0","1552","0.0-0.0","spark_pilot_norest","9627","5","16","Male","","","","","","","","","","","","","","","","","","","","","",""
"preload","1","41338","0.0-1.0","spark_pilot_norest","9627","5","16","Male","true","false","[]","[]","[]","[{""event"":""fullscreenenter"",""trial"":2,""time"":44197},{""event"":""fullscreenexit"",""trial"":39,""time"":261267}]","","","","","","","","","","","","","","","",""
"fullscreen","2","45199","0.0-2.0","spark_pilot_norest","9627","5","16","Male","true","","","","","","","","","","","","","","","","","","","","",""
"audio-button-response","3","48669","0.0-3.0-0.0-0.0","spark_pilot_norest","9627","5","16","Male","","","","","","","3460","./assets/audio/audiotest/turtle.mp3","4","audio_test","","","","","","","","","","","",""
"audio-button-response","4","51027","0.0-3.0-0.1-0.1","spark_pilot_norest","9627","5","16","Male","","","","","","","1347","./assets/audio/audiotest/turtle.mp3","2","audio_test","","","","","","","","","","","",""
"learning-instructions","5","60605","0.0-3.0-1.0-0.0","spark_pilot_norest","9627","5","16","Male","","","","","","","2592.7000002861023","<p> Welcome! Please remember to stay in fullscreen mode and don't click away from the experiment. </p>","","instructions","","","","","","","","","","","",""
"learning-instructions","6","69761","0.0-3.0-1.0-0.1","spark_pilot_norest","9627","5","16","Male","","","","","","","736.6999998092651","<p> Today you will be playing a game to earn treasure. </p>
            <p> At the end of the experiment, you will earn a bonus based on how much treasure you find. </p>
            <img src='./assets/img/instructions/treasure.jpg' class='instructions-image'>","","instructions","","","","","","","","","","","",""
"learning-instructions","7","79539","0.0-3.0-1.0-0.2","spark_pilot_norest","9627","5","16","Male","","","","","","","1511","<p> Animals have hidden treasure in treasure chests. </p>
            <p> You need to first find an animal and then choose which of their treasure chests to search. </p>
            <img src='./assets/img/space/animals/cat.jpg' class='instructions-image'>","","instructions","","","","","","","","","","","",""
"learning-instructions","8","95167","0.0-3.0-1.0-0.3","spark_pilot_norest","9627","5","16","Male","","","","","","","2458.300000190735","<p> In each round, you will search for treasure in a different place. In the real game, there will be two rounds. </p>
            <p> You will begin with a separate, practice round where you will search for treasure in outer space. </p>
            <img src='./assets/img/space/0.jpg' class='instructions-image'>","","instructions","","","","","","","","","","","",""
"learning-instructions","9","119003","0.0-3.0-1.0-0.4","spark_pilot_norest","9627","5","16","Male","","","","","","","12397.200000286102","<p> On every turn, you will see a picture of the place that you are in, but the specific image may be different each time. </p>
            <p> For example, both of these images mean you are in outer space. </p>
            <img src='./assets/img/instructions/outerspace.jpg' class='instructions-image'>","","instructions","","","","","","","","","","","",""
"learning-instructions","10","128335","0.0-3.0-1.0-0.5","spark_pilot_norest","9627","5","16","Male","","","","","","","1498.7000002861023","<p> You need to decide which direction to travel in. </p>
            <p> You can choose between going <b>up or down</b> by using the arrow keys. </p>
            <img src='./assets/img/instructions/updown.jpg' class='instructions-image'>","","instructions","","","","","","","","","","","",""
"learning-instructions","11","137667","0.0-3.0-1.0-0.6","spark_pilot_norest","9627","5","16","Male","","","","","","","515.1000003814697","<p> You will have <b>2 seconds</b> to make your choice. </p>
            <p> If you do not make a choice within 2 seconds, you will not find an animal or earn treasure. </p>
            <img src='./assets/img/instructions/2seconds.jpg' class='instructions-image'>","","instructions","","","","","","","","","","","",""
"learning-instructions","12","146221","0.0-3.0-1.0-0.7","spark_pilot_norest","9627","5","16","Male","","","","","","","1511.2000002861023","<p> Let’s try practicing that now! </p>
            <p> When you see a picture of the place you are in, press the <b>up</b> key to travel up. </p>
            <img src='./assets/img/instructions/pressUp.jpg' class='instructions-image'>","","instructions","","","","","","","","","","","",""
"revaluation","13","150241","0.0-3.0-2.0-0.0","spark_pilot_norest","9627","5","16","Male","","false","","","","","[652.5]","./assets/img/space/0.jpg","[""ArrowUp""]","first stage practice","space","0","null","null","ArrowUp","false","","","","","",""
"html-keyboard-response","14","150748","0.0-3.0-2.0-1.0","spark_pilot_norest","9627","5","16","Male","","","","","","","null","<div style=""font-size:60px;"">+</div>","null","fixation","","","","","","","","","","","",""
"revaluation","15","154765","0.0-3.0-2.0-0.1","spark_pilot_norest","9627","5","16","Male","","false","","","","","[1362.1000003814697]","./assets/img/space/1.jpg","[""ArrowUp""]","first stage practice","space","0","null","null","ArrowUp","false","","","","","",""
"html-keyboard-response","16","155271","0.0-3.0-2.0-1.1","spark_pilot_norest","9627","5","16","Male","","","","","","","null","<div style=""font-size:60px;"">+</div>","null","fixation","","","","","","","","","","","",""
"revaluation","17","159286","0.0-3.0-2.0-0.2","spark_pilot_norest","9627","5","16","Male","","false","","","","","[48.5]","./assets/img/space/2.jpg","[""ArrowUp""]","first stage practice","space","0","null","null","ArrowUp","false","","","","","",""
"html-keyboard-response","18","159790","0.0-3.0-2.0-1.2","spark_pilot_norest","9627","5","16","Male","","","","","","","null","<div style=""font-size:60px;"">+</div>","null","fixation","","","","","","","","","","","",""
"learning-instructions","19","164631","0.0-3.0-3.0-0.0","spark_pilot_norest","9627","5","16","Male","","","","","","","137.90000009536743","<p> Great job! Now try pressing the <b>down</b> key to travel down. </p>
            <img src='./assets/img/instructions/pressDown.jpg' class='instructions-image'>","","instructions","","","","","","","","","","","",""
"revaluation","20","168647","0.0-3.0-4.0-0.0","spark_pilot_norest","9627","5","16","Male","","false","","","","","[1334.7999997138977]","./assets/img/space/3.jpg","[""ArrowDown""]","first stage practice","space","0","null","null","ArrowDown","false","","","","","",""
"html-keyboard-response","21","169159","0.0-3.0-4.0-1.0","spark_pilot_norest","9627","5","16","Male","","","","","","","null","<div style=""font-size:60px;"">+</div>","null","fixation","","","","","","","","","","","",""
"revaluation","22","173173","0.0-3.0-4.0-0.1","spark_pilot_norest","9627","5","16","Male","","false","","","","","[64.90000009536743]","./assets/img/space/4.jpg","[""ArrowDown""]","first stage practice","space","0","null","null","ArrowDown","false","","","","","",""
"html-keyboard-response","23","173676","0.0-3.0-4.0-1.1","spark_pilot_norest","9627","5","16","Male","","","","","","","null","<div style=""font-size:60px;"">+</div>","null","fixation","","","","","","","","","","","",""
"revaluation","24","177693","0.0-3.0-4.0-0.2","spark_pilot_norest","9627","5","16","Male","","false","","","","","[121.59999990463257]","./assets/img/space/5.jpg","[""ArrowDown""]","first stage practice","space","0","null","null","ArrowDown","false","","","","","",""
"html-keyboard-response","25","178198","0.0-3.0-4.0-1.2","spark_pilot_norest","9627","5","16","Male","","","","","","","null","<div style=""font-size:60px;"">+</div>","null","fixation","","","","","","","","","","","",""
"learning-instructions","26","189549","0.0-3.0-5.0-0.0","spark_pilot_norest","9627","5","16","Male","","","","","","","1487.8000001907349","<p> The animals don’t move, so the animal in the upper part of a place will stay in the upper part of a place, and the animal in the lower part of a place will stay in the lower part of a place. </p>","","instructions","","","","","","","","","","","",""
"learning-instructions","27","201021","0.0-3.0-5.0-0.1","spark_pilot_norest","9627","5","16","Male","","","","","","","2330.800000190735","<p> Each animal has two treasure chests for you to choose from. </p>
            <p> The amount of treasure in each chest can range from <b> 0 to 40 pieces.</b></p>","","instructions","","","","","","","","","","","",""
"learning-instructions","28","213107","0.0-3.0-5.0-0.2","spark_pilot_norest","9627","5","16","Male","","","","","","","885.5","<p> You should decide which chest to search for treasure by using the <b>left</b> and <b>right</b> arrow keys. </p>
            <p><b> Pay attention to which animal is on the screen, as the animals have different treasure chests. </b></p>
            <img src='./assets/img/instructions/leftright.jpg' class='instructions-image'>","","instructions","","","","","","","","","","","",""
"learning-instructions","29","220437","0.0-3.0-5.0-0.3","spark_pilot_norest","9627","5","16","Male","","","","","","","959.0999999046326","<p> Let’s try practicing that now. </p>
            <p> When you see an animal, choose which chest to search for treasure. </p>
            <img src='./assets/img/instructions/chooseChest.jpg' class='instructions-image'>","","instructions","","","","","","","","","","","",""
"revaluation","30","224455","0.0-3.0-6.0-0.0","spark_pilot_norest","9627","5","16","Male","","false","","","","","[817]","./assets/img/space/animals/rabbit.jpg","[""ArrowLeft""]","second stage practice","space","15","{""ArrowUp,ArrowLeft"":3,""ArrowUp,ArrowRight"":36,""ArrowDown,ArrowLeft"":15,""ArrowDown,ArrowRight"":23}","false","ArrowDown,ArrowLeft","","","","","","",""
"html-keyboard-response","31","224965","0.0-3.0-6.0-1.0","spark_pilot_norest","9627","5","16","Male","","","","","","","null","<div style=""font-size:60px;"">+</div>","null","fixation","","","","","","","","","","","",""
"revaluation","32","228981","0.0-3.0-6.0-0.1","spark_pilot_norest","9627","5","16","Male","","false","","","","","[1019.4000000953674]","./assets/img/space/animals/cat.jpg","[""ArrowLeft""]","second stage practice","space","3","{""ArrowUp,ArrowLeft"":3,""ArrowUp,ArrowRight"":36,""ArrowDown,ArrowLeft"":15,""ArrowDown,ArrowRight"":23}","false","ArrowUp,ArrowLeft","","","","","","",""
"html-keyboard-response","33","229488","0.0-3.0-6.0-1.1","spark_pilot_norest","9627","5","16","Male","","","","","","","null","<div style=""font-size:60px;"">+</div>","null","fixation","","","","","","","","","","","",""
"revaluation","34","233504","0.0-3.0-6.0-0.2","spark_pilot_norest","9627","5","16","Male","","false","","","","","[910.2999997138977]","./assets/img/space/animals/cat.jpg","[""ArrowRight""]","second stage practice","space","36","{""ArrowUp,ArrowLeft"":3,""ArrowUp,ArrowRight"":36,""ArrowDown,ArrowLeft"":15,""ArrowDown,ArrowRight"":23}","true","ArrowUp,ArrowRight","","","","","","",""
"html-keyboard-response","35","234013","0.0-3.0-6.0-1.2","spark_pilot_norest","9627","5","16","Male","","","","","","","null","<div style=""font-size:60px;"">+</div>","null","fixation","","","","","","","","","","","",""
"revaluation","36","238032","0.0-3.0-6.0-0.3","spark_pilot_norest","9627","5","16","Male","","false","","","","","[610.6999998092651]","./assets/img/space/animals/rabbit.jpg","[""ArrowRight""]","second stage practice","space","23","{""ArrowUp,ArrowLeft"":3,""ArrowUp,ArrowRight"":36,""ArrowDown,ArrowLeft"":15,""ArrowDown,ArrowRight"":23}","true","ArrowDown,ArrowRight","","","","","","",""
"html-keyboard-response","37","238542","0.0-3.0-6.0-1.3","spark_pilot_norest","9627","5","16","Male","","","","","","","null","<div style=""font-size:60px;"">+</div>","null","fixation","","","","","","","","","","","",""
"learning-instructions","38","256854","0.0-3.0-7.0-0.0","spark_pilot_norest","9627","5","16","Male","","","","","","[{""event"":""fullscreenenter"",""trial"":2,""time"":44197},{""event"":""fullscreenexit"",""trial"":39,""time"":261267}]","1477.0999999046326","<p> Great job. Now let’s try putting it together. </p>
            <p> On each turn, you will first see a picture to remind you of the place you are in, and you need to choose whether to go up or down. </p>
            <p> Then you will see an animal and choose which of its chests to search for treasure. </p>","","instructions","","","","","","","","","","","",""
"learning-instructions","39","269853","0.0-3.0-7.0-0.1","spark_pilot_norest","9627","5","16","Male","","","","","","","4736.200000286102","<p> When you choose whether to go up or down, try to go to the animal with the chest with the most treasure. </p>
            <p> Try practicing that now! </p>","","instructions","","","","","","","","","","","",""
"revaluation","40","275876","0.0-3.0-8.0-0.0","spark_pilot_norest","9627","5","16","Male","","false","","","","","[1403.1999998092651,1223.6999998092651]","./assets/img/space/6.jpg","[""ArrowUp"",""ArrowLeft""]","full practice","space","3","{""ArrowUp,ArrowLeft"":3,""ArrowUp,ArrowRight"":36,""ArrowDown,ArrowLeft"":15,""ArrowDown,ArrowRight"":23}","false","ArrowUp,ArrowLeft","false","","","","","",""
"html-keyboard-response","41","276384","0.0-3.0-8.0-1.0","spark_pilot_norest","9627","5","16","Male","","","","","","","null","<div style=""font-size:60px;"">+</div>","null","fixation","","","","","","","","","","","",""
"revaluation","42","282404","0.0-3.0-8.0-0.1","spark_pilot_norest","9627","5","16","Male","","false","","","","","[1335.2000002861023,776.1999998092651]","./assets/img/space/7.jpg","[""ArrowDown"",""ArrowLeft""]","full practice","space","15","{""ArrowUp,ArrowLeft"":3,""ArrowUp,ArrowRight"":36,""ArrowDown,ArrowLeft"":15,""ArrowDown,ArrowRight"":23}","false","ArrowDown,ArrowLeft","false","","","","","",""
"html-keyboard-response","43","282908","0.0-3.0-8.0-1.1","spark_pilot_norest","9627","5","16","Male","","","","","","","null","<div style=""font-size:60px;"">+</div>","null","fixation","","","","","","","","","","","",""
"revaluation","44","288935","0.0-3.0-8.0-0.2","spark_pilot_norest","9627","5","16","Male","","false","","","","","[322.6000003814697,360.7000002861023]","./assets/img/space/8.jpg","[""ArrowUp"",""ArrowRight""]","full practice","space","36","{""ArrowUp,ArrowLeft"":3,""ArrowUp,ArrowRight"":36,""ArrowDown,ArrowLeft"":15,""ArrowDown,ArrowRight"":23}","true","ArrowUp,ArrowRight","false","","","","","",""
"html-keyboard-response","45","289440","0.0-3.0-8.0-1.2","spark_pilot_norest","9627","5","16","Male","","","","","","","null","<div style=""font-size:60px;"">+</div>","null","fixation","","","","","","","","","","","",""
"revaluation","46","295464","0.0-3.0-8.0-0.3","spark_pilot_norest","9627","5","16","Male","","false","","","","","[423.2000002861023,419.19999980926514]","./assets/img/space/9.jpg","[""ArrowDown"",""ArrowRight""]","full practice","space","23","{""ArrowUp,ArrowLeft"":3,""ArrowUp,ArrowRight"":36,""ArrowDown,ArrowLeft"":15,""ArrowDown,ArrowRight"":23}","false","ArrowDown,ArrowRight","false","","","","","",""
"html-keyboard-response","47","295974","0.0-3.0-8.0-1.3","spark_pilot_norest","9627","5","16","Male","","","","","","","null","<div style=""font-size:60px;"">+</div>","null","fixation","","","","","","","","","","","",""
"revaluation","48","301998","0.0-3.0-8.0-0.4","spark_pilot_norest","9627","5","16","Male","","false","","","","","[425.19999980926514,319.90000009536743]","./assets/img/space/10.jpg","[""ArrowUp"",""ArrowRight""]","full practice","space","36","{""ArrowUp,ArrowLeft"":3,""ArrowUp,ArrowRight"":36,""ArrowDown,ArrowLeft"":15,""ArrowDown,ArrowRight"":23}","true","ArrowUp,ArrowRight","false","","","","","",""
"html-keyboard-response","49","302501","0.0-3.0-8.0-1.4","spark_pilot_norest","9627","5","16","Male","","","","","","","null","<div style=""font-size:60px;"">+</div>","null","fixation","","","","","","","","","","","",""
"learning-instructions","50","315070","0.0-3.0-9.0-0.0","spark_pilot_norest","9627","5","16","Male","","","","","","","2241.0999999046326","<p> One last thing: sometimes, you will see a robber. The robber can be anywhere in the picture. </p>
            <p> If you do not stop them, you will lose treasure. </p>
            <img src='./assets/img/instructions/robber.jpg' class='instructions-image'>","","instructions","","","","","","","","","","","",""
"learning-instructions","51","323760","0.0-3.0-9.0-0.1","spark_pilot_norest","9627","5","16","Male","","","","","","","1521.3000001907349","<p> If you see the robber, you should <b>press the space bar</b> rather than using the arrow keys. </p>
            <p> Try practicing that now! </p>","","instructions","","","","","","","","","","","",""
"revaluation","52","327776","0.0-3.0-10.0-0.0","spark_pilot_norest","9627","5","16","Male","","false","","","","","[663.2999997138977]","./assets/img/space/catch/0.jpg","[""spaceBar""]","catch practice","space","0","{""ArrowUp,ArrowLeft"":3,""ArrowUp,ArrowRight"":36,""ArrowDown,ArrowLeft"":15,""ArrowDown,ArrowRight"":23}","true","spaceBar","true","","","","","",""
"html-keyboard-response","53","328287","0.0-3.0-10.0-1.0","spark_pilot_norest","9627","5","16","Male","","","","","","","null","<div style=""font-size:60px;"">+</div>","null","fixation","","","","","","","","","","","",""
"revaluation","54","332300","0.0-3.0-10.0-0.1","spark_pilot_norest","9627","5","16","Male","","false","","","","","[442.09999990463257]","./assets/img/space/catch/1.jpg","[""spaceBar""]","catch practice","space","0","{""ArrowUp,ArrowLeft"":3,""ArrowUp,ArrowRight"":36,""ArrowDown,ArrowLeft"":15,""ArrowDown,ArrowRight"":23}","true","spaceBar","true","","","","","",""
"html-keyboard-response","55","332807","0.0-3.0-10.0-1.1","spark_pilot_norest","9627","5","16","Male","","","","","","","null","<div style=""font-size:60px;"">+</div>","null","fixation","","","","","","","","","","","",""
"revaluation","56","336821","0.0-3.0-10.0-0.2","spark_pilot_norest","9627","5","16","Male","","false","","","","","[415.6000003814697]","./assets/img/space/catch/2.jpg","[""spaceBar""]","catch practice","space","0","{""ArrowUp,ArrowLeft"":3,""ArrowUp,ArrowRight"":36,""ArrowDown,ArrowLeft"":15,""ArrowDown,ArrowRight"":23}","true","spaceBar","true","","","","","",""
"html-keyboard-response","57","337325","0.0-3.0-10.0-1.2","spark_pilot_norest","9627","5","16","Male","","","","","","","null","<div style=""font-size:60px;"">+</div>","null","fixation","","","","","","","","","","","",""
"learning-instructions","58","343470","0.0-3.0-11.0-0.0-0.0","spark_pilot_norest","9627","5","16","Male","","","","","","","907.7000002861023","<p> Now, you will practice a shortened version of the game to get a sense of how it all fits together. </p>","","instructions","","","","","","","","","","","",""
"learning-instructions","59","349074","0.0-3.0-11.0-0.0-0.1","spark_pilot_norest","9627","5","16","Male","","","","","","","2413.699999809265","<p>This time you are searching for treasure in outer space.</p>","","instructions","","","","","","","","","","","",""
"learning-instructions","60","364926","0.0-3.0-11.0-1.0-0.0","spark_pilot_norest","9627","5","16","Male","","","","","","","1059.6999998092651","<p> Remember, when you see a picture of the place, use the up and down keys to <b>find an animal</b>.</p>
            <p> When you encounter an animal, you should use the left and right keys to <b>select a treasure chest</b>.</p>
            <p> Don't forget to look out for the robber! </p>","","instructions","","","","","","","","","","","",""
"revaluation","61","370950","0.0-3.0-11.0-2.0-0.0","spark_pilot_norest","9627","5","16","Male","","false","","","","","[1545,500]","./assets/img/space/11.jpg","[""ArrowUp"",""ArrowRight""]","practice block","space","36","{""ArrowUp,ArrowLeft"":3,""ArrowUp,ArrowRight"":36,""ArrowDown,ArrowLeft"":15,""ArrowDown,ArrowRight"":23}","true","ArrowUp,ArrowRight","false","","","","","",""
"html-keyboard-response","62","371455","0.0-3.0-11.0-2.0-1.0","spark_pilot_norest","9627","5","16","Male","","","","","","","null","<div style=""font-size:60px;"">+</div>","null","fixation","","","","","","","","","","","",""
"revaluation","63","377478","0.0-3.0-11.0-2.0-0.1","spark_pilot_norest","9627","5","16","Male","","false","","","","","[984.5,352.19999980926514]","./assets/img/space/12.jpg","[""ArrowUp"",""ArrowRight""]","practice block","space","36","{""ArrowUp,ArrowLeft"":3,""ArrowUp,ArrowRight"":36,""ArrowDown,ArrowLeft"":15,""ArrowDown,ArrowRight"":23}","true","ArrowUp,ArrowRight","false","","","","","",""
"html-keyboard-response","64","377982","0.0-3.0-11.0-2.0-1.1","spark_pilot_norest","9627","5","16","Male","","","","","","","null","<div style=""font-size:60px;"">+</div>","null","fixation","","","","","","","","","","","",""
"revaluation","65","384008","0.0-3.0-11.0-2.0-0.2","spark_pilot_norest","9627","5","16","Male","","false","","","","","[1448.8000001907349,433.7999997138977]","./assets/img/space/13.jpg","[""ArrowUp"",""ArrowRight""]","practice block","space","36","{""ArrowUp,ArrowLeft"":3,""ArrowUp,ArrowRight"":36,""ArrowDown,ArrowLeft"":15,""ArrowDown,ArrowRight"":23}","true","ArrowUp,ArrowRight","false","","","","","",""
"html-keyboard-response","66","384519","0.0-3.0-11.0-2.0-1.2","spark_pilot_norest","9627","5","16","Male","","","","","","","null","<div style=""font-size:60px;"">+</div>","null","fixation","","","","","","","","","","","",""
"revaluation","67","390540","0.0-3.0-11.0-2.0-0.3","spark_pilot_norest","9627","5","16","Male","","false","","","","","[1064.4000000953674,321.19999980926514]","./assets/img/space/14.jpg","[""ArrowUp"",""ArrowRight""]","practice block","space","36","{""ArrowUp,ArrowLeft"":3,""ArrowUp,ArrowRight"":36,""ArrowDown,ArrowLeft"":15,""ArrowDown,ArrowRight"":23}","true","ArrowUp,ArrowRight","false","","","","","",""
"html-keyboard-response","68","391049","0.0-3.0-11.0-2.0-1.3","spark_pilot_norest","9627","5","16","Male","","","","","","","null","<div style=""font-size:60px;"">+</div>","null","fixation","","","","","","","","","","","",""
"revaluation","69","397072","0.0-3.0-11.0-2.0-0.4","spark_pilot_norest","9627","5","16","Male","","false","","","","","[1614.5999999046326,471.5]","./assets/img/space/11.jpg","[""ArrowUp"",""ArrowRight""]","practice block","space","36","{""ArrowUp,ArrowLeft"":3,""ArrowUp,ArrowRight"":36,""ArrowDown,ArrowLeft"":15,""ArrowDown,ArrowRight"":23}","true","ArrowUp,ArrowRight","false","","","","","",""
"html-keyboard-response","70","397582","0.0-3.0-11.0-2.0-1.4","spark_pilot_norest","9627","5","16","Male","","","","","","","null","<div style=""font-size:60px;"">+</div>","null","fixation","","","","","","","","","","","",""
"revaluation","71","403608","0.0-3.0-11.0-2.0-0.5","spark_pilot_norest","9627","5","16","Male","","false","","","","","[1689.1999998092651,368.8999996185303]","./assets/img/space/12.jpg","[""ArrowUp"",""ArrowRight""]","practice block","space","36","{""ArrowUp,ArrowLeft"":3,""ArrowUp,ArrowRight"":36,""ArrowDown,ArrowLeft"":15,""ArrowDown,ArrowRight"":23}","true","ArrowUp,ArrowRight","false","","","","","",""
"html-keyboard-response","72","404119","0.0-3.0-11.0-2.0-1.5","spark_pilot_norest","9627","5","16","Male","","","","","","","null","<div style=""font-size:60px;"">+</div>","null","fixation","","","","","","","","","","","",""
"revaluation","73","410145","0.0-3.0-11.0-2.0-0.6","spark_pilot_norest","9627","5","16","Male","","false","","","","","[1215.9000000953674,361.40000009536743]","./assets/img/space/13.jpg","[""ArrowDown"",""ArrowRight""]","practice block","space","23","{""ArrowUp,ArrowLeft"":3,""ArrowUp,ArrowRight"":36,""ArrowDown,ArrowLeft"":15,""ArrowDown,ArrowRight"":23}","false","ArrowDown,ArrowRight","false","","","","","",""
"html-keyboard-response","74","410655","0.0-3.0-11.0-2.0-1.6","spark_pilot_norest","9627","5","16","Male","","","","","","","null","<div style=""font-size:60px;"">+</div>","null","fixation","","","","","","","","","","","",""
"revaluation","75","416681","0.0-3.0-11.0-2.0-0.7","spark_pilot_norest","9627","5","16","Male","","false","","","","","[696.1000003814697,312.3999996185303]","./assets/img/space/14.jpg","[""ArrowUp"",""ArrowRight""]","practice block","space","36","{""ArrowUp,ArrowLeft"":3,""ArrowUp,ArrowRight"":36,""ArrowDown,ArrowLeft"":15,""ArrowDown,ArrowRight"":23}","true","ArrowUp,ArrowRight","false","","","","","",""
"html-keyboard-response","76","417191","0.0-3.0-11.0-2.0-1.7","spark_pilot_norest","9627","5","16","Male","","","","","","","null","<div style=""font-size:60px;"">+</div>","null","fixation","","","","","","","","","","","",""
"revaluation","77","421209","0.0-3.0-11.0-2.0-0.8","spark_pilot_norest","9627","5","16","Male","","false","","","","","[536.3000001907349]","./assets/img/space/catch/3.jpg","[""spaceBar""]","practice block","space","0","{""ArrowUp,ArrowLeft"":3,""ArrowUp,ArrowRight"":36,""ArrowDown,ArrowLeft"":15,""ArrowDown,ArrowRight"":23}","true","spaceBar","true","","","","","",""
"html-keyboard-response","78","421720","0.0-3.0-11.0-2.0-1.8","spark_pilot_norest","9627","5","16","Male","","","","","","","null","<div style=""font-size:60px;"">+</div>","null","fixation","","","","","","","","","","","",""
"learning-instructions","79","438082","0.0-3.0-11.0-3.0-0.0","spark_pilot_norest","9627","5","16","Male","","","","","","","3431.300000190735","<p> Now, you will travel with a friend who will choose whether you go up or down first. </p>
            <p> On these turns, you will just see the animal that they found. You will still get to choose which chest to search for treasure.</p>","","instructions","","","","","","","","","","","",""
"revaluation","80","442097","0.0-3.0-11.0-4.0-0.0","spark_pilot_norest","9627","5","16","Male","","false","","","","","[1277.3000001907349]","./assets/img/space/animals/cat.jpg","[""ArrowRight""]","practice block","space","36","{""ArrowUp,ArrowLeft"":3,""ArrowUp,ArrowRight"":36,""ArrowDown,ArrowLeft"":15,""ArrowDown,ArrowRight"":23}","true","ArrowUp,ArrowRight","","","","","","",""
"html-keyboard-response","81","442609","0.0-3.0-11.0-4.0-1.0","spark_pilot_norest","9627","5","16","Male","","","","","","","null","<div style=""font-size:60px;"">+</div>","null","fixation","","","","","","","","","","","",""
"revaluation","82","446625","0.0-3.0-11.0-4.0-0.1","spark_pilot_norest","9627","5","16","Male","","false","","","","","[527.7000002861023]","./assets/img/space/animals/rabbit.jpg","[""ArrowRight""]","practice block","space","23","{""ArrowUp,ArrowLeft"":3,""ArrowUp,ArrowRight"":36,""ArrowDown,ArrowLeft"":15,""ArrowDown,ArrowRight"":23}","true","ArrowDown,ArrowRight","","","","","","",""
"html-keyboard-response","83","447134","0.0-3.0-11.0-4.0-1.1","spark_pilot_norest","9627","5","16","Male","","","","","","","null","<div style=""font-size:60px;"">+</div>","null","fixation","","","","","","","","","","","",""
"revaluation","84","451149","0.0-3.0-11.0-4.0-0.2","spark_pilot_norest","9627","5","16","Male","","false","","","","","[648.9000000953674]","./assets/img/space/animals/rabbit.jpg","[""ArrowRight""]","practice block","space","23","{""ArrowUp,ArrowLeft"":3,""ArrowUp,ArrowRight"":36,""ArrowDown,ArrowLeft"":15,""ArrowDown,ArrowRight"":23}","true","ArrowDown,ArrowRight","","","","","","",""
"html-keyboard-response","85","451654","0.0-3.0-11.0-4.0-1.2","spark_pilot_norest","9627","5","16","Male","","","","","","","null","<div style=""font-size:60px;"">+</div>","null","fixation","","","","","","","","","","","",""
"revaluation","86","455670","0.0-3.0-11.0-4.0-0.3","spark_pilot_norest","9627","5","16","Male","","false","","","","","[683.3000001907349]","./assets/img/space/animals/cat.jpg","[""ArrowRight""]","practice block","space","36","{""ArrowUp,ArrowLeft"":3,""ArrowUp,ArrowRight"":36,""ArrowDown,ArrowLeft"":15,""ArrowDown,ArrowRight"":23}","true","ArrowUp,ArrowRight","","","","","","",""
"html-keyboard-response","87","456173","0.0-3.0-11.0-4.0-1.3","spark_pilot_norest","9627","5","16","Male","","","","","","","null","<div style=""font-size:60px;"">+</div>","null","fixation","","","","","","","","","","","",""
"learning-instructions","88","464301","0.0-3.0-11.0-5.0-0.0","spark_pilot_norest","9627","5","16","Male","","","","","","","null","<p> You have almost finished this part of the game! </p>
            <p> We are going to ask you to make a few more choices. </p>","","instructions","","","","","","","","","","","",""
"learning-instructions","89","480342","0.0-3.0-11.0-5.0-0.1","spark_pilot_norest","9627","5","16","Male","","","","","","","null","<p> First, you need to decide whether to go up or down. When you see each picture, use the arrow keys to make your choice. </p>
            <p><b>You will not see which animal you found, but try to get to the one that will give you the most treasure.</b></p>","","instructions","","","","","","","","","","","",""
"html-keyboard-response","90","481352","0.0-3.0-11.0-6.0-0.0","spark_pilot_norest","9627","5","16","Male","","","","","","","null","<div style=""font-size:100px;color:red;"">Starting in...</div>","null","","","","","","","","","","","","",""
"html-keyboard-response","91","482356","0.0-3.0-11.0-6.0-1.0","spark_pilot_norest","9627","5","16","Male","","","","","","","null","<div style=""font-size:200px;color:red;"">3</div>","null","","","","","","","","","","","","",""
"html-keyboard-response","92","483366","0.0-3.0-11.0-6.0-2.0","spark_pilot_norest","9627","5","16","Male","","","","","","","null","<div style=""font-size:200px;color:red;"">2</div>","null","","","","","","","","","","","","",""
"html-keyboard-response","93","484376","0.0-3.0-11.0-6.0-3.0","spark_pilot_norest","9627","5","16","Male","","","","","","","null","<div style=""font-size:200px;color:red;"">1</div>","null","","","","","","","","","","","","",""
"revaluation","94","485241","0.0-3.0-11.0-7.0","spark_pilot_norest","9627","5","16","Male","","false","","","","","[863.0999999046326]","./assets/img/space/15.jpg","[""ArrowUp""]","practice block","space","0","{""ArrowUp,ArrowLeft"":3,""ArrowUp,ArrowRight"":36,""ArrowDown,ArrowLeft"":15,""ArrowDown,ArrowRight"":23}","true","ArrowUp","false","","","","","",""
"html-keyboard-response","95","485752","0.0-3.0-11.0-8.0","spark_pilot_norest","9627","5","16","Male","","","","","","","null","<div style=""font-size:60px;"">+</div>","null","fixation","","","","","","","","","","","",""
"learning-instructions","96","499149","0.0-3.0-11.0-9.0-0.0","spark_pilot_norest","9627","5","16","Male","","","","","","","null","<p> Now you will see the animals again and can search their chests for treasure. </p>
            <p> This time, you will not see how much treasure you earned, but you will earn more bonus money for making better choices. </p>","","instructions","","","","","","","","","","","",""
"html-keyboard-response","97","500161","0.0-3.0-11.0-10.0-0.0","spark_pilot_norest","9627","5","16","Male","","","","","","","null","<div style=""font-size:100px;color:red;"">Starting in...</div>","null","","","","","","","","","","","","",""
"html-keyboard-response","98","501165","0.0-3.0-11.0-10.0-1.0","spark_pilot_norest","9627","5","16","Male","","","","","","","null","<div style=""font-size:200px;color:red;"">3</div>","null","","","","","","","","","","","","",""
"html-keyboard-response","99","502175","0.0-3.0-11.0-10.0-2.0","spark_pilot_norest","9627","5","16","Male","","","","","","","null","<div style=""font-size:200px;color:red;"">2</div>","null","","","","","","","","","","","","",""
"html-keyboard-response","100","503181","0.0-3.0-11.0-10.0-3.0","spark_pilot_norest","9627","5","16","Male","","","","","","","null","<div style=""font-size:200px;color:red;"">1</div>","null","","","","","","","","","","","","",""
"revaluation","101","503873","0.0-3.0-11.0-11.0-0.0","spark_pilot_norest","9627","5","16","Male","","false","","","","","[690.9000000953674]","./assets/img/space/animals/cat.jpg","[""ArrowRight""]","practice block","space","0","{""ArrowUp,ArrowLeft"":3,""ArrowUp,ArrowRight"":36,""ArrowDown,ArrowLeft"":15,""ArrowDown,ArrowRight"":23}","true","ArrowUp,ArrowRight","","","","","","",""
"html-keyboard-response","102","504383","0.0-3.0-11.0-11.0-1.0","spark_pilot_norest","9627","5","16","Male","","","","","","","null","<div style=""font-size:60px;"">+</div>","null","fixation","","","","","","","","","","","",""
"revaluation","103","505242","0.0-3.0-11.0-11.0-0.1","spark_pilot_norest","9627","5","16","Male","","false","","","","","[857.7000002861023]","./assets/img/space/animals/rabbit.jpg","[""ArrowRight""]","practice block","space","0","{""ArrowUp,ArrowLeft"":3,""ArrowUp,ArrowRight"":36,""ArrowDown,ArrowLeft"":15,""ArrowDown,ArrowRight"":23}","true","ArrowDown,ArrowRight","","","","","","",""
"html-keyboard-response","104","505753","0.0-3.0-11.0-11.0-1.1","spark_pilot_norest","9627","5","16","Male","","","","","","","null","<div style=""font-size:60px;"">+</div>","null","fixation","","","","","","","","","","","",""
"learning-instructions","105","512007","0.0-3.0-12.0-0.0","spark_pilot_norest","9627","5","16","Male","","","","","","","1669.9000000953674","<p> Before you start, we're going to ask you a few questions about how the game works. </p>","","instructions","","","","","","","","","","","",""
"comp-q","106","518441","0.0-3.0-13.0-0.0-0.0","spark_pilot_norest","9627","5","16","Male","","","","","","","846","<p> <b> True or False? </b> </p>
            <p> There can be 50 pieces of treasure in a given animal's chest. </p>","1","comp_question","","","","true","","","","","","","",""
"comp-q","107","526459","0.0-3.0-13.0-0.0-1.0","spark_pilot_norest","9627","5","16","Male","","","","","","","1353.9000000953674","<p> <b> That's right! </b> The amount of treasure in each chest can range from 0 to 40 pieces. </p>","0","comp_answer","","","","","","","","","","","",""
"comp-q","108","534091","0.0-3.0-13.0-0.1-0.1","spark_pilot_norest","9627","5","16","Male","","","","","","","504.90000009536743","<p> <b> True or False? </b> </p><p> In this game, all animals have the same amount of treasure in their left and right chests. </p>","1","comp_question","","","","true","","","","","","","",""
"comp-q","109","540571","0.0-3.0-13.0-0.1-1.1","spark_pilot_norest","9627","5","16","Male","","","","","","","1244","<p> <b> That's right! </b> Animals have different amounts of treasure in their treasure chests. </p>","0","comp_answer","","","","","","","","","","","",""
"comp-q","110","547317","0.0-3.0-13.0-0.2-0.2","spark_pilot_norest","9627","5","16","Male","","","","","","","896.1999998092651","<p> <b> True or False? </b> </p><p> The same animal will always be there if you go up in the same place. </p>","0","comp_question","","","","true","","","","","","","",""
"comp-q","111","554551","0.0-3.0-13.0-0.2-1.2","spark_pilot_norest","9627","5","16","Male","","","","","","","787","<p> <b> That's right! </b> One animal lives in the upper part and one lives in the lower part of every place. </p>","0","comp_answer","","","","","","","","","","","",""
"comp-q","112","561155","0.0-3.0-13.0-0.3-0.3","spark_pilot_norest","9627","5","16","Male","","","","","","","1075","<p> <b> True or False? </b> </p><p> If you see a different picture, it means you are in a new place. </p>","1","comp_question","","","","true","","","","","","","",""
"comp-q","113","573217","0.0-3.0-13.0-0.3-1.3","spark_pilot_norest","9627","5","16","Male","","","","","","","824.5999999046326","<p> <b> That's right! </b> Lots of different images may show the same place. For example,  you may see three different images that all remind you that you are in outer space. </p>","0","comp_answer","","","","","","","","","","","",""
"learning-instructions","114","584969","0.0-3.0-14.0-0.0","spark_pilot_norest","9627","5","16","Male","","","","","","","1889.5999999046326","<p> Good job. Remember to do your best because the amount of treasure you earn will be converted into bonus money. </p>
            <p> It’s time to start the real game! </p>","","instructions","","","","","","","","","","","",""
"learning-instructions","115","589157","0.0-4.0-0.0-0.0","spark_pilot_norest","9627","5","16","Male","","","","","","","1421.9000000953674","<p> This time you are searching for treasure in the <b>canyon</b>.</p>","","instructions","","","","","","","","","","","",""
"learning-instructions","116","607255","0.0-4.0-0.0-0.1","spark_pilot_norest","9627","5","16","Male","","","","","","","775.5999999046326","<p><b>New</b> animals with <b>new</b> treasure chests live here. You need to explore to discover where the animal with the best treasure chest is.</p>
                    <p> Like before, once you figure out which animal has the chest with the most treasure, you should try to get to that animal and select that chest! </p>","","instructions","","","","","","","","","","","",""
"learning-instructions","117","623047","0.0-4.0-1.0-0.0","spark_pilot_norest","9627","5","16","Male","","","","","","","1062.5999999046326","<p> Remember, when you see a picture of the place, use the up and down keys to <b>find an animal</b>.</p>
            <p> When you encounter an animal, you should use the left and right keys to <b>select a treasure chest</b>.</p>
            <p> Don't forget to look out for the robber! </p>","","instructions","","","","","","","","","","","",""
"revaluation","118","627065","0.0-4.0-2.0-0.0","spark_pilot_norest","9627","5","16","Male","","false","","","","","[1081.1999998092651]","./assets/img/canyon/catch/2.jpg","[""ArrowUp""]","value training","canyon","-10","{""ArrowUp,ArrowLeft"":26,""ArrowUp,ArrowRight"":10,""ArrowDown,ArrowLeft"":5,""ArrowDown,ArrowRight"":17}","false","ArrowUp","true","original","1","0","","",""
"html-keyboard-response","119","627576","0.0-4.0-2.0-1.0","spark_pilot_norest","9627","5","16","Male","","","","","","","null","<div style=""font-size:60px;"">+</div>","null","fixation","","","","","","","","","1","","",""
"revaluation","120","633600","0.0-4.0-2.0-0.1","spark_pilot_norest","9627","5","16","Male","","false","","","","","[1065.5999999046326,730.2000002861023]","./assets/img/canyon/memory/8.jpg","[""ArrowUp"",""ArrowRight""]","value training","canyon","10","{""ArrowUp,ArrowLeft"":26,""ArrowUp,ArrowRight"":10,""ArrowDown,ArrowLeft"":5,""ArrowDown,ArrowRight"":17}","false","ArrowUp,ArrowRight","false","original","1","2","","",""
"html-keyboard-response","121","634102","0.0-4.0-2.0-1.1","spark_pilot_norest","9627","5","16","Male","","","","","","","null","<div style=""font-size:60px;"">+</div>","null","fixation","","","","","","","","","3","","",""
"revaluation","122","640129","0.0-4.0-2.0-0.2","spark_pilot_norest","9627","5","16","Male","","false","","","","","[1018.3000001907349,399.5]","./assets/img/canyon/memory/5.jpg","[""ArrowUp"",""ArrowLeft""]","value training","canyon","26","{""ArrowUp,ArrowLeft"":26,""ArrowUp,ArrowRight"":10,""ArrowDown,ArrowLeft"":5,""ArrowDown,ArrowRight"":17}","true","ArrowUp,ArrowLeft","false","original","1","4","","",""
"html-keyboard-response","123","640639","0.0-4.0-2.0-1.2","spark_pilot_norest","9627","5","16","Male","","","","","","","null","<div style=""font-size:60px;"">+</div>","null","fixation","","","","","","","","","5","","",""
"revaluation","124","646665","0.0-4.0-2.0-0.3","spark_pilot_norest","9627","5","16","Male","","false","","","","","[921.2000002861023,399]","./assets/img/canyon/memory/34.jpg","[""ArrowDown"",""ArrowLeft""]","value training","canyon","5","{""ArrowUp,ArrowLeft"":26,""ArrowUp,ArrowRight"":10,""ArrowDown,ArrowLeft"":5,""ArrowDown,ArrowRight"":17}","false","ArrowDown,ArrowLeft","false","original","1","6","","",""
"html-keyboard-response","125","647175","0.0-4.0-2.0-1.3","spark_pilot_norest","9627","5","16","Male","","","","","","","null","<div style=""font-size:60px;"">+</div>","null","fixation","","","","","","","","","7","","",""
"revaluation","126","651189","0.0-4.0-2.0-0.4","spark_pilot_norest","9627","5","16","Male","","false","","","","","[569.5]","./assets/img/canyon/catch/5.jpg","[""spaceBar""]","value training","canyon","0","{""ArrowUp,ArrowLeft"":26,""ArrowUp,ArrowRight"":10,""ArrowDown,ArrowLeft"":5,""ArrowDown,ArrowRight"":17}","true","spaceBar","true","original","1","8","","",""
"html-keyboard-response","127","651697","0.0-4.0-2.0-1.4","spark_pilot_norest","9627","5","16","Male","","","","","","","null","<div style=""font-size:60px;"">+</div>","null","fixation","","","","","","","","","9","","",""
"revaluation","128","657721","0.0-4.0-2.0-0.5","spark_pilot_norest","9627","5","16","Male","","false","","","","","[407.7000002861023,567.1999998092651]","./assets/img/canyon/memory/7.jpg","[""ArrowDown"",""ArrowRight""]","value training","canyon","17","{""ArrowUp,ArrowLeft"":26,""ArrowUp,ArrowRight"":10,""ArrowDown,ArrowLeft"":5,""ArrowDown,ArrowRight"":17}","false","ArrowDown,ArrowRight","false","original","1","10","","",""
"html-keyboard-response","129","658232","0.0-4.0-2.0-1.5","spark_pilot_norest","9627","5","16","Male","","","","","","","null","<div style=""font-size:60px;"">+</div>","null","fixation","","","","","","","","","11","","",""
"revaluation","130","664258","0.0-4.0-2.0-0.6","spark_pilot_norest","9627","5","16","Male","","false","","","","","[496.19999980926514,304.7999997138977]","./assets/img/canyon/memory/13.jpg","[""ArrowUp"",""ArrowLeft""]","value training","canyon","26","{""ArrowUp,ArrowLeft"":26,""ArrowUp,ArrowRight"":10,""ArrowDown,ArrowLeft"":5,""ArrowDown,ArrowRight"":17}","true","ArrowUp,ArrowLeft","false","original","1","12","","",""
"html-keyboard-response","131","664768","0.0-4.0-2.0-1.6","spark_pilot_norest","9627","5","16","Male","","","","","","","null","<div style=""font-size:60px;"">+</div>","null","fixation","","","","","","","","","13","","",""
"revaluation","132","668786","0.0-4.0-2.0-0.7","spark_pilot_norest","9627","5","16","Male","","false","","","","","[752.6000003814697]","./assets/img/canyon/catch/1.jpg","[""spaceBar""]","value training","canyon","0","{""ArrowUp,ArrowLeft"":26,""ArrowUp,ArrowRight"":10,""ArrowDown,ArrowLeft"":5,""ArrowDown,ArrowRight"":17}","true","spaceBar","true","original","1","14","","",""
"html-keyboard-response","133","669295","0.0-4.0-2.0-1.7","spark_pilot_norest","9627","5","16","Male","","","","","","","null","<div style=""font-size:60px;"">+</div>","null","fixation","","","","","","","","","15","","",""
"revaluation","134","675321","0.0-4.0-2.0-0.8","spark_pilot_norest","9627","5","16","Male","","false","","","","","[712.7000002861023,296.3999996185303]","./assets/img/canyon/memory/26.jpg","[""ArrowUp"",""ArrowLeft""]","value training","canyon","26","{""ArrowUp,ArrowLeft"":26,""ArrowUp,ArrowRight"":10,""ArrowDown,ArrowLeft"":5,""ArrowDown,ArrowRight"":17}","true","ArrowUp,ArrowLeft","false","original","1","16","","",""
"html-keyboard-response","135","675833","0.0-4.0-2.0-1.8","spark_pilot_norest","9627","5","16","Male","","","","","","","null","<div style=""font-size:60px;"">+</div>","null","fixation","","","","","","","","","17","","",""
"revaluation","136","681857","0.0-4.0-2.0-0.9","spark_pilot_norest","9627","5","16","Male","","false","","","","","[871.5999999046326,728.5]","./assets/img/canyon/memory/34.jpg","[""ArrowUp"",""ArrowLeft""]","value training","canyon","26","{""ArrowUp,ArrowLeft"":26,""ArrowUp,ArrowRight"":10,""ArrowDown,ArrowLeft"":5,""ArrowDown,ArrowRight"":17}","true","ArrowUp,ArrowLeft","false","original","1","18","","",""
"html-keyboard-response","137","682369","0.0-4.0-2.0-1.9","spark_pilot_norest","9627","5","16","Male","","","","","","","null","<div style=""font-size:60px;"">+</div>","null","fixation","","","","","","","","","19","","",""
"revaluation","138","688390","0.0-4.0-2.0-0.10","spark_pilot_norest","9627","5","16","Male","","false","","","","","[1022.6999998092651,575.5]","./assets/img/canyon/memory/22.jpg","[""ArrowUp"",""ArrowLeft""]","value training","canyon","26","{""ArrowUp,ArrowLeft"":26,""ArrowUp,ArrowRight"":10,""ArrowDown,ArrowLeft"":5,""ArrowDown,ArrowRight"":17}","true","ArrowUp,ArrowLeft","false","original","1","20","","",""
"html-keyboard-response","139","688895","0.0-4.0-2.0-1.10","spark_pilot_norest","9627","5","16","Male","","","","","","","null","<div style=""font-size:60px;"">+</div>","null","fixation","","","","","","","","","21","","",""
"revaluation","140","694921","0.0-4.0-2.0-0.11","spark_pilot_norest","9627","5","16","Male","","false","","","","","[657,320.59999990463257]","./assets/img/canyon/memory/30.jpg","[""ArrowUp"",""ArrowLeft""]","value training","canyon","26","{""ArrowUp,ArrowLeft"":26,""ArrowUp,ArrowRight"":10,""ArrowDown,ArrowLeft"":5,""ArrowDown,ArrowRight"":17}","true","ArrowUp,ArrowLeft","false","original","1","22","","",""
"html-keyboard-response","141","695430","0.0-4.0-2.0-1.11","spark_pilot_norest","9627","5","16","Male","","","","","","","null","<div style=""font-size:60px;"">+</div>","null","fixation","","","","","","","","","23","","",""
"revaluation","142","701456","0.0-4.0-2.0-0.12","spark_pilot_norest","9627","5","16","Male","","false","","","","","[929.7999997138977,554.3999996185303]","./assets/img/canyon/memory/38.jpg","[""ArrowUp"",""ArrowLeft""]","value training","canyon","26","{""ArrowUp,ArrowLeft"":26,""ArrowUp,ArrowRight"":10,""ArrowDown,ArrowLeft"":5,""ArrowDown,ArrowRight"":17}","true","ArrowUp,ArrowLeft","false","original","1","24","","",""
"html-keyboard-response","143","701961","0.0-4.0-2.0-1.12","spark_pilot_norest","9627","5","16","Male","","","","","","","null","<div style=""font-size:60px;"">+</div>","null","fixation","","","","","","","","","25","","",""
"revaluation","144","705978","0.0-4.0-2.0-0.13","spark_pilot_norest","9627","5","16","Male","","false","","","","","[615.1000003814697]","./assets/img/canyon/catch/6.jpg","[""spaceBar""]","value training","canyon","0","{""ArrowUp,ArrowLeft"":26,""ArrowUp,ArrowRight"":10,""ArrowDown,ArrowLeft"":5,""ArrowDown,ArrowRight"":17}","true","spaceBar","true","original","1","26","","",""
"html-keyboard-response","145","706490","0.0-4.0-2.0-1.13","spark_pilot_norest","9627","5","16","Male","","","","","","","null","<div style=""font-size:60px;"">+</div>","null","fixation","","","","","","","","","27","","",""
"revaluation","146","712513","0.0-4.0-2.0-0.14","spark_pilot_norest","9627","5","16","Male","","false","","","","","[558.4000000953674,584]","./assets/img/canyon/memory/35.jpg","[""ArrowUp"",""ArrowLeft""]","value training","canyon","26","{""ArrowUp,ArrowLeft"":26,""ArrowUp,ArrowRight"":10,""ArrowDown,ArrowLeft"":5,""ArrowDown,ArrowRight"":17}","true","ArrowUp,ArrowLeft","false","original","1","28","","",""
"html-keyboard-response","147","713025","0.0-4.0-2.0-1.14","spark_pilot_norest","9627","5","16","Male","","","","","","","null","<div style=""font-size:60px;"">+</div>","null","fixation","","","","","","","","","29","","",""
"revaluation","148","717038","0.0-4.0-2.0-0.15","spark_pilot_norest","9627","5","16","Male","","false","","","","","[510.90000009536743]","./assets/img/canyon/catch/3.jpg","[""spaceBar""]","value training","canyon","0","{""ArrowUp,ArrowLeft"":26,""ArrowUp,ArrowRight"":10,""ArrowDown,ArrowLeft"":5,""ArrowDown,ArrowRight"":17}","true","spaceBar","true","original","1","30","","",""
"html-keyboard-response","149","717542","0.0-4.0-2.0-1.15","spark_pilot_norest","9627","5","16","Male","","","","","","","null","<div style=""font-size:60px;"">+</div>","null","fixation","","","","","","","","","31","","",""
"revaluation","150","723570","0.0-4.0-2.0-0.16","spark_pilot_norest","9627","5","16","Male","","false","","","","","[338.3999996185303,743.8999996185303]","./assets/img/canyon/memory/35.jpg","[""ArrowUp"",""ArrowLeft""]","value training","canyon","26","{""ArrowUp,ArrowLeft"":26,""ArrowUp,ArrowRight"":10,""ArrowDown,ArrowLeft"":5,""ArrowDown,ArrowRight"":17}","true","ArrowUp,ArrowLeft","false","original","1","32","","",""
"html-keyboard-response","151","724078","0.0-4.0-2.0-1.16","spark_pilot_norest","9627","5","16","Male","","","","","","","null","<div style=""font-size:60px;"">+</div>","null","fixation","","","","","","","","","33","","",""
"revaluation","152","730104","0.0-4.0-2.0-0.17","spark_pilot_norest","9627","5","16","Male","","false","","","","","[754.3000001907349,616]","./assets/img/canyon/memory/6.jpg","[""ArrowUp"",""ArrowLeft""]","value training","canyon","26","{""ArrowUp,ArrowLeft"":26,""ArrowUp,ArrowRight"":10,""ArrowDown,ArrowLeft"":5,""ArrowDown,ArrowRight"":17}","true","ArrowUp,ArrowLeft","false","original","1","34","","",""
"html-keyboard-response","153","730609","0.0-4.0-2.0-1.17","spark_pilot_norest","9627","5","16","Male","","","","","","","null","<div style=""font-size:60px;"">+</div>","null","fixation","","","","","","","","","35","","",""
"revaluation","154","736635","0.0-4.0-2.0-0.18","spark_pilot_norest","9627","5","16","Male","","false","","","","","[1031.5,857.1999998092651]","./assets/img/canyon/memory/11.jpg","[""ArrowUp"",""ArrowLeft""]","value training","canyon","26","{""ArrowUp,ArrowLeft"":26,""ArrowUp,ArrowRight"":10,""ArrowDown,ArrowLeft"":5,""ArrowDown,ArrowRight"":17}","true","ArrowUp,ArrowLeft","false","original","1","36","","",""
"html-keyboard-response","155","737145","0.0-4.0-2.0-1.18","spark_pilot_norest","9627","5","16","Male","","","","","","","null","<div style=""font-size:60px;"">+</div>","null","fixation","","","","","","","","","37","","",""
"revaluation","156","743169","0.0-4.0-2.0-0.19","spark_pilot_norest","9627","5","16","Male","","false","","","","","[751.5999999046326,536.5999999046326]","./assets/img/canyon/memory/14.jpg","[""ArrowUp"",""ArrowLeft""]","value training","canyon","26","{""ArrowUp,ArrowLeft"":26,""ArrowUp,ArrowRight"":10,""ArrowDown,ArrowLeft"":5,""ArrowDown,ArrowRight"":17}","true","ArrowUp,ArrowLeft","false","original","1","38","","",""
"html-keyboard-response","157","743681","0.0-4.0-2.0-1.19","spark_pilot_norest","9627","5","16","Male","","","","","","","null","<div style=""font-size:60px;"">+</div>","null","fixation","","","","","","","","","39","","",""
"revaluation","158","747695","0.0-4.0-2.0-0.20","spark_pilot_norest","9627","5","16","Male","","false","","","","","[783]","./assets/img/canyon/catch/0.jpg","[""spaceBar""]","value training","canyon","0","{""ArrowUp,ArrowLeft"":26,""ArrowUp,ArrowRight"":10,""ArrowDown,ArrowLeft"":5,""ArrowDown,ArrowRight"":17}","true","spaceBar","true","original","1","40","","",""
"html-keyboard-response","159","748202","0.0-4.0-2.0-1.20","spark_pilot_norest","9627","5","16","Male","","","","","","","null","<div style=""font-size:60px;"">+</div>","null","fixation","","","","","","","","","41","","",""
"revaluation","160","754223","0.0-4.0-2.0-0.21","spark_pilot_norest","9627","5","16","Male","","false","","","","","[662.1000003814697,664.2999997138977]","./assets/img/canyon/memory/38.jpg","[""ArrowUp"",""ArrowLeft""]","value training","canyon","26","{""ArrowUp,ArrowLeft"":26,""ArrowUp,ArrowRight"":10,""ArrowDown,ArrowLeft"":5,""ArrowDown,ArrowRight"":17}","true","ArrowUp,ArrowLeft","false","original","1","42","","",""
"html-keyboard-response","161","754729","0.0-4.0-2.0-1.21","spark_pilot_norest","9627","5","16","Male","","","","","","","null","<div style=""font-size:60px;"">+</div>","null","fixation","","","","","","","","","43","","",""
"revaluation","162","760754","0.0-4.0-2.0-0.22","spark_pilot_norest","9627","5","16","Male","","false","","","","","[679.2999997138977,600.8999996185303]","./assets/img/canyon/memory/9.jpg","[""ArrowUp"",""ArrowLeft""]","value training","canyon","26","{""ArrowUp,ArrowLeft"":26,""ArrowUp,ArrowRight"":10,""ArrowDown,ArrowLeft"":5,""ArrowDown,ArrowRight"":17}","true","ArrowUp,ArrowLeft","false","original","1","44","","",""
"html-keyboard-response","163","761264","0.0-4.0-2.0-1.22","spark_pilot_norest","9627","5","16","Male","","","","","","","null","<div style=""font-size:60px;"">+</div>","null","fixation","","","","","","","","","45","","",""
"revaluation","164","767289","0.0-4.0-2.0-0.23","spark_pilot_norest","9627","5","16","Male","","false","","","","","[1056.5,536.0999999046326]","./assets/img/canyon/memory/11.jpg","[""ArrowUp"",""ArrowLeft""]","value training","canyon","26","{""ArrowUp,ArrowLeft"":26,""ArrowUp,ArrowRight"":10,""ArrowDown,ArrowLeft"":5,""ArrowDown,ArrowRight"":17}","true","ArrowUp,ArrowLeft","false","original","1","46","","",""
"html-keyboard-response","165","767794","0.0-4.0-2.0-1.23","spark_pilot_norest","9627","5","16","Male","","","","","","","null","<div style=""font-size:60px;"">+</div>","null","fixation","","","","","","","","","47","","",""
"revaluation","166","773818","0.0-4.0-2.0-0.24","spark_pilot_norest","9627","5","16","Male","","false","","","","","[870.1000003814697,896.0999999046326]","./assets/img/canyon/memory/28.jpg","[""ArrowUp"",""ArrowLeft""]","value training","canyon","26","{""ArrowUp,ArrowLeft"":26,""ArrowUp,ArrowRight"":10,""ArrowDown,ArrowLeft"":5,""ArrowDown,ArrowRight"":17}","true","ArrowUp,ArrowLeft","false","original","1","48","","",""
"html-keyboard-response","167","774328","0.0-4.0-2.0-1.24","spark_pilot_norest","9627","5","16","Male","","","","","","","null","<div style=""font-size:60px;"">+</div>","null","fixation","","","","","","","","","49","","",""
"revaluation","168","780352","0.0-4.0-2.0-0.25","spark_pilot_norest","9627","5","16","Male","","false","","","","","[960.5999999046326,915.0999999046326]","./assets/img/canyon/memory/26.jpg","[""ArrowUp"",""ArrowLeft""]","value training","canyon","26","{""ArrowUp,ArrowLeft"":26,""ArrowUp,ArrowRight"":10,""ArrowDown,ArrowLeft"":5,""ArrowDown,ArrowRight"":17}","true","ArrowUp,ArrowLeft","false","original","1","50","","",""
"html-keyboard-response","169","780856","0.0-4.0-2.0-1.25","spark_pilot_norest","9627","5","16","Male","","","","","","","null","<div style=""font-size:60px;"">+</div>","null","fixation","","","","","","","","","51","","",""
"revaluation","170","786883","0.0-4.0-2.0-0.26","spark_pilot_norest","9627","5","16","Male","","false","","","","","[1296.5999999046326,464.40000009536743]","./assets/img/canyon/memory/16.jpg","[""ArrowUp"",""ArrowLeft""]","value training","canyon","26","{""ArrowUp,ArrowLeft"":26,""ArrowUp,ArrowRight"":10,""ArrowDown,ArrowLeft"":5,""ArrowDown,ArrowRight"":17}","true","ArrowUp,ArrowLeft","false","original","1","52","","",""
"html-keyboard-response","171","787394","0.0-4.0-2.0-1.26","spark_pilot_norest","9627","5","16","Male","","","","","","","null","<div style=""font-size:60px;"">+</div>","null","fixation","","","","","","","","","53","","",""
"revaluation","172","793418","0.0-4.0-2.0-0.27","spark_pilot_norest","9627","5","16","Male","","false","","","","","[854.7000002861023,504.7999997138977]","./assets/img/canyon/memory/3.jpg","[""ArrowUp"",""ArrowLeft""]","value training","canyon","26","{""ArrowUp,ArrowLeft"":26,""ArrowUp,ArrowRight"":10,""ArrowDown,ArrowLeft"":5,""ArrowDown,ArrowRight"":17}","true","ArrowUp,ArrowLeft","false","original","1","54","","",""
"html-keyboard-response","173","793930","0.0-4.0-2.0-1.27","spark_pilot_norest","9627","5","16","Male","","","","","","","null","<div style=""font-size:60px;"">+</div>","null","fixation","","","","","","","","","55","","",""
"revaluation","174","799953","0.0-4.0-2.0-0.28","spark_pilot_norest","9627","5","16","Male","","false","","","","","[774.6999998092651,465.8999996185303]","./assets/img/canyon/memory/30.jpg","[""ArrowUp"",""ArrowLeft""]","value training","canyon","26","{""ArrowUp,ArrowLeft"":26,""ArrowUp,ArrowRight"":10,""ArrowDown,ArrowLeft"":5,""ArrowDown,ArrowRight"":17}","true","ArrowUp,ArrowLeft","false","original","1","56","","",""
"html-keyboard-response","175","800458","0.0-4.0-2.0-1.28","spark_pilot_norest","9627","5","16","Male","","","","","","","null","<div style=""font-size:60px;"">+</div>","null","fixation","","","","","","","","","57","","",""
"revaluation","176","806480","0.0-4.0-2.0-0.29","spark_pilot_norest","9627","5","16","Male","","false","","","","","[535.1999998092651,472.3999996185303]","./assets/img/canyon/memory/7.jpg","[""ArrowUp"",""ArrowLeft""]","value training","canyon","26","{""ArrowUp,ArrowLeft"":26,""ArrowUp,ArrowRight"":10,""ArrowDown,ArrowLeft"":5,""ArrowDown,ArrowRight"":17}","true","ArrowUp,ArrowLeft","false","original","1","58","","",""
"html-keyboard-response","177","806985","0.0-4.0-2.0-1.29","spark_pilot_norest","9627","5","16","Male","","","","","","","null","<div style=""font-size:60px;"">+</div>","null","fixation","","","","","","","","","59","","",""
"revaluation","178","813010","0.0-4.0-2.0-0.30","spark_pilot_norest","9627","5","16","Male","","false","","","","","[759.3999996185303,807.3999996185303]","./assets/img/canyon/memory/16.jpg","[""ArrowUp"",""ArrowLeft""]","value training","canyon","26","{""ArrowUp,ArrowLeft"":26,""ArrowUp,ArrowRight"":10,""ArrowDown,ArrowLeft"":5,""ArrowDown,ArrowRight"":17}","true","ArrowUp,ArrowLeft","false","original","1","60","","",""
"html-keyboard-response","179","813522","0.0-4.0-2.0-1.30","spark_pilot_norest","9627","5","16","Male","","","","","","","null","<div style=""font-size:60px;"">+</div>","null","fixation","","","","","","","","","61","","",""
"revaluation","180","819547","0.0-4.0-2.0-0.31","spark_pilot_norest","9627","5","16","Male","","false","","","","","[1142.5,895.1999998092651]","./assets/img/canyon/memory/22.jpg","[""ArrowUp"",""ArrowLeft""]","value training","canyon","26","{""ArrowUp,ArrowLeft"":26,""ArrowUp,ArrowRight"":10,""ArrowDown,ArrowLeft"":5,""ArrowDown,ArrowRight"":17}","true","ArrowUp,ArrowLeft","false","original","1","62","","",""
"html-keyboard-response","181","820058","0.0-4.0-2.0-1.31","spark_pilot_norest","9627","5","16","Male","","","","","","","null","<div style=""font-size:60px;"">+</div>","null","fixation","","","","","","","","","63","","",""
"revaluation","182","826078","0.0-4.0-2.0-0.32","spark_pilot_norest","9627","5","16","Male","","false","","","","","[974.5,320.09999990463257]","./assets/img/canyon/memory/41.jpg","[""ArrowUp"",""ArrowRight""]","value training","canyon","10","{""ArrowUp,ArrowLeft"":26,""ArrowUp,ArrowRight"":10,""ArrowDown,ArrowLeft"":5,""ArrowDown,ArrowRight"":17}","false","ArrowUp,ArrowRight","false","original","1","64","","",""
"html-keyboard-response","183","826582","0.0-4.0-2.0-1.32","spark_pilot_norest","9627","5","16","Male","","","","","","","null","<div style=""font-size:60px;"">+</div>","null","fixation","","","","","","","","","65","","",""
"revaluation","184","832611","0.0-4.0-2.0-0.33","spark_pilot_norest","9627","5","16","Male","","false","","","","","[1122.8000001907349,663.5]","./assets/img/canyon/memory/32.jpg","[""ArrowUp"",""ArrowLeft""]","value training","canyon","26","{""ArrowUp,ArrowLeft"":26,""ArrowUp,ArrowRight"":10,""ArrowDown,ArrowLeft"":5,""ArrowDown,ArrowRight"":17}","true","ArrowUp,ArrowLeft","false","original","1","66","","",""
"html-keyboard-response","185","833122","0.0-4.0-2.0-1.33","spark_pilot_norest","9627","5","16","Male","","","","","","","null","<div style=""font-size:60px;"">+</div>","null","fixation","","","","","","","","","67","","",""
"revaluation","186","839145","0.0-4.0-2.0-0.34","spark_pilot_norest","9627","5","16","Male","","false","","","","","[759,538.0999999046326]","./assets/img/canyon/memory/4.jpg","[""ArrowUp"",""ArrowLeft""]","value training","canyon","26","{""ArrowUp,ArrowLeft"":26,""ArrowUp,ArrowRight"":10,""ArrowDown,ArrowLeft"":5,""ArrowDown,ArrowRight"":17}","true","ArrowUp,ArrowLeft","false","original","1","68","","",""
"html-keyboard-response","187","839649","0.0-4.0-2.0-1.34","spark_pilot_norest","9627","5","16","Male","","","","","","","null","<div style=""font-size:60px;"">+</div>","null","fixation","","","","","","","","","69","","",""
"revaluation","188","845673","0.0-4.0-2.0-0.35","spark_pilot_norest","9627","5","16","Male","","false","","","","","[631.8000001907349,391.2999997138977]","./assets/img/canyon/memory/25.jpg","[""ArrowUp"",""ArrowLeft""]","value training","canyon","26","{""ArrowUp,ArrowLeft"":26,""ArrowUp,ArrowRight"":10,""ArrowDown,ArrowLeft"":5,""ArrowDown,ArrowRight"":17}","true","ArrowUp,ArrowLeft","false","original","1","70","","",""
"html-keyboard-response","189","846175","0.0-4.0-2.0-1.35","spark_pilot_norest","9627","5","16","Male","","","","","","","null","<div style=""font-size:60px;"">+</div>","null","fixation","","","","","","","","","71","","",""
"revaluation","190","852201","0.0-4.0-2.0-0.36","spark_pilot_norest","9627","5","16","Male","","false","","","","","[705.8999996185303,395.40000009536743]","./assets/img/canyon/memory/41.jpg","[""ArrowUp"",""ArrowLeft""]","value training","canyon","26","{""ArrowUp,ArrowLeft"":26,""ArrowUp,ArrowRight"":10,""ArrowDown,ArrowLeft"":5,""ArrowDown,ArrowRight"":17}","true","ArrowUp,ArrowLeft","false","original","1","72","","",""
"html-keyboard-response","191","852706","0.0-4.0-2.0-1.36","spark_pilot_norest","9627","5","16","Male","","","","","","","null","<div style=""font-size:60px;"">+</div>","null","fixation","","","","","","","","","73","","",""
"revaluation","192","858728","0.0-4.0-2.0-0.37","spark_pilot_norest","9627","5","16","Male","","false","","","","","[807.3000001907349,312.8999996185303]","./assets/img/canyon/memory/3.jpg","[""ArrowUp"",""ArrowLeft""]","value training","canyon","26","{""ArrowUp,ArrowLeft"":26,""ArrowUp,ArrowRight"":10,""ArrowDown,ArrowLeft"":5,""ArrowDown,ArrowRight"":17}","true","ArrowUp,ArrowLeft","false","original","1","74","","",""
"html-keyboard-response","193","859234","0.0-4.0-2.0-1.37","spark_pilot_norest","9627","5","16","Male","","","","","","","null","<div style=""font-size:60px;"">+</div>","null","fixation","","","","","","","","","75","","",""
"revaluation","194","865255","0.0-4.0-2.0-0.38","spark_pilot_norest","9627","5","16","Male","","false","","","","","[950.9000000953674,450.90000009536743]","./assets/img/canyon/memory/32.jpg","[""ArrowUp"",""ArrowLeft""]","value training","canyon","26","{""ArrowUp,ArrowLeft"":26,""ArrowUp,ArrowRight"":10,""ArrowDown,ArrowLeft"":5,""ArrowDown,ArrowRight"":17}","true","ArrowUp,ArrowLeft","false","original","1","76","","",""
"html-keyboard-response","195","865761","0.0-4.0-2.0-1.38","spark_pilot_norest","9627","5","16","Male","","","","","","","null","<div style=""font-size:60px;"">+</div>","null","fixation","","","","","","","","","77","","",""
"revaluation","196","871786","0.0-4.0-2.0-0.39","spark_pilot_norest","9627","5","16","Male","","false","","","","","[712.1000003814697,432.30000019073486]","./assets/img/canyon/memory/28.jpg","[""ArrowUp"",""ArrowLeft""]","value training","canyon","26","{""ArrowUp,ArrowLeft"":26,""ArrowUp,ArrowRight"":10,""ArrowDown,ArrowLeft"":5,""ArrowDown,ArrowRight"":17}","true","ArrowUp,ArrowLeft","false","original","1","78","","",""
"html-keyboard-response","197","872297","0.0-4.0-2.0-1.39","spark_pilot_norest","9627","5","16","Male","","","","","","","null","<div style=""font-size:60px;"">+</div>","null","fixation","","","","","","","","","79","","",""
"revaluation","198","878322","0.0-4.0-2.0-0.40","spark_pilot_norest","9627","5","16","Male","","false","","","","","[638.8999996185303,503.7999997138977]","./assets/img/canyon/memory/4.jpg","[""ArrowUp"",""ArrowLeft""]","value training","canyon","26","{""ArrowUp,ArrowLeft"":26,""ArrowUp,ArrowRight"":10,""ArrowDown,ArrowLeft"":5,""ArrowDown,ArrowRight"":17}","true","ArrowUp,ArrowLeft","false","original","1","80","","",""
"html-keyboard-response","199","878834","0.0-4.0-2.0-1.40","spark_pilot_norest","9627","5","16","Male","","","","","","","null","<div style=""font-size:60px;"">+</div>","null","fixation","","","","","","","","","81","","",""
"revaluation","200","884857","0.0-4.0-2.0-0.41","spark_pilot_norest","9627","5","16","Male","","false","","","","","[718.7999997138977,319.2999997138977]","./assets/img/canyon/memory/13.jpg","[""ArrowUp"",""ArrowLeft""]","value training","canyon","26","{""ArrowUp,ArrowLeft"":26,""ArrowUp,ArrowRight"":10,""ArrowDown,ArrowLeft"":5,""ArrowDown,ArrowRight"":17}","true","ArrowUp,ArrowLeft","false","original","1","82","","",""
"html-keyboard-response","201","885361","0.0-4.0-2.0-1.41","spark_pilot_norest","9627","5","16","Male","","","","","","","null","<div style=""font-size:60px;"">+</div>","null","fixation","","","","","","","","","83","","",""
"revaluation","202","891384","0.0-4.0-2.0-0.42","spark_pilot_norest","9627","5","16","Male","","false","","","","","[1047.7999997138977,442.59999990463257]","./assets/img/canyon/memory/5.jpg","[""ArrowUp"",""ArrowLeft""]","value training","canyon","26","{""ArrowUp,ArrowLeft"":26,""ArrowUp,ArrowRight"":10,""ArrowDown,ArrowLeft"":5,""ArrowDown,ArrowRight"":17}","true","ArrowUp,ArrowLeft","false","original","1","84","","",""
"html-keyboard-response","203","891889","0.0-4.0-2.0-1.42","spark_pilot_norest","9627","5","16","Male","","","","","","","null","<div style=""font-size:60px;"">+</div>","null","fixation","","","","","","","","","85","","",""
"revaluation","204","897914","0.0-4.0-2.0-0.43","spark_pilot_norest","9627","5","16","Male","","false","","","","","[656.7000002861023,392.59999990463257]","./assets/img/canyon/memory/6.jpg","[""ArrowUp"",""ArrowLeft""]","value training","canyon","26","{""ArrowUp,ArrowLeft"":26,""ArrowUp,ArrowRight"":10,""ArrowDown,ArrowLeft"":5,""ArrowDown,ArrowRight"":17}","true","ArrowUp,ArrowLeft","false","original","1","86","","",""
"html-keyboard-response","205","898426","0.0-4.0-2.0-1.43","spark_pilot_norest","9627","5","16","Male","","","","","","","null","<div style=""font-size:60px;"">+</div>","null","fixation","","","","","","","","","87","","",""
"revaluation","206","904449","0.0-4.0-2.0-0.44","spark_pilot_norest","9627","5","16","Male","","false","","","","","[711.0999999046326,367.69999980926514]","./assets/img/canyon/memory/9.jpg","[""ArrowUp"",""ArrowLeft""]","value training","canyon","26","{""ArrowUp,ArrowLeft"":26,""ArrowUp,ArrowRight"":10,""ArrowDown,ArrowLeft"":5,""ArrowDown,ArrowRight"":17}","true","ArrowUp,ArrowLeft","false","original","1","88","","",""
"html-keyboard-response","207","904955","0.0-4.0-2.0-1.44","spark_pilot_norest","9627","5","16","Male","","","","","","","null","<div style=""font-size:60px;"">+</div>","null","fixation","","","","","","","","","89","","",""
"revaluation","208","908971","0.0-4.0-2.0-0.45","spark_pilot_norest","9627","5","16","Male","","false","","","","","[815.5]","./assets/img/canyon/catch/7.jpg","[""spaceBar""]","value training","canyon","0","{""ArrowUp,ArrowLeft"":26,""ArrowUp,ArrowRight"":10,""ArrowDown,ArrowLeft"":5,""ArrowDown,ArrowRight"":17}","true","spaceBar","true","original","1","90","","",""
"html-keyboard-response","209","909480","0.0-4.0-2.0-1.45","spark_pilot_norest","9627","5","16","Male","","","","","","","null","<div style=""font-size:60px;"">+</div>","null","fixation","","","","","","","","","91","","",""
"revaluation","210","915506","0.0-4.0-2.0-0.46","spark_pilot_norest","9627","5","16","Male","","false","","","","","[1329.2999997138977,521.7999997138977]","./assets/img/canyon/memory/25.jpg","[""ArrowUp"",""ArrowLeft""]","value training","canyon","26","{""ArrowUp,ArrowLeft"":26,""ArrowUp,ArrowRight"":10,""ArrowDown,ArrowLeft"":5,""ArrowDown,ArrowRight"":17}","true","ArrowUp,ArrowLeft","false","original","1","92","","",""
"html-keyboard-response","211","916019","0.0-4.0-2.0-1.46","spark_pilot_norest","9627","5","16","Male","","","","","","","null","<div style=""font-size:60px;"">+</div>","null","fixation","","","","","","","","","93","","",""
"revaluation","212","922041","0.0-4.0-2.0-0.47","spark_pilot_norest","9627","5","16","Male","","false","","","","","[1350.4000000953674,495.2000002861023]","./assets/img/canyon/memory/8.jpg","[""ArrowUp"",""ArrowLeft""]","value training","canyon","26","{""ArrowUp,ArrowLeft"":26,""ArrowUp,ArrowRight"":10,""ArrowDown,ArrowLeft"":5,""ArrowDown,ArrowRight"":17}","true","ArrowUp,ArrowLeft","false","original","1","94","","",""
"html-keyboard-response","213","922546","0.0-4.0-2.0-1.47","spark_pilot_norest","9627","5","16","Male","","","","","","","null","<div style=""font-size:60px;"">+</div>","null","fixation","","","","","","","","","95","","",""
"revaluation","214","928571","0.0-4.0-2.0-0.48","spark_pilot_norest","9627","5","16","Male","","false","","","","","[1335.3999996185303,543.9000000953674]","./assets/img/canyon/memory/14.jpg","[""ArrowUp"",""ArrowLeft""]","value training","canyon","26","{""ArrowUp,ArrowLeft"":26,""ArrowUp,ArrowRight"":10,""ArrowDown,ArrowLeft"":5,""ArrowDown,ArrowRight"":17}","true","ArrowUp,ArrowLeft","false","original","1","96","","",""
"html-keyboard-response","215","929082","0.0-4.0-2.0-1.48","spark_pilot_norest","9627","5","16","Male","","","","","","","null","<div style=""font-size:60px;"">+</div>","null","fixation","","","","","","","","","97","","",""
"revaluation","216","933099","0.0-4.0-2.0-0.49","spark_pilot_norest","9627","5","16","Male","","false","","","","","[903.1000003814697]","./assets/img/canyon/catch/4.jpg","[""spaceBar""]","value training","canyon","0","{""ArrowUp,ArrowLeft"":26,""ArrowUp,ArrowRight"":10,""ArrowDown,ArrowLeft"":5,""ArrowDown,ArrowRight"":17}","true","spaceBar","true","original","1","98","","",""
"html-keyboard-response","217","933609","0.0-4.0-2.0-1.49","spark_pilot_norest","9627","5","16","Male","","","","","","","null","<div style=""font-size:60px;"">+</div>","null","fixation","","","","","","","","","99","","",""
"learning-instructions","218","950404","0.0-4.0-3.0-0.0","spark_pilot_norest","9627","5","16","Male","","","","","","","3594.7000002861023","<p> Now, you will travel with a friend who will choose whether you go up or down first. </p>
            <p> On these turns, you will just see the animal that they found. You will still get to choose which chest to search for treasure.</p>","","instructions","","","","","","","","","","","",""
"revaluation","219","954416","0.0-4.0-4.0-0.0","spark_pilot_norest","9627","5","16","Male","","false","","","","","[861.1999998092651]","./assets/img/canyon/animals/giraffe.jpg","[""ArrowLeft""]","revaluation","canyon","26","{""ArrowUp,ArrowLeft"":26,""ArrowUp,ArrowRight"":10,""ArrowDown,ArrowLeft"":5,""ArrowDown,ArrowRight"":17}","true","ArrowUp,ArrowLeft","","original","1","0","","",""
"html-keyboard-response","220","954922","0.0-4.0-4.0-1.0","spark_pilot_norest","9627","5","16","Male","","","","","","","null","<div style=""font-size:60px;"">+</div>","null","fixation","","","","","","","","","1","","",""
"revaluation","221","958935","0.0-4.0-4.0-0.1","spark_pilot_norest","9627","5","16","Male","","false","","","","","[809.3000001907349]","./assets/img/canyon/animals/lion.jpg","[""ArrowLeft""]","revaluation","canyon","5","{""ArrowUp,ArrowLeft"":26,""ArrowUp,ArrowRight"":10,""ArrowDown,ArrowLeft"":5,""ArrowDown,ArrowRight"":17}","false","ArrowDown,ArrowLeft","","original","1","2","","",""
"html-keyboard-response","222","959440","0.0-4.0-4.0-1.1","spark_pilot_norest","9627","5","16","Male","","","","","","","null","<div style=""font-size:60px;"">+</div>","null","fixation","","","","","","","","","3","","",""
"revaluation","223","963454","0.0-4.0-4.0-0.2","spark_pilot_norest","9627","5","16","Male","","false","","","","","[576.9000000953674]","./assets/img/canyon/animals/lion.jpg","[""ArrowRight""]","revaluation","canyon","17","{""ArrowUp,ArrowLeft"":26,""ArrowUp,ArrowRight"":10,""ArrowDown,ArrowLeft"":5,""ArrowDown,ArrowRight"":17}","true","ArrowDown,ArrowRight","","original","1","4","","",""
"html-keyboard-response","224","963960","0.0-4.0-4.0-1.2","spark_pilot_norest","9627","5","16","Male","","","","","","","null","<div style=""font-size:60px;"">+</div>","null","fixation","","","","","","","","","5","","",""
"revaluation","225","967978","0.0-4.0-4.0-0.3","spark_pilot_norest","9627","5","16","Male","","false","","","","","[522.5]","./assets/img/canyon/animals/giraffe.jpg","[""ArrowRight""]","revaluation","canyon","10","{""ArrowUp,ArrowLeft"":26,""ArrowUp,ArrowRight"":10,""ArrowDown,ArrowLeft"":5,""ArrowDown,ArrowRight"":17}","false","ArrowUp,ArrowRight","","original","1","6","","",""
"html-keyboard-response","226","968488","0.0-4.0-4.0-1.3","spark_pilot_norest","9627","5","16","Male","","","","","","","null","<div style=""font-size:60px;"">+</div>","null","fixation","","","","","","","","","7","","",""
"revaluation","227","972504","0.0-4.0-4.0-0.4","spark_pilot_norest","9627","5","16","Male","","false","","","","","[777.5]","./assets/img/canyon/animals/giraffe.jpg","[""ArrowLeft""]","revaluation","canyon","26","{""ArrowUp,ArrowLeft"":26,""ArrowUp,ArrowRight"":10,""ArrowDown,ArrowLeft"":5,""ArrowDown,ArrowRight"":17}","true","ArrowUp,ArrowLeft","","original","1","8","","",""
"html-keyboard-response","228","973011","0.0-4.0-4.0-1.4","spark_pilot_norest","9627","5","16","Male","","","","","","","null","<div style=""font-size:60px;"">+</div>","null","fixation","","","","","","","","","9","","",""
"revaluation","229","977027","0.0-4.0-4.0-0.5","spark_pilot_norest","9627","5","16","Male","","false","","","","","[1702.3000001907349]","./assets/img/canyon/animals/lion.jpg","[""ArrowRight""]","revaluation","canyon","17","{""ArrowUp,ArrowLeft"":26,""ArrowUp,ArrowRight"":10,""ArrowDown,ArrowLeft"":5,""ArrowDown,ArrowRight"":17}","true","ArrowDown,ArrowRight","","original","1","10","","",""
"html-keyboard-response","230","977536","0.0-4.0-4.0-1.5","spark_pilot_norest","9627","5","16","Male","","","","","","","null","<div style=""font-size:60px;"">+</div>","null","fixation","","","","","","","","","11","","",""
"revaluation","231","981554","0.0-4.0-4.0-0.6","spark_pilot_norest","9627","5","16","Male","","false","","","","","[537]","./assets/img/canyon/animals/giraffe.jpg","[""ArrowLeft""]","revaluation","canyon","26","{""ArrowUp,ArrowLeft"":26,""ArrowUp,ArrowRight"":10,""ArrowDown,ArrowLeft"":5,""ArrowDown,ArrowRight"":17}","true","ArrowUp,ArrowLeft","","original","1","12","","",""
"html-keyboard-response","232","982066","0.0-4.0-4.0-1.6","spark_pilot_norest","9627","5","16","Male","","","","","","","null","<div style=""font-size:60px;"">+</div>","null","fixation","","","","","","","","","13","","",""
"revaluation","233","986081","0.0-4.0-4.0-0.7","spark_pilot_norest","9627","5","16","Male","","false","","","","","[655.2999997138977]","./assets/img/canyon/animals/lion.jpg","[""ArrowRight""]","revaluation","canyon","17","{""ArrowUp,ArrowLeft"":26,""ArrowUp,ArrowRight"":10,""ArrowDown,ArrowLeft"":5,""ArrowDown,ArrowRight"":17}","true","ArrowDown,ArrowRight","","original","1","14","","",""
"html-keyboard-response","234","986587","0.0-4.0-4.0-1.7","spark_pilot_norest","9627","5","16","Male","","","","","","","null","<div style=""font-size:60px;"">+</div>","null","fixation","","","","","","","","","15","","",""
"revaluation","235","990603","0.0-4.0-4.0-0.8","spark_pilot_norest","9627","5","16","Male","","false","","","","","[518.5]","./assets/img/canyon/animals/giraffe.jpg","[""ArrowLeft""]","revaluation","canyon","26","{""ArrowUp,ArrowLeft"":26,""ArrowUp,ArrowRight"":10,""ArrowDown,ArrowLeft"":5,""ArrowDown,ArrowRight"":17}","true","ArrowUp,ArrowLeft","","original","1","16","","",""
"html-keyboard-response","236","991114","0.0-4.0-4.0-1.8","spark_pilot_norest","9627","5","16","Male","","","","","","","null","<div style=""font-size:60px;"">+</div>","null","fixation","","","","","","","","","17","","",""
"revaluation","237","995131","0.0-4.0-4.0-0.9","spark_pilot_norest","9627","5","16","Male","","false","","","","","[632.8000001907349]","./assets/img/canyon/animals/giraffe.jpg","[""ArrowLeft""]","revaluation","canyon","26","{""ArrowUp,ArrowLeft"":26,""ArrowUp,ArrowRight"":10,""ArrowDown,ArrowLeft"":5,""ArrowDown,ArrowRight"":17}","true","ArrowUp,ArrowLeft","","original","1","18","","",""
"html-keyboard-response","238","995642","0.0-4.0-4.0-1.9","spark_pilot_norest","9627","5","16","Male","","","","","","","null","<div style=""font-size:60px;"">+</div>","null","fixation","","","","","","","","","19","","",""
"revaluation","239","999660","0.0-4.0-4.0-0.10","spark_pilot_norest","9627","5","16","Male","","false","","","","","[767.2000002861023]","./assets/img/canyon/animals/lion.jpg","[""ArrowRight""]","revaluation","canyon","17","{""ArrowUp,ArrowLeft"":26,""ArrowUp,ArrowRight"":10,""ArrowDown,ArrowLeft"":5,""ArrowDown,ArrowRight"":17}","true","ArrowDown,ArrowRight","","original","1","20","","",""
"html-keyboard-response","240","1000169","0.0-4.0-4.0-1.10","spark_pilot_norest","9627","5","16","Male","","","","","","","null","<div style=""font-size:60px;"">+</div>","null","fixation","","","","","","","","","21","","",""
"revaluation","241","1004188","0.0-4.0-4.0-0.11","spark_pilot_norest","9627","5","16","Male","","false","","","","","[520.5]","./assets/img/canyon/animals/giraffe.jpg","[""ArrowLeft""]","revaluation","canyon","26","{""ArrowUp,ArrowLeft"":26,""ArrowUp,ArrowRight"":10,""ArrowDown,ArrowLeft"":5,""ArrowDown,ArrowRight"":17}","true","ArrowUp,ArrowLeft","","original","1","22","","",""
"html-keyboard-response","242","1004698","0.0-4.0-4.0-1.11","spark_pilot_norest","9627","5","16","Male","","","","","","","null","<div style=""font-size:60px;"">+</div>","null","fixation","","","","","","","","","23","","",""
"revaluation","243","1008715","0.0-4.0-4.0-0.12","spark_pilot_norest","9627","5","16","Male","","false","","","","","[649]","./assets/img/canyon/animals/giraffe.jpg","[""ArrowLeft""]","revaluation","canyon","26","{""ArrowUp,ArrowLeft"":26,""ArrowUp,ArrowRight"":10,""ArrowDown,ArrowLeft"":5,""ArrowDown,ArrowRight"":17}","true","ArrowUp,ArrowLeft","","original","1","24","","",""
"html-keyboard-response","244","1009226","0.0-4.0-4.0-1.12","spark_pilot_norest","9627","5","16","Male","","","","","","","null","<div style=""font-size:60px;"">+</div>","null","fixation","","","","","","","","","25","","",""
"revaluation","245","1013243","0.0-4.0-4.0-0.13","spark_pilot_norest","9627","5","16","Male","","false","","","","","[551.1999998092651]","./assets/img/canyon/animals/giraffe.jpg","[""ArrowLeft""]","revaluation","canyon","26","{""ArrowUp,ArrowLeft"":26,""ArrowUp,ArrowRight"":10,""ArrowDown,ArrowLeft"":5,""ArrowDown,ArrowRight"":17}","true","ArrowUp,ArrowLeft","","original","1","26","","",""
"html-keyboard-response","246","1013754","0.0-4.0-4.0-1.13","spark_pilot_norest","9627","5","16","Male","","","","","","","null","<div style=""font-size:60px;"">+</div>","null","fixation","","","","","","","","","27","","",""
"revaluation","247","1017771","0.0-4.0-4.0-0.14","spark_pilot_norest","9627","5","16","Male","","false","","","","","[767.8000001907349]","./assets/img/canyon/animals/lion.jpg","[""ArrowRight""]","revaluation","canyon","17","{""ArrowUp,ArrowLeft"":26,""ArrowUp,ArrowRight"":10,""ArrowDown,ArrowLeft"":5,""ArrowDown,ArrowRight"":17}","true","ArrowDown,ArrowRight","","original","1","28","","",""
"html-keyboard-response","248","1018282","0.0-4.0-4.0-1.14","spark_pilot_norest","9627","5","16","Male","","","","","","","null","<div style=""font-size:60px;"">+</div>","null","fixation","","","","","","","","","29","","",""
"revaluation","249","1022299","0.0-4.0-4.0-0.15","spark_pilot_norest","9627","5","16","Male","","false","","","","","[689.3000001907349]","./assets/img/canyon/animals/lion.jpg","[""ArrowRight""]","revaluation","canyon","17","{""ArrowUp,ArrowLeft"":26,""ArrowUp,ArrowRight"":10,""ArrowDown,ArrowLeft"":5,""ArrowDown,ArrowRight"":17}","true","ArrowDown,ArrowRight","","original","1","30","","",""
"html-keyboard-response","250","1022809","0.0-4.0-4.0-1.15","spark_pilot_norest","9627","5","16","Male","","","","","","","null","<div style=""font-size:60px;"">+</div>","null","fixation","","","","","","","","","31","","",""
"revaluation","251","1026827","0.0-4.0-4.0-0.16","spark_pilot_norest","9627","5","16","Male","","false","","","","","[688.1999998092651]","./assets/img/canyon/animals/lion.jpg","[""ArrowRight""]","revaluation","canyon","17","{""ArrowUp,ArrowLeft"":26,""ArrowUp,ArrowRight"":10,""ArrowDown,ArrowLeft"":5,""ArrowDown,ArrowRight"":17}","true","ArrowDown,ArrowRight","","original","1","32","","",""
"html-keyboard-response","252","1027337","0.0-4.0-4.0-1.16","spark_pilot_norest","9627","5","16","Male","","","","","","","null","<div style=""font-size:60px;"">+</div>","null","fixation","","","","","","","","","33","","",""
"revaluation","253","1031354","0.0-4.0-4.0-0.17","spark_pilot_norest","9627","5","16","Male","","false","","","","","[713.8000001907349]","./assets/img/canyon/animals/lion.jpg","[""ArrowRight""]","revaluation","canyon","17","{""ArrowUp,ArrowLeft"":26,""ArrowUp,ArrowRight"":10,""ArrowDown,ArrowLeft"":5,""ArrowDown,ArrowRight"":17}","true","ArrowDown,ArrowRight","","original","1","34","","",""
"html-keyboard-response","254","1031859","0.0-4.0-4.0-1.17","spark_pilot_norest","9627","5","16","Male","","","","","","","null","<div style=""font-size:60px;"">+</div>","null","fixation","","","","","","","","","35","","",""
"learning-instructions","255","1040291","0.0-4.0-5.0-0.0","spark_pilot_norest","9627","5","16","Male","","","","","","","null","<p> You have almost finished this part of the game! </p>
            <p> We are going to ask you to make a few more choices. </p>","","instructions","","","","","","","","","","","",""
"learning-instructions","256","1056261","0.0-4.0-5.0-0.1","spark_pilot_norest","9627","5","16","Male","","","","","","","null","<p> First, you need to decide whether to go up or down. When you see each picture, use the arrow keys to make your choice. </p>
            <p><b>You will not see which animal you found, but try to get to the one that will give you the most treasure.</b></p>","","instructions","","","","","","","","","","","",""
"html-keyboard-response","257","1057266","0.0-4.0-6.0-0.0","spark_pilot_norest","9627","5","16","Male","","","","","","","null","<div style=""font-size:100px;color:red;"">Starting in...</div>","null","","","","","","","","","","","","",""
"html-keyboard-response","258","1058275","0.0-4.0-6.0-1.0","spark_pilot_norest","9627","5","16","Male","","","","","","","null","<div style=""font-size:200px;color:red;"">3</div>","null","","","","","","","","","","","","",""
"html-keyboard-response","259","1059282","0.0-4.0-6.0-2.0","spark_pilot_norest","9627","5","16","Male","","","","","","","null","<div style=""font-size:200px;color:red;"">2</div>","null","","","","","","","","","","","","",""
"html-keyboard-response","260","1060291","0.0-4.0-6.0-3.0","spark_pilot_norest","9627","5","16","Male","","","","","","","null","<div style=""font-size:200px;color:red;"">1</div>","null","","","","","","","","","","","","",""
"revaluation","261","1060955","0.0-4.0-7.0-0.0","spark_pilot_norest","9627","5","16","Male","","false","","","","","[663]","./assets/img/canyon/test/0.jpg","[""ArrowUp""]","first stage test","canyon","0","{""ArrowUp,ArrowLeft"":26,""ArrowUp,ArrowRight"":10,""ArrowDown,ArrowLeft"":5,""ArrowDown,ArrowRight"":17}","true","ArrowUp","false","original","1","","","",""
"html-keyboard-response","262","1061465","0.0-4.0-7.0-1.0","spark_pilot_norest","9627","5","16","Male","","","","","","","null","<div style=""font-size:60px;"">+</div>","null","fixation","","","","","","","","","","","",""
"revaluation","263","1062901","0.0-4.0-7.0-0.1","spark_pilot_norest","9627","5","16","Male","","false","","","","","[1434]","./assets/img/canyon/test/3.jpg","[""ArrowUp""]","first stage test","canyon","0","{""ArrowUp,ArrowLeft"":26,""ArrowUp,ArrowRight"":10,""ArrowDown,ArrowLeft"":5,""ArrowDown,ArrowRight"":17}","true","ArrowUp","false","original","1","","","",""
"html-keyboard-response","264","1063409","0.0-4.0-7.0-1.1","spark_pilot_norest","9627","5","16","Male","","","","","","","null","<div style=""font-size:60px;"">+</div>","null","fixation","","","","","","","","","","","",""
"revaluation","265","1064307","0.0-4.0-7.0-0.2","spark_pilot_norest","9627","5","16","Male","","false","","","","","[896.6999998092651]","./assets/img/canyon/test/2.jpg","[""ArrowUp""]","first stage test","canyon","0","{""ArrowUp,ArrowLeft"":26,""ArrowUp,ArrowRight"":10,""ArrowDown,ArrowLeft"":5,""ArrowDown,ArrowRight"":17}","true","ArrowUp","false","original","1","","","",""
"html-keyboard-response","266","1064816","0.0-4.0-7.0-1.2","spark_pilot_norest","9627","5","16","Male","","","","","","","null","<div style=""font-size:60px;"">+</div>","null","fixation","","","","","","","","","","","",""
"revaluation","267","1065629","0.0-4.0-7.0-0.3","spark_pilot_norest","9627","5","16","Male","","false","","","","","[811.2000002861023]","./assets/img/canyon/test/1.jpg","[""ArrowUp""]","first stage test","canyon","0","{""ArrowUp,ArrowLeft"":26,""ArrowUp,ArrowRight"":10,""ArrowDown,ArrowLeft"":5,""ArrowDown,ArrowRight"":17}","true","ArrowUp","false","original","1","","","",""
"html-keyboard-response","268","1066136","0.0-4.0-7.0-1.3","spark_pilot_norest","9627","5","16","Male","","","","","","","null","<div style=""font-size:60px;"">+</div>","null","fixation","","","","","","","","","","","",""
"learning-instructions","269","1079482","0.0-4.0-8.0-0.0","spark_pilot_norest","9627","5","16","Male","","","","","","","null","<p> Now you will see the animals again and can search their chests for treasure. </p>
            <p> This time, you will not see how much treasure you earned, but you will earn more bonus money for making better choices. </p>","","instructions","","","","","","","","","","","",""
"html-keyboard-response","270","1080490","0.0-4.0-9.0-0.0","spark_pilot_norest","9627","5","16","Male","","","","","","","null","<div style=""font-size:100px;color:red;"">Starting in...</div>","null","","","","","","","","","","","","",""
"html-keyboard-response","271","1081495","0.0-4.0-9.0-1.0","spark_pilot_norest","9627","5","16","Male","","","","","","","null","<div style=""font-size:200px;color:red;"">3</div>","null","","","","","","","","","","","","",""
"html-keyboard-response","272","1082507","0.0-4.0-9.0-2.0","spark_pilot_norest","9627","5","16","Male","","","","","","","null","<div style=""font-size:200px;color:red;"">2</div>","null","","","","","","","","","","","","",""
"html-keyboard-response","273","1083514","0.0-4.0-9.0-3.0","spark_pilot_norest","9627","5","16","Male","","","","","","","null","<div style=""font-size:200px;color:red;"">1</div>","null","","","","","","","","","","","","",""
"revaluation","274","1084147","0.0-4.0-10.0-0.0","spark_pilot_norest","9627","5","16","Male","","false","","","","","[632.0999999046326]","./assets/img/canyon/animals/giraffe.jpg","[""ArrowLeft""]","second stage test","canyon","0","{""ArrowUp,ArrowLeft"":26,""ArrowUp,ArrowRight"":10,""ArrowDown,ArrowLeft"":5,""ArrowDown,ArrowRight"":17}","true","ArrowUp,ArrowLeft","","original","1","","","",""
"html-keyboard-response","275","1084656","0.0-4.0-10.0-1.0","spark_pilot_norest","9627","5","16","Male","","","","","","","null","<div style=""font-size:60px;"">+</div>","null","fixation","","","","","","","","","","","",""
"revaluation","276","1085109","0.0-4.0-10.0-0.1","spark_pilot_norest","9627","5","16","Male","","false","","","","","[451]","./assets/img/canyon/animals/giraffe.jpg","[""ArrowLeft""]","second stage test","canyon","0","{""ArrowUp,ArrowLeft"":26,""ArrowUp,ArrowRight"":10,""ArrowDown,ArrowLeft"":5,""ArrowDown,ArrowRight"":17}","true","ArrowUp,ArrowLeft","","original","1","","","",""
"html-keyboard-response","277","1085617","0.0-4.0-10.0-1.1","spark_pilot_norest","9627","5","16","Male","","","","","","","null","<div style=""font-size:60px;"">+</div>","null","fixation","","","","","","","","","","","",""
"revaluation","278","1086003","0.0-4.0-10.0-0.2","spark_pilot_norest","9627","5","16","Male","","false","","","","","[385.2999997138977]","./assets/img/canyon/animals/giraffe.jpg","[""ArrowLeft""]","second stage test","canyon","0","{""ArrowUp,ArrowLeft"":26,""ArrowUp,ArrowRight"":10,""ArrowDown,ArrowLeft"":5,""ArrowDown,ArrowRight"":17}","true","ArrowUp,ArrowLeft","","original","1","","","",""
"html-keyboard-response","279","1086513","0.0-4.0-10.0-1.2","spark_pilot_norest","9627","5","16","Male","","","","","","","null","<div style=""font-size:60px;"">+</div>","null","fixation","","","","","","","","","","","",""
"revaluation","280","1087429","0.0-4.0-10.0-0.3","spark_pilot_norest","9627","5","16","Male","","false","","","","","[914.9000000953674]","./assets/img/canyon/animals/giraffe.jpg","[""ArrowLeft""]","second stage test","canyon","0","{""ArrowUp,ArrowLeft"":26,""ArrowUp,ArrowRight"":10,""ArrowDown,ArrowLeft"":5,""ArrowDown,ArrowRight"":17}","true","ArrowUp,ArrowLeft","","original","1","","","",""
"html-keyboard-response","281","1087935","0.0-4.0-10.0-1.3","spark_pilot_norest","9627","5","16","Male","","","","","","","null","<div style=""font-size:60px;"">+</div>","null","fixation","","","","","","","","","","","",""
"revaluation","282","1088867","0.0-4.0-10.0-0.4","spark_pilot_norest","9627","5","16","Male","","false","","","","","[930.8999996185303]","./assets/img/canyon/animals/lion.jpg","[""ArrowRight""]","second stage test","canyon","0","{""ArrowUp,ArrowLeft"":26,""ArrowUp,ArrowRight"":10,""ArrowDown,ArrowLeft"":5,""ArrowDown,ArrowRight"":17}","true","ArrowDown,ArrowRight","","original","1","","","",""
"html-keyboard-response","283","1089379","0.0-4.0-10.0-1.4","spark_pilot_norest","9627","5","16","Male","","","","","","","null","<div style=""font-size:60px;"">+</div>","null","fixation","","","","","","","","","","","",""
"revaluation","284","1090261","0.0-4.0-10.0-0.5","spark_pilot_norest","9627","5","16","Male","","false","","","","","[880.2000002861023]","./assets/img/canyon/animals/lion.jpg","[""ArrowRight""]","second stage test","canyon","0","{""ArrowUp,ArrowLeft"":26,""ArrowUp,ArrowRight"":10,""ArrowDown,ArrowLeft"":5,""ArrowDown,ArrowRight"":17}","true","ArrowDown,ArrowRight","","original","1","","","",""
"html-keyboard-response","285","1090769","0.0-4.0-10.0-1.5","spark_pilot_norest","9627","5","16","Male","","","","","","","null","<div style=""font-size:60px;"">+</div>","null","fixation","","","","","","","","","","","",""
"revaluation","286","1091555","0.0-4.0-10.0-0.6","spark_pilot_norest","9627","5","16","Male","","false","","","","","[785.1999998092651]","./assets/img/canyon/animals/lion.jpg","[""ArrowRight""]","second stage test","canyon","0","{""ArrowUp,ArrowLeft"":26,""ArrowUp,ArrowRight"":10,""ArrowDown,ArrowLeft"":5,""ArrowDown,ArrowRight"":17}","true","ArrowDown,ArrowRight","","original","1","","","",""
"html-keyboard-response","287","1092067","0.0-4.0-10.0-1.6","spark_pilot_norest","9627","5","16","Male","","","","","","","null","<div style=""font-size:60px;"">+</div>","null","fixation","","","","","","","","","","","",""
"revaluation","288","1092877","0.0-4.0-10.0-0.7","spark_pilot_norest","9627","5","16","Male","","false","","","","","[808.8000001907349]","./assets/img/canyon/animals/lion.jpg","[""ArrowRight""]","second stage test","canyon","0","{""ArrowUp,ArrowLeft"":26,""ArrowUp,ArrowRight"":10,""ArrowDown,ArrowLeft"":5,""ArrowDown,ArrowRight"":17}","true","ArrowDown,ArrowRight","","original","1","","","",""
"html-keyboard-response","289","1093387","0.0-4.0-10.0-1.7","spark_pilot_norest","9627","5","16","Male","","","","","","","null","<div style=""font-size:60px;"">+</div>","null","fixation","","","","","","","","","","","",""
"learning-instructions","290","1098561","0.0-4.0-0.1-0.2","spark_pilot_norest","9627","5","16","Male","","","","","","","2423.300000190735","<p> This time you are searching for treasure in the <b>ocean</b>.</p>","","instructions","","","","","","","","","","","",""
"learning-instructions","291","1118436","0.0-4.0-0.1-0.3","spark_pilot_norest","9627","5","16","Male","","","","","","","2624.7000002861023","<p><b>New</b> animals with <b>new</b> treasure chests live here. You need to explore to discover where the animal with the best treasure chest is.</p>
                    <p> Like before, once you figure out which animal has the chest with the most treasure, you should try to get to that animal and select that chest! </p>","","instructions","","","","","","","","","","","",""
"learning-instructions","292","1134043","0.0-4.0-1.1-0.1","spark_pilot_norest","9627","5","16","Male","","","","","","","875.2000002861023","<p> Remember, when you see a picture of the place, use the up and down keys to <b>find an animal</b>.</p>
            <p> When you encounter an animal, you should use the left and right keys to <b>select a treasure chest</b>.</p>
            <p> Don't forget to look out for the robber! </p>","","instructions","","","","","","","","","","","",""
"revaluation","293","1140066","0.0-4.0-2.1-0.50","spark_pilot_norest","9627","5","16","Male","","false","","","","","[1439.0999999046326,658.9000000953674]","./assets/img/ocean/memory/25.jpg","[""ArrowUp"",""ArrowLeft""]","value training","ocean","23","{""ArrowUp,ArrowLeft"":23,""ArrowUp,ArrowRight"":10,""ArrowDown,ArrowLeft"":8,""ArrowDown,ArrowRight"":30}","false","ArrowUp,ArrowLeft","false","revaluation","2","0","","",""
"html-keyboard-response","294","1140572","0.0-4.0-2.1-1.50","spark_pilot_norest","9627","5","16","Male","","","","","","","null","<div style=""font-size:60px;"">+</div>","null","fixation","","","","","","","","","1","","",""
"revaluation","295","1146593","0.0-4.0-2.1-0.51","spark_pilot_norest","9627","5","16","Male","","false","","","","","[998.2999997138977,393.80000019073486]","./assets/img/ocean/memory/22.jpg","[""ArrowDown"",""ArrowLeft""]","value training","ocean","8","{""ArrowUp,ArrowLeft"":23,""ArrowUp,ArrowRight"":10,""ArrowDown,ArrowLeft"":8,""ArrowDown,ArrowRight"":30}","false","ArrowDown,ArrowLeft","false","revaluation","2","2","","",""
"html-keyboard-response","296","1147096","0.0-4.0-2.1-1.51","spark_pilot_norest","9627","5","16","Male","","","","","","","null","<div style=""font-size:60px;"">+</div>","null","fixation","","","","","","","","","3","","",""
"revaluation","297","1153120","0.0-4.0-2.1-0.52","spark_pilot_norest","9627","5","16","Male","","false","","","","","[858,410.3999996185303]","./assets/img/ocean/memory/6.jpg","[""ArrowUp"",""ArrowRight""]","value training","ocean","10","{""ArrowUp,ArrowLeft"":23,""ArrowUp,ArrowRight"":10,""ArrowDown,ArrowLeft"":8,""ArrowDown,ArrowRight"":30}","false","ArrowUp,ArrowRight","false","revaluation","2","4","","",""
"html-keyboard-response","298","1153626","0.0-4.0-2.1-1.52","spark_pilot_norest","9627","5","16","Male","","","","","","","null","<div style=""font-size:60px;"">+</div>","null","fixation","","","","","","","","","5","","",""
"revaluation","299","1159651","0.0-4.0-2.1-0.53","spark_pilot_norest","9627","5","16","Male","","false","","","","","[688.0999999046326,386.3999996185303]","./assets/img/ocean/memory/5.jpg","[""ArrowDown"",""ArrowRight""]","value training","ocean","30","{""ArrowUp,ArrowLeft"":23,""ArrowUp,ArrowRight"":10,""ArrowDown,ArrowLeft"":8,""ArrowDown,ArrowRight"":30}","true","ArrowDown,ArrowRight","false","revaluation","2","6","","",""
"html-keyboard-response","300","1160159","0.0-4.0-2.1-1.53","spark_pilot_norest","9627","5","16","Male","","","","","","","null","<div style=""font-size:60px;"">+</div>","null","fixation","","","","","","","","","7","","",""
"revaluation","301","1166187","0.0-4.0-2.1-0.54","spark_pilot_norest","9627","5","16","Male","","false","","","","","[795,552.0999999046326]","./assets/img/ocean/memory/7.jpg","[""ArrowDown"",""ArrowRight""]","value training","ocean","30","{""ArrowUp,ArrowLeft"":23,""ArrowUp,ArrowRight"":10,""ArrowDown,ArrowLeft"":8,""ArrowDown,ArrowRight"":30}","true","ArrowDown,ArrowRight","false","revaluation","2","8","","",""
"html-keyboard-response","302","1166698","0.0-4.0-2.1-1.54","spark_pilot_norest","9627","5","16","Male","","","","","","","null","<div style=""font-size:60px;"">+</div>","null","fixation","","","","","","","","","9","","",""
"revaluation","303","1170716","0.0-4.0-2.1-0.55","spark_pilot_norest","9627","5","16","Male","","false","","","","","[679.6999998092651]","./assets/img/ocean/catch/0.jpg","[""spaceBar""]","value training","ocean","0","{""ArrowUp,ArrowLeft"":23,""ArrowUp,ArrowRight"":10,""ArrowDown,ArrowLeft"":8,""ArrowDown,ArrowRight"":30}","true","spaceBar","true","revaluation","2","10","","",""
"html-keyboard-response","304","1171226","0.0-4.0-2.1-1.55","spark_pilot_norest","9627","5","16","Male","","","","","","","null","<div style=""font-size:60px;"">+</div>","null","fixation","","","","","","","","","11","","",""
"revaluation","305","1177252","0.0-4.0-2.1-0.56","spark_pilot_norest","9627","5","16","Male","","false","","","","","[592.5999999046326,256.2999997138977]","./assets/img/ocean/memory/28.jpg","[""ArrowDown"",""ArrowRight""]","value training","ocean","30","{""ArrowUp,ArrowLeft"":23,""ArrowUp,ArrowRight"":10,""ArrowDown,ArrowLeft"":8,""ArrowDown,ArrowRight"":30}","true","ArrowDown,ArrowRight","false","revaluation","2","12","","",""
"html-keyboard-response","306","1177763","0.0-4.0-2.1-1.56","spark_pilot_norest","9627","5","16","Male","","","","","","","null","<div style=""font-size:60px;"">+</div>","null","fixation","","","","","","","","","13","","",""
"revaluation","307","1183786","0.0-4.0-2.1-0.57","spark_pilot_norest","9627","5","16","Male","","false","","","","","[471.2999997138977,361]","./assets/img/ocean/memory/3.jpg","[""ArrowDown"",""ArrowRight""]","value training","ocean","30","{""ArrowUp,ArrowLeft"":23,""ArrowUp,ArrowRight"":10,""ArrowDown,ArrowLeft"":8,""ArrowDown,ArrowRight"":30}","true","ArrowDown,ArrowRight","false","revaluation","2","14","","",""
"html-keyboard-response","308","1184292","0.0-4.0-2.1-1.57","spark_pilot_norest","9627","5","16","Male","","","","","","","null","<div style=""font-size:60px;"">+</div>","null","fixation","","","","","","","","","15","","",""
"revaluation","309","1190313","0.0-4.0-2.1-0.58","spark_pilot_norest","9627","5","16","Male","","false","","","","","[734.6000003814697,379.09999990463257]","./assets/img/ocean/memory/16.jpg","[""ArrowDown"",""ArrowRight""]","value training","ocean","30","{""ArrowUp,ArrowLeft"":23,""ArrowUp,ArrowRight"":10,""ArrowDown,ArrowLeft"":8,""ArrowDown,ArrowRight"":30}","true","ArrowDown,ArrowRight","false","revaluation","2","16","","",""
"html-keyboard-response","310","1190819","0.0-4.0-2.1-1.58","spark_pilot_norest","9627","5","16","Male","","","","","","","null","<div style=""font-size:60px;"">+</div>","null","fixation","","","","","","","","","17","","",""
"revaluation","311","1194836","0.0-4.0-2.1-0.59","spark_pilot_norest","9627","5","16","Male","","false","","","","","[686.9000000953674]","./assets/img/ocean/catch/2.jpg","[""spaceBar""]","value training","ocean","0","{""ArrowUp,ArrowLeft"":23,""ArrowUp,ArrowRight"":10,""ArrowDown,ArrowLeft"":8,""ArrowDown,ArrowRight"":30}","true","spaceBar","true","revaluation","2","18","","",""
"html-keyboard-response","312","1195346","0.0-4.0-2.1-1.59","spark_pilot_norest","9627","5","16","Male","","","","","","","null","<div style=""font-size:60px;"">+</div>","null","fixation","","","","","","","","","19","","",""
"revaluation","313","1201372","0.0-4.0-2.1-0.60","spark_pilot_norest","9627","5","16","Male","","false","","","","","[776.1999998092651,368.59999990463257]","./assets/img/ocean/memory/11.jpg","[""ArrowDown"",""ArrowRight""]","value training","ocean","30","{""ArrowUp,ArrowLeft"":23,""ArrowUp,ArrowRight"":10,""ArrowDown,ArrowLeft"":8,""ArrowDown,ArrowRight"":30}","true","ArrowDown,ArrowRight","false","revaluation","2","20","","",""
