"trial_type","trial_index","time_elapsed","internal_node_id","task_version","subject_id","assigned_condition","age","gender","browser_interaction","success","timeout","failed_images","failed_audio","failed_video","rt","stimulus","response","task_part","environment","score","rewardMap","correct","fullState","isCatch","condition","order","trial_num","key_press","ground_truth","bonus"
"pavlovia","0","1411","0.0-0.0","spark_pilot_norest","10040","7","9","Male","[{""event"":""blur"",""trial"":1,""time"":2750},{""event"":""focus"",""trial"":1,""time"":6235},{""event"":""fullscreenenter"",""trial"":2,""time"":20552}]","","","","","","","","","","","","","","","","","","","","",""
"preload","1","13541","0.0-1.0","spark_pilot_norest","10040","7","9","Male","[{""event"":""blur"",""trial"":1,""time"":2750},{""event"":""focus"",""trial"":1,""time"":6235},{""event"":""fullscreenenter"",""trial"":2,""time"":20552}]","true","false","[]","[]","[]","","","","","","","","","","","","","","","",""
"fullscreen","2","21548","0.0-2.0","spark_pilot_norest","10040","7","9","Male","","true","","","","","","","","","","","","","","","","","","","",""
"audio-button-response","3","31914","0.0-3.0-0.0-0.0","spark_pilot_norest","10040","7","9","Male","","","","","","","10341","./assets/audio/audiotest/turtle.mp3","4","audio_test","","","","","","","","","","","",""
"audio-button-response","4","34490","0.0-3.0-0.1-0.1","spark_pilot_norest","10040","7","9","Male","","","","","","","1560","./assets/audio/audiotest/turtle.mp3","2","audio_test","","","","","","","","","","","",""
"learning-instructions","5","45340","0.0-3.0-1.0-0.0","spark_pilot_norest","10040","7","9","Male","","","","","","","3872.5","<p> Welcome! Please remember to stay in fullscreen mode and don't click away from the experiment. </p>","","instructions","","","","","","","","","","","",""
"learning-instructions","6","55625","0.0-3.0-1.0-0.1","spark_pilot_norest","10040","7","9","Male","","","","","","","1888.1000001430511","<p> Today you will be playing a game to earn treasure. </p>
            <p> At the end of the experiment, you will earn a bonus based on how much treasure you find. </p>
            <img src='./assets/img/instructions/treasure.jpg' class='instructions-image'>","","instructions","","","","","","","","","","","",""
"learning-instructions","7","64351","0.0-3.0-1.0-0.2","spark_pilot_norest","10040","7","9","Male","","","","","","","482.2999999523163","<p> Animals have hidden treasure in treasure chests. </p>
            <p> You need to first find an animal and then choose which of their treasure chests to search. </p>
            <img src='./assets/img/space/animals/cat.jpg' class='instructions-image'>","","instructions","","","","","","","","","","","",""
"learning-instructions","8","78128","0.0-3.0-1.0-0.3","spark_pilot_norest","10040","7","9","Male","","","","","","","629.3999998569489","<p> In each round, you will search for treasure in a different place. In the real game, there will be two rounds. </p>
            <p> You will begin with a separate, practice round where you will search for treasure in outer space. </p>
            <img src='./assets/img/space/0.jpg' class='instructions-image'>","","instructions","","","","","","","","","","","",""
"learning-instructions","9","90138","0.0-3.0-1.0-0.4","spark_pilot_norest","10040","7","9","Male","","","","","","","599.2999999523163","<p> On every turn, you will see a picture of the place that you are in, but the specific image may be different each time. </p>
            <p> For example, both of these images mean you are in outer space. </p>
            <img src='./assets/img/instructions/outerspace.jpg' class='instructions-image'>","","instructions","","","","","","","","","","","",""
"learning-instructions","10","100828","0.0-3.0-1.0-0.5","spark_pilot_norest","10040","7","9","Male","","","","","","","2869.7000000476837","<p> You need to decide which direction to travel in. </p>
            <p> You can choose between going <b>up or down</b> by using the arrow keys. </p>
            <img src='./assets/img/instructions/updown.jpg' class='instructions-image'>","","instructions","","","","","","","","","","","",""
"learning-instructions","11","110269","0.0-3.0-1.0-0.6","spark_pilot_norest","10040","7","9","Male","","","","","","","640.1000001430511","<p> You will have <b>2 seconds</b> to make your choice. </p>
            <p> If you do not make a choice within 2 seconds, you will not find an animal or earn treasure. </p>
            <img src='./assets/img/instructions/2seconds.jpg' class='instructions-image'>","","instructions","","","","","","","","","","","",""
"learning-instructions","12","117783","0.0-3.0-1.0-0.7","spark_pilot_norest","10040","7","9","Male","","","","","","","495.39999985694885","<p> Let’s try practicing that now! </p>
            <p> When you see a picture of the place you are in, press the <b>up</b> key to travel up. </p>
            <img src='./assets/img/instructions/pressUp.jpg' class='instructions-image'>","","instructions","","","","","","","","","","","",""
"revaluation","13","121797","0.0-3.0-2.0-0.0","spark_pilot_norest","10040","7","9","Male","","","true","","","","[]","./assets/img/space/0.jpg","[]","first stage practice","space","-5","null","null","","false","","","","","",""
"html-keyboard-response","14","122299","0.0-3.0-2.0-1.0","spark_pilot_norest","10040","7","9","Male","","","","","","","null","<div style=""font-size:60px;"">+</div>","null","fixation","","","","","","","","","","","",""
"revaluation","15","126323","0.0-3.0-2.0-0.1","spark_pilot_norest","10040","7","9","Male","","","false","","","","[756.9000000953674]","./assets/img/space/1.jpg","[""ArrowUp""]","first stage practice","space","0","null","null","ArrowUp","false","","","","","",""
"html-keyboard-response","16","126839","0.0-3.0-2.0-1.1","spark_pilot_norest","10040","7","9","Male","","","","","","","null","<div style=""font-size:60px;"">+</div>","null","fixation","","","","","","","","","","","",""
"revaluation","17","130855","0.0-3.0-2.0-0.2","spark_pilot_norest","10040","7","9","Male","","","true","","","","[]","./assets/img/space/2.jpg","[]","first stage practice","space","-5","null","null","","false","","","","","",""
"html-keyboard-response","18","131366","0.0-3.0-2.0-1.2","spark_pilot_norest","10040","7","9","Male","","","","","","","null","<div style=""font-size:60px;"">+</div>","null","fixation","","","","","","","","","","","",""
"learning-instructions","19","138891","0.0-3.0-3.0-0.0","spark_pilot_norest","10040","7","9","Male","","","","","","","2833","<p> Great job! Now try pressing the <b>down</b> key to travel down. </p>
            <img src='./assets/img/instructions/pressDown.jpg' class='instructions-image'>","","instructions","","","","","","","","","","","",""
"revaluation","20","142902","0.0-3.0-4.0-0.0","spark_pilot_norest","10040","7","9","Male","","","false","","","","[371.59999990463257]","./assets/img/space/3.jpg","[""ArrowDown""]","first stage practice","space","0","null","null","ArrowDown","false","","","","","",""
"html-keyboard-response","21","143408","0.0-3.0-4.0-1.0","spark_pilot_norest","10040","7","9","Male","","","","","","","null","<div style=""font-size:60px;"">+</div>","null","fixation","","","","","","","","","","","",""
"revaluation","22","147424","0.0-3.0-4.0-0.1","spark_pilot_norest","10040","7","9","Male","","","true","","","","[]","./assets/img/space/4.jpg","[]","first stage practice","space","-5","null","null","","false","","","","","",""
"html-keyboard-response","23","147941","0.0-3.0-4.0-1.1","spark_pilot_norest","10040","7","9","Male","","","","","","","null","<div style=""font-size:60px;"">+</div>","null","fixation","","","","","","","","","","","",""
"revaluation","24","151968","0.0-3.0-4.0-0.2","spark_pilot_norest","10040","7","9","Male","","","true","","","","[]","./assets/img/space/5.jpg","[]","first stage practice","space","-5","null","null","","false","","","","","",""
"html-keyboard-response","25","152474","0.0-3.0-4.0-1.2","spark_pilot_norest","10040","7","9","Male","","","","","","","null","<div style=""font-size:60px;"">+</div>","null","fixation","","","","","","","","","","","",""
"learning-instructions","26","163638","0.0-3.0-5.0-0.0","spark_pilot_norest","10040","7","9","Male","","","","","","","1310.4000000953674","<p> The animals don’t move, so the animal in the upper part of a place will stay in the upper part of a place, and the animal in the lower part of a place will stay in the lower part of a place. </p>","","instructions","","","","","","","","","","","",""
"learning-instructions","27","173327","0.0-3.0-5.0-0.1","spark_pilot_norest","10040","7","9","Male","","","","","","","559.7000000476837","<p> Each animal has two treasure chests for you to choose from. </p>
            <p> The amount of treasure in each chest can range from <b> 0 to 40 pieces.</b></p>","","instructions","","","","","","","","","","","",""
"learning-instructions","28","185356","0.0-3.0-5.0-0.2","spark_pilot_norest","10040","7","9","Male","","","","","","","848.4000000953674","<p> You should decide which chest to search for treasure by using the <b>left</b> and <b>right</b> arrow keys. </p>
            <p><b> Pay attention to which animal is on the screen, as the animals have different treasure chests. </b></p>
            <img src='./assets/img/instructions/leftright.jpg' class='instructions-image'>","","instructions","","","","","","","","","","","",""
"learning-instructions","29","193781","0.0-3.0-5.0-0.3","spark_pilot_norest","10040","7","9","Male","","","","","","","2073.2000000476837","<p> Let’s try practicing that now. </p>
            <p> When you see an animal, choose which chest to search for treasure. </p>
            <img src='./assets/img/instructions/chooseChest.jpg' class='instructions-image'>","","instructions","","","","","","","","","","","",""
"revaluation","30","197816","0.0-3.0-6.0-0.0","spark_pilot_norest","10040","7","9","Male","","","false","","","","[444.69999980926514]","./assets/img/space/animals/rabbit.jpg","[""ArrowRight""]","second stage practice","space","23","{""ArrowUp,ArrowLeft"":3,""ArrowUp,ArrowRight"":36,""ArrowDown,ArrowLeft"":15,""ArrowDown,ArrowRight"":23}","true","ArrowDown,ArrowRight","","","","","","",""
"html-keyboard-response","31","198330","0.0-3.0-6.0-1.0","spark_pilot_norest","10040","7","9","Male","","","","","","","null","<div style=""font-size:60px;"">+</div>","null","fixation","","","","","","","","","","","",""
"revaluation","32","202343","0.0-3.0-6.0-0.1","spark_pilot_norest","10040","7","9","Male","","","false","","","","[425]","./assets/img/space/animals/rabbit.jpg","[""ArrowLeft""]","second stage practice","space","15","{""ArrowUp,ArrowLeft"":3,""ArrowUp,ArrowRight"":36,""ArrowDown,ArrowLeft"":15,""ArrowDown,ArrowRight"":23}","false","ArrowDown,ArrowLeft","","","","","","",""
"html-keyboard-response","33","202860","0.0-3.0-6.0-1.1","spark_pilot_norest","10040","7","9","Male","","","","","","","null","<div style=""font-size:60px;"">+</div>","null","fixation","","","","","","","","","","","",""
"revaluation","34","206875","0.0-3.0-6.0-0.2","spark_pilot_norest","10040","7","9","Male","","","false","","","","[83]","./assets/img/space/animals/cat.jpg","[""ArrowRight""]","second stage practice","space","36","{""ArrowUp,ArrowLeft"":3,""ArrowUp,ArrowRight"":36,""ArrowDown,ArrowLeft"":15,""ArrowDown,ArrowRight"":23}","true","ArrowUp,ArrowRight","","","","","","",""
"html-keyboard-response","35","207390","0.0-3.0-6.0-1.2","spark_pilot_norest","10040","7","9","Male","","","","","","","null","<div style=""font-size:60px;"">+</div>","null","fixation","","","","","","","","","","","",""
"revaluation","36","211403","0.0-3.0-6.0-0.3","spark_pilot_norest","10040","7","9","Male","","","false","","","","[460.40000009536743]","./assets/img/space/animals/cat.jpg","[""ArrowRight""]","second stage practice","space","36","{""ArrowUp,ArrowLeft"":3,""ArrowUp,ArrowRight"":36,""ArrowDown,ArrowLeft"":15,""ArrowDown,ArrowRight"":23}","true","ArrowUp,ArrowRight","","","","","","",""
"html-keyboard-response","37","211912","0.0-3.0-6.0-1.3","spark_pilot_norest","10040","7","9","Male","","","","","","","null","<div style=""font-size:60px;"">+</div>","null","fixation","","","","","","","","","","","",""
"learning-instructions","38","230182","0.0-3.0-7.0-0.0","spark_pilot_norest","10040","7","9","Male","","","","","","","1453.7000000476837","<p> Great job. Now let’s try putting it together. </p>
            <p> On each turn, you will first see a picture to remind you of the place you are in, and you need to choose whether to go up or down. </p>
            <p> Then you will see an animal and choose which of its chests to search for treasure. </p>","","instructions","","","","","","","","","","","",""
"learning-instructions","39","239888","0.0-3.0-7.0-0.1","spark_pilot_norest","10040","7","9","Male","","","","","","","1460","<p> When you choose whether to go up or down, try to go to the animal with the chest with the most treasure. </p>
            <p> Try practicing that now! </p>","","instructions","","","","","","","","","","","",""
"revaluation","40","245923","0.0-3.0-8.0-0.0","spark_pilot_norest","10040","7","9","Male","","","false","","","","[1476.8999998569489,877.7999999523163]","./assets/img/space/6.jpg","[""ArrowUp"",""ArrowRight""]","full practice","space","36","{""ArrowUp,ArrowLeft"":3,""ArrowUp,ArrowRight"":36,""ArrowDown,ArrowLeft"":15,""ArrowDown,ArrowRight"":23}","true","ArrowUp,ArrowRight","false","","","","","",""
"html-keyboard-response","41","246440","0.0-3.0-8.0-1.0","spark_pilot_norest","10040","7","9","Male","","","","","","","null","<div style=""font-size:60px;"">+</div>","null","fixation","","","","","","","","","","","",""
"revaluation","42","252476","0.0-3.0-8.0-0.1","spark_pilot_norest","10040","7","9","Male","","","false","","","","[731.0999999046326,1096]","./assets/img/space/7.jpg","[""ArrowUp"",""ArrowLeft""]","full practice","space","3","{""ArrowUp,ArrowLeft"":3,""ArrowUp,ArrowRight"":36,""ArrowDown,ArrowLeft"":15,""ArrowDown,ArrowRight"":23}","false","ArrowUp,ArrowLeft","false","","","","","",""
"html-keyboard-response","43","252992","0.0-3.0-8.0-1.1","spark_pilot_norest","10040","7","9","Male","","","","","","","null","<div style=""font-size:60px;"">+</div>","null","fixation","","","","","","","","","","","",""
"revaluation","44","259025","0.0-3.0-8.0-0.2","spark_pilot_norest","10040","7","9","Male","","","false","","","","[839.0999999046326,684.1000001430511]","./assets/img/space/8.jpg","[""ArrowDown"",""ArrowRight""]","full practice","space","23","{""ArrowUp,ArrowLeft"":3,""ArrowUp,ArrowRight"":36,""ArrowDown,ArrowLeft"":15,""ArrowDown,ArrowRight"":23}","false","ArrowDown,ArrowRight","false","","","","","",""
"html-keyboard-response","45","259538","0.0-3.0-8.0-1.2","spark_pilot_norest","10040","7","9","Male","","","","","","","null","<div style=""font-size:60px;"">+</div>","null","fixation","","","","","","","","","","","",""
"revaluation","46","265567","0.0-3.0-8.0-0.3","spark_pilot_norest","10040","7","9","Male","","","false","","","","[853.2999999523163,474.7000000476837]","./assets/img/space/9.jpg","[""ArrowUp"",""ArrowLeft""]","full practice","space","3","{""ArrowUp,ArrowLeft"":3,""ArrowUp,ArrowRight"":36,""ArrowDown,ArrowLeft"":15,""ArrowDown,ArrowRight"":23}","false","ArrowUp,ArrowLeft","false","","","","","",""
"html-keyboard-response","47","266079","0.0-3.0-8.0-1.3","spark_pilot_norest","10040","7","9","Male","","","","","","","null","<div style=""font-size:60px;"">+</div>","null","fixation","","","","","","","","","","","",""
"revaluation","48","272093","0.0-3.0-8.0-0.4","spark_pilot_norest","10040","7","9","Male","","","false","","","","[717.2999999523163,429.40000009536743]","./assets/img/space/10.jpg","[""ArrowDown"",""ArrowRight""]","full practice","space","23","{""ArrowUp,ArrowLeft"":3,""ArrowUp,ArrowRight"":36,""ArrowDown,ArrowLeft"":15,""ArrowDown,ArrowRight"":23}","false","ArrowDown,ArrowRight","false","","","","","",""
"html-keyboard-response","49","272594","0.0-3.0-8.0-1.4","spark_pilot_norest","10040","7","9","Male","","","","","","","null","<div style=""font-size:60px;"">+</div>","null","fixation","","","","","","","","","","","",""
"learning-instructions","50","288671","0.0-3.0-9.0-0.0","spark_pilot_norest","10040","7","9","Male","","","","","","","5780","<p> One last thing: sometimes, you will see a robber. The robber can be anywhere in the picture. </p>
            <p> If you do not stop them, you will lose treasure. </p>
            <img src='./assets/img/instructions/robber.jpg' class='instructions-image'>","","instructions","","","","","","","","","","","",""
"learning-instructions","51","298900","0.0-3.0-9.0-0.1","spark_pilot_norest","10040","7","9","Male","","","","","","","3069.899999856949","<p> If you see the robber, you should <b>press the space bar</b> rather than using the arrow keys. </p>
            <p> Try practicing that now! </p>","","instructions","","","","","","","","","","","",""
"revaluation","52","302912","0.0-3.0-10.0-0.0","spark_pilot_norest","10040","7","9","Male","","","false","","","","[1464.8000001907349]","./assets/img/space/catch/0.jpg","[""spaceBar""]","catch practice","space","0","{""ArrowUp,ArrowLeft"":3,""ArrowUp,ArrowRight"":36,""ArrowDown,ArrowLeft"":15,""ArrowDown,ArrowRight"":23}","true","spaceBar","true","","","","","",""
"html-keyboard-response","53","303427","0.0-3.0-10.0-1.0","spark_pilot_norest","10040","7","9","Male","","","","","","","null","<div style=""font-size:60px;"">+</div>","null","fixation","","","","","","","","","","","",""
"revaluation","54","307455","0.0-3.0-10.0-0.1","spark_pilot_norest","10040","7","9","Male","","","false","","","","[513.7999999523163]","./assets/img/space/catch/1.jpg","[""spaceBar""]","catch practice","space","0","{""ArrowUp,ArrowLeft"":3,""ArrowUp,ArrowRight"":36,""ArrowDown,ArrowLeft"":15,""ArrowDown,ArrowRight"":23}","true","spaceBar","true","","","","","",""
"html-keyboard-response","55","307966","0.0-3.0-10.0-1.1","spark_pilot_norest","10040","7","9","Male","","","","","","","null","<div style=""font-size:60px;"">+</div>","null","fixation","","","","","","","","","","","",""
"revaluation","56","311982","0.0-3.0-10.0-0.2","spark_pilot_norest","10040","7","9","Male","","","false","","","","[817.8999998569489]","./assets/img/space/catch/2.jpg","[""spaceBar""]","catch practice","space","0","{""ArrowUp,ArrowLeft"":3,""ArrowUp,ArrowRight"":36,""ArrowDown,ArrowLeft"":15,""ArrowDown,ArrowRight"":23}","true","spaceBar","true","","","","","",""
"html-keyboard-response","57","312494","0.0-3.0-10.0-1.2","spark_pilot_norest","10040","7","9","Male","","","","","","","null","<div style=""font-size:60px;"">+</div>","null","fixation","","","","","","","","","","","",""
"learning-instructions","58","322209","0.0-3.0-11.0-0.0-0.0","spark_pilot_norest","10040","7","9","Male","","","","","","","4458.700000047684","<p> Now, you will practice a shortened version of the game to get a sense of how it all fits together. </p>","","instructions","","","","","","","","","","","",""
"learning-instructions","59","326250","0.0-3.0-11.0-0.0-0.1","spark_pilot_norest","10040","7","9","Male","","","","","","","859.6999998092651","<p>This time you are searching for treasure in outer space.</p>","","instructions","","","","","","","","","","","",""
"learning-instructions","60","341707","0.0-3.0-11.0-1.0-0.0","spark_pilot_norest","10040","7","9","Male","","","","","","","696.8999998569489","<p> Remember, when you see a picture of the place, use the up and down keys to <b>find an animal</b>.</p>
            <p> When you encounter an animal, you should use the left and right keys to <b>select a treasure chest</b>.</p>
            <p> Don't forget to look out for the robber! </p>","","instructions","","","","","","","","","","","",""
"revaluation","61","347731","0.0-3.0-11.0-2.0-0.0","spark_pilot_norest","10040","7","9","Male","","","false","","","","[793.7000000476837,389.39999985694885]","./assets/img/space/11.jpg","[""ArrowUp"",""ArrowRight""]","practice block","space","36","{""ArrowUp,ArrowLeft"":3,""ArrowUp,ArrowRight"":36,""ArrowDown,ArrowLeft"":15,""ArrowDown,ArrowRight"":23}","true","ArrowUp,ArrowRight","false","","","","","",""
"html-keyboard-response","62","348239","0.0-3.0-11.0-2.0-1.0","spark_pilot_norest","10040","7","9","Male","","","","","","","null","<div style=""font-size:60px;"">+</div>","null","fixation","","","","","","","","","","","",""
"revaluation","63","354263","0.0-3.0-11.0-2.0-0.1","spark_pilot_norest","10040","7","9","Male","","","false","","","","[347,363.40000009536743]","./assets/img/space/12.jpg","[""ArrowDown"",""ArrowRight""]","practice block","space","23","{""ArrowUp,ArrowLeft"":3,""ArrowUp,ArrowRight"":36,""ArrowDown,ArrowLeft"":15,""ArrowDown,ArrowRight"":23}","false","ArrowDown,ArrowRight","false","","","","","",""
"html-keyboard-response","64","354770","0.0-3.0-11.0-2.0-1.1","spark_pilot_norest","10040","7","9","Male","","","","","","","null","<div style=""font-size:60px;"">+</div>","null","fixation","","","","","","","","","","","",""
"revaluation","65","360802","0.0-3.0-11.0-2.0-0.2","spark_pilot_norest","10040","7","9","Male","","","false","","","","[545,347.7999999523163]","./assets/img/space/13.jpg","[""ArrowUp"",""ArrowRight""]","practice block","space","36","{""ArrowUp,ArrowLeft"":3,""ArrowUp,ArrowRight"":36,""ArrowDown,ArrowLeft"":15,""ArrowDown,ArrowRight"":23}","true","ArrowUp,ArrowRight","false","","","","","",""
"html-keyboard-response","66","361314","0.0-3.0-11.0-2.0-1.2","spark_pilot_norest","10040","7","9","Male","","","","","","","null","<div style=""font-size:60px;"">+</div>","null","fixation","","","","","","","","","","","",""
"revaluation","67","367333","0.0-3.0-11.0-2.0-0.3","spark_pilot_norest","10040","7","9","Male","","","false","","","","[409.5,365.80000019073486]","./assets/img/space/14.jpg","[""ArrowUp"",""ArrowRight""]","practice block","space","36","{""ArrowUp,ArrowLeft"":3,""ArrowUp,ArrowRight"":36,""ArrowDown,ArrowLeft"":15,""ArrowDown,ArrowRight"":23}","true","ArrowUp,ArrowRight","false","","","","","",""
"html-keyboard-response","68","367841","0.0-3.0-11.0-2.0-1.3","spark_pilot_norest","10040","7","9","Male","","","","","","","null","<div style=""font-size:60px;"">+</div>","null","fixation","","","","","","","","","","","",""
"revaluation","69","373855","0.0-3.0-11.0-2.0-0.4","spark_pilot_norest","10040","7","9","Male","","","false","","","","[807.7000000476837,319]","./assets/img/space/11.jpg","[""ArrowUp"",""ArrowRight""]","practice block","space","36","{""ArrowUp,ArrowLeft"":3,""ArrowUp,ArrowRight"":36,""ArrowDown,ArrowLeft"":15,""ArrowDown,ArrowRight"":23}","true","ArrowUp,ArrowRight","false","","","","","",""
"html-keyboard-response","70","374356","0.0-3.0-11.0-2.0-1.4","spark_pilot_norest","10040","7","9","Male","","","","","","","null","<div style=""font-size:60px;"">+</div>","null","fixation","","","","","","","","","","","",""
"revaluation","71","380362","0.0-3.0-11.0-2.0-0.5","spark_pilot_norest","10040","7","9","Male","","","false","","","","[457.60000014305115,387.40000009536743]","./assets/img/space/12.jpg","[""ArrowUp"",""ArrowRight""]","practice block","space","36","{""ArrowUp,ArrowLeft"":3,""ArrowUp,ArrowRight"":36,""ArrowDown,ArrowLeft"":15,""ArrowDown,ArrowRight"":23}","true","ArrowUp,ArrowRight","false","","","","","",""
"html-keyboard-response","72","380864","0.0-3.0-11.0-2.0-1.5","spark_pilot_norest","10040","7","9","Male","","","","","","","null","<div style=""font-size:60px;"">+</div>","null","fixation","","","","","","","","","","","",""
"revaluation","73","386869","0.0-3.0-11.0-2.0-0.6","spark_pilot_norest","10040","7","9","Male","","","false","","","","[720.0999999046326,623.4000000953674]","./assets/img/space/13.jpg","[""ArrowUp"",""ArrowRight""]","practice block","space","36","{""ArrowUp,ArrowLeft"":3,""ArrowUp,ArrowRight"":36,""ArrowDown,ArrowLeft"":15,""ArrowDown,ArrowRight"":23}","true","ArrowUp,ArrowRight","false","","","","","",""
"html-keyboard-response","74","387371","0.0-3.0-11.0-2.0-1.6","spark_pilot_norest","10040","7","9","Male","","","","","","","null","<div style=""font-size:60px;"">+</div>","null","fixation","","","","","","","","","","","",""
"revaluation","75","393388","0.0-3.0-11.0-2.0-0.7","spark_pilot_norest","10040","7","9","Male","","","false","","","","[622.2999999523163,380.5]","./assets/img/space/14.jpg","[""ArrowUp"",""ArrowRight""]","practice block","space","36","{""ArrowUp,ArrowLeft"":3,""ArrowUp,ArrowRight"":36,""ArrowDown,ArrowLeft"":15,""ArrowDown,ArrowRight"":23}","true","ArrowUp,ArrowRight","false","","","","","",""
"html-keyboard-response","76","393889","0.0-3.0-11.0-2.0-1.7","spark_pilot_norest","10040","7","9","Male","","","","","","","null","<div style=""font-size:60px;"">+</div>","null","fixation","","","","","","","","","","","",""
"revaluation","77","397894","0.0-3.0-11.0-2.0-0.8","spark_pilot_norest","10040","7","9","Male","","","false","","","","[421.40000009536743]","./assets/img/space/catch/3.jpg","[""ArrowUp""]","practice block","space","-10","{""ArrowUp,ArrowLeft"":3,""ArrowUp,ArrowRight"":36,""ArrowDown,ArrowLeft"":15,""ArrowDown,ArrowRight"":23}","false","ArrowUp","true","","","","","",""
"html-keyboard-response","78","398395","0.0-3.0-11.0-2.0-1.8","spark_pilot_norest","10040","7","9","Male","","","","","","","null","<div style=""font-size:60px;"">+</div>","null","fixation","","","","","","","","","","","",""
"learning-instructions","79","413551","0.0-3.0-11.0-3.0-0.0","spark_pilot_norest","10040","7","9","Male","","","","","","","2226.5","<p> Now, you will travel with a friend who will choose whether you go up or down first. </p>
            <p> On these turns, you will just see the animal that they found. You will still get to choose which chest to search for treasure.</p>","","instructions","","","","","","","","","","","",""
"revaluation","80","417557","0.0-3.0-11.0-4.0-0.0","spark_pilot_norest","10040","7","9","Male","","","true","","","","[]","./assets/img/space/animals/rabbit.jpg","[]","practice block","space","-5","{""ArrowUp,ArrowLeft"":3,""ArrowUp,ArrowRight"":36,""ArrowDown,ArrowLeft"":15,""ArrowDown,ArrowRight"":23}","false","ArrowDown","","","","","","",""
"html-keyboard-response","81","418066","0.0-3.0-11.0-4.0-1.0","spark_pilot_norest","10040","7","9","Male","","","","","","","null","<div style=""font-size:60px;"">+</div>","null","fixation","","","","","","","","","","","",""
"revaluation","82","422087","0.0-3.0-11.0-4.0-0.1","spark_pilot_norest","10040","7","9","Male","","","false","","","","[450.09999990463257]","./assets/img/space/animals/rabbit.jpg","[""ArrowRight""]","practice block","space","23","{""ArrowUp,ArrowLeft"":3,""ArrowUp,ArrowRight"":36,""ArrowDown,ArrowLeft"":15,""ArrowDown,ArrowRight"":23}","true","ArrowDown,ArrowRight","","","","","","",""
"html-keyboard-response","83","422598","0.0-3.0-11.0-4.0-1.1","spark_pilot_norest","10040","7","9","Male","","","","","","","null","<div style=""font-size:60px;"">+</div>","null","fixation","","","","","","","","","","","",""
"revaluation","84","426615","0.0-3.0-11.0-4.0-0.2","spark_pilot_norest","10040","7","9","Male","","","false","","","","[385.7000000476837]","./assets/img/space/animals/cat.jpg","[""ArrowLeft""]","practice block","space","3","{""ArrowUp,ArrowLeft"":3,""ArrowUp,ArrowRight"":36,""ArrowDown,ArrowLeft"":15,""ArrowDown,ArrowRight"":23}","false","ArrowUp,ArrowLeft","","","","","","",""
"html-keyboard-response","85","427133","0.0-3.0-11.0-4.0-1.2","spark_pilot_norest","10040","7","9","Male","","","","","","","null","<div style=""font-size:60px;"">+</div>","null","fixation","","","","","","","","","","","",""
"revaluation","86","431157","0.0-3.0-11.0-4.0-0.3","spark_pilot_norest","10040","7","9","Male","","","false","","","","[307.7999999523163]","./assets/img/space/animals/cat.jpg","[""ArrowRight""]","practice block","space","36","{""ArrowUp,ArrowLeft"":3,""ArrowUp,ArrowRight"":36,""ArrowDown,ArrowLeft"":15,""ArrowDown,ArrowRight"":23}","true","ArrowUp,ArrowRight","","","","","","",""
"html-keyboard-response","87","431668","0.0-3.0-11.0-4.0-1.3","spark_pilot_norest","10040","7","9","Male","","","","","","","null","<div style=""font-size:60px;"">+</div>","null","fixation","","","","","","","","","","","",""
"learning-instructions","88","439810","0.0-3.0-11.0-5.0-0.0","spark_pilot_norest","10040","7","9","Male","","","","","","","null","<p> You have almost finished this part of the game! </p>
            <p> We are going to ask you to make a few more choices. </p>","","instructions","","","","","","","","","","","",""
"learning-instructions","89","455825","0.0-3.0-11.0-5.0-0.1","spark_pilot_norest","10040","7","9","Male","","","","","","","null","<p> First, you need to decide whether to go up or down. When you see each picture, use the arrow keys to make your choice. </p>
            <p><b>You will not see which animal you found, but try to get to the one that will give you the most treasure.</b></p>","","instructions","","","","","","","","","","","",""
"html-keyboard-response","90","456832","0.0-3.0-11.0-6.0-0.0","spark_pilot_norest","10040","7","9","Male","","","","","","","null","<div style=""font-size:100px;color:red;"">Starting in...</div>","null","","","","","","","","","","","","",""
"html-keyboard-response","91","457841","0.0-3.0-11.0-6.0-1.0","spark_pilot_norest","10040","7","9","Male","","","","","","","null","<div style=""font-size:200px;color:red;"">3</div>","null","","","","","","","","","","","","",""
"html-keyboard-response","92","458843","0.0-3.0-11.0-6.0-2.0","spark_pilot_norest","10040","7","9","Male","","","","","","","null","<div style=""font-size:200px;color:red;"">2</div>","null","","","","","","","","","","","","",""
"html-keyboard-response","93","459849","0.0-3.0-11.0-6.0-3.0","spark_pilot_norest","10040","7","9","Male","","","","","","","null","<div style=""font-size:200px;color:red;"">1</div>","null","","","","","","","","","","","","",""
"revaluation","94","460900","0.0-3.0-11.0-7.0","spark_pilot_norest","10040","7","9","Male","","","false","","","","[1050.4000000953674]","./assets/img/space/15.jpg","[""ArrowUp""]","practice block","space","0","{""ArrowUp,ArrowLeft"":3,""ArrowUp,ArrowRight"":36,""ArrowDown,ArrowLeft"":15,""ArrowDown,ArrowRight"":23}","true","ArrowUp","false","","","","","",""
"html-keyboard-response","95","461407","0.0-3.0-11.0-8.0","spark_pilot_norest","10040","7","9","Male","","","","","","","null","<div style=""font-size:60px;"">+</div>","null","fixation","","","","","","","","","","","",""
"learning-instructions","96","474791","0.0-3.0-11.0-9.0-0.0","spark_pilot_norest","10040","7","9","Male","","","","","","","null","<p> Now you will see the animals again and can search their chests for treasure. </p>
            <p> This time, you will not see how much treasure you earned, but you will earn more bonus money for making better choices. </p>","","instructions","","","","","","","","","","","",""
"html-keyboard-response","97","475795","0.0-3.0-11.0-10.0-0.0","spark_pilot_norest","10040","7","9","Male","","","","","","","null","<div style=""font-size:100px;color:red;"">Starting in...</div>","null","","","","","","","","","","","","",""
"html-keyboard-response","98","476800","0.0-3.0-11.0-10.0-1.0","spark_pilot_norest","10040","7","9","Male","","","","","","","null","<div style=""font-size:200px;color:red;"">3</div>","null","","","","","","","","","","","","",""
"html-keyboard-response","99","477809","0.0-3.0-11.0-10.0-2.0","spark_pilot_norest","10040","7","9","Male","","","","","","","null","<div style=""font-size:200px;color:red;"">2</div>","null","","","","","","","","","","","","",""
"html-keyboard-response","100","478817","0.0-3.0-11.0-10.0-3.0","spark_pilot_norest","10040","7","9","Male","","","","","","","null","<div style=""font-size:200px;color:red;"">1</div>","null","","","","","","","","","","","","",""
"revaluation","101","479501","0.0-3.0-11.0-11.0-0.0","spark_pilot_norest","10040","7","9","Male","","","false","","","","[680.0999999046326]","./assets/img/space/animals/cat.jpg","[""ArrowRight""]","practice block","space","0","{""ArrowUp,ArrowLeft"":3,""ArrowUp,ArrowRight"":36,""ArrowDown,ArrowLeft"":15,""ArrowDown,ArrowRight"":23}","true","ArrowUp,ArrowRight","","","","","","",""
"html-keyboard-response","102","480012","0.0-3.0-11.0-11.0-1.0","spark_pilot_norest","10040","7","9","Male","","","","","","","null","<div style=""font-size:60px;"">+</div>","null","fixation","","","","","","","","","","","",""
"revaluation","103","480815","0.0-3.0-11.0-11.0-0.1","spark_pilot_norest","10040","7","9","Male","","","false","","","","[798]","./assets/img/space/animals/rabbit.jpg","[""ArrowRight""]","practice block","space","0","{""ArrowUp,ArrowLeft"":3,""ArrowUp,ArrowRight"":36,""ArrowDown,ArrowLeft"":15,""ArrowDown,ArrowRight"":23}","true","ArrowDown,ArrowRight","","","","","","",""
"html-keyboard-response","104","481329","0.0-3.0-11.0-11.0-1.1","spark_pilot_norest","10040","7","9","Male","","","","","","","null","<div style=""font-size:60px;"">+</div>","null","fixation","","","","","","","","","","","",""
"learning-instructions","105","492703","0.0-3.0-12.0-0.0","spark_pilot_norest","10040","7","9","Male","","","","","","","6797.200000047684","<p> Before you start, we're going to ask you a few questions about how the game works. </p>","","instructions","","","","","","","","","","","",""
"comp-q","106","499756","0.0-3.0-13.0-0.0-0.0","spark_pilot_norest","10040","7","9","Male","","","","","","","1474.9000000953674","<p> <b> True or False? </b> </p>
            <p> There can be 50 pieces of treasure in a given animal's chest. </p>","1","comp_question","","","","true","","","","","","","",""
"comp-q","107","508777","0.0-3.0-13.0-0.0-1.0","spark_pilot_norest","10040","7","9","Male","","","","","","","2371.4000000953674","<p> <b> That's right! </b> The amount of treasure in each chest can range from 0 to 40 pieces. </p>","0","comp_answer","","","","","","","","","","","",""
"comp-q","108","517866","0.0-3.0-13.0-0.1-0.1","spark_pilot_norest","10040","7","9","Male","","","","","","","1980.2000000476837","<p> <b> True or False? </b> </p><p> In this game, all animals have the same amount of treasure in their left and right chests. </p>","1","comp_question","","","","true","","","","","","","",""
"comp-q","109","524915","0.0-3.0-13.0-0.1-1.1","spark_pilot_norest","10040","7","9","Male","","","","","","","1829.3000001907349","<p> <b> That's right! </b> Animals have different amounts of treasure in their treasure chests. </p>","0","comp_answer","","","","","","","","","","","",""
"comp-q","110","534524","0.0-3.0-13.0-0.2-0.2","spark_pilot_norest","10040","7","9","Male","","","","","","","3768.2999999523163","<p> <b> True or False? </b> </p><p> The same animal will always be there if you go up in the same place. </p>","0","comp_question","","","","true","","","","","","","",""
"comp-q","111","544749","0.0-3.0-13.0-0.2-1.2","spark_pilot_norest","10040","7","9","Male","","","","","","","3783.9000000953674","<p> <b> That's right! </b> One animal lives in the upper part and one lives in the lower part of every place. </p>","0","comp_answer","","","","","","","","","","","",""
"comp-q","112","552879","0.0-3.0-13.0-0.3-0.3","spark_pilot_norest","10040","7","9","Male","","","","","","","2623.5999999046326","<p> <b> True or False? </b> </p><p> If you see a different picture, it means you are in a new place. </p>","0","comp_question","","","","false","","","","","","","",""
"comp-q","113","566168","0.0-3.0-13.0-0.3-1.3","spark_pilot_norest","10040","7","9","Male","","","","","","","2202.7000000476837","<p> <b>Incorrect.</b> Lots of different images may show the same place. For example,  you may see three different images that all remind you that you are in outer space. </p>","0","comp_answer","","","","","","","","","","","",""
"comp-q","114","572537","0.0-3.0-13.0-0.4-0.4","spark_pilot_norest","10040","7","9","Male","","","","","","","861.7999999523163","<p> <b> True or False? </b> </p><p> If you see a different picture, it means you are in a new place. </p>","1","comp_question","","","","true","","","","","","","",""
"comp-q","115","586003","0.0-3.0-13.0-0.4-1.4","spark_pilot_norest","10040","7","9","Male","","","","","","","2247.7999999523163","<p> <b> That's right! </b> Lots of different images may show the same place. For example,  you may see three different images that all remind you that you are in outer space. </p>","0","comp_answer","","","","","","","","","","","",""
"learning-instructions","116","598391","0.0-3.0-14.0-0.0","spark_pilot_norest","10040","7","9","Male","","","","","","","2545.5","<p> Good job. Remember to do your best because the amount of treasure you earn will be converted into bonus money. </p>
            <p> It’s time to start the real game! </p>","","instructions","","","","","","","","","","","",""
"learning-instructions","117","601975","0.0-4.0-0.0-0.0","spark_pilot_norest","10040","7","9","Male","","","","","","","819.2999999523163","<p> This time you are searching for treasure in the <b>canyon</b>.</p>","","instructions","","","","","","","","","","","",""
"learning-instructions","118","619797","0.0-4.0-0.0-0.1","spark_pilot_norest","10040","7","9","Male","","","","","","","541.7000000476837","<p><b>New</b> animals with <b>new</b> treasure chests live here. You need to explore to discover where the animal with the best treasure chest is.</p>
                    <p> Like before, once you figure out which animal has the chest with the most treasure, you should try to get to that animal and select that chest! </p>","","instructions","","","","","","","","","","","",""
"learning-instructions","119","636306","0.0-4.0-1.0-0.0","spark_pilot_norest","10040","7","9","Male","","","","","","","1780.7000000476837","<p> Remember, when you see a picture of the place, use the up and down keys to <b>find an animal</b>.</p>
            <p> When you encounter an animal, you should use the left and right keys to <b>select a treasure chest</b>.</p>
            <p> Don't forget to look out for the robber! </p>","","instructions","","","","","","","","","","","",""
"revaluation","120","642348","0.0-4.0-2.0-0.0","spark_pilot_norest","10040","7","9","Male","","","false","","","","[781.3999998569489,489.2999999523163]","./assets/img/canyon/memory/16.jpg","[""ArrowUp"",""ArrowRight""]","value training","canyon","10","{""ArrowUp,ArrowLeft"":23,""ArrowUp,ArrowRight"":10,""ArrowDown,ArrowLeft"":8,""ArrowDown,ArrowRight"":30}","false","ArrowUp,ArrowRight","false","original","1","0","","",""
"html-keyboard-response","121","642864","0.0-4.0-2.0-1.0","spark_pilot_norest","10040","7","9","Male","","","","","","","null","<div style=""font-size:60px;"">+</div>","null","fixation","","","","","","","","","1","","",""
"revaluation","122","646885","0.0-4.0-2.0-0.1","spark_pilot_norest","10040","7","9","Male","","","false","","","","[737.8999998569489]","./assets/img/canyon/catch/7.jpg","[""ArrowUp""]","value training","canyon","-10","{""ArrowUp,ArrowLeft"":23,""ArrowUp,ArrowRight"":10,""ArrowDown,ArrowLeft"":8,""ArrowDown,ArrowRight"":30}","false","ArrowUp","true","original","1","2","","",""
"html-keyboard-response","123","647399","0.0-4.0-2.0-1.1","spark_pilot_norest","10040","7","9","Male","","","","","","","null","<div style=""font-size:60px;"">+</div>","null","fixation","","","","","","","","","3","","",""
"revaluation","124","653428","0.0-4.0-2.0-0.2","spark_pilot_norest","10040","7","9","Male","","","false","","","","[534,907]","./assets/img/canyon/memory/8.jpg","[""ArrowUp"",""ArrowLeft""]","value training","canyon","23","{""ArrowUp,ArrowLeft"":23,""ArrowUp,ArrowRight"":10,""ArrowDown,ArrowLeft"":8,""ArrowDown,ArrowRight"":30}","false","ArrowUp,ArrowLeft","false","original","1","4","","",""
"html-keyboard-response","125","653931","0.0-4.0-2.0-1.2","spark_pilot_norest","10040","7","9","Male","","","","","","","null","<div style=""font-size:60px;"">+</div>","null","fixation","","","","","","","","","5","","",""
"revaluation","126","659950","0.0-4.0-2.0-0.3","spark_pilot_norest","10040","7","9","Male","","","false","","","","[722.0999999046326,684.5999999046326]","./assets/img/canyon/memory/36.jpg","[""ArrowDown"",""ArrowLeft""]","value training","canyon","8","{""ArrowUp,ArrowLeft"":23,""ArrowUp,ArrowRight"":10,""ArrowDown,ArrowLeft"":8,""ArrowDown,ArrowRight"":30}","false","ArrowDown,ArrowLeft","false","original","1","6","","",""
"html-keyboard-response","127","660464","0.0-4.0-2.0-1.3","spark_pilot_norest","10040","7","9","Male","","","","","","","null","<div style=""font-size:60px;"">+</div>","null","fixation","","","","","","","","","7","","",""
"revaluation","128","666491","0.0-4.0-2.0-0.4","spark_pilot_norest","10040","7","9","Male","","","false","","","","[377,480]","./assets/img/canyon/memory/19.jpg","[""ArrowDown"",""ArrowRight""]","value training","canyon","30","{""ArrowUp,ArrowLeft"":23,""ArrowUp,ArrowRight"":10,""ArrowDown,ArrowLeft"":8,""ArrowDown,ArrowRight"":30}","true","ArrowDown,ArrowRight","false","original","1","8","","",""
"html-keyboard-response","129","666992","0.0-4.0-2.0-1.4","spark_pilot_norest","10040","7","9","Male","","","","","","","null","<div style=""font-size:60px;"">+</div>","null","fixation","","","","","","","","","9","","",""
"revaluation","130","672999","0.0-4.0-2.0-0.5","spark_pilot_norest","10040","7","9","Male","","","false","","","","[373.59999990463257,334.2999999523163]","./assets/img/canyon/memory/26.jpg","[""ArrowDown"",""ArrowRight""]","value training","canyon","30","{""ArrowUp,ArrowLeft"":23,""ArrowUp,ArrowRight"":10,""ArrowDown,ArrowLeft"":8,""ArrowDown,ArrowRight"":30}","true","ArrowDown,ArrowRight","false","original","1","10","","",""
"html-keyboard-response","131","673500","0.0-4.0-2.0-1.5","spark_pilot_norest","10040","7","9","Male","","","","","","","null","<div style=""font-size:60px;"">+</div>","null","fixation","","","","","","","","","11","","",""
"revaluation","132","679508","0.0-4.0-2.0-0.6","spark_pilot_norest","10040","7","9","Male","","","false","","","","[272.2999999523163,496]","./assets/img/canyon/memory/24.jpg","[""ArrowDown"",""ArrowRight""]","value training","canyon","30","{""ArrowUp,ArrowLeft"":23,""ArrowUp,ArrowRight"":10,""ArrowDown,ArrowLeft"":8,""ArrowDown,ArrowRight"":30}","true","ArrowDown,ArrowRight","false","original","1","12","","",""
"html-keyboard-response","133","680010","0.0-4.0-2.0-1.6","spark_pilot_norest","10040","7","9","Male","","","","","","","null","<div style=""font-size:60px;"">+</div>","null","fixation","","","","","","","","","13","","",""
"revaluation","134","686016","0.0-4.0-2.0-0.7","spark_pilot_norest","10040","7","9","Male","","","false","","","","[455.59999990463257,331.40000009536743]","./assets/img/canyon/memory/3.jpg","[""ArrowDown"",""ArrowRight""]","value training","canyon","30","{""ArrowUp,ArrowLeft"":23,""ArrowUp,ArrowRight"":10,""ArrowDown,ArrowLeft"":8,""ArrowDown,ArrowRight"":30}","true","ArrowDown,ArrowRight","false","original","1","14","","",""
"html-keyboard-response","135","686517","0.0-4.0-2.0-1.7","spark_pilot_norest","10040","7","9","Male","","","","","","","null","<div style=""font-size:60px;"">+</div>","null","fixation","","","","","","","","","15","","",""
"revaluation","136","690522","0.0-4.0-2.0-0.8","spark_pilot_norest","10040","7","9","Male","","","false","","","","[418.69999980926514]","./assets/img/canyon/catch/0.jpg","[""ArrowDown""]","value training","canyon","-10","{""ArrowUp,ArrowLeft"":23,""ArrowUp,ArrowRight"":10,""ArrowDown,ArrowLeft"":8,""ArrowDown,ArrowRight"":30}","false","ArrowDown","true","original","1","16","","",""
"html-keyboard-response","137","691023","0.0-4.0-2.0-1.8","spark_pilot_norest","10040","7","9","Male","","","","","","","null","<div style=""font-size:60px;"">+</div>","null","fixation","","","","","","","","","17","","",""
"revaluation","138","697029","0.0-4.0-2.0-0.9","spark_pilot_norest","10040","7","9","Male","","","false","","","","[434.7999999523163,400.5]","./assets/img/canyon/memory/2.jpg","[""ArrowDown"",""ArrowRight""]","value training","canyon","30","{""ArrowUp,ArrowLeft"":23,""ArrowUp,ArrowRight"":10,""ArrowDown,ArrowLeft"":8,""ArrowDown,ArrowRight"":30}","true","ArrowDown,ArrowRight","false","original","1","18","","",""
"html-keyboard-response","139","697531","0.0-4.0-2.0-1.9","spark_pilot_norest","10040","7","9","Male","","","","","","","null","<div style=""font-size:60px;"">+</div>","null","fixation","","","","","","","","","19","","",""
"revaluation","140","703538","0.0-4.0-2.0-0.10","spark_pilot_norest","10040","7","9","Male","","","false","","","","[587.7999999523163,350.89999985694885]","./assets/img/canyon/memory/21.jpg","[""ArrowDown"",""ArrowRight""]","value training","canyon","30","{""ArrowUp,ArrowLeft"":23,""ArrowUp,ArrowRight"":10,""ArrowDown,ArrowLeft"":8,""ArrowDown,ArrowRight"":30}","true","ArrowDown,ArrowRight","false","original","1","20","","",""
"html-keyboard-response","141","704040","0.0-4.0-2.0-1.10","spark_pilot_norest","10040","7","9","Male","","","","","","","null","<div style=""font-size:60px;"">+</div>","null","fixation","","","","","","","","","21","","",""
"revaluation","142","710048","0.0-4.0-2.0-0.11","spark_pilot_norest","10040","7","9","Male","","","false","","","","[499,449.09999990463257]","./assets/img/canyon/memory/21.jpg","[""ArrowUp"",""ArrowRight""]","value training","canyon","10","{""ArrowUp,ArrowLeft"":23,""ArrowUp,ArrowRight"":10,""ArrowDown,ArrowLeft"":8,""ArrowDown,ArrowRight"":30}","false","ArrowUp,ArrowRight","false","original","1","22","","",""
"html-keyboard-response","143","710549","0.0-4.0-2.0-1.11","spark_pilot_norest","10040","7","9","Male","","","","","","","null","<div style=""font-size:60px;"">+</div>","null","fixation","","","","","","","","","23","","",""
"revaluation","144","716556","0.0-4.0-2.0-0.12","spark_pilot_norest","10040","7","9","Male","","","false","","","","[328.2999999523163,459.2999999523163]","./assets/img/canyon/memory/23.jpg","[""ArrowDown"",""ArrowRight""]","value training","canyon","30","{""ArrowUp,ArrowLeft"":23,""ArrowUp,ArrowRight"":10,""ArrowDown,ArrowLeft"":8,""ArrowDown,ArrowRight"":30}","true","ArrowDown,ArrowRight","false","original","1","24","","",""
"html-keyboard-response","145","717058","0.0-4.0-2.0-1.12","spark_pilot_norest","10040","7","9","Male","","","","","","","null","<div style=""font-size:60px;"">+</div>","null","fixation","","","","","","","","","25","","",""
"revaluation","146","723064","0.0-4.0-2.0-0.13","spark_pilot_norest","10040","7","9","Male","","","false","","","","[507.39999985694885,339]","./assets/img/canyon/memory/36.jpg","[""ArrowDown"",""ArrowRight""]","value training","canyon","30","{""ArrowUp,ArrowLeft"":23,""ArrowUp,ArrowRight"":10,""ArrowDown,ArrowLeft"":8,""ArrowDown,ArrowRight"":30}","true","ArrowDown,ArrowRight","false","original","1","26","","",""
"html-keyboard-response","147","723565","0.0-4.0-2.0-1.13","spark_pilot_norest","10040","7","9","Male","","","","","","","null","<div style=""font-size:60px;"">+</div>","null","fixation","","","","","","","","","27","","",""
"revaluation","148","729571","0.0-4.0-2.0-0.14","spark_pilot_norest","10040","7","9","Male","","","false","","","","[719.9000000953674,361.59999990463257]","./assets/img/canyon/memory/0.jpg","[""ArrowDown"",""ArrowRight""]","value training","canyon","30","{""ArrowUp,ArrowLeft"":23,""ArrowUp,ArrowRight"":10,""ArrowDown,ArrowLeft"":8,""ArrowDown,ArrowRight"":30}","true","ArrowDown,ArrowRight","false","original","1","28","","",""
"html-keyboard-response","149","730073","0.0-4.0-2.0-1.14","spark_pilot_norest","10040","7","9","Male","","","","","","","null","<div style=""font-size:60px;"">+</div>","null","fixation","","","","","","","","","29","","",""
"revaluation","150","736079","0.0-4.0-2.0-0.15","spark_pilot_norest","10040","7","9","Male","","","false","","","","[657.3000001907349,362.7000000476837]","./assets/img/canyon/memory/9.jpg","[""ArrowDown"",""ArrowRight""]","value training","canyon","30","{""ArrowUp,ArrowLeft"":23,""ArrowUp,ArrowRight"":10,""ArrowDown,ArrowLeft"":8,""ArrowDown,ArrowRight"":30}","true","ArrowDown,ArrowRight","false","original","1","30","","",""
"html-keyboard-response","151","736581","0.0-4.0-2.0-1.15","spark_pilot_norest","10040","7","9","Male","","","","","","","null","<div style=""font-size:60px;"">+</div>","null","fixation","","","","","","","","","31","","",""
"revaluation","152","742595","0.0-4.0-2.0-0.16","spark_pilot_norest","10040","7","9","Male","","","false","","","","[723.4000000953674,483.80000019073486]","./assets/img/canyon/memory/23.jpg","[""ArrowDown"",""ArrowRight""]","value training","canyon","30","{""ArrowUp,ArrowLeft"":23,""ArrowUp,ArrowRight"":10,""ArrowDown,ArrowLeft"":8,""ArrowDown,ArrowRight"":30}","true","ArrowDown,ArrowRight","false","original","1","32","","",""
"html-keyboard-response","153","743097","0.0-4.0-2.0-1.16","spark_pilot_norest","10040","7","9","Male","","","","","","","null","<div style=""font-size:60px;"">+</div>","null","fixation","","","","","","","","","33","","",""
"revaluation","154","749103","0.0-4.0-2.0-0.17","spark_pilot_norest","10040","7","9","Male","","","false","","","","[516.9000000953674,355.5]","./assets/img/canyon/memory/31.jpg","[""ArrowDown"",""ArrowRight""]","value training","canyon","30","{""ArrowUp,ArrowLeft"":23,""ArrowUp,ArrowRight"":10,""ArrowDown,ArrowLeft"":8,""ArrowDown,ArrowRight"":30}","true","ArrowDown,ArrowRight","false","original","1","34","","",""
"html-keyboard-response","155","749604","0.0-4.0-2.0-1.17","spark_pilot_norest","10040","7","9","Male","","","","","","","null","<div style=""font-size:60px;"">+</div>","null","fixation","","","","","","","","","35","","",""
"revaluation","156","755611","0.0-4.0-2.0-0.18","spark_pilot_norest","10040","7","9","Male","","","false","","","","[501.2999999523163,334.10000014305115]","./assets/img/canyon/memory/9.jpg","[""ArrowDown"",""ArrowRight""]","value training","canyon","30","{""ArrowUp,ArrowLeft"":23,""ArrowUp,ArrowRight"":10,""ArrowDown,ArrowLeft"":8,""ArrowDown,ArrowRight"":30}","true","ArrowDown,ArrowRight","false","original","1","36","","",""
"html-keyboard-response","157","756113","0.0-4.0-2.0-1.18","spark_pilot_norest","10040","7","9","Male","","","","","","","null","<div style=""font-size:60px;"">+</div>","null","fixation","","","","","","","","","37","","",""
"revaluation","158","762119","0.0-4.0-2.0-0.19","spark_pilot_norest","10040","7","9","Male","","","false","","","","[480.2999999523163,297.30000019073486]","./assets/img/canyon/memory/25.jpg","[""ArrowDown"",""ArrowRight""]","value training","canyon","30","{""ArrowUp,ArrowLeft"":23,""ArrowUp,ArrowRight"":10,""ArrowDown,ArrowLeft"":8,""ArrowDown,ArrowRight"":30}","true","ArrowDown,ArrowRight","false","original","1","38","","",""
"html-keyboard-response","159","762622","0.0-4.0-2.0-1.19","spark_pilot_norest","10040","7","9","Male","","","","","","","null","<div style=""font-size:60px;"">+</div>","null","fixation","","","","","","","","","39","","",""
"revaluation","160","768628","0.0-4.0-2.0-0.20","spark_pilot_norest","10040","7","9","Male","","","false","","","","[1010.9000000953674,535]","./assets/img/canyon/memory/17.jpg","[""ArrowDown"",""ArrowRight""]","value training","canyon","30","{""ArrowUp,ArrowLeft"":23,""ArrowUp,ArrowRight"":10,""ArrowDown,ArrowLeft"":8,""ArrowDown,ArrowRight"":30}","true","ArrowDown,ArrowRight","false","original","1","40","","",""
"html-keyboard-response","161","769130","0.0-4.0-2.0-1.20","spark_pilot_norest","10040","7","9","Male","","","","","","","null","<div style=""font-size:60px;"">+</div>","null","fixation","","","","","","","","","41","","",""
"revaluation","162","775136","0.0-4.0-2.0-0.21","spark_pilot_norest","10040","7","9","Male","","","false","","","","[416.90000009536743,532.1000001430511]","./assets/img/canyon/memory/38.jpg","[""ArrowDown"",""ArrowRight""]","value training","canyon","30","{""ArrowUp,ArrowLeft"":23,""ArrowUp,ArrowRight"":10,""ArrowDown,ArrowLeft"":8,""ArrowDown,ArrowRight"":30}","true","ArrowDown,ArrowRight","false","original","1","42","","",""
"html-keyboard-response","163","775638","0.0-4.0-2.0-1.21","spark_pilot_norest","10040","7","9","Male","","","","","","","null","<div style=""font-size:60px;"">+</div>","null","fixation","","","","","","","","","43","","",""
"revaluation","164","781643","0.0-4.0-2.0-0.22","spark_pilot_norest","10040","7","9","Male","","","false","","","","[412.10000014305115,321]","./assets/img/canyon/memory/8.jpg","[""ArrowDown"",""ArrowRight""]","value training","canyon","30","{""ArrowUp,ArrowLeft"":23,""ArrowUp,ArrowRight"":10,""ArrowDown,ArrowLeft"":8,""ArrowDown,ArrowRight"":30}","true","ArrowDown,ArrowRight","false","original","1","44","","",""
"html-keyboard-response","165","782145","0.0-4.0-2.0-1.22","spark_pilot_norest","10040","7","9","Male","","","","","","","null","<div style=""font-size:60px;"">+</div>","null","fixation","","","","","","","","","45","","",""
"revaluation","166","788151","0.0-4.0-2.0-0.23","spark_pilot_norest","10040","7","9","Male","","","false","","","","[523.1000001430511,530.2999999523163]","./assets/img/canyon/memory/3.jpg","[""ArrowDown"",""ArrowRight""]","value training","canyon","30","{""ArrowUp,ArrowLeft"":23,""ArrowUp,ArrowRight"":10,""ArrowDown,ArrowLeft"":8,""ArrowDown,ArrowRight"":30}","true","ArrowDown,ArrowRight","false","original","1","46","","",""
"html-keyboard-response","167","788654","0.0-4.0-2.0-1.23","spark_pilot_norest","10040","7","9","Male","","","","","","","null","<div style=""font-size:60px;"">+</div>","null","fixation","","","","","","","","","47","","",""
"revaluation","168","794658","0.0-4.0-2.0-0.24","spark_pilot_norest","10040","7","9","Male","","","false","","","","[464.40000009536743,441.80000019073486]","./assets/img/canyon/memory/19.jpg","[""ArrowDown"",""ArrowRight""]","value training","canyon","30","{""ArrowUp,ArrowLeft"":23,""ArrowUp,ArrowRight"":10,""ArrowDown,ArrowLeft"":8,""ArrowDown,ArrowRight"":30}","true","ArrowDown,ArrowRight","false","original","1","48","","",""
"html-keyboard-response","169","795159","0.0-4.0-2.0-1.24","spark_pilot_norest","10040","7","9","Male","","","","","","","null","<div style=""font-size:60px;"">+</div>","null","fixation","","","","","","","","","49","","",""
"revaluation","170","801165","0.0-4.0-2.0-0.25","spark_pilot_norest","10040","7","9","Male","","","false","","","","[486.2000000476837,374.5]","./assets/img/canyon/memory/16.jpg","[""ArrowDown"",""ArrowRight""]","value training","canyon","30","{""ArrowUp,ArrowLeft"":23,""ArrowUp,ArrowRight"":10,""ArrowDown,ArrowLeft"":8,""ArrowDown,ArrowRight"":30}","true","ArrowDown,ArrowRight","false","original","1","50","","",""
"html-keyboard-response","171","801667","0.0-4.0-2.0-1.25","spark_pilot_norest","10040","7","9","Male","","","","","","","null","<div style=""font-size:60px;"">+</div>","null","fixation","","","","","","","","","51","","",""
"revaluation","172","807674","0.0-4.0-2.0-0.26","spark_pilot_norest","10040","7","9","Male","","","false","","","","[445.2000000476837,359.5]","./assets/img/canyon/memory/1.jpg","[""ArrowDown"",""ArrowRight""]","value training","canyon","30","{""ArrowUp,ArrowLeft"":23,""ArrowUp,ArrowRight"":10,""ArrowDown,ArrowLeft"":8,""ArrowDown,ArrowRight"":30}","true","ArrowDown,ArrowRight","false","original","1","52","","",""
"html-keyboard-response","173","808175","0.0-4.0-2.0-1.26","spark_pilot_norest","10040","7","9","Male","","","","","","","null","<div style=""font-size:60px;"">+</div>","null","fixation","","","","","","","","","53","","",""
"revaluation","174","812181","0.0-4.0-2.0-0.27","spark_pilot_norest","10040","7","9","Male","","","false","","","","[606.5]","./assets/img/canyon/catch/3.jpg","[""spaceBar""]","value training","canyon","0","{""ArrowUp,ArrowLeft"":23,""ArrowUp,ArrowRight"":10,""ArrowDown,ArrowLeft"":8,""ArrowDown,ArrowRight"":30}","true","spaceBar","true","original","1","54","","",""
"html-keyboard-response","175","812683","0.0-4.0-2.0-1.27","spark_pilot_norest","10040","7","9","Male","","","","","","","null","<div style=""font-size:60px;"">+</div>","null","fixation","","","","","","","","","55","","",""
"revaluation","176","816689","0.0-4.0-2.0-0.28","spark_pilot_norest","10040","7","9","Male","","","false","","","","[919.7000000476837]","./assets/img/canyon/catch/2.jpg","[""ArrowDown""]","value training","canyon","-10","{""ArrowUp,ArrowLeft"":23,""ArrowUp,ArrowRight"":10,""ArrowDown,ArrowLeft"":8,""ArrowDown,ArrowRight"":30}","false","ArrowDown","true","original","1","56","","",""
"html-keyboard-response","177","817190","0.0-4.0-2.0-1.28","spark_pilot_norest","10040","7","9","Male","","","","","","","null","<div style=""font-size:60px;"">+</div>","null","fixation","","","","","","","","","57","","",""
"revaluation","178","823193","0.0-4.0-2.0-0.29","spark_pilot_norest","10040","7","9","Male","","","false","","","","[436.2000000476837,410.40000009536743]","./assets/img/canyon/memory/38.jpg","[""ArrowDown"",""ArrowRight""]","value training","canyon","30","{""ArrowUp,ArrowLeft"":23,""ArrowUp,ArrowRight"":10,""ArrowDown,ArrowLeft"":8,""ArrowDown,ArrowRight"":30}","true","ArrowDown,ArrowRight","false","original","1","58","","",""
"html-keyboard-response","179","823695","0.0-4.0-2.0-1.29","spark_pilot_norest","10040","7","9","Male","","","","","","","null","<div style=""font-size:60px;"">+</div>","null","fixation","","","","","","","","","59","","",""
"revaluation","180","829699","0.0-4.0-2.0-0.30","spark_pilot_norest","10040","7","9","Male","","","false","","","","[373.59999990463257,355.5]","./assets/img/canyon/memory/34.jpg","[""ArrowDown"",""ArrowRight""]","value training","canyon","30","{""ArrowUp,ArrowLeft"":23,""ArrowUp,ArrowRight"":10,""ArrowDown,ArrowLeft"":8,""ArrowDown,ArrowRight"":30}","true","ArrowDown,ArrowRight","false","original","1","60","","",""
"html-keyboard-response","181","830200","0.0-4.0-2.0-1.30","spark_pilot_norest","10040","7","9","Male","","","","","","","null","<div style=""font-size:60px;"">+</div>","null","fixation","","","","","","","","","61","","",""
"revaluation","182","836207","0.0-4.0-2.0-0.31","spark_pilot_norest","10040","7","9","Male","","","false","","","","[648.2000000476837,491.90000009536743]","./assets/img/canyon/memory/34.jpg","[""ArrowDown"",""ArrowRight""]","value training","canyon","30","{""ArrowUp,ArrowLeft"":23,""ArrowUp,ArrowRight"":10,""ArrowDown,ArrowLeft"":8,""ArrowDown,ArrowRight"":30}","true","ArrowDown,ArrowRight","false","original","1","62","","",""
"html-keyboard-response","183","836710","0.0-4.0-2.0-1.31","spark_pilot_norest","10040","7","9","Male","","","","","","","null","<div style=""font-size:60px;"">+</div>","null","fixation","","","","","","","","","63","","",""
"revaluation","184","842715","0.0-4.0-2.0-0.32","spark_pilot_norest","10040","7","9","Male","","","false","","","","[405.59999990463257,796.3000001907349]","./assets/img/canyon/memory/0.jpg","[""ArrowDown"",""ArrowRight""]","value training","canyon","30","{""ArrowUp,ArrowLeft"":23,""ArrowUp,ArrowRight"":10,""ArrowDown,ArrowLeft"":8,""ArrowDown,ArrowRight"":30}","true","ArrowDown,ArrowRight","false","original","1","64","","",""
"html-keyboard-response","185","843217","0.0-4.0-2.0-1.32","spark_pilot_norest","10040","7","9","Male","","","","","","","null","<div style=""font-size:60px;"">+</div>","null","fixation","","","","","","","","","65","","",""
"revaluation","186","849223","0.0-4.0-2.0-0.33","spark_pilot_norest","10040","7","9","Male","","","false","","","","[452.89999985694885,526.5999999046326]","./assets/img/canyon/memory/32.jpg","[""ArrowDown"",""ArrowRight""]","value training","canyon","30","{""ArrowUp,ArrowLeft"":23,""ArrowUp,ArrowRight"":10,""ArrowDown,ArrowLeft"":8,""ArrowDown,ArrowRight"":30}","true","ArrowDown,ArrowRight","false","original","1","66","","",""
"html-keyboard-response","187","849725","0.0-4.0-2.0-1.33","spark_pilot_norest","10040","7","9","Male","","","","","","","null","<div style=""font-size:60px;"">+</div>","null","fixation","","","","","","","","","67","","",""
"revaluation","188","855732","0.0-4.0-2.0-0.34","spark_pilot_norest","10040","7","9","Male","","","false","","","","[440.2000000476837,357.89999985694885]","./assets/img/canyon/memory/1.jpg","[""ArrowDown"",""ArrowRight""]","value training","canyon","30","{""ArrowUp,ArrowLeft"":23,""ArrowUp,ArrowRight"":10,""ArrowDown,ArrowLeft"":8,""ArrowDown,ArrowRight"":30}","true","ArrowDown,ArrowRight","false","original","1","68","","",""
"html-keyboard-response","189","856233","0.0-4.0-2.0-1.34","spark_pilot_norest","10040","7","9","Male","","","","","","","null","<div style=""font-size:60px;"">+</div>","null","fixation","","","","","","","","","69","","",""
"revaluation","190","862239","0.0-4.0-2.0-0.35","spark_pilot_norest","10040","7","9","Male","","","false","","","","[649.5,346.59999990463257]","./assets/img/canyon/memory/31.jpg","[""ArrowDown"",""ArrowRight""]","value training","canyon","30","{""ArrowUp,ArrowLeft"":23,""ArrowUp,ArrowRight"":10,""ArrowDown,ArrowLeft"":8,""ArrowDown,ArrowRight"":30}","true","ArrowDown,ArrowRight","false","original","1","70","","",""
"html-keyboard-response","191","862741","0.0-4.0-2.0-1.35","spark_pilot_norest","10040","7","9","Male","","","","","","","null","<div style=""font-size:60px;"">+</div>","null","fixation","","","","","","","","","71","","",""
"revaluation","192","868748","0.0-4.0-2.0-0.36","spark_pilot_norest","10040","7","9","Male","","","false","","","","[404.7000000476837,341.90000009536743]","./assets/img/canyon/memory/32.jpg","[""ArrowDown"",""ArrowRight""]","value training","canyon","30","{""ArrowUp,ArrowLeft"":23,""ArrowUp,ArrowRight"":10,""ArrowDown,ArrowLeft"":8,""ArrowDown,ArrowRight"":30}","true","ArrowDown,ArrowRight","false","original","1","72","","",""
"html-keyboard-response","193","869249","0.0-4.0-2.0-1.36","spark_pilot_norest","10040","7","9","Male","","","","","","","null","<div style=""font-size:60px;"">+</div>","null","fixation","","","","","","","","","73","","",""
"revaluation","194","875258","0.0-4.0-2.0-0.37","spark_pilot_norest","10040","7","9","Male","","","false","","","","[534.5,558.2999999523163]","./assets/img/canyon/memory/2.jpg","[""ArrowDown"",""ArrowRight""]","value training","canyon","30","{""ArrowUp,ArrowLeft"":23,""ArrowUp,ArrowRight"":10,""ArrowDown,ArrowLeft"":8,""ArrowDown,ArrowRight"":30}","true","ArrowDown,ArrowRight","false","original","1","74","","",""
"html-keyboard-response","195","875760","0.0-4.0-2.0-1.37","spark_pilot_norest","10040","7","9","Male","","","","","","","null","<div style=""font-size:60px;"">+</div>","null","fixation","","","","","","","","","75","","",""
"revaluation","196","881767","0.0-4.0-2.0-0.38","spark_pilot_norest","10040","7","9","Male","","","false","","","","[448.7000000476837,304.7999999523163]","./assets/img/canyon/memory/22.jpg","[""ArrowDown"",""ArrowRight""]","value training","canyon","30","{""ArrowUp,ArrowLeft"":23,""ArrowUp,ArrowRight"":10,""ArrowDown,ArrowLeft"":8,""ArrowDown,ArrowRight"":30}","true","ArrowDown,ArrowRight","false","original","1","76","","",""
"html-keyboard-response","197","882269","0.0-4.0-2.0-1.38","spark_pilot_norest","10040","7","9","Male","","","","","","","null","<div style=""font-size:60px;"">+</div>","null","fixation","","","","","","","","","77","","",""
"revaluation","198","888276","0.0-4.0-2.0-0.39","spark_pilot_norest","10040","7","9","Male","","","false","","","","[466.10000014305115,464.7999999523163]","./assets/img/canyon/memory/22.jpg","[""ArrowDown"",""ArrowRight""]","value training","canyon","30","{""ArrowUp,ArrowLeft"":23,""ArrowUp,ArrowRight"":10,""ArrowDown,ArrowLeft"":8,""ArrowDown,ArrowRight"":30}","true","ArrowDown,ArrowRight","false","original","1","78","","",""
"html-keyboard-response","199","888778","0.0-4.0-2.0-1.39","spark_pilot_norest","10040","7","9","Male","","","","","","","null","<div style=""font-size:60px;"">+</div>","null","fixation","","","","","","","","","79","","",""
"revaluation","200","892783","0.0-4.0-2.0-0.40","spark_pilot_norest","10040","7","9","Male","","","false","","","","[557.5999999046326]","./assets/img/canyon/catch/6.jpg","[""spaceBar""]","value training","canyon","0","{""ArrowUp,ArrowLeft"":23,""ArrowUp,ArrowRight"":10,""ArrowDown,ArrowLeft"":8,""ArrowDown,ArrowRight"":30}","true","spaceBar","true","original","1","80","","",""
"html-keyboard-response","201","893285","0.0-4.0-2.0-1.40","spark_pilot_norest","10040","7","9","Male","","","","","","","null","<div style=""font-size:60px;"">+</div>","null","fixation","","","","","","","","","81","","",""
"revaluation","202","899292","0.0-4.0-2.0-0.41","spark_pilot_norest","10040","7","9","Male","","","false","","","","[1023.7000000476837,430.7999999523163]","./assets/img/canyon/memory/30.jpg","[""ArrowDown"",""ArrowRight""]","value training","canyon","30","{""ArrowUp,ArrowLeft"":23,""ArrowUp,ArrowRight"":10,""ArrowDown,ArrowLeft"":8,""ArrowDown,ArrowRight"":30}","true","ArrowDown,ArrowRight","false","original","1","82","","",""
"html-keyboard-response","203","899794","0.0-4.0-2.0-1.41","spark_pilot_norest","10040","7","9","Male","","","","","","","null","<div style=""font-size:60px;"">+</div>","null","fixation","","","","","","","","","83","","",""
"revaluation","204","905800","0.0-4.0-2.0-0.42","spark_pilot_norest","10040","7","9","Male","","","false","","","","[586.6000001430511,327.5]","./assets/img/canyon/memory/24.jpg","[""ArrowDown"",""ArrowRight""]","value training","canyon","30","{""ArrowUp,ArrowLeft"":23,""ArrowUp,ArrowRight"":10,""ArrowDown,ArrowLeft"":8,""ArrowDown,ArrowRight"":30}","true","ArrowDown,ArrowRight","false","original","1","84","","",""
"html-keyboard-response","205","906302","0.0-4.0-2.0-1.42","spark_pilot_norest","10040","7","9","Male","","","","","","","null","<div style=""font-size:60px;"">+</div>","null","fixation","","","","","","","","","85","","",""
"revaluation","206","910308","0.0-4.0-2.0-0.43","spark_pilot_norest","10040","7","9","Male","","","false","","","","[440]","./assets/img/canyon/catch/1.jpg","[""ArrowDown""]","value training","canyon","-10","{""ArrowUp,ArrowLeft"":23,""ArrowUp,ArrowRight"":10,""ArrowDown,ArrowLeft"":8,""ArrowDown,ArrowRight"":30}","false","ArrowDown","true","original","1","86","","",""
"html-keyboard-response","207","910810","0.0-4.0-2.0-1.43","spark_pilot_norest","10040","7","9","Male","","","","","","","null","<div style=""font-size:60px;"">+</div>","null","fixation","","","","","","","","","87","","",""
"revaluation","208","916817","0.0-4.0-2.0-0.44","spark_pilot_norest","10040","7","9","Male","","","false","","","","[469.2000000476837,437]","./assets/img/canyon/memory/26.jpg","[""ArrowDown"",""ArrowRight""]","value training","canyon","30","{""ArrowUp,ArrowLeft"":23,""ArrowUp,ArrowRight"":10,""ArrowDown,ArrowLeft"":8,""ArrowDown,ArrowRight"":30}","true","ArrowDown,ArrowRight","false","original","1","88","","",""
"html-keyboard-response","209","917330","0.0-4.0-2.0-1.44","spark_pilot_norest","10040","7","9","Male","","","","","","","null","<div style=""font-size:60px;"">+</div>","null","fixation","","","","","","","","","89","","",""
"revaluation","210","923336","0.0-4.0-2.0-0.45","spark_pilot_norest","10040","7","9","Male","","","false","","","","[390.5,315.2999999523163]","./assets/img/canyon/memory/17.jpg","[""ArrowDown"",""ArrowRight""]","value training","canyon","30","{""ArrowUp,ArrowLeft"":23,""ArrowUp,ArrowRight"":10,""ArrowDown,ArrowLeft"":8,""ArrowDown,ArrowRight"":30}","true","ArrowDown,ArrowRight","false","original","1","90","","",""
"html-keyboard-response","211","923838","0.0-4.0-2.0-1.45","spark_pilot_norest","10040","7","9","Male","","","","","","","null","<div style=""font-size:60px;"">+</div>","null","fixation","","","","","","","","","91","","",""
"revaluation","212","929845","0.0-4.0-2.0-0.46","spark_pilot_norest","10040","7","9","Male","","","false","","","","[438.2999999523163,344.2999999523163]","./assets/img/canyon/memory/30.jpg","[""ArrowDown"",""ArrowRight""]","value training","canyon","30","{""ArrowUp,ArrowLeft"":23,""ArrowUp,ArrowRight"":10,""ArrowDown,ArrowLeft"":8,""ArrowDown,ArrowRight"":30}","true","ArrowDown,ArrowRight","false","original","1","92","","",""
"html-keyboard-response","213","930346","0.0-4.0-2.0-1.46","spark_pilot_norest","10040","7","9","Male","","","","","","","null","<div style=""font-size:60px;"">+</div>","null","fixation","","","","","","","","","93","","",""
"revaluation","214","934364","0.0-4.0-2.0-0.47","spark_pilot_norest","10040","7","9","Male","","","false","","","","[501.7999999523163]","./assets/img/canyon/catch/5.jpg","[""spaceBar""]","value training","canyon","0","{""ArrowUp,ArrowLeft"":23,""ArrowUp,ArrowRight"":10,""ArrowDown,ArrowLeft"":8,""ArrowDown,ArrowRight"":30}","true","spaceBar","true","original","1","94","","",""
"html-keyboard-response","215","934866","0.0-4.0-2.0-1.47","spark_pilot_norest","10040","7","9","Male","","","","","","","null","<div style=""font-size:60px;"">+</div>","null","fixation","","","","","","","","","95","","",""
"revaluation","216","938872","0.0-4.0-2.0-0.48","spark_pilot_norest","10040","7","9","Male","","","false","","","","[532.5]","./assets/img/canyon/catch/4.jpg","[""spaceBar""]","value training","canyon","0","{""ArrowUp,ArrowLeft"":23,""ArrowUp,ArrowRight"":10,""ArrowDown,ArrowLeft"":8,""ArrowDown,ArrowRight"":30}","true","spaceBar","true","original","1","96","","",""
"html-keyboard-response","217","939374","0.0-4.0-2.0-1.48","spark_pilot_norest","10040","7","9","Male","","","","","","","null","<div style=""font-size:60px;"">+</div>","null","fixation","","","","","","","","","97","","",""
"revaluation","218","945380","0.0-4.0-2.0-0.49","spark_pilot_norest","10040","7","9","Male","","","false","","","","[565.2999999523163,432.2000000476837]","./assets/img/canyon/memory/25.jpg","[""ArrowDown"",""ArrowRight""]","value training","canyon","30","{""ArrowUp,ArrowLeft"":23,""ArrowUp,ArrowRight"":10,""ArrowDown,ArrowLeft"":8,""ArrowDown,ArrowRight"":30}","true","ArrowDown,ArrowRight","false","original","1","98","","",""
"html-keyboard-response","219","945881","0.0-4.0-2.0-1.49","spark_pilot_norest","10040","7","9","Male","","","","","","","null","<div style=""font-size:60px;"">+</div>","null","fixation","","","","","","","","","99","","",""
"learning-instructions","220","963575","0.0-4.0-3.0-0.0","spark_pilot_norest","10040","7","9","Male","","","","","","","4791.700000047684","<p> Now, you will travel with a friend who will choose whether you go up or down first. </p>
            <p> On these turns, you will just see the animal that they found. You will still get to choose which chest to search for treasure.</p>","","instructions","","","","","","","","","","","",""
"revaluation","221","967586","0.0-4.0-4.0-0.0","spark_pilot_norest","10040","7","9","Male","","","false","","","","[876.1999998092651]","./assets/img/canyon/animals/giraffe.jpg","[""ArrowRight""]","revaluation","canyon","30","{""ArrowUp,ArrowLeft"":23,""ArrowUp,ArrowRight"":10,""ArrowDown,ArrowLeft"":8,""ArrowDown,ArrowRight"":30}","true","ArrowDown,ArrowRight","","original","1","0","","",""
"html-keyboard-response","222","968105","0.0-4.0-4.0-1.0","spark_pilot_norest","10040","7","9","Male","","","","","","","null","<div style=""font-size:60px;"">+</div>","null","fixation","","","","","","","","","1","","",""
"revaluation","223","972116","0.0-4.0-4.0-0.1","spark_pilot_norest","10040","7","9","Male","","","false","","","","[576.9000000953674]","./assets/img/canyon/animals/lion.jpg","[""ArrowLeft""]","revaluation","canyon","23","{""ArrowUp,ArrowLeft"":23,""ArrowUp,ArrowRight"":10,""ArrowDown,ArrowLeft"":8,""ArrowDown,ArrowRight"":30}","true","ArrowUp,ArrowLeft","","original","1","2","","",""
"html-keyboard-response","224","972622","0.0-4.0-4.0-1.1","spark_pilot_norest","10040","7","9","Male","","","","","","","null","<div style=""font-size:60px;"">+</div>","null","fixation","","","","","","","","","3","","",""
"revaluation","225","976651","0.0-4.0-4.0-0.2","spark_pilot_norest","10040","7","9","Male","","","false","","","","[633.2000000476837]","./assets/img/canyon/animals/giraffe.jpg","[""ArrowRight""]","revaluation","canyon","30","{""ArrowUp,ArrowLeft"":23,""ArrowUp,ArrowRight"":10,""ArrowDown,ArrowLeft"":8,""ArrowDown,ArrowRight"":30}","true","ArrowDown,ArrowRight","","original","1","4","","",""
"html-keyboard-response","226","977173","0.0-4.0-4.0-1.2","spark_pilot_norest","10040","7","9","Male","","","","","","","null","<div style=""font-size:60px;"">+</div>","null","fixation","","","","","","","","","5","","",""
"revaluation","227","981192","0.0-4.0-4.0-0.3","spark_pilot_norest","10040","7","9","Male","","","false","","","","[837.2999999523163]","./assets/img/canyon/animals/giraffe.jpg","[""ArrowLeft""]","revaluation","canyon","8","{""ArrowUp,ArrowLeft"":23,""ArrowUp,ArrowRight"":10,""ArrowDown,ArrowLeft"":8,""ArrowDown,ArrowRight"":30}","false","ArrowDown,ArrowLeft","","original","1","6","","",""
"html-keyboard-response","228","981702","0.0-4.0-4.0-1.3","spark_pilot_norest","10040","7","9","Male","","","","","","","null","<div style=""font-size:60px;"">+</div>","null","fixation","","","","","","","","","7","","",""
"revaluation","229","985723","0.0-4.0-4.0-0.4","spark_pilot_norest","10040","7","9","Male","","","false","","","","[363.39999985694885]","./assets/img/canyon/animals/lion.jpg","[""ArrowRight""]","revaluation","canyon","10","{""ArrowUp,ArrowLeft"":23,""ArrowUp,ArrowRight"":10,""ArrowDown,ArrowLeft"":8,""ArrowDown,ArrowRight"":30}","false","ArrowUp,ArrowRight","","original","1","8","","",""
"html-keyboard-response","230","986233","0.0-4.0-4.0-1.4","spark_pilot_norest","10040","7","9","Male","","","","","","","null","<div style=""font-size:60px;"">+</div>","null","fixation","","","","","","","","","9","","",""
"revaluation","231","990251","0.0-4.0-4.0-0.5","spark_pilot_norest","10040","7","9","Male","","","false","","","","[891.2000000476837]","./assets/img/canyon/animals/lion.jpg","[""ArrowLeft""]","revaluation","canyon","23","{""ArrowUp,ArrowLeft"":23,""ArrowUp,ArrowRight"":10,""ArrowDown,ArrowLeft"":8,""ArrowDown,ArrowRight"":30}","true","ArrowUp,ArrowLeft","","original","1","10","","",""
"html-keyboard-response","232","990752","0.0-4.0-4.0-1.5","spark_pilot_norest","10040","7","9","Male","","","","","","","null","<div style=""font-size:60px;"">+</div>","null","fixation","","","","","","","","","11","","",""
"revaluation","233","994759","0.0-4.0-4.0-0.6","spark_pilot_norest","10040","7","9","Male","","","false","","","","[776.0999999046326]","./assets/img/canyon/animals/lion.jpg","[""ArrowLeft""]","revaluation","canyon","23","{""ArrowUp,ArrowLeft"":23,""ArrowUp,ArrowRight"":10,""ArrowDown,ArrowLeft"":8,""ArrowDown,ArrowRight"":30}","true","ArrowUp,ArrowLeft","","original","1","12","","",""
"html-keyboard-response","234","995260","0.0-4.0-4.0-1.6","spark_pilot_norest","10040","7","9","Male","","","","","","","null","<div style=""font-size:60px;"">+</div>","null","fixation","","","","","","","","","13","","",""
"revaluation","235","999267","0.0-4.0-4.0-0.7","spark_pilot_norest","10040","7","9","Male","","","false","","","","[733.7999999523163]","./assets/img/canyon/animals/giraffe.jpg","[""ArrowRight""]","revaluation","canyon","30","{""ArrowUp,ArrowLeft"":23,""ArrowUp,ArrowRight"":10,""ArrowDown,ArrowLeft"":8,""ArrowDown,ArrowRight"":30}","true","ArrowDown,ArrowRight","","original","1","14","","",""
"html-keyboard-response","236","999768","0.0-4.0-4.0-1.7","spark_pilot_norest","10040","7","9","Male","","","","","","","null","<div style=""font-size:60px;"">+</div>","null","fixation","","","","","","","","","15","","",""
"revaluation","237","1003774","0.0-4.0-4.0-0.8","spark_pilot_norest","10040","7","9","Male","","","false","","","","[768.7999999523163]","./assets/img/canyon/animals/lion.jpg","[""ArrowLeft""]","revaluation","canyon","23","{""ArrowUp,ArrowLeft"":23,""ArrowUp,ArrowRight"":10,""ArrowDown,ArrowLeft"":8,""ArrowDown,ArrowRight"":30}","true","ArrowUp,ArrowLeft","","original","1","16","","",""
"html-keyboard-response","238","1004276","0.0-4.0-4.0-1.8","spark_pilot_norest","10040","7","9","Male","","","","","","","null","<div style=""font-size:60px;"">+</div>","null","fixation","","","","","","","","","17","","",""
"revaluation","239","1008285","0.0-4.0-4.0-0.9","spark_pilot_norest","10040","7","9","Male","","","false","","","","[450.89999985694885]","./assets/img/canyon/animals/giraffe.jpg","[""ArrowRight""]","revaluation","canyon","30","{""ArrowUp,ArrowLeft"":23,""ArrowUp,ArrowRight"":10,""ArrowDown,ArrowLeft"":8,""ArrowDown,ArrowRight"":30}","true","ArrowDown,ArrowRight","","original","1","18","","",""
"html-keyboard-response","240","1008787","0.0-4.0-4.0-1.9","spark_pilot_norest","10040","7","9","Male","","","","","","","null","<div style=""font-size:60px;"">+</div>","null","fixation","","","","","","","","","19","","",""
"revaluation","241","1012789","0.0-4.0-4.0-0.10","spark_pilot_norest","10040","7","9","Male","","","false","","","","[501.2000000476837]","./assets/img/canyon/animals/giraffe.jpg","[""ArrowLeft""]","revaluation","canyon","8","{""ArrowUp,ArrowLeft"":23,""ArrowUp,ArrowRight"":10,""ArrowDown,ArrowLeft"":8,""ArrowDown,ArrowRight"":30}","false","ArrowDown,ArrowLeft","","original","1","20","","",""
"html-keyboard-response","242","1013290","0.0-4.0-4.0-1.10","spark_pilot_norest","10040","7","9","Male","","","","","","","null","<div style=""font-size:60px;"">+</div>","null","fixation","","","","","","","","","21","","",""
"revaluation","243","1017296","0.0-4.0-4.0-0.11","spark_pilot_norest","10040","7","9","Male","","","false","","","","[590]","./assets/img/canyon/animals/lion.jpg","[""ArrowLeft""]","revaluation","canyon","23","{""ArrowUp,ArrowLeft"":23,""ArrowUp,ArrowRight"":10,""ArrowDown,ArrowLeft"":8,""ArrowDown,ArrowRight"":30}","true","ArrowUp,ArrowLeft","","original","1","22","","",""
"html-keyboard-response","244","1017799","0.0-4.0-4.0-1.11","spark_pilot_norest","10040","7","9","Male","","","","","","","null","<div style=""font-size:60px;"">+</div>","null","fixation","","","","","","","","","23","","",""
"revaluation","245","1021805","0.0-4.0-4.0-0.12","spark_pilot_norest","10040","7","9","Male","","","false","","","","[502.90000009536743]","./assets/img/canyon/animals/lion.jpg","[""ArrowRight""]","revaluation","canyon","10","{""ArrowUp,ArrowLeft"":23,""ArrowUp,ArrowRight"":10,""ArrowDown,ArrowLeft"":8,""ArrowDown,ArrowRight"":30}","false","ArrowUp,ArrowRight","","original","1","24","","",""
"html-keyboard-response","246","1022306","0.0-4.0-4.0-1.12","spark_pilot_norest","10040","7","9","Male","","","","","","","null","<div style=""font-size:60px;"">+</div>","null","fixation","","","","","","","","","25","","",""
"revaluation","247","1026312","0.0-4.0-4.0-0.13","spark_pilot_norest","10040","7","9","Male","","","false","","","","[516.2000000476837]","./assets/img/canyon/animals/lion.jpg","[""ArrowLeft""]","revaluation","canyon","23","{""ArrowUp,ArrowLeft"":23,""ArrowUp,ArrowRight"":10,""ArrowDown,ArrowLeft"":8,""ArrowDown,ArrowRight"":30}","true","ArrowUp,ArrowLeft","","original","1","26","","",""
"html-keyboard-response","248","1026813","0.0-4.0-4.0-1.13","spark_pilot_norest","10040","7","9","Male","","","","","","","null","<div style=""font-size:60px;"">+</div>","null","fixation","","","","","","","","","27","","",""
"revaluation","249","1030819","0.0-4.0-4.0-0.14","spark_pilot_norest","10040","7","9","Male","","","false","","","","[460.69999980926514]","./assets/img/canyon/animals/giraffe.jpg","[""ArrowRight""]","revaluation","canyon","30","{""ArrowUp,ArrowLeft"":23,""ArrowUp,ArrowRight"":10,""ArrowDown,ArrowLeft"":8,""ArrowDown,ArrowRight"":30}","true","ArrowDown,ArrowRight","","original","1","28","","",""
"html-keyboard-response","250","1031321","0.0-4.0-4.0-1.14","spark_pilot_norest","10040","7","9","Male","","","","","","","null","<div style=""font-size:60px;"">+</div>","null","fixation","","","","","","","","","29","","",""
"revaluation","251","1035327","0.0-4.0-4.0-0.15","spark_pilot_norest","10040","7","9","Male","","","false","","","","[658.0999999046326]","./assets/img/canyon/animals/giraffe.jpg","[""ArrowRight""]","revaluation","canyon","30","{""ArrowUp,ArrowLeft"":23,""ArrowUp,ArrowRight"":10,""ArrowDown,ArrowLeft"":8,""ArrowDown,ArrowRight"":30}","true","ArrowDown,ArrowRight","","original","1","30","","",""
"html-keyboard-response","252","1035828","0.0-4.0-4.0-1.15","spark_pilot_norest","10040","7","9","Male","","","","","","","null","<div style=""font-size:60px;"">+</div>","null","fixation","","","","","","","","","31","","",""
"revaluation","253","1039841","0.0-4.0-4.0-0.16","spark_pilot_norest","10040","7","9","Male","","","false","","","","[377.2999999523163]","./assets/img/canyon/animals/giraffe.jpg","[""ArrowLeft""]","revaluation","canyon","8","{""ArrowUp,ArrowLeft"":23,""ArrowUp,ArrowRight"":10,""ArrowDown,ArrowLeft"":8,""ArrowDown,ArrowRight"":30}","false","ArrowDown,ArrowLeft","","original","1","32","","",""
"html-keyboard-response","254","1040343","0.0-4.0-4.0-1.16","spark_pilot_norest","10040","7","9","Male","","","","","","","null","<div style=""font-size:60px;"">+</div>","null","fixation","","","","","","","","","33","","",""
"revaluation","255","1044348","0.0-4.0-4.0-0.17","spark_pilot_norest","10040","7","9","Male","","","false","","","","[595.7000000476837]","./assets/img/canyon/animals/lion.jpg","[""ArrowRight""]","revaluation","canyon","10","{""ArrowUp,ArrowLeft"":23,""ArrowUp,ArrowRight"":10,""ArrowDown,ArrowLeft"":8,""ArrowDown,ArrowRight"":30}","false","ArrowUp,ArrowRight","","original","1","34","","",""
"html-keyboard-response","256","1044849","0.0-4.0-4.0-1.17","spark_pilot_norest","10040","7","9","Male","","","","","","","null","<div style=""font-size:60px;"">+</div>","null","fixation","","","","","","","","","35","","",""
"learning-instructions","257","1052977","0.0-4.0-5.0-0.0","spark_pilot_norest","10040","7","9","Male","","","","","","","null","<p> You have almost finished this part of the game! </p>
            <p> We are going to ask you to make a few more choices. </p>","","instructions","","","","","","","","","","","",""
"learning-instructions","258","1068958","0.0-4.0-5.0-0.1","spark_pilot_norest","10040","7","9","Male","","","","","","","null","<p> First, you need to decide whether to go up or down. When you see each picture, use the arrow keys to make your choice. </p>
            <p><b>You will not see which animal you found, but try to get to the one that will give you the most treasure.</b></p>","","instructions","","","","","","","","","","","",""
"html-keyboard-response","259","1069968","0.0-4.0-6.0-0.0","spark_pilot_norest","10040","7","9","Male","","","","","","","null","<div style=""font-size:100px;color:red;"">Starting in...</div>","null","","","","","","","","","","","","",""
"html-keyboard-response","260","1070985","0.0-4.0-6.0-1.0","spark_pilot_norest","10040","7","9","Male","","","","","","","null","<div style=""font-size:200px;color:red;"">3</div>","null","","","","","","","","","","","","",""
"html-keyboard-response","261","1071997","0.0-4.0-6.0-2.0","spark_pilot_norest","10040","7","9","Male","","","","","","","null","<div style=""font-size:200px;color:red;"">2</div>","null","","","","","","","","","","","","",""
"html-keyboard-response","262","1073001","0.0-4.0-6.0-3.0","spark_pilot_norest","10040","7","9","Male","","","","","","","null","<div style=""font-size:200px;color:red;"">1</div>","null","","","","","","","","","","","","",""
"revaluation","263","1073446","0.0-4.0-7.0-0.0","spark_pilot_norest","10040","7","9","Male","","","false","","","","[441.2999999523163]","./assets/img/canyon/test/1.jpg","[""ArrowDown""]","first stage test","canyon","0","{""ArrowUp,ArrowLeft"":23,""ArrowUp,ArrowRight"":10,""ArrowDown,ArrowLeft"":8,""ArrowDown,ArrowRight"":30}","true","ArrowDown","false","original","1","","","",""
"html-keyboard-response","264","1073960","0.0-4.0-7.0-1.0","spark_pilot_norest","10040","7","9","Male","","","","","","","null","<div style=""font-size:60px;"">+</div>","null","fixation","","","","","","","","","","","",""
"revaluation","265","1074962","0.0-4.0-7.0-0.1","spark_pilot_norest","10040","7","9","Male","","","false","","","","[997.2000000476837]","./assets/img/canyon/test/2.jpg","[""ArrowDown""]","first stage test","canyon","0","{""ArrowUp,ArrowLeft"":23,""ArrowUp,ArrowRight"":10,""ArrowDown,ArrowLeft"":8,""ArrowDown,ArrowRight"":30}","true","ArrowDown","false","original","1","","","",""
"html-keyboard-response","266","1075463","0.0-4.0-7.0-1.1","spark_pilot_norest","10040","7","9","Male","","","","","","","null","<div style=""font-size:60px;"">+</div>","null","fixation","","","","","","","","","","","",""
"revaluation","267","1076018","0.0-4.0-7.0-0.2","spark_pilot_norest","10040","7","9","Male","","","false","","","","[550]","./assets/img/canyon/test/0.jpg","[""ArrowUp""]","first stage test","canyon","0","{""ArrowUp,ArrowLeft"":23,""ArrowUp,ArrowRight"":10,""ArrowDown,ArrowLeft"":8,""ArrowDown,ArrowRight"":30}","false","ArrowUp","false","original","1","","","",""
"html-keyboard-response","268","1076524","0.0-4.0-7.0-1.2","spark_pilot_norest","10040","7","9","Male","","","","","","","null","<div style=""font-size:60px;"">+</div>","null","fixation","","","","","","","","","","","",""
"revaluation","269","1077225","0.0-4.0-7.0-0.3","spark_pilot_norest","10040","7","9","Male","","","false","","","","[696.3000001907349]","./assets/img/canyon/test/3.jpg","[""ArrowDown""]","first stage test","canyon","0","{""ArrowUp,ArrowLeft"":23,""ArrowUp,ArrowRight"":10,""ArrowDown,ArrowLeft"":8,""ArrowDown,ArrowRight"":30}","true","ArrowDown","false","original","1","","","",""
"html-keyboard-response","270","1077738","0.0-4.0-7.0-1.3","spark_pilot_norest","10040","7","9","Male","","","","","","","null","<div style=""font-size:60px;"">+</div>","null","fixation","","","","","","","","","","","",""
"learning-instructions","271","1091098","0.0-4.0-8.0-0.0","spark_pilot_norest","10040","7","9","Male","","","","","","","null","<p> Now you will see the animals again and can search their chests for treasure. </p>
            <p> This time, you will not see how much treasure you earned, but you will earn more bonus money for making better choices. </p>","","instructions","","","","","","","","","","","",""
"html-keyboard-response","272","1092107","0.0-4.0-9.0-0.0","spark_pilot_norest","10040","7","9","Male","","","","","","","null","<div style=""font-size:100px;color:red;"">Starting in...</div>","null","","","","","","","","","","","","",""
"html-keyboard-response","273","1093111","0.0-4.0-9.0-1.0","spark_pilot_norest","10040","7","9","Male","","","","","","","null","<div style=""font-size:200px;color:red;"">3</div>","null","","","","","","","","","","","","",""
"html-keyboard-response","274","1094126","0.0-4.0-9.0-2.0","spark_pilot_norest","10040","7","9","Male","","","","","","","null","<div style=""font-size:200px;color:red;"">2</div>","null","","","","","","","","","","","","",""
"html-keyboard-response","275","1095138","0.0-4.0-9.0-3.0","spark_pilot_norest","10040","7","9","Male","","","","","","","null","<div style=""font-size:200px;color:red;"">1</div>","null","","","","","","","","","","","","",""
"revaluation","276","1095944","0.0-4.0-10.0-0.0","spark_pilot_norest","10040","7","9","Male","","","false","","","","[801.5]","./assets/img/canyon/animals/lion.jpg","[""ArrowRight""]","second stage test","canyon","0","{""ArrowUp,ArrowLeft"":23,""ArrowUp,ArrowRight"":10,""ArrowDown,ArrowLeft"":8,""ArrowDown,ArrowRight"":30}","false","ArrowUp,ArrowRight","","original","1","","","",""
"html-keyboard-response","277","1096458","0.0-4.0-10.0-1.0","spark_pilot_norest","10040","7","9","Male","","","","","","","null","<div style=""font-size:60px;"">+</div>","null","fixation","","","","","","","","","","","",""
"revaluation","278","1097409","0.0-4.0-10.0-0.1","spark_pilot_norest","10040","7","9","Male","","","false","","","","[946.4000000953674]","./assets/img/canyon/animals/lion.jpg","[""ArrowRight""]","second stage test","canyon","0","{""ArrowUp,ArrowLeft"":23,""ArrowUp,ArrowRight"":10,""ArrowDown,ArrowLeft"":8,""ArrowDown,ArrowRight"":30}","false","ArrowUp,ArrowRight","","original","1","","","",""
"html-keyboard-response","279","1097923","0.0-4.0-10.0-1.1","spark_pilot_norest","10040","7","9","Male","","","","","","","null","<div style=""font-size:60px;"">+</div>","null","fixation","","","","","","","","","","","",""
"revaluation","280","1098375","0.0-4.0-10.0-0.2","spark_pilot_norest","10040","7","9","Male","","","false","","","","[447.59999990463257]","./assets/img/canyon/animals/lion.jpg","[""ArrowLeft""]","second stage test","canyon","0","{""ArrowUp,ArrowLeft"":23,""ArrowUp,ArrowRight"":10,""ArrowDown,ArrowLeft"":8,""ArrowDown,ArrowRight"":30}","true","ArrowUp,ArrowLeft","","original","1","","","",""
"html-keyboard-response","281","1098881","0.0-4.0-10.0-1.2","spark_pilot_norest","10040","7","9","Male","","","","","","","null","<div style=""font-size:60px;"">+</div>","null","fixation","","","","","","","","","","","",""
"revaluation","282","1099355","0.0-4.0-10.0-0.3","spark_pilot_norest","10040","7","9","Male","","","false","","","","[469.39999985694885]","./assets/img/canyon/animals/lion.jpg","[""ArrowLeft""]","second stage test","canyon","0","{""ArrowUp,ArrowLeft"":23,""ArrowUp,ArrowRight"":10,""ArrowDown,ArrowLeft"":8,""ArrowDown,ArrowRight"":30}","true","ArrowUp,ArrowLeft","","original","1","","","",""
"html-keyboard-response","283","1099857","0.0-4.0-10.0-1.3","spark_pilot_norest","10040","7","9","Male","","","","","","","null","<div style=""font-size:60px;"">+</div>","null","fixation","","","","","","","","","","","",""
"revaluation","284","1100934","0.0-4.0-10.0-0.4","spark_pilot_norest","10040","7","9","Male","","","false","","","","[1073.7999999523163]","./assets/img/canyon/animals/giraffe.jpg","[""ArrowRight""]","second stage test","canyon","0","{""ArrowUp,ArrowLeft"":23,""ArrowUp,ArrowRight"":10,""ArrowDown,ArrowLeft"":8,""ArrowDown,ArrowRight"":30}","true","ArrowDown,ArrowRight","","original","1","","","",""
"html-keyboard-response","285","1101442","0.0-4.0-10.0-1.4","spark_pilot_norest","10040","7","9","Male","","","","","","","null","<div style=""font-size:60px;"">+</div>","null","fixation","","","","","","","","","","","",""
"revaluation","286","1102234","0.0-4.0-10.0-0.5","spark_pilot_norest","10040","7","9","Male","","","false","","","","[787.8999998569489]","./assets/img/canyon/animals/giraffe.jpg","[""ArrowRight""]","second stage test","canyon","0","{""ArrowUp,ArrowLeft"":23,""ArrowUp,ArrowRight"":10,""ArrowDown,ArrowLeft"":8,""ArrowDown,ArrowRight"":30}","true","ArrowDown,ArrowRight","","original","1","","","",""
"html-keyboard-response","287","1102746","0.0-4.0-10.0-1.5","spark_pilot_norest","10040","7","9","Male","","","","","","","null","<div style=""font-size:60px;"">+</div>","null","fixation","","","","","","","","","","","",""
"revaluation","288","1103871","0.0-4.0-10.0-0.6","spark_pilot_norest","10040","7","9","Male","","","false","","","","[1120.8999998569489]","./assets/img/canyon/animals/giraffe.jpg","[""ArrowRight""]","second stage test","canyon","0","{""ArrowUp,ArrowLeft"":23,""ArrowUp,ArrowRight"":10,""ArrowDown,ArrowLeft"":8,""ArrowDown,ArrowRight"":30}","true","ArrowDown,ArrowRight","","original","1","","","",""
"html-keyboard-response","289","1104379","0.0-4.0-10.0-1.6","spark_pilot_norest","10040","7","9","Male","","","","","","","null","<div style=""font-size:60px;"">+</div>","null","fixation","","","","","","","","","","","",""
"revaluation","290","1105057","0.0-4.0-10.0-0.7","spark_pilot_norest","10040","7","9","Male","","","false","","","","[674]","./assets/img/canyon/animals/giraffe.jpg","[""ArrowRight""]","second stage test","canyon","0","{""ArrowUp,ArrowLeft"":23,""ArrowUp,ArrowRight"":10,""ArrowDown,ArrowLeft"":8,""ArrowDown,ArrowRight"":30}","true","ArrowDown,ArrowRight","","original","1","","","",""
"html-keyboard-response","291","1105559","0.0-4.0-10.0-1.7","spark_pilot_norest","10040","7","9","Male","","","","","","","null","<div style=""font-size:60px;"">+</div>","null","fixation","","","","","","","","","","","",""
"learning-instructions","292","1112904","0.0-4.0-0.1-0.2","spark_pilot_norest","10040","7","9","Male","","","","","","","4639.200000047684","<p> This time you are searching for treasure in the <b>ocean</b>.</p>","","instructions","","","","","","","","","","","",""
"learning-instructions","293","1130795","0.0-4.0-0.1-0.3","spark_pilot_norest","10040","7","9","Male","","","","","","","630.2999999523163","<p><b>New</b> animals with <b>new</b> treasure chests live here. You need to explore to discover where the animal with the best treasure chest is.</p>
                    <p> Like before, once you figure out which animal has the chest with the most treasure, you should try to get to that animal and select that chest! </p>","","instructions","","","","","","","","","","","",""
"learning-instructions","294","1147132","0.0-4.0-1.1-0.1","spark_pilot_norest","10040","7","9","Male","","","","","","","1607.7999999523163","<p> Remember, when you see a picture of the place, use the up and down keys to <b>find an animal</b>.</p>
            <p> When you encounter an animal, you should use the left and right keys to <b>select a treasure chest</b>.</p>
            <p> Don't forget to look out for the robber! </p>","","instructions","","","","","","","","","","","",""
"revaluation","295","1153159","0.0-4.0-2.1-0.50","spark_pilot_norest","10040","7","9","Male","","","false","","","","[671.7000000476837,633.1000001430511]","./assets/img/ocean/memory/3.jpg","[""ArrowUp"",""ArrowRight""]","value training","ocean","10","{""ArrowUp,ArrowLeft"":26,""ArrowUp,ArrowRight"":10,""ArrowDown,ArrowLeft"":5,""ArrowDown,ArrowRight"":17}","false","ArrowUp,ArrowRight","false","revaluation","2","0","","",""
"html-keyboard-response","296","1153663","0.0-4.0-2.1-1.50","spark_pilot_norest","10040","7","9","Male","","","","","","","null","<div style=""font-size:60px;"">+</div>","null","fixation","","","","","","","","","1","","",""
"revaluation","297","1159699","0.0-4.0-2.1-0.51","spark_pilot_norest","10040","7","9","Male","","","false","","","","[332.80000019073486,517]","./assets/img/ocean/memory/8.jpg","[""ArrowUp"",""ArrowLeft""]","value training","ocean","26","{""ArrowUp,ArrowLeft"":26,""ArrowUp,ArrowRight"":10,""ArrowDown,ArrowLeft"":5,""ArrowDown,ArrowRight"":17}","true","ArrowUp,ArrowLeft","false","revaluation","2","2","","",""
"html-keyboard-response","298","1160214","0.0-4.0-2.1-1.51","spark_pilot_norest","10040","7","9","Male","","","","","","","null","<div style=""font-size:60px;"">+</div>","null","fixation","","","","","","","","","3","","",""
"revaluation","299","1164229","0.0-4.0-2.1-0.52","spark_pilot_norest","10040","7","9","Male","","","false","","","","[1027.4000000953674]","./assets/img/ocean/catch/7.jpg","[""spaceBar""]","value training","ocean","0","{""ArrowUp,ArrowLeft"":26,""ArrowUp,ArrowRight"":10,""ArrowDown,ArrowLeft"":5,""ArrowDown,ArrowRight"":17}","true","spaceBar","true","revaluation","2","4","","",""
"html-keyboard-response","300","1164732","0.0-4.0-2.1-1.52","spark_pilot_norest","10040","7","9","Male","","","","","","","null","<div style=""font-size:60px;"">+</div>","null","fixation","","","","","","","","","5","","",""
"revaluation","301","1170753","0.0-4.0-2.1-0.53","spark_pilot_norest","10040","7","9","Male","","","false","","","","[761.8999998569489,684.2999999523163]","./assets/img/ocean/memory/25.jpg","[""ArrowDown"",""ArrowRight""]","value training","ocean","17","{""ArrowUp,ArrowLeft"":26,""ArrowUp,ArrowRight"":10,""ArrowDown,ArrowLeft"":5,""ArrowDown,ArrowRight"":17}","false","ArrowDown,ArrowRight","false","revaluation","2","6","","",""
"html-keyboard-response","302","1171262","0.0-4.0-2.1-1.53","spark_pilot_norest","10040","7","9","Male","","","","","","","null","<div style=""font-size:60px;"">+</div>","null","fixation","","","","","","","","","7","","",""
"revaluation","303","1177278","0.0-4.0-2.1-0.54","spark_pilot_norest","10040","7","9","Male","","","false","","","","[466.7999999523163,414.60000014305115]","./assets/img/ocean/memory/34.jpg","[""ArrowDown"",""ArrowLeft""]","value training","ocean","5","{""ArrowUp,ArrowLeft"":26,""ArrowUp,ArrowRight"":10,""ArrowDown,ArrowLeft"":5,""ArrowDown,ArrowRight"":17}","false","ArrowDown,ArrowLeft","false","revaluation","2","8","","",""
"html-keyboard-response","304","1177779","0.0-4.0-2.1-1.54","spark_pilot_norest","10040","7","9","Male","","","","","","","null","<div style=""font-size:60px;"">+</div>","null","fixation","","","","","","","","","9","","",""
"revaluation","305","1183786","0.0-4.0-2.1-0.55","spark_pilot_norest","10040","7","9","Male","","","false","","","","[1002.0999999046326,609.8000001907349]","./assets/img/ocean/memory/22.jpg","[""ArrowUp"",""ArrowLeft""]","value training","ocean","26","{""ArrowUp,ArrowLeft"":26,""ArrowUp,ArrowRight"":10,""ArrowDown,ArrowLeft"":5,""ArrowDown,ArrowRight"":17}","true","ArrowUp,ArrowLeft","false","revaluation","2","10","","",""
"html-keyboard-response","306","1184288","0.0-4.0-2.1-1.55","spark_pilot_norest","10040","7","9","Male","","","","","","","null","<div style=""font-size:60px;"">+</div>","null","fixation","","","","","","","","","11","","",""
"revaluation","307","1190294","0.0-4.0-2.1-0.56","spark_pilot_norest","10040","7","9","Male","","","false","","","","[660.2999999523163,440.5]","./assets/img/ocean/memory/9.jpg","[""ArrowUp"",""ArrowLeft""]","value training","ocean","26","{""ArrowUp,ArrowLeft"":26,""ArrowUp,ArrowRight"":10,""ArrowDown,ArrowLeft"":5,""ArrowDown,ArrowRight"":17}","true","ArrowUp,ArrowLeft","false","revaluation","2","12","","",""
"html-keyboard-response","308","1190797","0.0-4.0-2.1-1.56","spark_pilot_norest","10040","7","9","Male","","","","","","","null","<div style=""font-size:60px;"">+</div>","null","fixation","","","","","","","","","13","","",""
"revaluation","309","1196802","0.0-4.0-2.1-0.57","spark_pilot_norest","10040","7","9","Male","","","false","","","","[472.59999990463257,470.90000009536743]","./assets/img/ocean/memory/3.jpg","[""ArrowUp"",""ArrowLeft""]","value training","ocean","26","{""ArrowUp,ArrowLeft"":26,""ArrowUp,ArrowRight"":10,""ArrowDown,ArrowLeft"":5,""ArrowDown,ArrowRight"":17}","true","ArrowUp,ArrowLeft","false","revaluation","2","14","","",""
"html-keyboard-response","310","1197304","0.0-4.0-2.1-1.57","spark_pilot_norest","10040","7","9","Male","","","","","","","null","<div style=""font-size:60px;"">+</div>","null","fixation","","","","","","","","","15","","",""
"revaluation","311","1201310","0.0-4.0-2.1-0.58","spark_pilot_norest","10040","7","9","Male","","","false","","","","[604.7000000476837]","./assets/img/ocean/catch/1.jpg","[""spaceBar""]","value training","ocean","0","{""ArrowUp,ArrowLeft"":26,""ArrowUp,ArrowRight"":10,""ArrowDown,ArrowLeft"":5,""ArrowDown,ArrowRight"":17}","true","spaceBar","true","revaluation","2","16","","",""
"html-keyboard-response","312","1201811","0.0-4.0-2.1-1.58","spark_pilot_norest","10040","7","9","Male","","","","","","","null","<div style=""font-size:60px;"">+</div>","null","fixation","","","","","","","","","17","","",""
