"trial_type","trial_index","time_elapsed","internal_node_id","task_version","subject_id","assigned_condition","age","gender","success","timeout","failed_images","failed_audio","failed_video","browser_interaction","rt","stimulus","response","task_part","environment","score","rewardMap","correct","fullState","isCatch","condition","order","trial_num","key_press","ground_truth","bonus"
"pavlovia","0","2002","0.0-0.0","spark_pilot_norest","9170","2","17","Male","","","","","","","","","","","","","","","","","","","","","",""
"preload","1","29370","0.0-1.0","spark_pilot_norest","9170","2","17","Male","true","false","[]","[]","[]","[{""event"":""fullscreenenter"",""trial"":2,""time"":34459}]","","","","","","","","","","","","","","","",""
"fullscreen","2","35385","0.0-2.0","spark_pilot_norest","9170","2","17","Male","true","","","","","","","","","","","","","","","","","","","","",""
"audio-button-response","3","37494","0.0-3.0-0.0-0.0","spark_pilot_norest","9170","2","17","Male","","","","","","","2091","./assets/audio/audiotest/turtle.mp3","2","audio_test","","","","","","","","","","","",""
"learning-instructions","4","66856","0.0-3.0-1.0-0.0","spark_pilot_norest","9170","2","17","Male","","","","","","","22343.199999928474","<p> Welcome! Please remember to stay in fullscreen mode and don't click away from the experiment. </p>","","instructions","","","","","","","","","","","",""
"learning-instructions","5","76822","0.0-3.0-1.0-0.1","spark_pilot_norest","9170","2","17","Male","","","","","","","1543","<p> Today you will be playing a game to earn treasure. </p>
            <p> At the end of the experiment, you will earn a bonus based on how much treasure you find. </p>
            <img src='./assets/img/instructions/treasure.jpg' class='instructions-image'>","","instructions","","","","","","","","","","","",""
"learning-instructions","6","86621","0.0-3.0-1.0-0.2","spark_pilot_norest","9170","2","17","Male","","","","","","","1511.2000000476837","<p> Animals have hidden treasure in treasure chests. </p>
            <p> You need to first find an animal and then choose which of their treasure chests to search. </p>
            <img src='./assets/img/space/animals/cat.jpg' class='instructions-image'>","","instructions","","","","","","","","","","","",""
"learning-instructions","7","101253","0.0-3.0-1.0-0.3","spark_pilot_norest","9170","2","17","Male","","","","","","","1442.8999999761581","<p> In each round, you will search for treasure in a different place. In the real game, there will be two rounds. </p>
            <p> You will begin with a separate, practice round where you will search for treasure in outer space. </p>
            <img src='./assets/img/space/0.jpg' class='instructions-image'>","","instructions","","","","","","","","","","","",""
"learning-instructions","8","114501","0.0-3.0-1.0-0.4","spark_pilot_norest","9170","2","17","Male","","","","","","","1791.7999999523163","<p> On every turn, you will see a picture of the place that you are in, but the specific image may be different each time. </p>
            <p> For example, both of these images mean you are in outer space. </p>
            <img src='./assets/img/instructions/outerspace.jpg' class='instructions-image'>","","instructions","","","","","","","","","","","",""
"learning-instructions","9","123325","0.0-3.0-1.0-0.5","spark_pilot_norest","9170","2","17","Male","","","","","","","974.8000000715256","<p> You need to decide which direction to travel in. </p>
            <p> You can choose between going <b>up or down</b> by using the arrow keys. </p>
            <img src='./assets/img/instructions/updown.jpg' class='instructions-image'>","","instructions","","","","","","","","","","","",""
"learning-instructions","10","136781","0.0-3.0-1.0-0.6","spark_pilot_norest","9170","2","17","Male","","","","","","","4620.600000023842","<p> You will have <b>2 seconds</b> to make your choice. </p>
            <p> If you do not make a choice within 2 seconds, you will not find an animal or earn treasure. </p>
            <img src='./assets/img/instructions/2seconds.jpg' class='instructions-image'>","","instructions","","","","","","","","","","","",""
"learning-instructions","11","145189","0.0-3.0-1.0-0.7","spark_pilot_norest","9170","2","17","Male","","","","","","","1340.2000000476837","<p> Let’s try practicing that now! </p>
            <p> When you see a picture of the place you are in, press the <b>up</b> key to travel up. </p>
            <img src='./assets/img/instructions/pressUp.jpg' class='instructions-image'>","","instructions","","","","","","","","","","","",""
"revaluation","12","149223","0.0-3.0-2.0-0.0","spark_pilot_norest","9170","2","17","Male","","false","","","","","[401]","./assets/img/space/0.jpg","[""ArrowUp""]","first stage practice","space","0","null","null","ArrowUp","false","","","","","",""
"html-keyboard-response","13","149725","0.0-3.0-2.0-1.0","spark_pilot_norest","9170","2","17","Male","","","","","","","null","<div style=""font-size:60px;"">+</div>","null","fixation","","","","","","","","","","","",""
"revaluation","14","153752","0.0-3.0-2.0-0.1","spark_pilot_norest","9170","2","17","Male","","false","","","","","[1141.7000000476837]","./assets/img/space/1.jpg","[""ArrowUp""]","first stage practice","space","0","null","null","ArrowUp","false","","","","","",""
"html-keyboard-response","15","154263","0.0-3.0-2.0-1.1","spark_pilot_norest","9170","2","17","Male","","","","","","","null","<div style=""font-size:60px;"">+</div>","null","fixation","","","","","","","","","","","",""
"revaluation","16","158272","0.0-3.0-2.0-0.2","spark_pilot_norest","9170","2","17","Male","","false","","","","","[860.7000000476837]","./assets/img/space/2.jpg","[""ArrowUp""]","first stage practice","space","0","null","null","ArrowUp","false","","","","","",""
"html-keyboard-response","17","158786","0.0-3.0-2.0-1.2","spark_pilot_norest","9170","2","17","Male","","","","","","","null","<div style=""font-size:60px;"">+</div>","null","fixation","","","","","","","","","","","",""
"learning-instructions","18","164588","0.0-3.0-3.0-0.0","spark_pilot_norest","9170","2","17","Male","","","","","","","1088","<p> Great job! Now try pressing the <b>down</b> key to travel down. </p>
            <img src='./assets/img/instructions/pressDown.jpg' class='instructions-image'>","","instructions","","","","","","","","","","","",""
"revaluation","19","168595","0.0-3.0-4.0-0.0","spark_pilot_norest","9170","2","17","Male","","false","","","","","[416.2999999523163]","./assets/img/space/3.jpg","[""ArrowDown""]","first stage practice","space","0","null","null","ArrowDown","false","","","","","",""
"html-keyboard-response","20","169109","0.0-3.0-4.0-1.0","spark_pilot_norest","9170","2","17","Male","","","","","","","null","<div style=""font-size:60px;"">+</div>","null","fixation","","","","","","","","","","","",""
"revaluation","21","173136","0.0-3.0-4.0-0.1","spark_pilot_norest","9170","2","17","Male","","true","","","","","[]","./assets/img/space/4.jpg","[]","first stage practice","space","-5","null","null","","false","","","","","",""
"html-keyboard-response","22","173653","0.0-3.0-4.0-1.1","spark_pilot_norest","9170","2","17","Male","","","","","","","null","<div style=""font-size:60px;"">+</div>","null","fixation","","","","","","","","","","","",""
"revaluation","23","177663","0.0-3.0-4.0-0.2","spark_pilot_norest","9170","2","17","Male","","false","","","","","[918.6000000238419]","./assets/img/space/5.jpg","[""ArrowDown""]","first stage practice","space","0","null","null","ArrowDown","false","","","","","",""
"html-keyboard-response","24","178176","0.0-3.0-4.0-1.2","spark_pilot_norest","9170","2","17","Male","","","","","","","null","<div style=""font-size:60px;"">+</div>","null","fixation","","","","","","","","","","","",""
"learning-instructions","25","189182","0.0-3.0-5.0-0.0","spark_pilot_norest","9170","2","17","Male","","","","","","","1112.7999999523163","<p> The animals don’t move, so the animal in the upper part of a place will stay in the upper part of a place, and the animal in the lower part of a place will stay in the lower part of a place. </p>","","instructions","","","","","","","","","","","",""
"learning-instructions","26","199573","0.0-3.0-5.0-0.1","spark_pilot_norest","9170","2","17","Male","","","","","","","1214.6999999284744","<p> Each animal has two treasure chests for you to choose from. </p>
            <p> The amount of treasure in each chest can range from <b> 0 to 40 pieces.</b></p>","","instructions","","","","","","","","","","","",""
"learning-instructions","27","211614","0.0-3.0-5.0-0.2","spark_pilot_norest","9170","2","17","Male","","","","","","","824.2999999523163","<p> You should decide which chest to search for treasure by using the <b>left</b> and <b>right</b> arrow keys. </p>
            <p><b> Pay attention to which animal is on the screen, as the animals have different treasure chests. </b></p>
            <img src='./assets/img/instructions/leftright.jpg' class='instructions-image'>","","instructions","","","","","","","","","","","",""
"learning-instructions","28","219398","0.0-3.0-5.0-0.3","spark_pilot_norest","9170","2","17","Male","","","","","","","1399","<p> Let’s try practicing that now. </p>
            <p> When you see an animal, choose which chest to search for treasure. </p>
            <img src='./assets/img/instructions/chooseChest.jpg' class='instructions-image'>","","instructions","","","","","","","","","","","",""
"revaluation","29","223432","0.0-3.0-6.0-0.0","spark_pilot_norest","9170","2","17","Male","","false","","","","","[431.89999997615814]","./assets/img/space/animals/cat.jpg","[""ArrowLeft""]","second stage practice","space","3","{""ArrowUp,ArrowLeft"":3,""ArrowUp,ArrowRight"":36,""ArrowDown,ArrowLeft"":15,""ArrowDown,ArrowRight"":23}","false","ArrowUp,ArrowLeft","","","","","","",""
"html-keyboard-response","30","223939","0.0-3.0-6.0-1.0","spark_pilot_norest","9170","2","17","Male","","","","","","","null","<div style=""font-size:60px;"">+</div>","null","fixation","","","","","","","","","","","",""
"revaluation","31","227969","0.0-3.0-6.0-0.1","spark_pilot_norest","9170","2","17","Male","","false","","","","","[848.7999999523163]","./assets/img/space/animals/cat.jpg","[""ArrowRight""]","second stage practice","space","36","{""ArrowUp,ArrowLeft"":3,""ArrowUp,ArrowRight"":36,""ArrowDown,ArrowLeft"":15,""ArrowDown,ArrowRight"":23}","true","ArrowUp,ArrowRight","","","","","","",""
"html-keyboard-response","32","228482","0.0-3.0-6.0-1.1","spark_pilot_norest","9170","2","17","Male","","","","","","","null","<div style=""font-size:60px;"">+</div>","null","fixation","","","","","","","","","","","",""
"revaluation","33","232511","0.0-3.0-6.0-0.2","spark_pilot_norest","9170","2","17","Male","","false","","","","","[353.5]","./assets/img/space/animals/rabbit.jpg","[""ArrowRight""]","second stage practice","space","23","{""ArrowUp,ArrowLeft"":3,""ArrowUp,ArrowRight"":36,""ArrowDown,ArrowLeft"":15,""ArrowDown,ArrowRight"":23}","true","ArrowDown,ArrowRight","","","","","","",""
"html-keyboard-response","34","233013","0.0-3.0-6.0-1.2","spark_pilot_norest","9170","2","17","Male","","","","","","","null","<div style=""font-size:60px;"">+</div>","null","fixation","","","","","","","","","","","",""
"revaluation","35","237048","0.0-3.0-6.0-0.3","spark_pilot_norest","9170","2","17","Male","","false","","","","","[783.6000000238419]","./assets/img/space/animals/rabbit.jpg","[""ArrowLeft""]","second stage practice","space","15","{""ArrowUp,ArrowLeft"":3,""ArrowUp,ArrowRight"":36,""ArrowDown,ArrowLeft"":15,""ArrowDown,ArrowRight"":23}","false","ArrowDown,ArrowLeft","","","","","","",""
"html-keyboard-response","36","237562","0.0-3.0-6.0-1.3","spark_pilot_norest","9170","2","17","Male","","","","","","","null","<div style=""font-size:60px;"">+</div>","null","fixation","","","","","","","","","","","",""
"learning-instructions","37","255726","0.0-3.0-7.0-0.0","spark_pilot_norest","9170","2","17","Male","","","","","","","1286.6000000238419","<p> Great job. Now let’s try putting it together. </p>
            <p> On each turn, you will first see a picture to remind you of the place you are in, and you need to choose whether to go up or down. </p>
            <p> Then you will see an animal and choose which of its chests to search for treasure. </p>","","instructions","","","","","","","","","","","",""
"learning-instructions","38","264918","0.0-3.0-7.0-0.1","spark_pilot_norest","9170","2","17","Male","","","","","","","887.7999999523163","<p> When you choose whether to go up or down, try to go to the animal with the chest with the most treasure. </p>
            <p> Try practicing that now! </p>","","instructions","","","","","","","","","","","",""
"revaluation","39","270937","0.0-3.0-8.0-0.0","spark_pilot_norest","9170","2","17","Male","","false","","","","","[802.2999999523163,512.5]","./assets/img/space/6.jpg","[""ArrowUp"",""ArrowRight""]","full practice","space","36","{""ArrowUp,ArrowLeft"":3,""ArrowUp,ArrowRight"":36,""ArrowDown,ArrowLeft"":15,""ArrowDown,ArrowRight"":23}","true","ArrowUp,ArrowRight","false","","","","","",""
"html-keyboard-response","40","271439","0.0-3.0-8.0-1.0","spark_pilot_norest","9170","2","17","Male","","","","","","","null","<div style=""font-size:60px;"">+</div>","null","fixation","","","","","","","","","","","",""
"revaluation","41","277464","0.0-3.0-8.0-0.1","spark_pilot_norest","9170","2","17","Male","","false","","","","","[571.1000000238419,344.90000009536743]","./assets/img/space/7.jpg","[""ArrowDown"",""ArrowLeft""]","full practice","space","15","{""ArrowUp,ArrowLeft"":3,""ArrowUp,ArrowRight"":36,""ArrowDown,ArrowLeft"":15,""ArrowDown,ArrowRight"":23}","false","ArrowDown,ArrowLeft","false","","","","","",""
"html-keyboard-response","42","277975","0.0-3.0-8.0-1.1","spark_pilot_norest","9170","2","17","Male","","","","","","","null","<div style=""font-size:60px;"">+</div>","null","fixation","","","","","","","","","","","",""
"revaluation","43","283997","0.0-3.0-8.0-0.2","spark_pilot_norest","9170","2","17","Male","","false","","","","","[451.90000009536743,284.60000002384186]","./assets/img/space/8.jpg","[""ArrowDown"",""ArrowRight""]","full practice","space","23","{""ArrowUp,ArrowLeft"":3,""ArrowUp,ArrowRight"":36,""ArrowDown,ArrowLeft"":15,""ArrowDown,ArrowRight"":23}","false","ArrowDown,ArrowRight","false","","","","","",""
"html-keyboard-response","44","284511","0.0-3.0-8.0-1.2","spark_pilot_norest","9170","2","17","Male","","","","","","","null","<div style=""font-size:60px;"">+</div>","null","fixation","","","","","","","","","","","",""
"revaluation","45","290549","0.0-3.0-8.0-0.3","spark_pilot_norest","9170","2","17","Male","","false","","","","","[367.89999997615814,289.6999999284744]","./assets/img/space/9.jpg","[""ArrowUp"",""ArrowLeft""]","full practice","space","3","{""ArrowUp,ArrowLeft"":3,""ArrowUp,ArrowRight"":36,""ArrowDown,ArrowLeft"":15,""ArrowDown,ArrowRight"":23}","false","ArrowUp,ArrowLeft","false","","","","","",""
"html-keyboard-response","46","291059","0.0-3.0-8.0-1.3","spark_pilot_norest","9170","2","17","Male","","","","","","","null","<div style=""font-size:60px;"">+</div>","null","fixation","","","","","","","","","","","",""
"revaluation","47","297077","0.0-3.0-8.0-0.4","spark_pilot_norest","9170","2","17","Male","","false","","","","","[430.10000002384186,420.7000000476837]","./assets/img/space/10.jpg","[""ArrowUp"",""ArrowRight""]","full practice","space","36","{""ArrowUp,ArrowLeft"":3,""ArrowUp,ArrowRight"":36,""ArrowDown,ArrowLeft"":15,""ArrowDown,ArrowRight"":23}","true","ArrowUp,ArrowRight","false","","","","","",""
"html-keyboard-response","48","297580","0.0-3.0-8.0-1.4","spark_pilot_norest","9170","2","17","Male","","","","","","","null","<div style=""font-size:60px;"">+</div>","null","fixation","","","","","","","","","","","",""
"learning-instructions","49","309685","0.0-3.0-9.0-0.0","spark_pilot_norest","9170","2","17","Male","","","","","","","1315","<p> One last thing: sometimes, you will see a robber. The robber can be anywhere in the picture. </p>
            <p> If you do not stop them, you will lose treasure. </p>
            <img src='./assets/img/instructions/robber.jpg' class='instructions-image'>","","instructions","","","","","","","","","","","",""
"learning-instructions","50","317750","0.0-3.0-9.0-0.1","spark_pilot_norest","9170","2","17","Male","","","","","","","861","<p> If you see the robber, you should <b>press the space bar</b> rather than using the arrow keys. </p>
            <p> Try practicing that now! </p>","","instructions","","","","","","","","","","","",""
"revaluation","51","321772","0.0-3.0-10.0-0.0","spark_pilot_norest","9170","2","17","Male","","false","","","","","[1715]","./assets/img/space/catch/0.jpg","[""spaceBar""]","catch practice","space","0","{""ArrowUp,ArrowLeft"":3,""ArrowUp,ArrowRight"":36,""ArrowDown,ArrowLeft"":15,""ArrowDown,ArrowRight"":23}","true","spaceBar","true","","","","","",""
"html-keyboard-response","52","322283","0.0-3.0-10.0-1.0","spark_pilot_norest","9170","2","17","Male","","","","","","","null","<div style=""font-size:60px;"">+</div>","null","fixation","","","","","","","","","","","",""
"revaluation","53","326300","0.0-3.0-10.0-0.1","spark_pilot_norest","9170","2","17","Male","","false","","","","","[1300.5]","./assets/img/space/catch/1.jpg","[""spaceBar""]","catch practice","space","0","{""ArrowUp,ArrowLeft"":3,""ArrowUp,ArrowRight"":36,""ArrowDown,ArrowLeft"":15,""ArrowDown,ArrowRight"":23}","true","spaceBar","true","","","","","",""
"html-keyboard-response","54","326803","0.0-3.0-10.0-1.1","spark_pilot_norest","9170","2","17","Male","","","","","","","null","<div style=""font-size:60px;"">+</div>","null","fixation","","","","","","","","","","","",""
"revaluation","55","330813","0.0-3.0-10.0-0.2","spark_pilot_norest","9170","2","17","Male","","false","","","","","[626.3999999761581]","./assets/img/space/catch/2.jpg","[""spaceBar""]","catch practice","space","0","{""ArrowUp,ArrowLeft"":3,""ArrowUp,ArrowRight"":36,""ArrowDown,ArrowLeft"":15,""ArrowDown,ArrowRight"":23}","true","spaceBar","true","","","","","",""
"html-keyboard-response","56","331324","0.0-3.0-10.0-1.2","spark_pilot_norest","9170","2","17","Male","","","","","","","null","<div style=""font-size:60px;"">+</div>","null","fixation","","","","","","","","","","","",""
"learning-instructions","57","338085","0.0-3.0-11.0-0.0-0.0","spark_pilot_norest","9170","2","17","Male","","","","","","","1484.2999999523163","<p> Now, you will practice a shortened version of the game to get a sense of how it all fits together. </p>","","instructions","","","","","","","","","","","",""
"learning-instructions","58","343301","0.0-3.0-11.0-0.0-0.1","spark_pilot_norest","9170","2","17","Male","","","","","","","2010.1999999284744","<p>This time you are searching for treasure in outer space.</p>","","instructions","","","","","","","","","","","",""
"learning-instructions","59","359118","0.0-3.0-11.0-1.0-0.0","spark_pilot_norest","9170","2","17","Male","","","","","","","1007.7999999523163","<p> Remember, when you see a picture of the place, use the up and down keys to <b>find an animal</b>.</p>
            <p> When you encounter an animal, you should use the left and right keys to <b>select a treasure chest</b>.</p>
            <p> Don't forget to look out for the robber! </p>","","instructions","","","","","","","","","","","",""
"revaluation","60","365146","0.0-3.0-11.0-2.0-0.0","spark_pilot_norest","9170","2","17","Male","","false","","","","","[946.8000000715256,259.39999997615814]","./assets/img/space/11.jpg","[""ArrowUp"",""ArrowRight""]","practice block","space","36","{""ArrowUp,ArrowLeft"":3,""ArrowUp,ArrowRight"":36,""ArrowDown,ArrowLeft"":15,""ArrowDown,ArrowRight"":23}","true","ArrowUp,ArrowRight","false","","","","","",""
"html-keyboard-response","61","365658","0.0-3.0-11.0-2.0-1.0","spark_pilot_norest","9170","2","17","Male","","","","","","","null","<div style=""font-size:60px;"">+</div>","null","fixation","","","","","","","","","","","",""
"revaluation","62","371704","0.0-3.0-11.0-2.0-0.1","spark_pilot_norest","9170","2","17","Male","","false","","","","","[372.89999997615814,320.39999997615814]","./assets/img/space/12.jpg","[""ArrowUp"",""ArrowLeft""]","practice block","space","3","{""ArrowUp,ArrowLeft"":3,""ArrowUp,ArrowRight"":36,""ArrowDown,ArrowLeft"":15,""ArrowDown,ArrowRight"":23}","false","ArrowUp,ArrowLeft","false","","","","","",""
"html-keyboard-response","63","372217","0.0-3.0-11.0-2.0-1.1","spark_pilot_norest","9170","2","17","Male","","","","","","","null","<div style=""font-size:60px;"">+</div>","null","fixation","","","","","","","","","","","",""
"revaluation","64","378269","0.0-3.0-11.0-2.0-0.2","spark_pilot_norest","9170","2","17","Male","","false","","","","","[541.1000000238419,288.2000000476837]","./assets/img/space/13.jpg","[""ArrowUp"",""ArrowRight""]","practice block","space","36","{""ArrowUp,ArrowLeft"":3,""ArrowUp,ArrowRight"":36,""ArrowDown,ArrowLeft"":15,""ArrowDown,ArrowRight"":23}","true","ArrowUp,ArrowRight","false","","","","","",""
"html-keyboard-response","65","378780","0.0-3.0-11.0-2.0-1.2","spark_pilot_norest","9170","2","17","Male","","","","","","","null","<div style=""font-size:60px;"">+</div>","null","fixation","","","","","","","","","","","",""
"revaluation","66","384816","0.0-3.0-11.0-2.0-0.3","spark_pilot_norest","9170","2","17","Male","","false","","","","","[502.59999990463257,484.60000002384186]","./assets/img/space/14.jpg","[""ArrowUp"",""ArrowRight""]","practice block","space","36","{""ArrowUp,ArrowLeft"":3,""ArrowUp,ArrowRight"":36,""ArrowDown,ArrowLeft"":15,""ArrowDown,ArrowRight"":23}","true","ArrowUp,ArrowRight","false","","","","","",""
"html-keyboard-response","67","385328","0.0-3.0-11.0-2.0-1.3","spark_pilot_norest","9170","2","17","Male","","","","","","","null","<div style=""font-size:60px;"">+</div>","null","fixation","","","","","","","","","","","",""
"revaluation","68","391344","0.0-3.0-11.0-2.0-0.4","spark_pilot_norest","9170","2","17","Male","","false","","","","","[677.6999999284744,424.10000002384186]","./assets/img/space/11.jpg","[""ArrowDown"",""ArrowRight""]","practice block","space","23","{""ArrowUp,ArrowLeft"":3,""ArrowUp,ArrowRight"":36,""ArrowDown,ArrowLeft"":15,""ArrowDown,ArrowRight"":23}","false","ArrowDown,ArrowRight","false","","","","","",""
"html-keyboard-response","69","391847","0.0-3.0-11.0-2.0-1.4","spark_pilot_norest","9170","2","17","Male","","","","","","","null","<div style=""font-size:60px;"">+</div>","null","fixation","","","","","","","","","","","",""
"revaluation","70","397857","0.0-3.0-11.0-2.0-0.5","spark_pilot_norest","9170","2","17","Male","","false","","","","","[638,270]","./assets/img/space/12.jpg","[""ArrowUp"",""ArrowRight""]","practice block","space","36","{""ArrowUp,ArrowLeft"":3,""ArrowUp,ArrowRight"":36,""ArrowDown,ArrowLeft"":15,""ArrowDown,ArrowRight"":23}","true","ArrowUp,ArrowRight","false","","","","","",""
"html-keyboard-response","71","398361","0.0-3.0-11.0-2.0-1.5","spark_pilot_norest","9170","2","17","Male","","","","","","","null","<div style=""font-size:60px;"">+</div>","null","fixation","","","","","","","","","","","",""
"revaluation","72","404373","0.0-3.0-11.0-2.0-0.6","spark_pilot_norest","9170","2","17","Male","","false","","","","","[402.3000000715256,251.89999997615814]","./assets/img/space/13.jpg","[""ArrowDown"",""ArrowRight""]","practice block","space","23","{""ArrowUp,ArrowLeft"":3,""ArrowUp,ArrowRight"":36,""ArrowDown,ArrowLeft"":15,""ArrowDown,ArrowRight"":23}","false","ArrowDown,ArrowRight","false","","","","","",""
"html-keyboard-response","73","404875","0.0-3.0-11.0-2.0-1.6","spark_pilot_norest","9170","2","17","Male","","","","","","","null","<div style=""font-size:60px;"">+</div>","null","fixation","","","","","","","","","","","",""
"revaluation","74","410887","0.0-3.0-11.0-2.0-0.7","spark_pilot_norest","9170","2","17","Male","","false","","","","","[665.2000000476837,93.60000002384186]","./assets/img/space/14.jpg","[""ArrowUp"",""ArrowRight""]","practice block","space","36","{""ArrowUp,ArrowLeft"":3,""ArrowUp,ArrowRight"":36,""ArrowDown,ArrowLeft"":15,""ArrowDown,ArrowRight"":23}","true","ArrowUp,ArrowRight","false","","","","","",""
"html-keyboard-response","75","411389","0.0-3.0-11.0-2.0-1.7","spark_pilot_norest","9170","2","17","Male","","","","","","","null","<div style=""font-size:60px;"">+</div>","null","fixation","","","","","","","","","","","",""
"revaluation","76","415397","0.0-3.0-11.0-2.0-0.8","spark_pilot_norest","9170","2","17","Male","","false","","","","","[1036.3999999761581]","./assets/img/space/catch/3.jpg","[""spaceBar""]","practice block","space","0","{""ArrowUp,ArrowLeft"":3,""ArrowUp,ArrowRight"":36,""ArrowDown,ArrowLeft"":15,""ArrowDown,ArrowRight"":23}","true","spaceBar","true","","","","","",""
"html-keyboard-response","77","415899","0.0-3.0-11.0-2.0-1.8","spark_pilot_norest","9170","2","17","Male","","","","","","","null","<div style=""font-size:60px;"">+</div>","null","fixation","","","","","","","","","","","",""
"learning-instructions","78","430237","0.0-3.0-11.0-3.0-0.0","spark_pilot_norest","9170","2","17","Male","","","","","","","1007.5","<p> Now, you will travel with a friend who will choose whether you go up or down first. </p>
            <p> On these turns, you will just see the animal that they found. You will still get to choose which chest to search for treasure.</p>","","instructions","","","","","","","","","","","",""
"revaluation","79","434257","0.0-3.0-11.0-4.0-0.0","spark_pilot_norest","9170","2","17","Male","","false","","","","","[785]","./assets/img/space/animals/rabbit.jpg","[""ArrowRight""]","practice block","space","23","{""ArrowUp,ArrowLeft"":3,""ArrowUp,ArrowRight"":36,""ArrowDown,ArrowLeft"":15,""ArrowDown,ArrowRight"":23}","true","ArrowDown,ArrowRight","","","","","","",""
"html-keyboard-response","80","434759","0.0-3.0-11.0-4.0-1.0","spark_pilot_norest","9170","2","17","Male","","","","","","","null","<div style=""font-size:60px;"">+</div>","null","fixation","","","","","","","","","","","",""
"revaluation","81","438772","0.0-3.0-11.0-4.0-0.1","spark_pilot_norest","9170","2","17","Male","","false","","","","","[400.60000002384186]","./assets/img/space/animals/rabbit.jpg","[""ArrowRight""]","practice block","space","23","{""ArrowUp,ArrowLeft"":3,""ArrowUp,ArrowRight"":36,""ArrowDown,ArrowLeft"":15,""ArrowDown,ArrowRight"":23}","true","ArrowDown,ArrowRight","","","","","","",""
"html-keyboard-response","82","439274","0.0-3.0-11.0-4.0-1.1","spark_pilot_norest","9170","2","17","Male","","","","","","","null","<div style=""font-size:60px;"">+</div>","null","fixation","","","","","","","","","","","",""
"revaluation","83","443295","0.0-3.0-11.0-4.0-0.2","spark_pilot_norest","9170","2","17","Male","","false","","","","","[426]","./assets/img/space/animals/cat.jpg","[""ArrowRight""]","practice block","space","36","{""ArrowUp,ArrowLeft"":3,""ArrowUp,ArrowRight"":36,""ArrowDown,ArrowLeft"":15,""ArrowDown,ArrowRight"":23}","true","ArrowUp,ArrowRight","","","","","","",""
"html-keyboard-response","84","443806","0.0-3.0-11.0-4.0-1.2","spark_pilot_norest","9170","2","17","Male","","","","","","","null","<div style=""font-size:60px;"">+</div>","null","fixation","","","","","","","","","","","",""
"revaluation","85","447829","0.0-3.0-11.0-4.0-0.3","spark_pilot_norest","9170","2","17","Male","","false","","","","","[344.7000000476837]","./assets/img/space/animals/cat.jpg","[""ArrowRight""]","practice block","space","36","{""ArrowUp,ArrowLeft"":3,""ArrowUp,ArrowRight"":36,""ArrowDown,ArrowLeft"":15,""ArrowDown,ArrowRight"":23}","true","ArrowUp,ArrowRight","","","","","","",""
"html-keyboard-response","86","448339","0.0-3.0-11.0-4.0-1.3","spark_pilot_norest","9170","2","17","Male","","","","","","","null","<div style=""font-size:60px;"">+</div>","null","fixation","","","","","","","","","","","",""
"learning-instructions","87","456481","0.0-3.0-11.0-5.0-0.0","spark_pilot_norest","9170","2","17","Male","","","","","","","null","<p> You have almost finished this part of the game! </p>
            <p> We are going to ask you to make a few more choices. </p>","","instructions","","","","","","","","","","","",""
"learning-instructions","88","472521","0.0-3.0-11.0-5.0-0.1","spark_pilot_norest","9170","2","17","Male","","","","","","","null","<p> First, you need to decide whether to go up or down. When you see each picture, use the arrow keys to make your choice. </p>
            <p><b>You will not see which animal you found, but try to get to the one that will give you the most treasure.</b></p>","","instructions","","","","","","","","","","","",""
"html-keyboard-response","89","473523","0.0-3.0-11.0-6.0-0.0","spark_pilot_norest","9170","2","17","Male","","","","","","","null","<div style=""font-size:100px;color:red;"">Starting in...</div>","null","","","","","","","","","","","","",""
"html-keyboard-response","90","474526","0.0-3.0-11.0-6.0-1.0","spark_pilot_norest","9170","2","17","Male","","","","","","","null","<div style=""font-size:200px;color:red;"">3</div>","null","","","","","","","","","","","","",""
"html-keyboard-response","91","475529","0.0-3.0-11.0-6.0-2.0","spark_pilot_norest","9170","2","17","Male","","","","","","","null","<div style=""font-size:200px;color:red;"">2</div>","null","","","","","","","","","","","","",""
"html-keyboard-response","92","476531","0.0-3.0-11.0-6.0-3.0","spark_pilot_norest","9170","2","17","Male","","","","","","","null","<div style=""font-size:200px;color:red;"">1</div>","null","","","","","","","","","","","","",""
"revaluation","93","477040","0.0-3.0-11.0-7.0","spark_pilot_norest","9170","2","17","Male","","false","","","","","[502.2999999523163]","./assets/img/space/15.jpg","[""ArrowUp""]","practice block","space","0","{""ArrowUp,ArrowLeft"":3,""ArrowUp,ArrowRight"":36,""ArrowDown,ArrowLeft"":15,""ArrowDown,ArrowRight"":23}","true","ArrowUp","false","","","","","",""
"html-keyboard-response","94","477556","0.0-3.0-11.0-8.0","spark_pilot_norest","9170","2","17","Male","","","","","","","null","<div style=""font-size:60px;"">+</div>","null","fixation","","","","","","","","","","","",""
"learning-instructions","95","490971","0.0-3.0-11.0-9.0-0.0","spark_pilot_norest","9170","2","17","Male","","","","","","","null","<p> Now you will see the animals again and can search their chests for treasure. </p>
            <p> This time, you will not see how much treasure you earned, but you will earn more bonus money for making better choices. </p>","","instructions","","","","","","","","","","","",""
"html-keyboard-response","96","491974","0.0-3.0-11.0-10.0-0.0","spark_pilot_norest","9170","2","17","Male","","","","","","","null","<div style=""font-size:100px;color:red;"">Starting in...</div>","null","","","","","","","","","","","","",""
"html-keyboard-response","97","492976","0.0-3.0-11.0-10.0-1.0","spark_pilot_norest","9170","2","17","Male","","","","","","","null","<div style=""font-size:200px;color:red;"">3</div>","null","","","","","","","","","","","","",""
"html-keyboard-response","98","493978","0.0-3.0-11.0-10.0-2.0","spark_pilot_norest","9170","2","17","Male","","","","","","","null","<div style=""font-size:200px;color:red;"">2</div>","null","","","","","","","","","","","","",""
"html-keyboard-response","99","494981","0.0-3.0-11.0-10.0-3.0","spark_pilot_norest","9170","2","17","Male","","","","","","","null","<div style=""font-size:200px;color:red;"">1</div>","null","","","","","","","","","","","","",""
"revaluation","100","495300","0.0-3.0-11.0-11.0-0.0","spark_pilot_norest","9170","2","17","Male","","false","","","","","[314.5]","./assets/img/space/animals/cat.jpg","[""ArrowRight""]","practice block","space","0","{""ArrowUp,ArrowLeft"":3,""ArrowUp,ArrowRight"":36,""ArrowDown,ArrowLeft"":15,""ArrowDown,ArrowRight"":23}","true","ArrowUp,ArrowRight","","","","","","",""
"html-keyboard-response","101","495814","0.0-3.0-11.0-11.0-1.0","spark_pilot_norest","9170","2","17","Male","","","","","","","null","<div style=""font-size:60px;"">+</div>","null","fixation","","","","","","","","","","","",""
"revaluation","102","496483","0.0-3.0-11.0-11.0-0.1","spark_pilot_norest","9170","2","17","Male","","false","","","","","[662]","./assets/img/space/animals/rabbit.jpg","[""ArrowRight""]","practice block","space","0","{""ArrowUp,ArrowLeft"":3,""ArrowUp,ArrowRight"":36,""ArrowDown,ArrowLeft"":15,""ArrowDown,ArrowRight"":23}","true","ArrowDown,ArrowRight","","","","","","",""
"html-keyboard-response","103","496995","0.0-3.0-11.0-11.0-1.1","spark_pilot_norest","9170","2","17","Male","","","","","","","null","<div style=""font-size:60px;"">+</div>","null","fixation","","","","","","","","","","","",""
"learning-instructions","104","503007","0.0-3.0-12.0-0.0","spark_pilot_norest","9170","2","17","Male","","","","","","","1416.7000000476837","<p> Before you start, we're going to ask you a few questions about how the game works. </p>","","instructions","","","","","","","","","","","",""
"comp-q","105","509918","0.0-3.0-13.0-0.0-0.0","spark_pilot_norest","9170","2","17","Male","","","","","","","1290","<p> <b> True or False? </b> </p>
            <p> There can be 50 pieces of treasure in a given animal's chest. </p>","0","comp_question","","","","false","","","","","","","",""
"comp-q","106","518366","0.0-3.0-13.0-0.0-1.0","spark_pilot_norest","9170","2","17","Male","","","","","","","1884.5","<p> <b>Incorrect.</b> The amount of treasure in each chest can range from 0 to 40 pieces. </p>","0","comp_answer","","","","","","","","","","","",""
"comp-q","107","524861","0.0-3.0-13.0-0.1-0.1","spark_pilot_norest","9170","2","17","Male","","","","","","","929.7999999523163","<p> <b> True or False? </b> </p>
            <p> There can be 50 pieces of treasure in a given animal's chest. </p>","1","comp_question","","","","true","","","","","","","",""
"comp-q","108","533069","0.0-3.0-13.0-0.1-1.1","spark_pilot_norest","9170","2","17","Male","","","","","","","1529.7999999523163","<p> <b> That's right! </b> The amount of treasure in each chest can range from 0 to 40 pieces. </p>","0","comp_answer","","","","","","","","","","","",""
"comp-q","109","541582","0.0-3.0-13.0-0.2-0.2","spark_pilot_norest","9170","2","17","Male","","","","","","","1370.2999999523163","<p> <b> True or False? </b> </p><p> In this game, all animals have the same amount of treasure in their left and right chests. </p>","1","comp_question","","","","true","","","","","","","",""
"comp-q","110","548533","0.0-3.0-13.0-0.2-1.2","spark_pilot_norest","9170","2","17","Male","","","","","","","1692.7000000476837","<p> <b> That's right! </b> Animals have different amounts of treasure in their treasure chests. </p>","0","comp_answer","","","","","","","","","","","",""
"comp-q","111","563949","0.0-3.0-13.0-0.3-0.3","spark_pilot_norest","9170","2","17","Male","","","","","","","9538.100000023842","<p> <b> True or False? </b> </p><p> The same animal will always be there if you go up in the same place. </p>","0","comp_question","","","","true","","","","","","","",""
"comp-q","112","571925","0.0-3.0-13.0-0.3-1.3","spark_pilot_norest","9170","2","17","Male","","","","","","","1504.1999999284744","<p> <b> That's right! </b> One animal lives in the upper part and one lives in the lower part of every place. </p>","0","comp_answer","","","","","","","","","","","",""
"comp-q","113","578237","0.0-3.0-13.0-0.4-0.4","spark_pilot_norest","9170","2","17","Male","","","","","","","755.8000000715256","<p> <b> True or False? </b> </p><p> If you see a different picture, it means you are in a new place. </p>","1","comp_question","","","","true","","","","","","","",""
"comp-q","114","590797","0.0-3.0-13.0-0.4-1.4","spark_pilot_norest","9170","2","17","Male","","","","","","","1295.6000000238419","<p> <b> That's right! </b> Lots of different images may show the same place. For example,  you may see three different images that all remind you that you are in outer space. </p>","0","comp_answer","","","","","","","","","","","",""
"learning-instructions","115","602077","0.0-3.0-14.0-0.0","spark_pilot_norest","9170","2","17","Male","","","","","","","1387.1000000238419","<p> Good job. Remember to do your best because the amount of treasure you earn will be converted into bonus money. </p>
            <p> It’s time to start the real game! </p>","","instructions","","","","","","","","","","","",""
"learning-instructions","116","606933","0.0-4.0-0.0-0.0","spark_pilot_norest","9170","2","17","Male","","","","","","","2132.7000000476837","<p> This time you are searching for treasure in the <b>ocean</b>.</p>","","instructions","","","","","","","","","","","",""
"learning-instructions","117","625181","0.0-4.0-0.0-0.1","spark_pilot_norest","9170","2","17","Male","","","","","","","901.8999999761581","<p><b>New</b> animals with <b>new</b> treasure chests live here. You need to explore to discover where the animal with the best treasure chest is.</p>
                    <p> Like before, once you figure out which animal has the chest with the most treasure, you should try to get to that animal and select that chest! </p>","","instructions","","","","","","","","","","","",""
"learning-instructions","118","640948","0.0-4.0-1.0-0.0","spark_pilot_norest","9170","2","17","Male","","","","","","","1028.6999999284744","<p> Remember, when you see a picture of the place, use the up and down keys to <b>find an animal</b>.</p>
            <p> When you encounter an animal, you should use the left and right keys to <b>select a treasure chest</b>.</p>
            <p> Don't forget to look out for the robber! </p>","","instructions","","","","","","","","","","","",""
"revaluation","119","646967","0.0-4.0-2.0-0.0","spark_pilot_norest","9170","2","17","Male","","false","","","","","[639.2000000476837,466.40000009536743]","./assets/img/ocean/memory/39.jpg","[""ArrowUp"",""ArrowRight""]","value training","ocean","10","{""ArrowUp,ArrowLeft"":23,""ArrowUp,ArrowRight"":10,""ArrowDown,ArrowLeft"":8,""ArrowDown,ArrowRight"":30}","false","ArrowUp,ArrowRight","false","revaluation","1","0","","",""
"html-keyboard-response","120","647480","0.0-4.0-2.0-1.0","spark_pilot_norest","9170","2","17","Male","","","","","","","null","<div style=""font-size:60px;"">+</div>","null","fixation","","","","","","","","","1","","",""
"revaluation","121","653497","0.0-4.0-2.0-0.1","spark_pilot_norest","9170","2","17","Male","","false","","","","","[581.1999999284744,319]","./assets/img/ocean/memory/31.jpg","[""ArrowDown"",""ArrowLeft""]","value training","ocean","8","{""ArrowUp,ArrowLeft"":23,""ArrowUp,ArrowRight"":10,""ArrowDown,ArrowLeft"":8,""ArrowDown,ArrowRight"":30}","false","ArrowDown,ArrowLeft","false","revaluation","1","2","","",""
"html-keyboard-response","122","654009","0.0-4.0-2.0-1.1","spark_pilot_norest","9170","2","17","Male","","","","","","","null","<div style=""font-size:60px;"">+</div>","null","fixation","","","","","","","","","3","","",""
"revaluation","123","658024","0.0-4.0-2.0-0.2","spark_pilot_norest","9170","2","17","Male","","false","","","","","[359.2999999523163]","./assets/img/ocean/catch/7.jpg","[""ArrowUp""]","value training","ocean","-10","{""ArrowUp,ArrowLeft"":23,""ArrowUp,ArrowRight"":10,""ArrowDown,ArrowLeft"":8,""ArrowDown,ArrowRight"":30}","false","ArrowUp","true","revaluation","1","4","","",""
"html-keyboard-response","124","658527","0.0-4.0-2.0-1.2","spark_pilot_norest","9170","2","17","Male","","","","","","","null","<div style=""font-size:60px;"">+</div>","null","fixation","","","","","","","","","5","","",""
"revaluation","125","664546","0.0-4.0-2.0-0.3","spark_pilot_norest","9170","2","17","Male","","false","","","","","[862,590]","./assets/img/ocean/memory/3.jpg","[""ArrowUp"",""ArrowRight""]","value training","ocean","10","{""ArrowUp,ArrowLeft"":23,""ArrowUp,ArrowRight"":10,""ArrowDown,ArrowLeft"":8,""ArrowDown,ArrowRight"":30}","false","ArrowUp,ArrowRight","false","revaluation","1","6","","",""
"html-keyboard-response","126","665052","0.0-4.0-2.0-1.3","spark_pilot_norest","9170","2","17","Male","","","","","","","null","<div style=""font-size:60px;"">+</div>","null","fixation","","","","","","","","","7","","",""
"revaluation","127","671080","0.0-4.0-2.0-0.4","spark_pilot_norest","9170","2","17","Male","","false","","","","","[1173.5999999046326,650.7000000476837]","./assets/img/ocean/memory/24.jpg","[""ArrowUp"",""ArrowRight""]","value training","ocean","10","{""ArrowUp,ArrowLeft"":23,""ArrowUp,ArrowRight"":10,""ArrowDown,ArrowLeft"":8,""ArrowDown,ArrowRight"":30}","false","ArrowUp,ArrowRight","false","revaluation","1","8","","",""
"html-keyboard-response","128","671582","0.0-4.0-2.0-1.4","spark_pilot_norest","9170","2","17","Male","","","","","","","null","<div style=""font-size:60px;"">+</div>","null","fixation","","","","","","","","","9","","",""
"revaluation","129","677593","0.0-4.0-2.0-0.5","spark_pilot_norest","9170","2","17","Male","","false","","","","","[957.8999999761581,656.8000000715256]","./assets/img/ocean/memory/41.jpg","[""ArrowDown"",""ArrowRight""]","value training","ocean","30","{""ArrowUp,ArrowLeft"":23,""ArrowUp,ArrowRight"":10,""ArrowDown,ArrowLeft"":8,""ArrowDown,ArrowRight"":30}","true","ArrowDown,ArrowRight","false","revaluation","1","10","","",""
"html-keyboard-response","130","678095","0.0-4.0-2.0-1.5","spark_pilot_norest","9170","2","17","Male","","","","","","","null","<div style=""font-size:60px;"">+</div>","null","fixation","","","","","","","","","11","","",""
"revaluation","131","684106","0.0-4.0-2.0-0.6","spark_pilot_norest","9170","2","17","Male","","false","","","","","[893.1000000238419,368.5]","./assets/img/ocean/memory/16.jpg","[""ArrowDown"",""ArrowRight""]","value training","ocean","30","{""ArrowUp,ArrowLeft"":23,""ArrowUp,ArrowRight"":10,""ArrowDown,ArrowLeft"":8,""ArrowDown,ArrowRight"":30}","true","ArrowDown,ArrowRight","false","revaluation","1","12","","",""
"html-keyboard-response","132","684609","0.0-4.0-2.0-1.6","spark_pilot_norest","9170","2","17","Male","","","","","","","null","<div style=""font-size:60px;"">+</div>","null","fixation","","","","","","","","","13","","",""
"revaluation","133","690618","0.0-4.0-2.0-0.7","spark_pilot_norest","9170","2","17","Male","","false","","","","","[1204,398.6999999284744]","./assets/img/ocean/memory/21.jpg","[""ArrowDown"",""ArrowRight""]","value training","ocean","30","{""ArrowUp,ArrowLeft"":23,""ArrowUp,ArrowRight"":10,""ArrowDown,ArrowLeft"":8,""ArrowDown,ArrowRight"":30}","true","ArrowDown,ArrowRight","false","revaluation","1","14","","",""
"html-keyboard-response","134","691121","0.0-4.0-2.0-1.7","spark_pilot_norest","9170","2","17","Male","","","","","","","null","<div style=""font-size:60px;"">+</div>","null","fixation","","","","","","","","","15","","",""
"revaluation","135","695128","0.0-4.0-2.0-0.8","spark_pilot_norest","9170","2","17","Male","","true","","","","","[]","./assets/img/ocean/memory/16.jpg","[]","value training","ocean","-5","{""ArrowUp,ArrowLeft"":23,""ArrowUp,ArrowRight"":10,""ArrowDown,ArrowLeft"":8,""ArrowDown,ArrowRight"":30}","false","","false","revaluation","1","16","","",""
"html-keyboard-response","136","695629","0.0-4.0-2.0-1.8","spark_pilot_norest","9170","2","17","Male","","","","","","","null","<div style=""font-size:60px;"">+</div>","null","fixation","","","","","","","","","17","","",""
"revaluation","137","699635","0.0-4.0-2.0-0.9","spark_pilot_norest","9170","2","17","Male","","true","","","","","[]","./assets/img/ocean/memory/35.jpg","[]","value training","ocean","-5","{""ArrowUp,ArrowLeft"":23,""ArrowUp,ArrowRight"":10,""ArrowDown,ArrowLeft"":8,""ArrowDown,ArrowRight"":30}","false","","false","revaluation","1","18","","",""
"html-keyboard-response","138","700139","0.0-4.0-2.0-1.9","spark_pilot_norest","9170","2","17","Male","","","","","","","null","<div style=""font-size:60px;"">+</div>","null","fixation","","","","","","","","","19","","",""
"revaluation","139","706149","0.0-4.0-2.0-0.10","spark_pilot_norest","9170","2","17","Male","","false","","","","","[655.5,481.59999990463257]","./assets/img/ocean/memory/4.jpg","[""ArrowDown"",""ArrowRight""]","value training","ocean","30","{""ArrowUp,ArrowLeft"":23,""ArrowUp,ArrowRight"":10,""ArrowDown,ArrowLeft"":8,""ArrowDown,ArrowRight"":30}","true","ArrowDown,ArrowRight","false","revaluation","1","20","","",""
"html-keyboard-response","140","706651","0.0-4.0-2.0-1.10","spark_pilot_norest","9170","2","17","Male","","","","","","","null","<div style=""font-size:60px;"">+</div>","null","fixation","","","","","","","","","21","","",""
"revaluation","141","712662","0.0-4.0-2.0-0.11","spark_pilot_norest","9170","2","17","Male","","false","","","","","[343.6999999284744,407.10000002384186]","./assets/img/ocean/memory/30.jpg","[""ArrowDown"",""ArrowRight""]","value training","ocean","30","{""ArrowUp,ArrowLeft"":23,""ArrowUp,ArrowRight"":10,""ArrowDown,ArrowLeft"":8,""ArrowDown,ArrowRight"":30}","true","ArrowDown,ArrowRight","false","revaluation","1","22","","",""
"html-keyboard-response","142","713165","0.0-4.0-2.0-1.11","spark_pilot_norest","9170","2","17","Male","","","","","","","null","<div style=""font-size:60px;"">+</div>","null","fixation","","","","","","","","","23","","",""
"revaluation","143","717175","0.0-4.0-2.0-0.12","spark_pilot_norest","9170","2","17","Male","","false","","","","","[632.1000000238419]","./assets/img/ocean/catch/2.jpg","[""spaceBar""]","value training","ocean","0","{""ArrowUp,ArrowLeft"":23,""ArrowUp,ArrowRight"":10,""ArrowDown,ArrowLeft"":8,""ArrowDown,ArrowRight"":30}","true","spaceBar","true","revaluation","1","24","","",""
"html-keyboard-response","144","717677","0.0-4.0-2.0-1.12","spark_pilot_norest","9170","2","17","Male","","","","","","","null","<div style=""font-size:60px;"">+</div>","null","fixation","","","","","","","","","25","","",""
"revaluation","145","723688","0.0-4.0-2.0-0.13","spark_pilot_norest","9170","2","17","Male","","false","","","","","[1670.8999999761581,647.6999999284744]","./assets/img/ocean/memory/35.jpg","[""ArrowDown"",""ArrowRight""]","value training","ocean","30","{""ArrowUp,ArrowLeft"":23,""ArrowUp,ArrowRight"":10,""ArrowDown,ArrowLeft"":8,""ArrowDown,ArrowRight"":30}","true","ArrowDown,ArrowRight","false","revaluation","1","26","","",""
"html-keyboard-response","146","724191","0.0-4.0-2.0-1.13","spark_pilot_norest","9170","2","17","Male","","","","","","","null","<div style=""font-size:60px;"">+</div>","null","fixation","","","","","","","","","27","","",""
"revaluation","147","730201","0.0-4.0-2.0-0.14","spark_pilot_norest","9170","2","17","Male","","false","","","","","[531.3999999761581,398.59999990463257]","./assets/img/ocean/memory/32.jpg","[""ArrowDown"",""ArrowRight""]","value training","ocean","30","{""ArrowUp,ArrowLeft"":23,""ArrowUp,ArrowRight"":10,""ArrowDown,ArrowLeft"":8,""ArrowDown,ArrowRight"":30}","true","ArrowDown,ArrowRight","false","revaluation","1","28","","",""
"html-keyboard-response","148","730704","0.0-4.0-2.0-1.14","spark_pilot_norest","9170","2","17","Male","","","","","","","null","<div style=""font-size:60px;"">+</div>","null","fixation","","","","","","","","","29","","",""
"revaluation","149","734714","0.0-4.0-2.0-0.15","spark_pilot_norest","9170","2","17","Male","","false","","","","","[877.2999999523163]","./assets/img/ocean/catch/0.jpg","[""spaceBar""]","value training","ocean","0","{""ArrowUp,ArrowLeft"":23,""ArrowUp,ArrowRight"":10,""ArrowDown,ArrowLeft"":8,""ArrowDown,ArrowRight"":30}","true","spaceBar","true","revaluation","1","30","","",""
"html-keyboard-response","150","735216","0.0-4.0-2.0-1.15","spark_pilot_norest","9170","2","17","Male","","","","","","","null","<div style=""font-size:60px;"">+</div>","null","fixation","","","","","","","","","31","","",""
"revaluation","151","741228","0.0-4.0-2.0-0.16","spark_pilot_norest","9170","2","17","Male","","false","","","","","[389.5,366.2999999523163]","./assets/img/ocean/memory/1.jpg","[""ArrowDown"",""ArrowRight""]","value training","ocean","30","{""ArrowUp,ArrowLeft"":23,""ArrowUp,ArrowRight"":10,""ArrowDown,ArrowLeft"":8,""ArrowDown,ArrowRight"":30}","true","ArrowDown,ArrowRight","false","revaluation","1","32","","",""
"html-keyboard-response","152","741730","0.0-4.0-2.0-1.16","spark_pilot_norest","9170","2","17","Male","","","","","","","null","<div style=""font-size:60px;"">+</div>","null","fixation","","","","","","","","","33","","",""
"revaluation","153","747741","0.0-4.0-2.0-0.17","spark_pilot_norest","9170","2","17","Male","","false","","","","","[648.1000000238419,660.2999999523163]","./assets/img/ocean/memory/6.jpg","[""ArrowDown"",""ArrowRight""]","value training","ocean","30","{""ArrowUp,ArrowLeft"":23,""ArrowUp,ArrowRight"":10,""ArrowDown,ArrowLeft"":8,""ArrowDown,ArrowRight"":30}","true","ArrowDown,ArrowRight","false","revaluation","1","34","","",""
"html-keyboard-response","154","748244","0.0-4.0-2.0-1.17","spark_pilot_norest","9170","2","17","Male","","","","","","","null","<div style=""font-size:60px;"">+</div>","null","fixation","","","","","","","","","35","","",""
"revaluation","155","754265","0.0-4.0-2.0-0.18","spark_pilot_norest","9170","2","17","Male","","false","","","","","[413.2000000476837,353.7000000476837]","./assets/img/ocean/memory/41.jpg","[""ArrowDown"",""ArrowRight""]","value training","ocean","30","{""ArrowUp,ArrowLeft"":23,""ArrowUp,ArrowRight"":10,""ArrowDown,ArrowLeft"":8,""ArrowDown,ArrowRight"":30}","true","ArrowDown,ArrowRight","false","revaluation","1","36","","",""
"html-keyboard-response","156","754767","0.0-4.0-2.0-1.18","spark_pilot_norest","9170","2","17","Male","","","","","","","null","<div style=""font-size:60px;"">+</div>","null","fixation","","","","","","","","","37","","",""
"revaluation","157","760778","0.0-4.0-2.0-0.19","spark_pilot_norest","9170","2","17","Male","","false","","","","","[552.4000000953674,346.60000002384186]","./assets/img/ocean/memory/31.jpg","[""ArrowDown"",""ArrowRight""]","value training","ocean","30","{""ArrowUp,ArrowLeft"":23,""ArrowUp,ArrowRight"":10,""ArrowDown,ArrowLeft"":8,""ArrowDown,ArrowRight"":30}","true","ArrowDown,ArrowRight","false","revaluation","1","38","","",""
"html-keyboard-response","158","761280","0.0-4.0-2.0-1.19","spark_pilot_norest","9170","2","17","Male","","","","","","","null","<div style=""font-size:60px;"">+</div>","null","fixation","","","","","","","","","39","","",""
"revaluation","159","767295","0.0-4.0-2.0-0.20","spark_pilot_norest","9170","2","17","Male","","false","","","","","[728.7999999523163,443.10000002384186]","./assets/img/ocean/memory/4.jpg","[""ArrowDown"",""ArrowRight""]","value training","ocean","30","{""ArrowUp,ArrowLeft"":23,""ArrowUp,ArrowRight"":10,""ArrowDown,ArrowLeft"":8,""ArrowDown,ArrowRight"":30}","true","ArrowDown,ArrowRight","false","revaluation","1","40","","",""
"html-keyboard-response","160","767797","0.0-4.0-2.0-1.20","spark_pilot_norest","9170","2","17","Male","","","","","","","null","<div style=""font-size:60px;"">+</div>","null","fixation","","","","","","","","","41","","",""
"revaluation","161","773827","0.0-4.0-2.0-0.21","spark_pilot_norest","9170","2","17","Male","","false","","","","","[515.3999999761581,482]","./assets/img/ocean/memory/21.jpg","[""ArrowDown"",""ArrowRight""]","value training","ocean","30","{""ArrowUp,ArrowLeft"":23,""ArrowUp,ArrowRight"":10,""ArrowDown,ArrowLeft"":8,""ArrowDown,ArrowRight"":30}","true","ArrowDown,ArrowRight","false","revaluation","1","42","","",""
"html-keyboard-response","162","774330","0.0-4.0-2.0-1.21","spark_pilot_norest","9170","2","17","Male","","","","","","","null","<div style=""font-size:60px;"">+</div>","null","fixation","","","","","","","","","43","","",""
"revaluation","163","780341","0.0-4.0-2.0-0.22","spark_pilot_norest","9170","2","17","Male","","false","","","","","[610.1999999284744,707.8999999761581]","./assets/img/ocean/memory/15.jpg","[""ArrowDown"",""ArrowRight""]","value training","ocean","30","{""ArrowUp,ArrowLeft"":23,""ArrowUp,ArrowRight"":10,""ArrowDown,ArrowLeft"":8,""ArrowDown,ArrowRight"":30}","true","ArrowDown,ArrowRight","false","revaluation","1","44","","",""
"html-keyboard-response","164","780843","0.0-4.0-2.0-1.22","spark_pilot_norest","9170","2","17","Male","","","","","","","null","<div style=""font-size:60px;"">+</div>","null","fixation","","","","","","","","","45","","",""
"revaluation","165","786854","0.0-4.0-2.0-0.23","spark_pilot_norest","9170","2","17","Male","","false","","","","","[613.3000000715256,328.89999997615814]","./assets/img/ocean/memory/25.jpg","[""ArrowDown"",""ArrowRight""]","value training","ocean","30","{""ArrowUp,ArrowLeft"":23,""ArrowUp,ArrowRight"":10,""ArrowDown,ArrowLeft"":8,""ArrowDown,ArrowRight"":30}","true","ArrowDown,ArrowRight","false","revaluation","1","46","","",""
"html-keyboard-response","166","787357","0.0-4.0-2.0-1.23","spark_pilot_norest","9170","2","17","Male","","","","","","","null","<div style=""font-size:60px;"">+</div>","null","fixation","","","","","","","","","47","","",""
"revaluation","167","793369","0.0-4.0-2.0-0.24","spark_pilot_norest","9170","2","17","Male","","false","","","","","[570.8000000715256,334.2000000476837]","./assets/img/ocean/memory/25.jpg","[""ArrowDown"",""ArrowRight""]","value training","ocean","30","{""ArrowUp,ArrowLeft"":23,""ArrowUp,ArrowRight"":10,""ArrowDown,ArrowLeft"":8,""ArrowDown,ArrowRight"":30}","true","ArrowDown,ArrowRight","false","revaluation","1","48","","",""
"html-keyboard-response","168","793871","0.0-4.0-2.0-1.24","spark_pilot_norest","9170","2","17","Male","","","","","","","null","<div style=""font-size:60px;"">+</div>","null","fixation","","","","","","","","","49","","",""
"revaluation","169","797881","0.0-4.0-2.0-0.25","spark_pilot_norest","9170","2","17","Male","","false","","","","","[871.7999999523163]","./assets/img/ocean/catch/6.jpg","[""spaceBar""]","value training","ocean","0","{""ArrowUp,ArrowLeft"":23,""ArrowUp,ArrowRight"":10,""ArrowDown,ArrowLeft"":8,""ArrowDown,ArrowRight"":30}","true","spaceBar","true","revaluation","1","50","","",""
"html-keyboard-response","170","798384","0.0-4.0-2.0-1.25","spark_pilot_norest","9170","2","17","Male","","","","","","","null","<div style=""font-size:60px;"">+</div>","null","fixation","","","","","","","","","51","","",""
"revaluation","171","804393","0.0-4.0-2.0-0.26","spark_pilot_norest","9170","2","17","Male","","false","","","","","[1490.3000000715256,325.6999999284744]","./assets/img/ocean/memory/24.jpg","[""ArrowDown"",""ArrowRight""]","value training","ocean","30","{""ArrowUp,ArrowLeft"":23,""ArrowUp,ArrowRight"":10,""ArrowDown,ArrowLeft"":8,""ArrowDown,ArrowRight"":30}","true","ArrowDown,ArrowRight","false","revaluation","1","52","","",""
"html-keyboard-response","172","804896","0.0-4.0-2.0-1.26","spark_pilot_norest","9170","2","17","Male","","","","","","","null","<div style=""font-size:60px;"">+</div>","null","fixation","","","","","","","","","53","","",""
"revaluation","173","810906","0.0-4.0-2.0-0.27","spark_pilot_norest","9170","2","17","Male","","false","","","","","[403.2000000476837,278.8000000715256]","./assets/img/ocean/memory/26.jpg","[""ArrowDown"",""ArrowRight""]","value training","ocean","30","{""ArrowUp,ArrowLeft"":23,""ArrowUp,ArrowRight"":10,""ArrowDown,ArrowLeft"":8,""ArrowDown,ArrowRight"":30}","true","ArrowDown,ArrowRight","false","revaluation","1","54","","",""
"html-keyboard-response","174","811409","0.0-4.0-2.0-1.27","spark_pilot_norest","9170","2","17","Male","","","","","","","null","<div style=""font-size:60px;"">+</div>","null","fixation","","","","","","","","","55","","",""
"revaluation","175","815414","0.0-4.0-2.0-0.28","spark_pilot_norest","9170","2","17","Male","","false","","","","","[376.2000000476837]","./assets/img/ocean/catch/1.jpg","[""ArrowDown""]","value training","ocean","-10","{""ArrowUp,ArrowLeft"":23,""ArrowUp,ArrowRight"":10,""ArrowDown,ArrowLeft"":8,""ArrowDown,ArrowRight"":30}","false","ArrowDown","true","revaluation","1","56","","",""
"html-keyboard-response","176","815917","0.0-4.0-2.0-1.28","spark_pilot_norest","9170","2","17","Male","","","","","","","null","<div style=""font-size:60px;"">+</div>","null","fixation","","","","","","","","","57","","",""
"revaluation","177","821927","0.0-4.0-2.0-0.29","spark_pilot_norest","9170","2","17","Male","","false","","","","","[659.3000000715256,166.40000009536743]","./assets/img/ocean/memory/15.jpg","[""ArrowDown"",""ArrowRight""]","value training","ocean","30","{""ArrowUp,ArrowLeft"":23,""ArrowUp,ArrowRight"":10,""ArrowDown,ArrowLeft"":8,""ArrowDown,ArrowRight"":30}","true","ArrowDown,ArrowRight","false","revaluation","1","58","","",""
"html-keyboard-response","178","822429","0.0-4.0-2.0-1.29","spark_pilot_norest","9170","2","17","Male","","","","","","","null","<div style=""font-size:60px;"">+</div>","null","fixation","","","","","","","","","59","","",""
"revaluation","179","828440","0.0-4.0-2.0-0.30","spark_pilot_norest","9170","2","17","Male","","false","","","","","[673.1000000238419,297.2000000476837]","./assets/img/ocean/memory/39.jpg","[""ArrowDown"",""ArrowRight""]","value training","ocean","30","{""ArrowUp,ArrowLeft"":23,""ArrowUp,ArrowRight"":10,""ArrowDown,ArrowLeft"":8,""ArrowDown,ArrowRight"":30}","true","ArrowDown,ArrowRight","false","revaluation","1","60","","",""
"html-keyboard-response","180","828942","0.0-4.0-2.0-1.30","spark_pilot_norest","9170","2","17","Male","","","","","","","null","<div style=""font-size:60px;"">+</div>","null","fixation","","","","","","","","","61","","",""
"revaluation","181","834953","0.0-4.0-2.0-0.31","spark_pilot_norest","9170","2","17","Male","","false","","","","","[690.3999999761581,392.39999997615814]","./assets/img/ocean/memory/14.jpg","[""ArrowDown"",""ArrowRight""]","value training","ocean","30","{""ArrowUp,ArrowLeft"":23,""ArrowUp,ArrowRight"":10,""ArrowDown,ArrowLeft"":8,""ArrowDown,ArrowRight"":30}","true","ArrowDown,ArrowRight","false","revaluation","1","62","","",""
"html-keyboard-response","182","835455","0.0-4.0-2.0-1.31","spark_pilot_norest","9170","2","17","Male","","","","","","","null","<div style=""font-size:60px;"">+</div>","null","fixation","","","","","","","","","63","","",""
"revaluation","183","841466","0.0-4.0-2.0-0.32","spark_pilot_norest","9170","2","17","Male","","false","","","","","[606.3999999761581,327.3000000715256]","./assets/img/ocean/memory/26.jpg","[""ArrowDown"",""ArrowRight""]","value training","ocean","30","{""ArrowUp,ArrowLeft"":23,""ArrowUp,ArrowRight"":10,""ArrowDown,ArrowLeft"":8,""ArrowDown,ArrowRight"":30}","true","ArrowDown,ArrowRight","false","revaluation","1","64","","",""
"html-keyboard-response","184","841969","0.0-4.0-2.0-1.32","spark_pilot_norest","9170","2","17","Male","","","","","","","null","<div style=""font-size:60px;"">+</div>","null","fixation","","","","","","","","","65","","",""
"revaluation","185","845980","0.0-4.0-2.0-0.33","spark_pilot_norest","9170","2","17","Male","","false","","","","","[709.6000000238419]","./assets/img/ocean/catch/3.jpg","[""spaceBar""]","value training","ocean","0","{""ArrowUp,ArrowLeft"":23,""ArrowUp,ArrowRight"":10,""ArrowDown,ArrowLeft"":8,""ArrowDown,ArrowRight"":30}","true","spaceBar","true","revaluation","1","66","","",""
"html-keyboard-response","186","846483","0.0-4.0-2.0-1.33","spark_pilot_norest","9170","2","17","Male","","","","","","","null","<div style=""font-size:60px;"">+</div>","null","fixation","","","","","","","","","67","","",""
"revaluation","187","852500","0.0-4.0-2.0-0.34","spark_pilot_norest","9170","2","17","Male","","false","","","","","[1012.6999999284744,297]","./assets/img/ocean/memory/27.jpg","[""ArrowDown"",""ArrowRight""]","value training","ocean","30","{""ArrowUp,ArrowLeft"":23,""ArrowUp,ArrowRight"":10,""ArrowDown,ArrowLeft"":8,""ArrowDown,ArrowRight"":30}","true","ArrowDown,ArrowRight","false","revaluation","1","68","","",""
"html-keyboard-response","188","853003","0.0-4.0-2.0-1.34","spark_pilot_norest","9170","2","17","Male","","","","","","","null","<div style=""font-size:60px;"">+</div>","null","fixation","","","","","","","","","69","","",""
"revaluation","189","859013","0.0-4.0-2.0-0.35","spark_pilot_norest","9170","2","17","Male","","false","","","","","[727.6000000238419,353.39999997615814]","./assets/img/ocean/memory/37.jpg","[""ArrowDown"",""ArrowRight""]","value training","ocean","30","{""ArrowUp,ArrowLeft"":23,""ArrowUp,ArrowRight"":10,""ArrowDown,ArrowLeft"":8,""ArrowDown,ArrowRight"":30}","true","ArrowDown,ArrowRight","false","revaluation","1","70","","",""
"html-keyboard-response","190","859516","0.0-4.0-2.0-1.35","spark_pilot_norest","9170","2","17","Male","","","","","","","null","<div style=""font-size:60px;"">+</div>","null","fixation","","","","","","","","","71","","",""
"revaluation","191","865526","0.0-4.0-2.0-0.36","spark_pilot_norest","9170","2","17","Male","","false","","","","","[585.2000000476837,347.2000000476837]","./assets/img/ocean/memory/37.jpg","[""ArrowDown"",""ArrowRight""]","value training","ocean","30","{""ArrowUp,ArrowLeft"":23,""ArrowUp,ArrowRight"":10,""ArrowDown,ArrowLeft"":8,""ArrowDown,ArrowRight"":30}","true","ArrowDown,ArrowRight","false","revaluation","1","72","","",""
"html-keyboard-response","192","866029","0.0-4.0-2.0-1.36","spark_pilot_norest","9170","2","17","Male","","","","","","","null","<div style=""font-size:60px;"">+</div>","null","fixation","","","","","","","","","73","","",""
"revaluation","193","872039","0.0-4.0-2.0-0.37","spark_pilot_norest","9170","2","17","Male","","false","","","","","[439.39999997615814,337]","./assets/img/ocean/memory/6.jpg","[""ArrowDown"",""ArrowRight""]","value training","ocean","30","{""ArrowUp,ArrowLeft"":23,""ArrowUp,ArrowRight"":10,""ArrowDown,ArrowLeft"":8,""ArrowDown,ArrowRight"":30}","true","ArrowDown,ArrowRight","false","revaluation","1","74","","",""
"html-keyboard-response","194","872541","0.0-4.0-2.0-1.37","spark_pilot_norest","9170","2","17","Male","","","","","","","null","<div style=""font-size:60px;"">+</div>","null","fixation","","","","","","","","","75","","",""
"revaluation","195","878550","0.0-4.0-2.0-0.38","spark_pilot_norest","9170","2","17","Male","","false","","","","","[390.40000009536743,312.2000000476837]","./assets/img/ocean/memory/38.jpg","[""ArrowDown"",""ArrowRight""]","value training","ocean","30","{""ArrowUp,ArrowLeft"":23,""ArrowUp,ArrowRight"":10,""ArrowDown,ArrowLeft"":8,""ArrowDown,ArrowRight"":30}","true","ArrowDown,ArrowRight","false","revaluation","1","76","","",""
"html-keyboard-response","196","879053","0.0-4.0-2.0-1.38","spark_pilot_norest","9170","2","17","Male","","","","","","","null","<div style=""font-size:60px;"">+</div>","null","fixation","","","","","","","","","77","","",""
"revaluation","197","883064","0.0-4.0-2.0-0.39","spark_pilot_norest","9170","2","17","Male","","false","","","","","[1031.5]","./assets/img/ocean/catch/5.jpg","[""spaceBar""]","value training","ocean","0","{""ArrowUp,ArrowLeft"":23,""ArrowUp,ArrowRight"":10,""ArrowDown,ArrowLeft"":8,""ArrowDown,ArrowRight"":30}","true","spaceBar","true","revaluation","1","78","","",""
"html-keyboard-response","198","883566","0.0-4.0-2.0-1.39","spark_pilot_norest","9170","2","17","Male","","","","","","","null","<div style=""font-size:60px;"">+</div>","null","fixation","","","","","","","","","79","","",""
"revaluation","199","887581","0.0-4.0-2.0-0.40","spark_pilot_norest","9170","2","17","Male","","false","","","","","[997.7000000476837]","./assets/img/ocean/catch/4.jpg","[""spaceBar""]","value training","ocean","0","{""ArrowUp,ArrowLeft"":23,""ArrowUp,ArrowRight"":10,""ArrowDown,ArrowLeft"":8,""ArrowDown,ArrowRight"":30}","true","spaceBar","true","revaluation","1","80","","",""
"html-keyboard-response","200","888084","0.0-4.0-2.0-1.40","spark_pilot_norest","9170","2","17","Male","","","","","","","null","<div style=""font-size:60px;"">+</div>","null","fixation","","","","","","","","","81","","",""
"revaluation","201","894089","0.0-4.0-2.0-0.41","spark_pilot_norest","9170","2","17","Male","","false","","","","","[424.89999997615814,356.7999999523163]","./assets/img/ocean/memory/27.jpg","[""ArrowDown"",""ArrowRight""]","value training","ocean","30","{""ArrowUp,ArrowLeft"":23,""ArrowUp,ArrowRight"":10,""ArrowDown,ArrowLeft"":8,""ArrowDown,ArrowRight"":30}","true","ArrowDown,ArrowRight","false","revaluation","1","82","","",""
"html-keyboard-response","202","894598","0.0-4.0-2.0-1.41","spark_pilot_norest","9170","2","17","Male","","","","","","","null","<div style=""font-size:60px;"">+</div>","null","fixation","","","","","","","","","83","","",""
"revaluation","203","900613","0.0-4.0-2.0-0.42","spark_pilot_norest","9170","2","17","Male","","false","","","","","[749.2999999523163,340.10000002384186]","./assets/img/ocean/memory/0.jpg","[""ArrowUp"",""ArrowLeft""]","value training","ocean","23","{""ArrowUp,ArrowLeft"":23,""ArrowUp,ArrowRight"":10,""ArrowDown,ArrowLeft"":8,""ArrowDown,ArrowRight"":30}","false","ArrowUp,ArrowLeft","false","revaluation","1","84","","",""
"html-keyboard-response","204","901116","0.0-4.0-2.0-1.42","spark_pilot_norest","9170","2","17","Male","","","","","","","null","<div style=""font-size:60px;"">+</div>","null","fixation","","","","","","","","","85","","",""
"revaluation","205","907126","0.0-4.0-2.0-0.43","spark_pilot_norest","9170","2","17","Male","","false","","","","","[411.60000002384186,237.30000007152557]","./assets/img/ocean/memory/0.jpg","[""ArrowDown"",""ArrowRight""]","value training","ocean","30","{""ArrowUp,ArrowLeft"":23,""ArrowUp,ArrowRight"":10,""ArrowDown,ArrowLeft"":8,""ArrowDown,ArrowRight"":30}","true","ArrowDown,ArrowRight","false","revaluation","1","86","","",""
"html-keyboard-response","206","907629","0.0-4.0-2.0-1.43","spark_pilot_norest","9170","2","17","Male","","","","","","","null","<div style=""font-size:60px;"">+</div>","null","fixation","","","","","","","","","87","","",""
"revaluation","207","913641","0.0-4.0-2.0-0.44","spark_pilot_norest","9170","2","17","Male","","false","","","","","[565.6000000238419,420.2999999523163]","./assets/img/ocean/memory/38.jpg","[""ArrowDown"",""ArrowRight""]","value training","ocean","30","{""ArrowUp,ArrowLeft"":23,""ArrowUp,ArrowRight"":10,""ArrowDown,ArrowLeft"":8,""ArrowDown,ArrowRight"":30}","true","ArrowDown,ArrowRight","false","revaluation","1","88","","",""
"html-keyboard-response","208","914142","0.0-4.0-2.0-1.44","spark_pilot_norest","9170","2","17","Male","","","","","","","null","<div style=""font-size:60px;"">+</div>","null","fixation","","","","","","","","","89","","",""
"revaluation","209","920149","0.0-4.0-2.0-0.45","spark_pilot_norest","9170","2","17","Male","","false","","","","","[774.1000000238419,91.30000007152557]","./assets/img/ocean/memory/30.jpg","[""ArrowDown"",""ArrowRight""]","value training","ocean","30","{""ArrowUp,ArrowLeft"":23,""ArrowUp,ArrowRight"":10,""ArrowDown,ArrowLeft"":8,""ArrowDown,ArrowRight"":30}","true","ArrowDown,ArrowRight","false","revaluation","1","90","","",""
"html-keyboard-response","210","920665","0.0-4.0-2.0-1.45","spark_pilot_norest","9170","2","17","Male","","","","","","","null","<div style=""font-size:60px;"">+</div>","null","fixation","","","","","","","","","91","","",""
"revaluation","211","926679","0.0-4.0-2.0-0.46","spark_pilot_norest","9170","2","17","Male","","false","","","","","[485.7000000476837,411.1999999284744]","./assets/img/ocean/memory/14.jpg","[""ArrowDown"",""ArrowRight""]","value training","ocean","30","{""ArrowUp,ArrowLeft"":23,""ArrowUp,ArrowRight"":10,""ArrowDown,ArrowLeft"":8,""ArrowDown,ArrowRight"":30}","true","ArrowDown,ArrowRight","false","revaluation","1","92","","",""
"html-keyboard-response","212","927182","0.0-4.0-2.0-1.46","spark_pilot_norest","9170","2","17","Male","","","","","","","null","<div style=""font-size:60px;"">+</div>","null","fixation","","","","","","","","","93","","",""
"revaluation","213","933192","0.0-4.0-2.0-0.47","spark_pilot_norest","9170","2","17","Male","","false","","","","","[492.1999999284744,393.1999999284744]","./assets/img/ocean/memory/3.jpg","[""ArrowDown"",""ArrowRight""]","value training","ocean","30","{""ArrowUp,ArrowLeft"":23,""ArrowUp,ArrowRight"":10,""ArrowDown,ArrowLeft"":8,""ArrowDown,ArrowRight"":30}","true","ArrowDown,ArrowRight","false","revaluation","1","94","","",""
"html-keyboard-response","214","933695","0.0-4.0-2.0-1.47","spark_pilot_norest","9170","2","17","Male","","","","","","","null","<div style=""font-size:60px;"">+</div>","null","fixation","","","","","","","","","95","","",""
"revaluation","215","939703","0.0-4.0-2.0-0.48","spark_pilot_norest","9170","2","17","Male","","false","","","","","[437.7000000476837,187.30000007152557]","./assets/img/ocean/memory/1.jpg","[""ArrowDown"",""ArrowRight""]","value training","ocean","30","{""ArrowUp,ArrowLeft"":23,""ArrowUp,ArrowRight"":10,""ArrowDown,ArrowLeft"":8,""ArrowDown,ArrowRight"":30}","true","ArrowDown,ArrowRight","false","revaluation","1","96","","",""
"html-keyboard-response","216","940206","0.0-4.0-2.0-1.48","spark_pilot_norest","9170","2","17","Male","","","","","","","null","<div style=""font-size:60px;"">+</div>","null","fixation","","","","","","","","","97","","",""
"revaluation","217","946217","0.0-4.0-2.0-0.49","spark_pilot_norest","9170","2","17","Male","","false","","","","","[393.5,257]","./assets/img/ocean/memory/32.jpg","[""ArrowDown"",""ArrowRight""]","value training","ocean","30","{""ArrowUp,ArrowLeft"":23,""ArrowUp,ArrowRight"":10,""ArrowDown,ArrowLeft"":8,""ArrowDown,ArrowRight"":30}","true","ArrowDown,ArrowRight","false","revaluation","1","98","","",""
"html-keyboard-response","218","946720","0.0-4.0-2.0-1.49","spark_pilot_norest","9170","2","17","Male","","","","","","","null","<div style=""font-size:60px;"">+</div>","null","fixation","","","","","","","","","99","","",""
"learning-instructions","219","961109","0.0-4.0-3.0-0.0","spark_pilot_norest","9170","2","17","Male","","","","","","","1132.3999999761581","<p> Now, you will travel with a friend who will choose whether you go up or down first. </p>
            <p> On these turns, you will just see the animal that they found. You will still get to choose which chest to search for treasure.</p>","","instructions","","","","","","","","","","","",""
"revaluation","220","965115","0.0-4.0-4.0-0.0","spark_pilot_norest","9170","2","17","Male","","false","","","","","[793.5999999046326]","./assets/img/ocean/animals/seahorse.jpg","[""ArrowRight""]","revaluation","ocean","15","{""ArrowUp,ArrowLeft"":27,""ArrowUp,ArrowRight"":15,""ArrowDown,ArrowLeft"":21,""ArrowDown,ArrowRight"":7}","false","ArrowUp,ArrowRight","","revaluation","1","0","","",""
"html-keyboard-response","221","965624","0.0-4.0-4.0-1.0","spark_pilot_norest","9170","2","17","Male","","","","","","","null","<div style=""font-size:60px;"">+</div>","null","fixation","","","","","","","","","1","","",""
"revaluation","222","969650","0.0-4.0-4.0-0.1","spark_pilot_norest","9170","2","17","Male","","false","","","","","[809.9000000953674]","./assets/img/ocean/animals/octopus.jpg","[""ArrowRight""]","revaluation","ocean","7","{""ArrowUp,ArrowLeft"":27,""ArrowUp,ArrowRight"":15,""ArrowDown,ArrowLeft"":21,""ArrowDown,ArrowRight"":7}","false","ArrowDown,ArrowRight","","revaluation","1","2","","",""
"html-keyboard-response","223","970161","0.0-4.0-4.0-1.1","spark_pilot_norest","9170","2","17","Male","","","","","","","null","<div style=""font-size:60px;"">+</div>","null","fixation","","","","","","","","","3","","",""
"revaluation","224","974189","0.0-4.0-4.0-0.2","spark_pilot_norest","9170","2","17","Male","","false","","","","","[721.7000000476837]","./assets/img/ocean/animals/octopus.jpg","[""ArrowLeft""]","revaluation","ocean","21","{""ArrowUp,ArrowLeft"":27,""ArrowUp,ArrowRight"":15,""ArrowDown,ArrowLeft"":21,""ArrowDown,ArrowRight"":7}","true","ArrowDown,ArrowLeft","","revaluation","1","4","","",""
"html-keyboard-response","225","974705","0.0-4.0-4.0-1.2","spark_pilot_norest","9170","2","17","Male","","","","","","","null","<div style=""font-size:60px;"">+</div>","null","fixation","","","","","","","","","5","","",""
"revaluation","226","978728","0.0-4.0-4.0-0.3","spark_pilot_norest","9170","2","17","Male","","false","","","","","[1044.5999999046326]","./assets/img/ocean/animals/seahorse.jpg","[""ArrowLeft""]","revaluation","ocean","27","{""ArrowUp,ArrowLeft"":27,""ArrowUp,ArrowRight"":15,""ArrowDown,ArrowLeft"":21,""ArrowDown,ArrowRight"":7}","true","ArrowUp,ArrowLeft","","revaluation","1","6","","",""
"html-keyboard-response","227","979236","0.0-4.0-4.0-1.3","spark_pilot_norest","9170","2","17","Male","","","","","","","null","<div style=""font-size:60px;"">+</div>","null","fixation","","","","","","","","","7","","",""
"revaluation","228","983255","0.0-4.0-4.0-0.4","spark_pilot_norest","9170","2","17","Male","","false","","","","","[616.1000000238419]","./assets/img/ocean/animals/seahorse.jpg","[""ArrowLeft""]","revaluation","ocean","27","{""ArrowUp,ArrowLeft"":27,""ArrowUp,ArrowRight"":15,""ArrowDown,ArrowLeft"":21,""ArrowDown,ArrowRight"":7}","true","ArrowUp,ArrowLeft","","revaluation","1","8","","",""
"html-keyboard-response","229","983758","0.0-4.0-4.0-1.4","spark_pilot_norest","9170","2","17","Male","","","","","","","null","<div style=""font-size:60px;"">+</div>","null","fixation","","","","","","","","","9","","",""
"revaluation","230","987778","0.0-4.0-4.0-0.5","spark_pilot_norest","9170","2","17","Male","","false","","","","","[302.39999997615814]","./assets/img/ocean/animals/octopus.jpg","[""ArrowLeft""]","revaluation","ocean","21","{""ArrowUp,ArrowLeft"":27,""ArrowUp,ArrowRight"":15,""ArrowDown,ArrowLeft"":21,""ArrowDown,ArrowRight"":7}","true","ArrowDown,ArrowLeft","","revaluation","1","10","","",""
"html-keyboard-response","231","988281","0.0-4.0-4.0-1.5","spark_pilot_norest","9170","2","17","Male","","","","","","","null","<div style=""font-size:60px;"">+</div>","null","fixation","","","","","","","","","11","","",""
"revaluation","232","992291","0.0-4.0-4.0-0.6","spark_pilot_norest","9170","2","17","Male","","false","","","","","[371.39999997615814]","./assets/img/ocean/animals/seahorse.jpg","[""ArrowLeft""]","revaluation","ocean","27","{""ArrowUp,ArrowLeft"":27,""ArrowUp,ArrowRight"":15,""ArrowDown,ArrowLeft"":21,""ArrowDown,ArrowRight"":7}","true","ArrowUp,ArrowLeft","","revaluation","1","12","","",""
"html-keyboard-response","233","992794","0.0-4.0-4.0-1.6","spark_pilot_norest","9170","2","17","Male","","","","","","","null","<div style=""font-size:60px;"">+</div>","null","fixation","","","","","","","","","13","","",""
"revaluation","234","996805","0.0-4.0-4.0-0.7","spark_pilot_norest","9170","2","17","Male","","false","","","","","[392.39999997615814]","./assets/img/ocean/animals/seahorse.jpg","[""ArrowLeft""]","revaluation","ocean","27","{""ArrowUp,ArrowLeft"":27,""ArrowUp,ArrowRight"":15,""ArrowDown,ArrowLeft"":21,""ArrowDown,ArrowRight"":7}","true","ArrowUp,ArrowLeft","","revaluation","1","14","","",""
"html-keyboard-response","235","997308","0.0-4.0-4.0-1.7","spark_pilot_norest","9170","2","17","Male","","","","","","","null","<div style=""font-size:60px;"">+</div>","null","fixation","","","","","","","","","15","","",""
"revaluation","236","1001319","0.0-4.0-4.0-0.8","spark_pilot_norest","9170","2","17","Male","","false","","","","","[424.2000000476837]","./assets/img/ocean/animals/seahorse.jpg","[""ArrowLeft""]","revaluation","ocean","27","{""ArrowUp,ArrowLeft"":27,""ArrowUp,ArrowRight"":15,""ArrowDown,ArrowLeft"":21,""ArrowDown,ArrowRight"":7}","true","ArrowUp,ArrowLeft","","revaluation","1","16","","",""
"html-keyboard-response","237","1001821","0.0-4.0-4.0-1.8","spark_pilot_norest","9170","2","17","Male","","","","","","","null","<div style=""font-size:60px;"">+</div>","null","fixation","","","","","","","","","17","","",""
"revaluation","238","1005828","0.0-4.0-4.0-0.9","spark_pilot_norest","9170","2","17","Male","","false","","","","","[320.60000002384186]","./assets/img/ocean/animals/seahorse.jpg","[""ArrowLeft""]","revaluation","ocean","27","{""ArrowUp,ArrowLeft"":27,""ArrowUp,ArrowRight"":15,""ArrowDown,ArrowLeft"":21,""ArrowDown,ArrowRight"":7}","true","ArrowUp,ArrowLeft","","revaluation","1","18","","",""
"html-keyboard-response","239","1006330","0.0-4.0-4.0-1.9","spark_pilot_norest","9170","2","17","Male","","","","","","","null","<div style=""font-size:60px;"">+</div>","null","fixation","","","","","","","","","19","","",""
"revaluation","240","1010339","0.0-4.0-4.0-0.10","spark_pilot_norest","9170","2","17","Male","","false","","","","","[290.5]","./assets/img/ocean/animals/octopus.jpg","[""ArrowLeft""]","revaluation","ocean","21","{""ArrowUp,ArrowLeft"":27,""ArrowUp,ArrowRight"":15,""ArrowDown,ArrowLeft"":21,""ArrowDown,ArrowRight"":7}","true","ArrowDown,ArrowLeft","","revaluation","1","20","","",""
"html-keyboard-response","241","1010841","0.0-4.0-4.0-1.10","spark_pilot_norest","9170","2","17","Male","","","","","","","null","<div style=""font-size:60px;"">+</div>","null","fixation","","","","","","","","","21","","",""
"revaluation","242","1014852","0.0-4.0-4.0-0.11","spark_pilot_norest","9170","2","17","Male","","false","","","","","[391.6999999284744]","./assets/img/ocean/animals/octopus.jpg","[""ArrowLeft""]","revaluation","ocean","21","{""ArrowUp,ArrowLeft"":27,""ArrowUp,ArrowRight"":15,""ArrowDown,ArrowLeft"":21,""ArrowDown,ArrowRight"":7}","true","ArrowDown,ArrowLeft","","revaluation","1","22","","",""
"html-keyboard-response","243","1015355","0.0-4.0-4.0-1.11","spark_pilot_norest","9170","2","17","Male","","","","","","","null","<div style=""font-size:60px;"">+</div>","null","fixation","","","","","","","","","23","","",""
"revaluation","244","1019365","0.0-4.0-4.0-0.12","spark_pilot_norest","9170","2","17","Male","","false","","","","","[385.2000000476837]","./assets/img/ocean/animals/seahorse.jpg","[""ArrowLeft""]","revaluation","ocean","27","{""ArrowUp,ArrowLeft"":27,""ArrowUp,ArrowRight"":15,""ArrowDown,ArrowLeft"":21,""ArrowDown,ArrowRight"":7}","true","ArrowUp,ArrowLeft","","revaluation","1","24","","",""
"html-keyboard-response","245","1019867","0.0-4.0-4.0-1.12","spark_pilot_norest","9170","2","17","Male","","","","","","","null","<div style=""font-size:60px;"">+</div>","null","fixation","","","","","","","","","25","","",""
"revaluation","246","1023878","0.0-4.0-4.0-0.13","spark_pilot_norest","9170","2","17","Male","","false","","","","","[291.2000000476837]","./assets/img/ocean/animals/octopus.jpg","[""ArrowLeft""]","revaluation","ocean","21","{""ArrowUp,ArrowLeft"":27,""ArrowUp,ArrowRight"":15,""ArrowDown,ArrowLeft"":21,""ArrowDown,ArrowRight"":7}","true","ArrowDown,ArrowLeft","","revaluation","1","26","","",""
"html-keyboard-response","247","1024381","0.0-4.0-4.0-1.13","spark_pilot_norest","9170","2","17","Male","","","","","","","null","<div style=""font-size:60px;"">+</div>","null","fixation","","","","","","","","","27","","",""
"revaluation","248","1028391","0.0-4.0-4.0-0.14","spark_pilot_norest","9170","2","17","Male","","false","","","","","[409.10000002384186]","./assets/img/ocean/animals/octopus.jpg","[""ArrowLeft""]","revaluation","ocean","21","{""ArrowUp,ArrowLeft"":27,""ArrowUp,ArrowRight"":15,""ArrowDown,ArrowLeft"":21,""ArrowDown,ArrowRight"":7}","true","ArrowDown,ArrowLeft","","revaluation","1","28","","",""
"html-keyboard-response","249","1028894","0.0-4.0-4.0-1.14","spark_pilot_norest","9170","2","17","Male","","","","","","","null","<div style=""font-size:60px;"">+</div>","null","fixation","","","","","","","","","29","","",""
"revaluation","250","1032906","0.0-4.0-4.0-0.15","spark_pilot_norest","9170","2","17","Male","","false","","","","","[289.5]","./assets/img/ocean/animals/seahorse.jpg","[""ArrowLeft""]","revaluation","ocean","27","{""ArrowUp,ArrowLeft"":27,""ArrowUp,ArrowRight"":15,""ArrowDown,ArrowLeft"":21,""ArrowDown,ArrowRight"":7}","true","ArrowUp,ArrowLeft","","revaluation","1","30","","",""
"html-keyboard-response","251","1033409","0.0-4.0-4.0-1.15","spark_pilot_norest","9170","2","17","Male","","","","","","","null","<div style=""font-size:60px;"">+</div>","null","fixation","","","","","","","","","31","","",""
"revaluation","252","1037418","0.0-4.0-4.0-0.16","spark_pilot_norest","9170","2","17","Male","","false","","","","","[441.1999999284744]","./assets/img/ocean/animals/octopus.jpg","[""ArrowLeft""]","revaluation","ocean","21","{""ArrowUp,ArrowLeft"":27,""ArrowUp,ArrowRight"":15,""ArrowDown,ArrowLeft"":21,""ArrowDown,ArrowRight"":7}","true","ArrowDown,ArrowLeft","","revaluation","1","32","","",""
"html-keyboard-response","253","1037920","0.0-4.0-4.0-1.16","spark_pilot_norest","9170","2","17","Male","","","","","","","null","<div style=""font-size:60px;"">+</div>","null","fixation","","","","","","","","","33","","",""
"revaluation","254","1041925","0.0-4.0-4.0-0.17","spark_pilot_norest","9170","2","17","Male","","false","","","","","[320.39999997615814]","./assets/img/ocean/animals/octopus.jpg","[""ArrowLeft""]","revaluation","ocean","21","{""ArrowUp,ArrowLeft"":27,""ArrowUp,ArrowRight"":15,""ArrowDown,ArrowLeft"":21,""ArrowDown,ArrowRight"":7}","true","ArrowDown,ArrowLeft","","revaluation","1","34","","",""
"html-keyboard-response","255","1042427","0.0-4.0-4.0-1.17","spark_pilot_norest","9170","2","17","Male","","","","","","","null","<div style=""font-size:60px;"">+</div>","null","fixation","","","","","","","","","35","","",""
"learning-instructions","256","1050887","0.0-4.0-5.0-0.0","spark_pilot_norest","9170","2","17","Male","","","","","","","null","<p> You have almost finished this part of the game! </p>
            <p> We are going to ask you to make a few more choices. </p>","","instructions","","","","","","","","","","","",""
"learning-instructions","257","1066868","0.0-4.0-5.0-0.1","spark_pilot_norest","9170","2","17","Male","","","","","","","null","<p> First, you need to decide whether to go up or down. When you see each picture, use the arrow keys to make your choice. </p>
            <p><b>You will not see which animal you found, but try to get to the one that will give you the most treasure.</b></p>","","instructions","","","","","","","","","","","",""
"html-keyboard-response","258","1067881","0.0-4.0-6.0-0.0","spark_pilot_norest","9170","2","17","Male","","","","","","","null","<div style=""font-size:100px;color:red;"">Starting in...</div>","null","","","","","","","","","","","","",""
"html-keyboard-response","259","1068883","0.0-4.0-6.0-1.0","spark_pilot_norest","9170","2","17","Male","","","","","","","null","<div style=""font-size:200px;color:red;"">3</div>","null","","","","","","","","","","","","",""
"html-keyboard-response","260","1069885","0.0-4.0-6.0-2.0","spark_pilot_norest","9170","2","17","Male","","","","","","","null","<div style=""font-size:200px;color:red;"">2</div>","null","","","","","","","","","","","","",""
"html-keyboard-response","261","1070887","0.0-4.0-6.0-3.0","spark_pilot_norest","9170","2","17","Male","","","","","","","null","<div style=""font-size:200px;color:red;"">1</div>","null","","","","","","","","","","","","",""
"revaluation","262","1071374","0.0-4.0-7.0-0.0","spark_pilot_norest","9170","2","17","Male","","false","","","","","[478.5]","./assets/img/ocean/test/2.jpg","[""ArrowUp""]","first stage test","ocean","0","{""ArrowUp,ArrowLeft"":27,""ArrowUp,ArrowRight"":15,""ArrowDown,ArrowLeft"":21,""ArrowDown,ArrowRight"":7}","true","ArrowUp","false","revaluation","1","","","",""
"html-keyboard-response","263","1071887","0.0-4.0-7.0-1.0","spark_pilot_norest","9170","2","17","Male","","","","","","","null","<div style=""font-size:60px;"">+</div>","null","fixation","","","","","","","","","","","",""
"revaluation","264","1072609","0.0-4.0-7.0-0.1","spark_pilot_norest","9170","2","17","Male","","false","","","","","[715]","./assets/img/ocean/test/0.jpg","[""ArrowUp""]","first stage test","ocean","0","{""ArrowUp,ArrowLeft"":27,""ArrowUp,ArrowRight"":15,""ArrowDown,ArrowLeft"":21,""ArrowDown,ArrowRight"":7}","true","ArrowUp","false","revaluation","1","","","",""
"html-keyboard-response","265","1073118","0.0-4.0-7.0-1.1","spark_pilot_norest","9170","2","17","Male","","","","","","","null","<div style=""font-size:60px;"">+</div>","null","fixation","","","","","","","","","","","",""
"revaluation","266","1073660","0.0-4.0-7.0-0.2","spark_pilot_norest","9170","2","17","Male","","false","","","","","[529.2999999523163]","./assets/img/ocean/test/3.jpg","[""ArrowUp""]","first stage test","ocean","0","{""ArrowUp,ArrowLeft"":27,""ArrowUp,ArrowRight"":15,""ArrowDown,ArrowLeft"":21,""ArrowDown,ArrowRight"":7}","true","ArrowUp","false","revaluation","1","","","",""
"html-keyboard-response","267","1074174","0.0-4.0-7.0-1.2","spark_pilot_norest","9170","2","17","Male","","","","","","","null","<div style=""font-size:60px;"">+</div>","null","fixation","","","","","","","","","","","",""
"revaluation","268","1074477","0.0-4.0-7.0-0.3","spark_pilot_norest","9170","2","17","Male","","false","","","","","[299.40000009536743]","./assets/img/ocean/test/1.jpg","[""ArrowUp""]","first stage test","ocean","0","{""ArrowUp,ArrowLeft"":27,""ArrowUp,ArrowRight"":15,""ArrowDown,ArrowLeft"":21,""ArrowDown,ArrowRight"":7}","true","ArrowUp","false","revaluation","1","","","",""
"html-keyboard-response","269","1074989","0.0-4.0-7.0-1.3","spark_pilot_norest","9170","2","17","Male","","","","","","","null","<div style=""font-size:60px;"">+</div>","null","fixation","","","","","","","","","","","",""
"learning-instructions","270","1088325","0.0-4.0-8.0-0.0","spark_pilot_norest","9170","2","17","Male","","","","","","","null","<p> Now you will see the animals again and can search their chests for treasure. </p>
            <p> This time, you will not see how much treasure you earned, but you will earn more bonus money for making better choices. </p>","","instructions","","","","","","","","","","","",""
"html-keyboard-response","271","1089339","0.0-4.0-9.0-0.0","spark_pilot_norest","9170","2","17","Male","","","","","","","null","<div style=""font-size:100px;color:red;"">Starting in...</div>","null","","","","","","","","","","","","",""
"html-keyboard-response","272","1090351","0.0-4.0-9.0-1.0","spark_pilot_norest","9170","2","17","Male","","","","","","","null","<div style=""font-size:200px;color:red;"">3</div>","null","","","","","","","","","","","","",""
"html-keyboard-response","273","1091363","0.0-4.0-9.0-2.0","spark_pilot_norest","9170","2","17","Male","","","","","","","null","<div style=""font-size:200px;color:red;"">2</div>","null","","","","","","","","","","","","",""
"html-keyboard-response","274","1092377","0.0-4.0-9.0-3.0","spark_pilot_norest","9170","2","17","Male","","","","","","","null","<div style=""font-size:200px;color:red;"">1</div>","null","","","","","","","","","","","","",""
"revaluation","275","1093304","0.0-4.0-10.0-0.0","spark_pilot_norest","9170","2","17","Male","","false","","","","","[919.7999999523163]","./assets/img/ocean/animals/seahorse.jpg","[""ArrowRight""]","second stage test","ocean","0","{""ArrowUp,ArrowLeft"":27,""ArrowUp,ArrowRight"":15,""ArrowDown,ArrowLeft"":21,""ArrowDown,ArrowRight"":7}","false","ArrowUp,ArrowRight","","revaluation","1","","","",""
"html-keyboard-response","276","1093814","0.0-4.0-10.0-1.0","spark_pilot_norest","9170","2","17","Male","","","","","","","null","<div style=""font-size:60px;"">+</div>","null","fixation","","","","","","","","","","","",""
"revaluation","277","1094238","0.0-4.0-10.0-0.1","spark_pilot_norest","9170","2","17","Male","","false","","","","","[417]","./assets/img/ocean/animals/seahorse.jpg","[""ArrowLeft""]","second stage test","ocean","0","{""ArrowUp,ArrowLeft"":27,""ArrowUp,ArrowRight"":15,""ArrowDown,ArrowLeft"":21,""ArrowDown,ArrowRight"":7}","true","ArrowUp,ArrowLeft","","revaluation","1","","","",""
"html-keyboard-response","278","1094746","0.0-4.0-10.0-1.1","spark_pilot_norest","9170","2","17","Male","","","","","","","null","<div style=""font-size:60px;"">+</div>","null","fixation","","","","","","","","","","","",""
"revaluation","279","1095013","0.0-4.0-10.0-0.2","spark_pilot_norest","9170","2","17","Male","","false","","","","","[261.7999999523163]","./assets/img/ocean/animals/seahorse.jpg","[""ArrowRight""]","second stage test","ocean","0","{""ArrowUp,ArrowLeft"":27,""ArrowUp,ArrowRight"":15,""ArrowDown,ArrowLeft"":21,""ArrowDown,ArrowRight"":7}","false","ArrowUp,ArrowRight","","revaluation","1","","","",""
"html-keyboard-response","280","1095526","0.0-4.0-10.0-1.2","spark_pilot_norest","9170","2","17","Male","","","","","","","null","<div style=""font-size:60px;"">+</div>","null","fixation","","","","","","","","","","","",""
"revaluation","281","1095710","0.0-4.0-10.0-0.3","spark_pilot_norest","9170","2","17","Male","","false","","","","","[178.39999997615814]","./assets/img/ocean/animals/seahorse.jpg","[""ArrowLeft""]","second stage test","ocean","0","{""ArrowUp,ArrowLeft"":27,""ArrowUp,ArrowRight"":15,""ArrowDown,ArrowLeft"":21,""ArrowDown,ArrowRight"":7}","true","ArrowUp,ArrowLeft","","revaluation","1","","","",""
"html-keyboard-response","282","1096226","0.0-4.0-10.0-1.3","spark_pilot_norest","9170","2","17","Male","","","","","","","null","<div style=""font-size:60px;"">+</div>","null","fixation","","","","","","","","","","","",""
"revaluation","283","1096304","0.0-4.0-10.0-0.4","spark_pilot_norest","9170","2","17","Male","","false","","","","","[70.30000007152557]","./assets/img/ocean/animals/octopus.jpg","[""ArrowRight""]","second stage test","ocean","0","{""ArrowUp,ArrowLeft"":27,""ArrowUp,ArrowRight"":15,""ArrowDown,ArrowLeft"":21,""ArrowDown,ArrowRight"":7}","false","ArrowDown,ArrowRight","","revaluation","1","","","",""
"html-keyboard-response","284","1096808","0.0-4.0-10.0-1.4","spark_pilot_norest","9170","2","17","Male","","","","","","","null","<div style=""font-size:60px;"">+</div>","null","fixation","","","","","","","","","","","",""
"revaluation","285","1096884","0.0-4.0-10.0-0.5","spark_pilot_norest","9170","2","17","Male","","false","","","","","[68.30000007152557]","./assets/img/ocean/animals/octopus.jpg","[""ArrowLeft""]","second stage test","ocean","0","{""ArrowUp,ArrowLeft"":27,""ArrowUp,ArrowRight"":15,""ArrowDown,ArrowLeft"":21,""ArrowDown,ArrowRight"":7}","true","ArrowDown,ArrowLeft","","revaluation","1","","","",""
"html-keyboard-response","286","1097399","0.0-4.0-10.0-1.5","spark_pilot_norest","9170","2","17","Male","","","","","","","null","<div style=""font-size:60px;"">+</div>","null","fixation","","","","","","","","","","","",""
"revaluation","287","1097446","0.0-4.0-10.0-0.6","spark_pilot_norest","9170","2","17","Male","","false","","","","","[40.299999952316284]","./assets/img/ocean/animals/octopus.jpg","[""ArrowRight""]","second stage test","ocean","0","{""ArrowUp,ArrowLeft"":27,""ArrowUp,ArrowRight"":15,""ArrowDown,ArrowLeft"":21,""ArrowDown,ArrowRight"":7}","false","ArrowDown,ArrowRight","","revaluation","1","","","",""
"html-keyboard-response","288","1097961","0.0-4.0-10.0-1.6","spark_pilot_norest","9170","2","17","Male","","","","","","","null","<div style=""font-size:60px;"">+</div>","null","fixation","","","","","","","","","","","",""
"revaluation","289","1097991","0.0-4.0-10.0-0.7","spark_pilot_norest","9170","2","17","Male","","false","","","","","[24.299999952316284]","./assets/img/ocean/animals/octopus.jpg","[""ArrowLeft""]","second stage test","ocean","0","{""ArrowUp,ArrowLeft"":27,""ArrowUp,ArrowRight"":15,""ArrowDown,ArrowLeft"":21,""ArrowDown,ArrowRight"":7}","true","ArrowDown,ArrowLeft","","revaluation","1","","","",""
"html-keyboard-response","290","1098506","0.0-4.0-10.0-1.7","spark_pilot_norest","9170","2","17","Male","","","","","","","null","<div style=""font-size:60px;"">+</div>","null","fixation","","","","","","","","","","","",""
"learning-instructions","291","1102574","0.0-4.0-0.1-0.2","spark_pilot_norest","9170","2","17","Male","","","","","","","1270.7000000476837","<p> This time you are searching for treasure in the <b>canyon</b>.</p>","","instructions","","","","","","","","","","","",""
"learning-instructions","292","1121502","0.0-4.0-0.1-0.3","spark_pilot_norest","9170","2","17","Male","","","","","","","1677.3000000715256","<p><b>New</b> animals with <b>new</b> treasure chests live here. You need to explore to discover where the animal with the best treasure chest is.</p>
                    <p> Like before, once you figure out which animal has the chest with the most treasure, you should try to get to that animal and select that chest! </p>","","instructions","","","","","","","","","","","",""
"learning-instructions","293","1137317","0.0-4.0-1.1-0.1","spark_pilot_norest","9170","2","17","Male","","","","","","","1083.9000000953674","<p> Remember, when you see a picture of the place, use the up and down keys to <b>find an animal</b>.</p>
            <p> When you encounter an animal, you should use the left and right keys to <b>select a treasure chest</b>.</p>
            <p> Don't forget to look out for the robber! </p>","","instructions","","","","","","","","","","","",""
"revaluation","294","1141345","0.0-4.0-2.1-0.50","spark_pilot_norest","9170","2","17","Male","","false","","","","","[664.1999999284744]","./assets/img/canyon/catch/6.jpg","[""ArrowUp""]","value training","canyon","-10","{""ArrowUp,ArrowLeft"":26,""ArrowUp,ArrowRight"":10,""ArrowDown,ArrowLeft"":5,""ArrowDown,ArrowRight"":17}","false","ArrowUp","true","original","2","0","","",""
"html-keyboard-response","295","1141860","0.0-4.0-2.1-1.50","spark_pilot_norest","9170","2","17","Male","","","","","","","null","<div style=""font-size:60px;"">+</div>","null","fixation","","","","","","","","","1","","",""
"revaluation","296","1147893","0.0-4.0-2.1-0.51","spark_pilot_norest","9170","2","17","Male","","false","","","","","[409.1999999284744,347.10000002384186]","./assets/img/canyon/memory/4.jpg","[""ArrowUp"",""ArrowLeft""]","value training","canyon","26","{""ArrowUp,ArrowLeft"":26,""ArrowUp,ArrowRight"":10,""ArrowDown,ArrowLeft"":5,""ArrowDown,ArrowRight"":17}","true","ArrowUp,ArrowLeft","false","original","2","2","","",""
"html-keyboard-response","297","1148406","0.0-4.0-2.1-1.51","spark_pilot_norest","9170","2","17","Male","","","","","","","null","<div style=""font-size:60px;"">+</div>","null","fixation","","","","","","","","","3","","",""
"revaluation","298","1154431","0.0-4.0-2.1-0.52","spark_pilot_norest","9170","2","17","Male","","false","","","","","[401.2000000476837,390.89999997615814]","./assets/img/canyon/memory/41.jpg","[""ArrowUp"",""ArrowRight""]","value training","canyon","10","{""ArrowUp,ArrowLeft"":26,""ArrowUp,ArrowRight"":10,""ArrowDown,ArrowLeft"":5,""ArrowDown,ArrowRight"":17}","false","ArrowUp,ArrowRight","false","original","2","4","","",""
"html-keyboard-response","299","1154934","0.0-4.0-2.1-1.52","spark_pilot_norest","9170","2","17","Male","","","","","","","null","<div style=""font-size:60px;"">+</div>","null","fixation","","","","","","","","","5","","",""
"revaluation","300","1160967","0.0-4.0-2.1-0.53","spark_pilot_norest","9170","2","17","Male","","false","","","","","[518.6999999284744,358.8000000715256]","./assets/img/canyon/memory/21.jpg","[""ArrowDown"",""ArrowLeft""]","value training","canyon","5","{""ArrowUp,ArrowLeft"":26,""ArrowUp,ArrowRight"":10,""ArrowDown,ArrowLeft"":5,""ArrowDown,ArrowRight"":17}","false","ArrowDown,ArrowLeft","false","original","2","6","","",""
"html-keyboard-response","301","1161483","0.0-4.0-2.1-1.53","spark_pilot_norest","9170","2","17","Male","","","","","","","null","<div style=""font-size:60px;"">+</div>","null","fixation","","","","","","","","","7","","",""
"revaluation","302","1165505","0.0-4.0-2.1-0.54","spark_pilot_norest","9170","2","17","Male","","false","","","","","[776.5]","./assets/img/canyon/catch/2.jpg","[""spaceBar""]","value training","canyon","0","{""ArrowUp,ArrowLeft"":26,""ArrowUp,ArrowRight"":10,""ArrowDown,ArrowLeft"":5,""ArrowDown,ArrowRight"":17}","true","spaceBar","true","original","2","8","","",""
"html-keyboard-response","303","1166019","0.0-4.0-2.1-1.54","spark_pilot_norest","9170","2","17","Male","","","","","","","null","<div style=""font-size:60px;"">+</div>","null","fixation","","","","","","","","","9","","",""
"revaluation","304","1172031","0.0-4.0-2.1-0.55","spark_pilot_norest","9170","2","17","Male","","false","","","","","[409.2000000476837,311.10000002384186]","./assets/img/canyon/memory/39.jpg","[""ArrowDown"",""ArrowRight""]","value training","canyon","17","{""ArrowUp,ArrowLeft"":26,""ArrowUp,ArrowRight"":10,""ArrowDown,ArrowLeft"":5,""ArrowDown,ArrowRight"":17}","false","ArrowDown,ArrowRight","false","original","2","10","","",""
"html-keyboard-response","305","1172532","0.0-4.0-2.1-1.55","spark_pilot_norest","9170","2","17","Male","","","","","","","null","<div style=""font-size:60px;"">+</div>","null","fixation","","","","","","","","","11","","",""
"revaluation","306","1178542","0.0-4.0-2.1-0.56","spark_pilot_norest","9170","2","17","Male","","false","","","","","[856.9000000953674,546.2000000476837]","./assets/img/canyon/memory/30.jpg","[""ArrowUp"",""ArrowLeft""]","value training","canyon","26","{""ArrowUp,ArrowLeft"":26,""ArrowUp,ArrowRight"":10,""ArrowDown,ArrowLeft"":5,""ArrowDown,ArrowRight"":17}","true","ArrowUp,ArrowLeft","false","original","2","12","","",""
"html-keyboard-response","307","1179045","0.0-4.0-2.1-1.56","spark_pilot_norest","9170","2","17","Male","","","","","","","null","<div style=""font-size:60px;"">+</div>","null","fixation","","","","","","","","","13","","",""
"revaluation","308","1185055","0.0-4.0-2.1-0.57","spark_pilot_norest","9170","2","17","Male","","false","","","","","[567.1000000238419,342.89999997615814]","./assets/img/canyon/memory/39.jpg","[""ArrowUp"",""ArrowLeft""]","value training","canyon","26","{""ArrowUp,ArrowLeft"":26,""ArrowUp,ArrowRight"":10,""ArrowDown,ArrowLeft"":5,""ArrowDown,ArrowRight"":17}","true","ArrowUp,ArrowLeft","false","original","2","14","","",""
"html-keyboard-response","309","1185557","0.0-4.0-2.1-1.57","spark_pilot_norest","9170","2","17","Male","","","","","","","null","<div style=""font-size:60px;"">+</div>","null","fixation","","","","","","","","","15","","",""
"revaluation","310","1191568","0.0-4.0-2.1-0.58","spark_pilot_norest","9170","2","17","Male","","false","","","","","[446.89999997615814,371.5]","./assets/img/canyon/memory/35.jpg","[""ArrowUp"",""ArrowLeft""]","value training","canyon","26","{""ArrowUp,ArrowLeft"":26,""ArrowUp,ArrowRight"":10,""ArrowDown,ArrowLeft"":5,""ArrowDown,ArrowRight"":17}","true","ArrowUp,ArrowLeft","false","original","2","16","","",""
"html-keyboard-response","311","1192070","0.0-4.0-2.1-1.58","spark_pilot_norest","9170","2","17","Male","","","","","","","null","<div style=""font-size:60px;"">+</div>","null","fixation","","","","","","","","","17","","",""
"revaluation","312","1198081","0.0-4.0-2.1-0.59","spark_pilot_norest","9170","2","17","Male","","false","","","","","[368,245.90000009536743]","./assets/img/canyon/memory/21.jpg","[""ArrowUp"",""ArrowLeft""]","value training","canyon","26","{""ArrowUp,ArrowLeft"":26,""ArrowUp,ArrowRight"":10,""ArrowDown,ArrowLeft"":5,""ArrowDown,ArrowRight"":17}","true","ArrowUp,ArrowLeft","false","original","2","18","","",""
"html-keyboard-response","313","1198583","0.0-4.0-2.1-1.59","spark_pilot_norest","9170","2","17","Male","","","","","","","null","<div style=""font-size:60px;"">+</div>","null","fixation","","","","","","","","","19","","",""
