"trial_type","trial_index","time_elapsed","internal_node_id","task_version","subject_id","assigned_condition","age","gender","success","timeout","failed_images","failed_audio","failed_video","browser_interaction","rt","stimulus","response","task_part","environment","score","rewardMap","correct","fullState","isCatch","condition","order","trial_num","key_press","ground_truth","bonus"
"pavlovia","0","1228","0.0-0.0","spark_pilot_norest","10827","8","7","Male","","","","","","","","","","","","","","","","","","","","","",""
"preload","1","33409","0.0-1.0","spark_pilot_norest","10827","8","7","Male","true","false","[]","[]","[]","[{""event"":""fullscreenenter"",""trial"":2,""time"":35415},{""event"":""blur"",""trial"":155,""time"":812400},{""event"":""focus"",""trial"":155,""time"":813653},{""event"":""blur"",""trial"":169,""time"":851961},{""event"":""focus"",""trial"":169,""time"":853787},{""event"":""fullscreenexit"",""trial"":254,""time"":1079828}]","","","","","","","","","","","","","","","",""
"fullscreen","2","36359","0.0-2.0","spark_pilot_norest","10827","8","7","Male","true","","","","","","","","","","","","","","","","","","","","",""
"audio-button-response","3","39514","0.0-3.0-0.0-0.0","spark_pilot_norest","10827","8","7","Male","","","","","","","2811","./assets/audio/audiotest/turtle.mp3","2","audio_test","","","","","","","","","","","",""
"learning-instructions","4","51619","0.0-3.0-1.0-0.0","spark_pilot_norest","10827","8","7","Male","","","","","","","5102.89999961853","<p> Welcome! Please remember to stay in fullscreen mode and don't click away from the experiment. </p>","","instructions","","","","","","","","","","","",""
"learning-instructions","5","63129","0.0-3.0-1.0-0.1","spark_pilot_norest","10827","8","7","Male","","","","","","","3069.7999997138977","<p> Today you will be playing a game to earn treasure. </p>
            <p> At the end of the experiment, you will earn a bonus based on how much treasure you find. </p>
            <img src='./assets/img/instructions/treasure.jpg' class='instructions-image'>","","instructions","","","","","","","","","","","",""
"learning-instructions","6","75330","0.0-3.0-1.0-0.2","spark_pilot_norest","10827","8","7","Male","","","","","","","3940.4000000953674","<p> Animals have hidden treasure in treasure chests. </p>
            <p> You need to first find an animal and then choose which of their treasure chests to search. </p>
            <img src='./assets/img/space/animals/cat.jpg' class='instructions-image'>","","instructions","","","","","","","","","","","",""
"learning-instructions","7","89585","0.0-3.0-1.0-0.3","spark_pilot_norest","10827","8","7","Male","","","","","","","1074.6999998092651","<p> In each round, you will search for treasure in a different place. In the real game, there will be two rounds. </p>
            <p> You will begin with a separate, practice round where you will search for treasure in outer space. </p>
            <img src='./assets/img/space/0.jpg' class='instructions-image'>","","instructions","","","","","","","","","","","",""
"learning-instructions","8","102358","0.0-3.0-1.0-0.4","spark_pilot_norest","10827","8","7","Male","","","","","","","1347.2000002861023","<p> On every turn, you will see a picture of the place that you are in, but the specific image may be different each time. </p>
            <p> For example, both of these images mean you are in outer space. </p>
            <img src='./assets/img/instructions/outerspace.jpg' class='instructions-image'>","","instructions","","","","","","","","","","","",""
"learning-instructions","9","112597","0.0-3.0-1.0-0.5","spark_pilot_norest","10827","8","7","Male","","","","","","","2405.8999996185303","<p> You need to decide which direction to travel in. </p>
            <p> You can choose between going <b>up or down</b> by using the arrow keys. </p>
            <img src='./assets/img/instructions/updown.jpg' class='instructions-image'>","","instructions","","","","","","","","","","","",""
"learning-instructions","10","122624","0.0-3.0-1.0-0.6","spark_pilot_norest","10827","8","7","Male","","","","","","","1204.9000000953674","<p> You will have <b>2 seconds</b> to make your choice. </p>
            <p> If you do not make a choice within 2 seconds, you will not find an animal or earn treasure. </p>
            <img src='./assets/img/instructions/2seconds.jpg' class='instructions-image'>","","instructions","","","","","","","","","","","",""
"learning-instructions","11","131222","0.0-3.0-1.0-0.7","spark_pilot_norest","10827","8","7","Male","","","","","","","1561.4000000953674","<p> Let’s try practicing that now! </p>
            <p> When you see a picture of the place you are in, press the <b>up</b> key to travel up. </p>
            <img src='./assets/img/instructions/pressUp.jpg' class='instructions-image'>","","instructions","","","","","","","","","","","",""
"revaluation","12","135281","0.0-3.0-2.0-0.0","spark_pilot_norest","10827","8","7","Male","","true","","","","","[]","./assets/img/space/0.jpg","[]","first stage practice","space","-5","null","null","","false","","","","","",""
"html-keyboard-response","13","135791","0.0-3.0-2.0-1.0","spark_pilot_norest","10827","8","7","Male","","","","","","","null","<div style=""font-size:60px;"">+</div>","null","fixation","","","","","","","","","","","",""
"revaluation","14","139830","0.0-3.0-2.0-0.1","spark_pilot_norest","10827","8","7","Male","","false","","","","","[851.1999998092651]","./assets/img/space/1.jpg","[""ArrowUp""]","first stage practice","space","0","null","null","ArrowUp","false","","","","","",""
"html-keyboard-response","15","140341","0.0-3.0-2.0-1.1","spark_pilot_norest","10827","8","7","Male","","","","","","","null","<div style=""font-size:60px;"">+</div>","null","fixation","","","","","","","","","","","",""
"revaluation","16","144375","0.0-3.0-2.0-0.2","spark_pilot_norest","10827","8","7","Male","","false","","","","","[1959.1999998092651]","./assets/img/space/2.jpg","[""ArrowUp""]","first stage practice","space","0","null","null","ArrowUp","false","","","","","",""
"html-keyboard-response","17","144886","0.0-3.0-2.0-1.2","spark_pilot_norest","10827","8","7","Male","","","","","","","null","<div style=""font-size:60px;"">+</div>","null","fixation","","","","","","","","","","","",""
"learning-instructions","18","152046","0.0-3.0-3.0-0.0","spark_pilot_norest","10827","8","7","Male","","","","","","","2466.4000000953674","<p> Great job! Now try pressing the <b>down</b> key to travel down. </p>
            <img src='./assets/img/instructions/pressDown.jpg' class='instructions-image'>","","instructions","","","","","","","","","","","",""
"revaluation","19","156065","0.0-3.0-4.0-0.0","spark_pilot_norest","10827","8","7","Male","","false","","","","","[92.30000019073486]","./assets/img/space/3.jpg","[""ArrowDown""]","first stage practice","space","0","null","null","ArrowDown","false","","","","","",""
"html-keyboard-response","20","156570","0.0-3.0-4.0-1.0","spark_pilot_norest","10827","8","7","Male","","","","","","","null","<div style=""font-size:60px;"">+</div>","null","fixation","","","","","","","","","","","",""
"revaluation","21","160595","0.0-3.0-4.0-0.1","spark_pilot_norest","10827","8","7","Male","","false","","","","","[1806.1999998092651]","./assets/img/space/4.jpg","[""ArrowDown""]","first stage practice","space","0","null","null","ArrowDown","false","","","","","",""
"html-keyboard-response","22","161097","0.0-3.0-4.0-1.1","spark_pilot_norest","10827","8","7","Male","","","","","","","null","<div style=""font-size:60px;"">+</div>","null","fixation","","","","","","","","","","","",""
"revaluation","23","165109","0.0-3.0-4.0-0.2","spark_pilot_norest","10827","8","7","Male","","true","","","","","[]","./assets/img/space/5.jpg","[]","first stage practice","space","-5","null","null","","false","","","","","",""
"html-keyboard-response","24","165611","0.0-3.0-4.0-1.2","spark_pilot_norest","10827","8","7","Male","","","","","","","null","<div style=""font-size:60px;"">+</div>","null","fixation","","","","","","","","","","","",""
"learning-instructions","25","176775","0.0-3.0-5.0-0.0","spark_pilot_norest","10827","8","7","Male","","","","","","","1316.7999997138977","<p> The animals don’t move, so the animal in the upper part of a place will stay in the upper part of a place, and the animal in the lower part of a place will stay in the lower part of a place. </p>","","instructions","","","","","","","","","","","",""
"learning-instructions","26","187952","0.0-3.0-5.0-0.1","spark_pilot_norest","10827","8","7","Male","","","","","","","2051.8999996185303","<p> Each animal has two treasure chests for you to choose from. </p>
            <p> The amount of treasure in each chest can range from <b> 0 to 40 pieces.</b></p>","","instructions","","","","","","","","","","","",""
"learning-instructions","27","204807","0.0-3.0-5.0-0.2","spark_pilot_norest","10827","8","7","Male","","","","","","","5656.400000095367","<p> You should decide which chest to search for treasure by using the <b>left</b> and <b>right</b> arrow keys. </p>
            <p><b> Pay attention to which animal is on the screen, as the animals have different treasure chests. </b></p>
            <img src='./assets/img/instructions/leftright.jpg' class='instructions-image'>","","instructions","","","","","","","","","","","",""
"learning-instructions","28","215257","0.0-3.0-5.0-0.3","spark_pilot_norest","10827","8","7","Male","","","","","","","4066.3999996185303","<p> Let’s try practicing that now. </p>
            <p> When you see an animal, choose which chest to search for treasure. </p>
            <img src='./assets/img/instructions/chooseChest.jpg' class='instructions-image'>","","instructions","","","","","","","","","","","",""
"revaluation","29","219280","0.0-3.0-6.0-0.0","spark_pilot_norest","10827","8","7","Male","","false","","","","","[1167.6999998092651]","./assets/img/space/animals/cat.jpg","[""ArrowRight""]","second stage practice","space","36","{""ArrowUp,ArrowLeft"":3,""ArrowUp,ArrowRight"":36,""ArrowDown,ArrowLeft"":15,""ArrowDown,ArrowRight"":23}","true","ArrowUp,ArrowRight","","","","","","",""
"html-keyboard-response","30","219785","0.0-3.0-6.0-1.0","spark_pilot_norest","10827","8","7","Male","","","","","","","null","<div style=""font-size:60px;"">+</div>","null","fixation","","","","","","","","","","","",""
"revaluation","31","223800","0.0-3.0-6.0-0.1","spark_pilot_norest","10827","8","7","Male","","false","","","","","[589.7999997138977]","./assets/img/space/animals/cat.jpg","[""ArrowLeft""]","second stage practice","space","3","{""ArrowUp,ArrowLeft"":3,""ArrowUp,ArrowRight"":36,""ArrowDown,ArrowLeft"":15,""ArrowDown,ArrowRight"":23}","false","ArrowUp,ArrowLeft","","","","","","",""
"html-keyboard-response","32","224305","0.0-3.0-6.0-1.1","spark_pilot_norest","10827","8","7","Male","","","","","","","null","<div style=""font-size:60px;"">+</div>","null","fixation","","","","","","","","","","","",""
"revaluation","33","228322","0.0-3.0-6.0-0.2","spark_pilot_norest","10827","8","7","Male","","false","","","","","[442.8999996185303]","./assets/img/space/animals/rabbit.jpg","[""ArrowRight""]","second stage practice","space","23","{""ArrowUp,ArrowLeft"":3,""ArrowUp,ArrowRight"":36,""ArrowDown,ArrowLeft"":15,""ArrowDown,ArrowRight"":23}","true","ArrowDown,ArrowRight","","","","","","",""
"html-keyboard-response","34","228838","0.0-3.0-6.0-1.2","spark_pilot_norest","10827","8","7","Male","","","","","","","null","<div style=""font-size:60px;"">+</div>","null","fixation","","","","","","","","","","","",""
"revaluation","35","232852","0.0-3.0-6.0-0.3","spark_pilot_norest","10827","8","7","Male","","false","","","","","[384.80000019073486]","./assets/img/space/animals/rabbit.jpg","[""ArrowLeft""]","second stage practice","space","15","{""ArrowUp,ArrowLeft"":3,""ArrowUp,ArrowRight"":36,""ArrowDown,ArrowLeft"":15,""ArrowDown,ArrowRight"":23}","false","ArrowDown,ArrowLeft","","","","","","",""
"html-keyboard-response","36","233365","0.0-3.0-6.0-1.3","spark_pilot_norest","10827","8","7","Male","","","","","","","null","<div style=""font-size:60px;"">+</div>","null","fixation","","","","","","","","","","","",""
"learning-instructions","37","253211","0.0-3.0-7.0-0.0","spark_pilot_norest","10827","8","7","Male","","","","","","","3031.3999996185303","<p> Great job. Now let’s try putting it together. </p>
            <p> On each turn, you will first see a picture to remind you of the place you are in, and you need to choose whether to go up or down. </p>
            <p> Then you will see an animal and choose which of its chests to search for treasure. </p>","","instructions","","","","","","","","","","","",""
"learning-instructions","38","264166","0.0-3.0-7.0-0.1","spark_pilot_norest","10827","8","7","Male","","","","","","","2686.5","<p> When you choose whether to go up or down, try to go to the animal with the chest with the most treasure. </p>
            <p> Try practicing that now! </p>","","instructions","","","","","","","","","","","",""
"revaluation","39","270182","0.0-3.0-8.0-0.0","spark_pilot_norest","10827","8","7","Male","","false","","","","","[958.5,545.2999997138977]","./assets/img/space/6.jpg","[""ArrowDown"",""ArrowRight""]","full practice","space","23","{""ArrowUp,ArrowLeft"":3,""ArrowUp,ArrowRight"":36,""ArrowDown,ArrowLeft"":15,""ArrowDown,ArrowRight"":23}","false","ArrowDown,ArrowRight","false","","","","","",""
"html-keyboard-response","40","270689","0.0-3.0-8.0-1.0","spark_pilot_norest","10827","8","7","Male","","","","","","","null","<div style=""font-size:60px;"">+</div>","null","fixation","","","","","","","","","","","",""
"revaluation","41","276717","0.0-3.0-8.0-0.1","spark_pilot_norest","10827","8","7","Male","","false","","","","","[527.4000000953674,1051.2000002861023]","./assets/img/space/7.jpg","[""ArrowUp"",""ArrowRight""]","full practice","space","36","{""ArrowUp,ArrowLeft"":3,""ArrowUp,ArrowRight"":36,""ArrowDown,ArrowLeft"":15,""ArrowDown,ArrowRight"":23}","true","ArrowUp,ArrowRight","false","","","","","",""
"html-keyboard-response","42","277234","0.0-3.0-8.0-1.1","spark_pilot_norest","10827","8","7","Male","","","","","","","null","<div style=""font-size:60px;"">+</div>","null","fixation","","","","","","","","","","","",""
"revaluation","43","283257","0.0-3.0-8.0-0.2","spark_pilot_norest","10827","8","7","Male","","false","","","","","[439.80000019073486,605.2000002861023]","./assets/img/space/8.jpg","[""ArrowDown"",""ArrowLeft""]","full practice","space","15","{""ArrowUp,ArrowLeft"":3,""ArrowUp,ArrowRight"":36,""ArrowDown,ArrowLeft"":15,""ArrowDown,ArrowRight"":23}","false","ArrowDown,ArrowLeft","false","","","","","",""
"html-keyboard-response","44","283767","0.0-3.0-8.0-1.2","spark_pilot_norest","10827","8","7","Male","","","","","","","null","<div style=""font-size:60px;"">+</div>","null","fixation","","","","","","","","","","","",""
"revaluation","45","289805","0.0-3.0-8.0-0.3","spark_pilot_norest","10827","8","7","Male","","false","","","","","[779.4000000953674,653.5]","./assets/img/space/9.jpg","[""ArrowUp"",""ArrowRight""]","full practice","space","36","{""ArrowUp,ArrowLeft"":3,""ArrowUp,ArrowRight"":36,""ArrowDown,ArrowLeft"":15,""ArrowDown,ArrowRight"":23}","true","ArrowUp,ArrowRight","false","","","","","",""
"html-keyboard-response","46","290308","0.0-3.0-8.0-1.3","spark_pilot_norest","10827","8","7","Male","","","","","","","null","<div style=""font-size:60px;"">+</div>","null","fixation","","","","","","","","","","","",""
"revaluation","47","296333","0.0-3.0-8.0-0.4","spark_pilot_norest","10827","8","7","Male","","false","","","","","[791.7000002861023,498.5]","./assets/img/space/10.jpg","[""ArrowUp"",""ArrowRight""]","full practice","space","36","{""ArrowUp,ArrowLeft"":3,""ArrowUp,ArrowRight"":36,""ArrowDown,ArrowLeft"":15,""ArrowDown,ArrowRight"":23}","true","ArrowUp,ArrowRight","false","","","","","",""
"html-keyboard-response","48","296839","0.0-3.0-8.0-1.4","spark_pilot_norest","10827","8","7","Male","","","","","","","null","<div style=""font-size:60px;"">+</div>","null","fixation","","","","","","","","","","","",""
"learning-instructions","49","309649","0.0-3.0-9.0-0.0","spark_pilot_norest","10827","8","7","Male","","","","","","","2312.9000000953674","<p> One last thing: sometimes, you will see a robber. The robber can be anywhere in the picture. </p>
            <p> If you do not stop them, you will lose treasure. </p>
            <img src='./assets/img/instructions/robber.jpg' class='instructions-image'>","","instructions","","","","","","","","","","","",""
"learning-instructions","50","318315","0.0-3.0-9.0-0.1","spark_pilot_norest","10827","8","7","Male","","","","","","","1498.8000001907349","<p> If you see the robber, you should <b>press the space bar</b> rather than using the arrow keys. </p>
            <p> Try practicing that now! </p>","","instructions","","","","","","","","","","","",""
"revaluation","51","322337","0.0-3.0-10.0-0.0","spark_pilot_norest","10827","8","7","Male","","false","","","","","[1322.1000003814697]","./assets/img/space/catch/0.jpg","[""spaceBar""]","catch practice","space","0","{""ArrowUp,ArrowLeft"":3,""ArrowUp,ArrowRight"":36,""ArrowDown,ArrowLeft"":15,""ArrowDown,ArrowRight"":23}","true","spaceBar","true","","","","","",""
"html-keyboard-response","52","322850","0.0-3.0-10.0-1.0","spark_pilot_norest","10827","8","7","Male","","","","","","","null","<div style=""font-size:60px;"">+</div>","null","fixation","","","","","","","","","","","",""
"revaluation","53","326948","0.0-3.0-10.0-0.1","spark_pilot_norest","10827","8","7","Male","","false","","","","","[852.0999999046326]","./assets/img/space/catch/1.jpg","[""spaceBar""]","catch practice","space","0","{""ArrowUp,ArrowLeft"":3,""ArrowUp,ArrowRight"":36,""ArrowDown,ArrowLeft"":15,""ArrowDown,ArrowRight"":23}","true","spaceBar","true","","","","","",""
"html-keyboard-response","54","327457","0.0-3.0-10.0-1.1","spark_pilot_norest","10827","8","7","Male","","","","","","","null","<div style=""font-size:60px;"">+</div>","null","fixation","","","","","","","","","","","",""
"revaluation","55","331466","0.0-3.0-10.0-0.2","spark_pilot_norest","10827","8","7","Male","","false","","","","","[524.3999996185303]","./assets/img/space/catch/2.jpg","[""spaceBar""]","catch practice","space","0","{""ArrowUp,ArrowLeft"":3,""ArrowUp,ArrowRight"":36,""ArrowDown,ArrowLeft"":15,""ArrowDown,ArrowRight"":23}","true","spaceBar","true","","","","","",""
"html-keyboard-response","56","331971","0.0-3.0-10.0-1.2","spark_pilot_norest","10827","8","7","Male","","","","","","","null","<div style=""font-size:60px;"">+</div>","null","fixation","","","","","","","","","","","",""
"learning-instructions","57","343951","0.0-3.0-11.0-0.0-0.0","spark_pilot_norest","10827","8","7","Male","","","","","","","6616.10000038147","<p> Now, you will practice a shortened version of the game to get a sense of how it all fits together. </p>","","instructions","","","","","","","","","","","",""
"learning-instructions","58","356287","0.0-3.0-11.0-0.0-0.1","spark_pilot_norest","10827","8","7","Male","","","","","","","9152.199999809265","<p>This time you are searching for treasure in outer space.</p>","","instructions","","","","","","","","","","","",""
"learning-instructions","59","376669","0.0-3.0-11.0-1.0-0.0","spark_pilot_norest","10827","8","7","Male","","","","","","","5614","<p> Remember, when you see a picture of the place, use the up and down keys to <b>find an animal</b>.</p>
            <p> When you encounter an animal, you should use the left and right keys to <b>select a treasure chest</b>.</p>
            <p> Don't forget to look out for the robber! </p>","","instructions","","","","","","","","","","","",""
"revaluation","60","382688","0.0-3.0-11.0-2.0-0.0","spark_pilot_norest","10827","8","7","Male","","false","","","","","[1458.7000002861023,1708]","./assets/img/space/11.jpg","[""ArrowUp"",""ArrowLeft""]","practice block","space","3","{""ArrowUp,ArrowLeft"":3,""ArrowUp,ArrowRight"":36,""ArrowDown,ArrowLeft"":15,""ArrowDown,ArrowRight"":23}","false","ArrowUp,ArrowLeft","false","","","","","",""
"html-keyboard-response","61","383200","0.0-3.0-11.0-2.0-1.0","spark_pilot_norest","10827","8","7","Male","","","","","","","null","<div style=""font-size:60px;"">+</div>","null","fixation","","","","","","","","","","","",""
"revaluation","62","387221","0.0-3.0-11.0-2.0-0.1","spark_pilot_norest","10827","8","7","Male","","true","","","","","[]","./assets/img/space/12.jpg","[]","practice block","space","-5","{""ArrowUp,ArrowLeft"":3,""ArrowUp,ArrowRight"":36,""ArrowDown,ArrowLeft"":15,""ArrowDown,ArrowRight"":23}","false","","false","","","","","",""
"html-keyboard-response","63","387729","0.0-3.0-11.0-2.0-1.1","spark_pilot_norest","10827","8","7","Male","","","","","","","null","<div style=""font-size:60px;"">+</div>","null","fixation","","","","","","","","","","","",""
"revaluation","64","391744","0.0-3.0-11.0-2.0-0.2","spark_pilot_norest","10827","8","7","Male","","true","","","","","[]","./assets/img/space/13.jpg","[]","practice block","space","-5","{""ArrowUp,ArrowLeft"":3,""ArrowUp,ArrowRight"":36,""ArrowDown,ArrowLeft"":15,""ArrowDown,ArrowRight"":23}","false","","false","","","","","",""
"html-keyboard-response","65","392246","0.0-3.0-11.0-2.0-1.2","spark_pilot_norest","10827","8","7","Male","","","","","","","null","<div style=""font-size:60px;"">+</div>","null","fixation","","","","","","","","","","","",""
"revaluation","66","398259","0.0-3.0-11.0-2.0-0.3","spark_pilot_norest","10827","8","7","Male","","true","","","","","[695.0999999046326]","./assets/img/space/14.jpg","[""ArrowDown""]","practice block","space","-5","{""ArrowUp,ArrowLeft"":3,""ArrowUp,ArrowRight"":36,""ArrowDown,ArrowLeft"":15,""ArrowDown,ArrowRight"":23}","false","ArrowDown","false","","","","","",""
"html-keyboard-response","67","398776","0.0-3.0-11.0-2.0-1.3","spark_pilot_norest","10827","8","7","Male","","","","","","","null","<div style=""font-size:60px;"">+</div>","null","fixation","","","","","","","","","","","",""
"revaluation","68","404812","0.0-3.0-11.0-2.0-0.4","spark_pilot_norest","10827","8","7","Male","","false","","","","","[1469.9000000953674,852.0999999046326]","./assets/img/space/11.jpg","[""ArrowDown"",""ArrowRight""]","practice block","space","23","{""ArrowUp,ArrowLeft"":3,""ArrowUp,ArrowRight"":36,""ArrowDown,ArrowLeft"":15,""ArrowDown,ArrowRight"":23}","false","ArrowDown,ArrowRight","false","","","","","",""
"html-keyboard-response","69","405313","0.0-3.0-11.0-2.0-1.4","spark_pilot_norest","10827","8","7","Male","","","","","","","null","<div style=""font-size:60px;"">+</div>","null","fixation","","","","","","","","","","","",""
"revaluation","70","411334","0.0-3.0-11.0-2.0-0.5","spark_pilot_norest","10827","8","7","Male","","false","","","","","[652.5999999046326,558.5]","./assets/img/space/12.jpg","[""ArrowDown"",""ArrowRight""]","practice block","space","23","{""ArrowUp,ArrowLeft"":3,""ArrowUp,ArrowRight"":36,""ArrowDown,ArrowLeft"":15,""ArrowDown,ArrowRight"":23}","false","ArrowDown,ArrowRight","false","","","","","",""
"html-keyboard-response","71","411842","0.0-3.0-11.0-2.0-1.5","spark_pilot_norest","10827","8","7","Male","","","","","","","null","<div style=""font-size:60px;"">+</div>","null","fixation","","","","","","","","","","","",""
"revaluation","72","417862","0.0-3.0-11.0-2.0-0.6","spark_pilot_norest","10827","8","7","Male","","false","","","","","[592.9000000953674,365.7000002861023]","./assets/img/space/13.jpg","[""ArrowDown"",""ArrowRight""]","practice block","space","23","{""ArrowUp,ArrowLeft"":3,""ArrowUp,ArrowRight"":36,""ArrowDown,ArrowLeft"":15,""ArrowDown,ArrowRight"":23}","false","ArrowDown,ArrowRight","false","","","","","",""
"html-keyboard-response","73","418376","0.0-3.0-11.0-2.0-1.6","spark_pilot_norest","10827","8","7","Male","","","","","","","null","<div style=""font-size:60px;"">+</div>","null","fixation","","","","","","","","","","","",""
"revaluation","74","424388","0.0-3.0-11.0-2.0-0.7","spark_pilot_norest","10827","8","7","Male","","false","","","","","[427.30000019073486,578.2999997138977]","./assets/img/space/14.jpg","[""ArrowDown"",""ArrowRight""]","practice block","space","23","{""ArrowUp,ArrowLeft"":3,""ArrowUp,ArrowRight"":36,""ArrowDown,ArrowLeft"":15,""ArrowDown,ArrowRight"":23}","false","ArrowDown,ArrowRight","false","","","","","",""
"html-keyboard-response","75","424895","0.0-3.0-11.0-2.0-1.7","spark_pilot_norest","10827","8","7","Male","","","","","","","null","<div style=""font-size:60px;"">+</div>","null","fixation","","","","","","","","","","","",""
"revaluation","76","428904","0.0-3.0-11.0-2.0-0.8","spark_pilot_norest","10827","8","7","Male","","false","","","","","[548.4000000953674]","./assets/img/space/catch/3.jpg","[""ArrowUp""]","practice block","space","-10","{""ArrowUp,ArrowLeft"":3,""ArrowUp,ArrowRight"":36,""ArrowDown,ArrowLeft"":15,""ArrowDown,ArrowRight"":23}","false","ArrowUp","true","","","","","",""
"html-keyboard-response","77","429418","0.0-3.0-11.0-2.0-1.8","spark_pilot_norest","10827","8","7","Male","","","","","","","null","<div style=""font-size:60px;"">+</div>","null","fixation","","","","","","","","","","","",""
"learning-instructions","78","450799","0.0-3.0-11.0-3.0-0.0","spark_pilot_norest","10827","8","7","Male","","","","","","","8270.599999904633","<p> Now, you will travel with a friend who will choose whether you go up or down first. </p>
            <p> On these turns, you will just see the animal that they found. You will still get to choose which chest to search for treasure.</p>","","instructions","","","","","","","","","","","",""
"revaluation","79","454808","0.0-3.0-11.0-4.0-0.0","spark_pilot_norest","10827","8","7","Male","","true","","","","","[]","./assets/img/space/animals/cat.jpg","[]","practice block","space","-5","{""ArrowUp,ArrowLeft"":3,""ArrowUp,ArrowRight"":36,""ArrowDown,ArrowLeft"":15,""ArrowDown,ArrowRight"":23}","false","ArrowUp","","","","","","",""
"html-keyboard-response","80","455320","0.0-3.0-11.0-4.0-1.0","spark_pilot_norest","10827","8","7","Male","","","","","","","null","<div style=""font-size:60px;"">+</div>","null","fixation","","","","","","","","","","","",""
"revaluation","81","459334","0.0-3.0-11.0-4.0-0.1","spark_pilot_norest","10827","8","7","Male","","false","","","","","[1010.5]","./assets/img/space/animals/rabbit.jpg","[""ArrowRight""]","practice block","space","23","{""ArrowUp,ArrowLeft"":3,""ArrowUp,ArrowRight"":36,""ArrowDown,ArrowLeft"":15,""ArrowDown,ArrowRight"":23}","true","ArrowDown,ArrowRight","","","","","","",""
"html-keyboard-response","82","459849","0.0-3.0-11.0-4.0-1.1","spark_pilot_norest","10827","8","7","Male","","","","","","","null","<div style=""font-size:60px;"">+</div>","null","fixation","","","","","","","","","","","",""
"revaluation","83","463871","0.0-3.0-11.0-4.0-0.2","spark_pilot_norest","10827","8","7","Male","","false","","","","","[1004]","./assets/img/space/animals/rabbit.jpg","[""ArrowLeft""]","practice block","space","15","{""ArrowUp,ArrowLeft"":3,""ArrowUp,ArrowRight"":36,""ArrowDown,ArrowLeft"":15,""ArrowDown,ArrowRight"":23}","false","ArrowDown,ArrowLeft","","","","","","",""
"html-keyboard-response","84","464385","0.0-3.0-11.0-4.0-1.2","spark_pilot_norest","10827","8","7","Male","","","","","","","null","<div style=""font-size:60px;"">+</div>","null","fixation","","","","","","","","","","","",""
"revaluation","85","468413","0.0-3.0-11.0-4.0-0.3","spark_pilot_norest","10827","8","7","Male","","false","","","","","[820.7000002861023]","./assets/img/space/animals/cat.jpg","[""ArrowLeft""]","practice block","space","3","{""ArrowUp,ArrowLeft"":3,""ArrowUp,ArrowRight"":36,""ArrowDown,ArrowLeft"":15,""ArrowDown,ArrowRight"":23}","false","ArrowUp,ArrowLeft","","","","","","",""
"html-keyboard-response","86","468928","0.0-3.0-11.0-4.0-1.3","spark_pilot_norest","10827","8","7","Male","","","","","","","null","<div style=""font-size:60px;"">+</div>","null","fixation","","","","","","","","","","","",""
"learning-instructions","87","477061","0.0-3.0-11.0-5.0-0.0","spark_pilot_norest","10827","8","7","Male","","","","","","","null","<p> You have almost finished this part of the game! </p>
            <p> We are going to ask you to make a few more choices. </p>","","instructions","","","","","","","","","","","",""
"learning-instructions","88","493072","0.0-3.0-11.0-5.0-0.1","spark_pilot_norest","10827","8","7","Male","","","","","","","null","<p> First, you need to decide whether to go up or down. When you see each picture, use the arrow keys to make your choice. </p>
            <p><b>You will not see which animal you found, but try to get to the one that will give you the most treasure.</b></p>","","instructions","","","","","","","","","","","",""
"html-keyboard-response","89","494085","0.0-3.0-11.0-6.0-0.0","spark_pilot_norest","10827","8","7","Male","","","","","","","null","<div style=""font-size:100px;color:red;"">Starting in...</div>","null","","","","","","","","","","","","",""
"html-keyboard-response","90","495096","0.0-3.0-11.0-6.0-1.0","spark_pilot_norest","10827","8","7","Male","","","","","","","null","<div style=""font-size:200px;color:red;"">3</div>","null","","","","","","","","","","","","",""
"html-keyboard-response","91","496099","0.0-3.0-11.0-6.0-2.0","spark_pilot_norest","10827","8","7","Male","","","","","","","null","<div style=""font-size:200px;color:red;"">2</div>","null","","","","","","","","","","","","",""
"html-keyboard-response","92","497104","0.0-3.0-11.0-6.0-3.0","spark_pilot_norest","10827","8","7","Male","","","","","","","null","<div style=""font-size:200px;color:red;"">1</div>","null","","","","","","","","","","","","",""
"revaluation","93","497946","0.0-3.0-11.0-7.0","spark_pilot_norest","10827","8","7","Male","","false","","","","","[836.4000000953674]","./assets/img/space/15.jpg","[""ArrowUp""]","practice block","space","0","{""ArrowUp,ArrowLeft"":3,""ArrowUp,ArrowRight"":36,""ArrowDown,ArrowLeft"":15,""ArrowDown,ArrowRight"":23}","true","ArrowUp","false","","","","","",""
"html-keyboard-response","94","498463","0.0-3.0-11.0-8.0","spark_pilot_norest","10827","8","7","Male","","","","","","","null","<div style=""font-size:60px;"">+</div>","null","fixation","","","","","","","","","","","",""
"learning-instructions","95","511853","0.0-3.0-11.0-9.0-0.0","spark_pilot_norest","10827","8","7","Male","","","","","","","null","<p> Now you will see the animals again and can search their chests for treasure. </p>
            <p> This time, you will not see how much treasure you earned, but you will earn more bonus money for making better choices. </p>","","instructions","","","","","","","","","","","",""
"html-keyboard-response","96","512857","0.0-3.0-11.0-10.0-0.0","spark_pilot_norest","10827","8","7","Male","","","","","","","null","<div style=""font-size:100px;color:red;"">Starting in...</div>","null","","","","","","","","","","","","",""
"html-keyboard-response","97","513861","0.0-3.0-11.0-10.0-1.0","spark_pilot_norest","10827","8","7","Male","","","","","","","null","<div style=""font-size:200px;color:red;"">3</div>","null","","","","","","","","","","","","",""
"html-keyboard-response","98","514865","0.0-3.0-11.0-10.0-2.0","spark_pilot_norest","10827","8","7","Male","","","","","","","null","<div style=""font-size:200px;color:red;"">2</div>","null","","","","","","","","","","","","",""
"html-keyboard-response","99","515869","0.0-3.0-11.0-10.0-3.0","spark_pilot_norest","10827","8","7","Male","","","","","","","null","<div style=""font-size:200px;color:red;"">1</div>","null","","","","","","","","","","","","",""
"revaluation","100","516354","0.0-3.0-11.0-11.0-0.0","spark_pilot_norest","10827","8","7","Male","","false","","","","","[479.90000009536743]","./assets/img/space/animals/cat.jpg","[""ArrowRight""]","practice block","space","0","{""ArrowUp,ArrowLeft"":3,""ArrowUp,ArrowRight"":36,""ArrowDown,ArrowLeft"":15,""ArrowDown,ArrowRight"":23}","true","ArrowUp,ArrowRight","","","","","","",""
"html-keyboard-response","101","516862","0.0-3.0-11.0-11.0-1.0","spark_pilot_norest","10827","8","7","Male","","","","","","","null","<div style=""font-size:60px;"">+</div>","null","fixation","","","","","","","","","","","",""
"revaluation","102","517735","0.0-3.0-11.0-11.0-0.1","spark_pilot_norest","10827","8","7","Male","","false","","","","","[870.3000001907349]","./assets/img/space/animals/rabbit.jpg","[""ArrowRight""]","practice block","space","0","{""ArrowUp,ArrowLeft"":3,""ArrowUp,ArrowRight"":36,""ArrowDown,ArrowLeft"":15,""ArrowDown,ArrowRight"":23}","true","ArrowDown,ArrowRight","","","","","","",""
"html-keyboard-response","103","518248","0.0-3.0-11.0-11.0-1.1","spark_pilot_norest","10827","8","7","Male","","","","","","","null","<div style=""font-size:60px;"">+</div>","null","fixation","","","","","","","","","","","",""
"learning-instructions","104","525937","0.0-3.0-12.0-0.0","spark_pilot_norest","10827","8","7","Male","","","","","","","3109.4000000953674","<p> Before you start, we're going to ask you a few questions about how the game works. </p>","","instructions","","","","","","","","","","","",""
"comp-q","105","533755","0.0-3.0-13.0-0.0-0.0","spark_pilot_norest","10827","8","7","Male","","","","","","","2218.1000003814697","<p> <b> True or False? </b> </p>
            <p> There can be 50 pieces of treasure in a given animal's chest. </p>","1","comp_question","","","","true","","","","","","","",""
"comp-q","106","542522","0.0-3.0-13.0-0.0-1.0","spark_pilot_norest","10827","8","7","Male","","","","","","","2113.7999997138977","<p> <b> That's right! </b> The amount of treasure in each chest can range from 0 to 40 pieces. </p>","0","comp_answer","","","","","","","","","","","",""
"comp-q","107","551625","0.0-3.0-13.0-0.1-0.1","spark_pilot_norest","10827","8","7","Male","","","","","","","1978.3000001907349","<p> <b> True or False? </b> </p><p> In this game, all animals have the same amount of treasure in their left and right chests. </p>","1","comp_question","","","","true","","","","","","","",""
"comp-q","108","558755","0.0-3.0-13.0-0.1-1.1","spark_pilot_norest","10827","8","7","Male","","","","","","","1908.6999998092651","<p> <b> That's right! </b> Animals have different amounts of treasure in their treasure chests. </p>","0","comp_answer","","","","","","","","","","","",""
"comp-q","109","566779","0.0-3.0-13.0-0.2-0.2","spark_pilot_norest","10827","8","7","Male","","","","","","","2182.199999809265","<p> <b> True or False? </b> </p><p> The same animal will always be there if you go up in the same place. </p>","1","comp_question","","","","false","","","","","","","",""
"comp-q","110","575467","0.0-3.0-13.0-0.2-1.2","spark_pilot_norest","10827","8","7","Male","","","","","","","2388.5","<p> <b>Incorrect.</b> One animal lives in the upper part and one lives in the lower part of every place. </p>","0","comp_answer","","","","","","","","","","","",""
"comp-q","111","589327","0.0-3.0-13.0-0.3-0.3","spark_pilot_norest","10827","8","7","Male","","","","","","","8039.299999713898","<p> <b> True or False? </b> </p><p> The same animal will always be there if you go up in the same place. </p>","0","comp_question","","","","true","","","","","","","",""
"comp-q","112","602088","0.0-3.0-13.0-0.3-1.3","spark_pilot_norest","10827","8","7","Male","","","","","","","6301","<p> <b> That's right! </b> One animal lives in the upper part and one lives in the lower part of every place. </p>","0","comp_answer","","","","","","","","","","","",""
"comp-q","113","611008","0.0-3.0-13.0-0.4-0.4","spark_pilot_norest","10827","8","7","Male","","","","","","","3399.3999996185303","<p> <b> True or False? </b> </p><p> If you see a different picture, it means you are in a new place. </p>","0","comp_question","","","","false","","","","","","","",""
"comp-q","114","626784","0.0-3.0-13.0-0.4-1.4","spark_pilot_norest","10827","8","7","Male","","","","","","","4666.800000190735","<p> <b>Incorrect.</b> Lots of different images may show the same place. For example,  you may see three different images that all remind you that you are in outer space. </p>","0","comp_answer","","","","","","","","","","","",""
"comp-q","115","639297","0.0-3.0-13.0-0.5-0.5","spark_pilot_norest","10827","8","7","Male","","","","","","","7018.5","<p> <b> True or False? </b> </p><p> If you see a different picture, it means you are in a new place. </p>","1","comp_question","","","","true","","","","","","","",""
"comp-q","116","652464","0.0-3.0-13.0-0.5-1.5","spark_pilot_norest","10827","8","7","Male","","","","","","","1937.6999998092651","<p> <b> That's right! </b> Lots of different images may show the same place. For example,  you may see three different images that all remind you that you are in outer space. </p>","0","comp_answer","","","","","","","","","","","",""
"learning-instructions","117","666599","0.0-3.0-14.0-0.0","spark_pilot_norest","10827","8","7","Male","","","","","","","4281.599999904633","<p> Good job. Remember to do your best because the amount of treasure you earn will be converted into bonus money. </p>
            <p> It’s time to start the real game! </p>","","instructions","","","","","","","","","","","",""
"learning-instructions","118","671242","0.0-4.0-0.0-0.0","spark_pilot_norest","10827","8","7","Male","","","","","","","1876","<p> This time you are searching for treasure in the <b>canyon</b>.</p>","","instructions","","","","","","","","","","","",""
"learning-instructions","119","690521","0.0-4.0-0.0-0.1","spark_pilot_norest","10827","8","7","Male","","","","","","","1994.6999998092651","<p><b>New</b> animals with <b>new</b> treasure chests live here. You need to explore to discover where the animal with the best treasure chest is.</p>
                    <p> Like before, once you figure out which animal has the chest with the most treasure, you should try to get to that animal and select that chest! </p>","","instructions","","","","","","","","","","","",""
"learning-instructions","120","707512","0.0-4.0-1.0-0.0","spark_pilot_norest","10827","8","7","Male","","","","","","","2265.4000000953674","<p> Remember, when you see a picture of the place, use the up and down keys to <b>find an animal</b>.</p>
            <p> When you encounter an animal, you should use the left and right keys to <b>select a treasure chest</b>.</p>
            <p> Don't forget to look out for the robber! </p>","","instructions","","","","","","","","","","","",""
"revaluation","121","713545","0.0-4.0-2.0-0.0","spark_pilot_norest","10827","8","7","Male","","false","","","","","[1888.5,955.4000000953674]","./assets/img/canyon/memory/6.jpg","[""ArrowDown"",""ArrowRight""]","value training","canyon","17","{""ArrowUp,ArrowLeft"":26,""ArrowUp,ArrowRight"":10,""ArrowDown,ArrowLeft"":5,""ArrowDown,ArrowRight"":17}","false","ArrowDown,ArrowRight","false","revaluation","1","0","","",""
"html-keyboard-response","122","714059","0.0-4.0-2.0-1.0","spark_pilot_norest","10827","8","7","Male","","","","","","","null","<div style=""font-size:60px;"">+</div>","null","fixation","","","","","","","","","1","","",""
"revaluation","123","720081","0.0-4.0-2.0-0.1","spark_pilot_norest","10827","8","7","Male","","false","","","","","[1103,876.0999999046326]","./assets/img/canyon/memory/15.jpg","[""ArrowDown"",""ArrowRight""]","value training","canyon","17","{""ArrowUp,ArrowLeft"":26,""ArrowUp,ArrowRight"":10,""ArrowDown,ArrowLeft"":5,""ArrowDown,ArrowRight"":17}","false","ArrowDown,ArrowRight","false","revaluation","1","2","","",""
"html-keyboard-response","124","720587","0.0-4.0-2.0-1.1","spark_pilot_norest","10827","8","7","Male","","","","","","","null","<div style=""font-size:60px;"">+</div>","null","fixation","","","","","","","","","3","","",""
"revaluation","125","726603","0.0-4.0-2.0-0.2","spark_pilot_norest","10827","8","7","Male","","false","","","","","[792.3000001907349,1052.5999999046326]","./assets/img/canyon/memory/2.jpg","[""ArrowUp"",""ArrowRight""]","value training","canyon","10","{""ArrowUp,ArrowLeft"":26,""ArrowUp,ArrowRight"":10,""ArrowDown,ArrowLeft"":5,""ArrowDown,ArrowRight"":17}","false","ArrowUp,ArrowRight","false","revaluation","1","4","","",""
"html-keyboard-response","126","727111","0.0-4.0-2.0-1.2","spark_pilot_norest","10827","8","7","Male","","","","","","","null","<div style=""font-size:60px;"">+</div>","null","fixation","","","","","","","","","5","","",""
"revaluation","127","733136","0.0-4.0-2.0-0.3","spark_pilot_norest","10827","8","7","Male","","false","","","","","[1755.5999999046326,890.5999999046326]","./assets/img/canyon/memory/16.jpg","[""ArrowDown"",""ArrowRight""]","value training","canyon","17","{""ArrowUp,ArrowLeft"":26,""ArrowUp,ArrowRight"":10,""ArrowDown,ArrowLeft"":5,""ArrowDown,ArrowRight"":17}","false","ArrowDown,ArrowRight","false","revaluation","1","6","","",""
"html-keyboard-response","128","733641","0.0-4.0-2.0-1.3","spark_pilot_norest","10827","8","7","Male","","","","","","","null","<div style=""font-size:60px;"">+</div>","null","fixation","","","","","","","","","7","","",""
"revaluation","129","739663","0.0-4.0-2.0-0.4","spark_pilot_norest","10827","8","7","Male","","false","","","","","[1524.8999996185303,1267.4000000953674]","./assets/img/canyon/memory/11.jpg","[""ArrowUp"",""ArrowRight""]","value training","canyon","10","{""ArrowUp,ArrowLeft"":26,""ArrowUp,ArrowRight"":10,""ArrowDown,ArrowLeft"":5,""ArrowDown,ArrowRight"":17}","false","ArrowUp,ArrowRight","false","revaluation","1","8","","",""
"html-keyboard-response","130","740173","0.0-4.0-2.0-1.4","spark_pilot_norest","10827","8","7","Male","","","","","","","null","<div style=""font-size:60px;"">+</div>","null","fixation","","","","","","","","","9","","",""
"revaluation","131","746192","0.0-4.0-2.0-0.5","spark_pilot_norest","10827","8","7","Male","","false","","","","","[850.3000001907349,1089.1999998092651]","./assets/img/canyon/memory/31.jpg","[""ArrowUp"",""ArrowRight""]","value training","canyon","10","{""ArrowUp,ArrowLeft"":26,""ArrowUp,ArrowRight"":10,""ArrowDown,ArrowLeft"":5,""ArrowDown,ArrowRight"":17}","false","ArrowUp,ArrowRight","false","revaluation","1","10","","",""
"html-keyboard-response","132","746694","0.0-4.0-2.0-1.5","spark_pilot_norest","10827","8","7","Male","","","","","","","null","<div style=""font-size:60px;"">+</div>","null","fixation","","","","","","","","","11","","",""
"revaluation","133","752715","0.0-4.0-2.0-0.6","spark_pilot_norest","10827","8","7","Male","","true","","","","","[1399.9000000953674]","./assets/img/canyon/memory/18.jpg","[""ArrowUp""]","value training","canyon","-5","{""ArrowUp,ArrowLeft"":26,""ArrowUp,ArrowRight"":10,""ArrowDown,ArrowLeft"":5,""ArrowDown,ArrowRight"":17}","false","ArrowUp","false","revaluation","1","12","","",""
"html-keyboard-response","134","753217","0.0-4.0-2.0-1.6","spark_pilot_norest","10827","8","7","Male","","","","","","","null","<div style=""font-size:60px;"">+</div>","null","fixation","","","","","","","","","13","","",""
"revaluation","135","759233","0.0-4.0-2.0-0.7","spark_pilot_norest","10827","8","7","Male","","false","","","","","[1280.5,1158.4000000953674]","./assets/img/canyon/memory/27.jpg","[""ArrowUp"",""ArrowRight""]","value training","canyon","10","{""ArrowUp,ArrowLeft"":26,""ArrowUp,ArrowRight"":10,""ArrowDown,ArrowLeft"":5,""ArrowDown,ArrowRight"":17}","false","ArrowUp,ArrowRight","false","revaluation","1","14","","",""
"html-keyboard-response","136","759735","0.0-4.0-2.0-1.7","spark_pilot_norest","10827","8","7","Male","","","","","","","null","<div style=""font-size:60px;"">+</div>","null","fixation","","","","","","","","","15","","",""
"revaluation","137","765751","0.0-4.0-2.0-0.8","spark_pilot_norest","10827","8","7","Male","","false","","","","","[625.0999999046326,695.9000000953674]","./assets/img/canyon/memory/15.jpg","[""ArrowUp"",""ArrowRight""]","value training","canyon","10","{""ArrowUp,ArrowLeft"":26,""ArrowUp,ArrowRight"":10,""ArrowDown,ArrowLeft"":5,""ArrowDown,ArrowRight"":17}","false","ArrowUp,ArrowRight","false","revaluation","1","16","","",""
"html-keyboard-response","138","766260","0.0-4.0-2.0-1.8","spark_pilot_norest","10827","8","7","Male","","","","","","","null","<div style=""font-size:60px;"">+</div>","null","fixation","","","","","","","","","17","","",""
"revaluation","139","770278","0.0-4.0-2.0-0.9","spark_pilot_norest","10827","8","7","Male","","true","","","","","[]","./assets/img/canyon/catch/0.jpg","[]","value training","canyon","-5","{""ArrowUp,ArrowLeft"":26,""ArrowUp,ArrowRight"":10,""ArrowDown,ArrowLeft"":5,""ArrowDown,ArrowRight"":17}","false","","true","revaluation","1","18","","",""
"html-keyboard-response","140","770782","0.0-4.0-2.0-1.9","spark_pilot_norest","10827","8","7","Male","","","","","","","null","<div style=""font-size:60px;"">+</div>","null","fixation","","","","","","","","","19","","",""
"revaluation","141","774794","0.0-4.0-2.0-0.10","spark_pilot_norest","10827","8","7","Male","","true","","","","","[]","./assets/img/canyon/memory/8.jpg","[]","value training","canyon","-5","{""ArrowUp,ArrowLeft"":26,""ArrowUp,ArrowRight"":10,""ArrowDown,ArrowLeft"":5,""ArrowDown,ArrowRight"":17}","false","","false","revaluation","1","20","","",""
"html-keyboard-response","142","775309","0.0-4.0-2.0-1.10","spark_pilot_norest","10827","8","7","Male","","","","","","","null","<div style=""font-size:60px;"">+</div>","null","fixation","","","","","","","","","21","","",""
"revaluation","143","779321","0.0-4.0-2.0-0.11","spark_pilot_norest","10827","8","7","Male","","false","","","","","[423.5]","./assets/img/canyon/catch/7.jpg","[""ArrowUp""]","value training","canyon","-10","{""ArrowUp,ArrowLeft"":26,""ArrowUp,ArrowRight"":10,""ArrowDown,ArrowLeft"":5,""ArrowDown,ArrowRight"":17}","false","ArrowUp","true","revaluation","1","22","","",""
"html-keyboard-response","144","779829","0.0-4.0-2.0-1.11","spark_pilot_norest","10827","8","7","Male","","","","","","","null","<div style=""font-size:60px;"">+</div>","null","fixation","","","","","","","","","23","","",""
"revaluation","145","783844","0.0-4.0-2.0-0.12","spark_pilot_norest","10827","8","7","Male","","true","","","","","[]","./assets/img/canyon/memory/23.jpg","[]","value training","canyon","-5","{""ArrowUp,ArrowLeft"":26,""ArrowUp,ArrowRight"":10,""ArrowDown,ArrowLeft"":5,""ArrowDown,ArrowRight"":17}","false","","false","revaluation","1","24","","",""
"html-keyboard-response","146","784359","0.0-4.0-2.0-1.12","spark_pilot_norest","10827","8","7","Male","","","","","","","null","<div style=""font-size:60px;"">+</div>","null","fixation","","","","","","","","","25","","",""
"revaluation","147","788381","0.0-4.0-2.0-0.13","spark_pilot_norest","10827","8","7","Male","","false","","","","","[900.1999998092651]","./assets/img/canyon/catch/5.jpg","[""spaceBar""]","value training","canyon","0","{""ArrowUp,ArrowLeft"":26,""ArrowUp,ArrowRight"":10,""ArrowDown,ArrowLeft"":5,""ArrowDown,ArrowRight"":17}","true","spaceBar","true","revaluation","1","26","","",""
"html-keyboard-response","148","788890","0.0-4.0-2.0-1.13","spark_pilot_norest","10827","8","7","Male","","","","","","","null","<div style=""font-size:60px;"">+</div>","null","fixation","","","","","","","","","27","","",""
"revaluation","149","794929","0.0-4.0-2.0-0.14","spark_pilot_norest","10827","8","7","Male","","false","","","","","[906.9000000953674,870.1000003814697]","./assets/img/canyon/memory/9.jpg","[""ArrowUp"",""ArrowRight""]","value training","canyon","10","{""ArrowUp,ArrowLeft"":26,""ArrowUp,ArrowRight"":10,""ArrowDown,ArrowLeft"":5,""ArrowDown,ArrowRight"":17}","false","ArrowUp,ArrowRight","false","revaluation","1","28","","",""
"html-keyboard-response","150","795446","0.0-4.0-2.0-1.14","spark_pilot_norest","10827","8","7","Male","","","","","","","null","<div style=""font-size:60px;"">+</div>","null","fixation","","","","","","","","","29","","",""
"revaluation","151","801470","0.0-4.0-2.0-0.15","spark_pilot_norest","10827","8","7","Male","","false","","","","","[1492.9000000953674,915.3000001907349]","./assets/img/canyon/memory/24.jpg","[""ArrowDown"",""ArrowRight""]","value training","canyon","17","{""ArrowUp,ArrowLeft"":26,""ArrowUp,ArrowRight"":10,""ArrowDown,ArrowLeft"":5,""ArrowDown,ArrowRight"":17}","false","ArrowDown,ArrowRight","false","revaluation","1","30","","",""
"html-keyboard-response","152","801979","0.0-4.0-2.0-1.15","spark_pilot_norest","10827","8","7","Male","","","","","","","null","<div style=""font-size:60px;"">+</div>","null","fixation","","","","","","","","","31","","",""
"revaluation","153","808001","0.0-4.0-2.0-0.16","spark_pilot_norest","10827","8","7","Male","","false","","","","","[606.8999996185303,649.5999999046326]","./assets/img/canyon/memory/18.jpg","[""ArrowUp"",""ArrowRight""]","value training","canyon","10","{""ArrowUp,ArrowLeft"":26,""ArrowUp,ArrowRight"":10,""ArrowDown,ArrowLeft"":5,""ArrowDown,ArrowRight"":17}","false","ArrowUp,ArrowRight","false","revaluation","1","32","","",""
"html-keyboard-response","154","808510","0.0-4.0-2.0-1.16","spark_pilot_norest","10827","8","7","Male","","","","","","[{""event"":""fullscreenenter"",""trial"":2,""time"":35415},{""event"":""blur"",""trial"":155,""time"":812400},{""event"":""focus"",""trial"":155,""time"":813653},{""event"":""blur"",""trial"":169,""time"":851961},{""event"":""focus"",""trial"":169,""time"":853787},{""event"":""fullscreenexit"",""trial"":254,""time"":1079828}]","null","<div style=""font-size:60px;"">+</div>","null","fixation","","","","","","","","","33","","",""
"revaluation","155","814606","0.0-4.0-2.0-0.17","spark_pilot_norest","10827","8","7","Male","","true","","","","","[777.3999996185303]","./assets/img/canyon/memory/36.jpg","[""ArrowDown""]","value training","canyon","-5","{""ArrowUp,ArrowLeft"":26,""ArrowUp,ArrowRight"":10,""ArrowDown,ArrowLeft"":5,""ArrowDown,ArrowRight"":17}","false","ArrowDown","false","revaluation","1","34","","",""
"html-keyboard-response","156","815115","0.0-4.0-2.0-1.17","spark_pilot_norest","10827","8","7","Male","","","","","","","null","<div style=""font-size:60px;"">+</div>","null","fixation","","","","","","","","","35","","",""
"revaluation","157","821136","0.0-4.0-2.0-0.18","spark_pilot_norest","10827","8","7","Male","","false","","","","","[1344.9000000953674,1574.8999996185303]","./assets/img/canyon/memory/21.jpg","[""ArrowDown"",""ArrowRight""]","value training","canyon","17","{""ArrowUp,ArrowLeft"":26,""ArrowUp,ArrowRight"":10,""ArrowDown,ArrowLeft"":5,""ArrowDown,ArrowRight"":17}","false","ArrowDown,ArrowRight","false","revaluation","1","36","","",""
"html-keyboard-response","158","821642","0.0-4.0-2.0-1.18","spark_pilot_norest","10827","8","7","Male","","","","","","","null","<div style=""font-size:60px;"">+</div>","null","fixation","","","","","","","","","37","","",""
"revaluation","159","827663","0.0-4.0-2.0-0.19","spark_pilot_norest","10827","8","7","Male","","false","","","","","[1358.5999999046326,577.9000000953674]","./assets/img/canyon/memory/17.jpg","[""ArrowUp"",""ArrowRight""]","value training","canyon","10","{""ArrowUp,ArrowLeft"":26,""ArrowUp,ArrowRight"":10,""ArrowDown,ArrowLeft"":5,""ArrowDown,ArrowRight"":17}","false","ArrowUp,ArrowRight","false","revaluation","1","38","","",""
"html-keyboard-response","160","828167","0.0-4.0-2.0-1.19","spark_pilot_norest","10827","8","7","Male","","","","","","","null","<div style=""font-size:60px;"">+</div>","null","fixation","","","","","","","","","39","","",""
"revaluation","161","834188","0.0-4.0-2.0-0.20","spark_pilot_norest","10827","8","7","Male","","false","","","","","[342.30000019073486,474.80000019073486]","./assets/img/canyon/memory/23.jpg","[""ArrowDown"",""ArrowRight""]","value training","canyon","17","{""ArrowUp,ArrowLeft"":26,""ArrowUp,ArrowRight"":10,""ArrowDown,ArrowLeft"":5,""ArrowDown,ArrowRight"":17}","false","ArrowDown,ArrowRight","false","revaluation","1","40","","",""
"html-keyboard-response","162","834695","0.0-4.0-2.0-1.20","spark_pilot_norest","10827","8","7","Male","","","","","","","null","<div style=""font-size:60px;"">+</div>","null","fixation","","","","","","","","","41","","",""
"revaluation","163","838723","0.0-4.0-2.0-0.21","spark_pilot_norest","10827","8","7","Male","","false","","","","","[1214.7999997138977]","./assets/img/canyon/catch/3.jpg","[""spaceBar""]","value training","canyon","0","{""ArrowUp,ArrowLeft"":26,""ArrowUp,ArrowRight"":10,""ArrowDown,ArrowLeft"":5,""ArrowDown,ArrowRight"":17}","true","spaceBar","true","revaluation","1","42","","",""
"html-keyboard-response","164","839227","0.0-4.0-2.0-1.21","spark_pilot_norest","10827","8","7","Male","","","","","","","null","<div style=""font-size:60px;"">+</div>","null","fixation","","","","","","","","","43","","",""
"revaluation","165","845257","0.0-4.0-2.0-0.22","spark_pilot_norest","10827","8","7","Male","","false","","","","","[623.2000002861023,1332.3999996185303]","./assets/img/canyon/memory/26.jpg","[""ArrowUp"",""ArrowRight""]","value training","canyon","10","{""ArrowUp,ArrowLeft"":26,""ArrowUp,ArrowRight"":10,""ArrowDown,ArrowLeft"":5,""ArrowDown,ArrowRight"":17}","false","ArrowUp,ArrowRight","false","revaluation","1","44","","",""
"html-keyboard-response","166","845766","0.0-4.0-2.0-1.22","spark_pilot_norest","10827","8","7","Male","","","","","","","null","<div style=""font-size:60px;"">+</div>","null","fixation","","","","","","","","","45","","",""
"revaluation","167","849784","0.0-4.0-2.0-0.23","spark_pilot_norest","10827","8","7","Male","","true","","","","","[]","./assets/img/canyon/memory/8.jpg","[]","value training","canyon","-5","{""ArrowUp,ArrowLeft"":26,""ArrowUp,ArrowRight"":10,""ArrowDown,ArrowLeft"":5,""ArrowDown,ArrowRight"":17}","false","","false","revaluation","1","46","","",""
"html-keyboard-response","168","850293","0.0-4.0-2.0-1.23","spark_pilot_norest","10827","8","7","Male","","","","","","[{""event"":""fullscreenenter"",""trial"":2,""time"":35415},{""event"":""blur"",""trial"":155,""time"":812400},{""event"":""focus"",""trial"":155,""time"":813653},{""event"":""blur"",""trial"":169,""time"":851961},{""event"":""focus"",""trial"":169,""time"":853787},{""event"":""fullscreenexit"",""trial"":254,""time"":1079828}]","null","<div style=""font-size:60px;"">+</div>","null","fixation","","","","","","","","","47","","",""
"revaluation","169","854309","0.0-4.0-2.0-0.24","spark_pilot_norest","10827","8","7","Male","","true","","","","","[]","./assets/img/canyon/memory/31.jpg","[]","value training","canyon","-5","{""ArrowUp,ArrowLeft"":26,""ArrowUp,ArrowRight"":10,""ArrowDown,ArrowLeft"":5,""ArrowDown,ArrowRight"":17}","false","","false","revaluation","1","48","","",""
"html-keyboard-response","170","854821","0.0-4.0-2.0-1.24","spark_pilot_norest","10827","8","7","Male","","","","","","","null","<div style=""font-size:60px;"">+</div>","null","fixation","","","","","","","","","49","","",""
"revaluation","171","858840","0.0-4.0-2.0-0.25","spark_pilot_norest","10827","8","7","Male","","true","","","","","[]","./assets/img/canyon/memory/22.jpg","[]","value training","canyon","-5","{""ArrowUp,ArrowLeft"":26,""ArrowUp,ArrowRight"":10,""ArrowDown,ArrowLeft"":5,""ArrowDown,ArrowRight"":17}","false","","false","revaluation","1","50","","",""
"html-keyboard-response","172","859345","0.0-4.0-2.0-1.25","spark_pilot_norest","10827","8","7","Male","","","","","","","null","<div style=""font-size:60px;"">+</div>","null","fixation","","","","","","","","","51","","",""
"revaluation","173","863356","0.0-4.0-2.0-0.26","spark_pilot_norest","10827","8","7","Male","","true","","","","","[]","./assets/img/canyon/memory/6.jpg","[]","value training","canyon","-5","{""ArrowUp,ArrowLeft"":26,""ArrowUp,ArrowRight"":10,""ArrowDown,ArrowLeft"":5,""ArrowDown,ArrowRight"":17}","false","","false","revaluation","1","52","","",""
"html-keyboard-response","174","863859","0.0-4.0-2.0-1.26","spark_pilot_norest","10827","8","7","Male","","","","","","","null","<div style=""font-size:60px;"">+</div>","null","fixation","","","","","","","","","53","","",""
"revaluation","175","867873","0.0-4.0-2.0-0.27","spark_pilot_norest","10827","8","7","Male","","true","","","","","[]","./assets/img/canyon/memory/11.jpg","[]","value training","canyon","-5","{""ArrowUp,ArrowLeft"":26,""ArrowUp,ArrowRight"":10,""ArrowDown,ArrowLeft"":5,""ArrowDown,ArrowRight"":17}","false","","false","revaluation","1","54","","",""
"html-keyboard-response","176","868381","0.0-4.0-2.0-1.27","spark_pilot_norest","10827","8","7","Male","","","","","","","null","<div style=""font-size:60px;"">+</div>","null","fixation","","","","","","","","","55","","",""
"revaluation","177","872393","0.0-4.0-2.0-0.28","spark_pilot_norest","10827","8","7","Male","","true","","","","","[]","./assets/img/canyon/memory/37.jpg","[]","value training","canyon","-5","{""ArrowUp,ArrowLeft"":26,""ArrowUp,ArrowRight"":10,""ArrowDown,ArrowLeft"":5,""ArrowDown,ArrowRight"":17}","false","","false","revaluation","1","56","","",""
"html-keyboard-response","178","872894","0.0-4.0-2.0-1.28","spark_pilot_norest","10827","8","7","Male","","","","","","","null","<div style=""font-size:60px;"">+</div>","null","fixation","","","","","","","","","57","","",""
"revaluation","179","876910","0.0-4.0-2.0-0.29","spark_pilot_norest","10827","8","7","Male","","true","","","","","[]","./assets/img/canyon/memory/37.jpg","[]","value training","canyon","-5","{""ArrowUp,ArrowLeft"":26,""ArrowUp,ArrowRight"":10,""ArrowDown,ArrowLeft"":5,""ArrowDown,ArrowRight"":17}","false","","false","revaluation","1","58","","",""
"html-keyboard-response","180","877428","0.0-4.0-2.0-1.29","spark_pilot_norest","10827","8","7","Male","","","","","","","null","<div style=""font-size:60px;"">+</div>","null","fixation","","","","","","","","","59","","",""
"revaluation","181","881450","0.0-4.0-2.0-0.30","spark_pilot_norest","10827","8","7","Male","","true","","","","","[]","./assets/img/canyon/memory/16.jpg","[]","value training","canyon","-5","{""ArrowUp,ArrowLeft"":26,""ArrowUp,ArrowRight"":10,""ArrowDown,ArrowLeft"":5,""ArrowDown,ArrowRight"":17}","false","","false","revaluation","1","60","","",""
"html-keyboard-response","182","881956","0.0-4.0-2.0-1.30","spark_pilot_norest","10827","8","7","Male","","","","","","","null","<div style=""font-size:60px;"">+</div>","null","fixation","","","","","","","","","61","","",""
"revaluation","183","885969","0.0-4.0-2.0-0.31","spark_pilot_norest","10827","8","7","Male","","true","","","","","[]","./assets/img/canyon/catch/4.jpg","[]","value training","canyon","-5","{""ArrowUp,ArrowLeft"":26,""ArrowUp,ArrowRight"":10,""ArrowDown,ArrowLeft"":5,""ArrowDown,ArrowRight"":17}","false","","true","revaluation","1","62","","",""
"html-keyboard-response","184","886475","0.0-4.0-2.0-1.31","spark_pilot_norest","10827","8","7","Male","","","","","","","null","<div style=""font-size:60px;"">+</div>","null","fixation","","","","","","","","","63","","",""
"revaluation","185","890496","0.0-4.0-2.0-0.32","spark_pilot_norest","10827","8","7","Male","","true","","","","","[]","./assets/img/canyon/memory/10.jpg","[]","value training","canyon","-5","{""ArrowUp,ArrowLeft"":26,""ArrowUp,ArrowRight"":10,""ArrowDown,ArrowLeft"":5,""ArrowDown,ArrowRight"":17}","false","","false","revaluation","1","64","","",""
"html-keyboard-response","186","891009","0.0-4.0-2.0-1.32","spark_pilot_norest","10827","8","7","Male","","","","","","","null","<div style=""font-size:60px;"">+</div>","null","fixation","","","","","","","","","65","","",""
"revaluation","187","895028","0.0-4.0-2.0-0.33","spark_pilot_norest","10827","8","7","Male","","true","","","","","[]","./assets/img/canyon/memory/2.jpg","[]","value training","canyon","-5","{""ArrowUp,ArrowLeft"":26,""ArrowUp,ArrowRight"":10,""ArrowDown,ArrowLeft"":5,""ArrowDown,ArrowRight"":17}","false","","false","revaluation","1","66","","",""
"html-keyboard-response","188","895533","0.0-4.0-2.0-1.33","spark_pilot_norest","10827","8","7","Male","","","","","","","null","<div style=""font-size:60px;"">+</div>","null","fixation","","","","","","","","","67","","",""
"revaluation","189","899545","0.0-4.0-2.0-0.34","spark_pilot_norest","10827","8","7","Male","","true","","","","","[]","./assets/img/canyon/catch/6.jpg","[]","value training","canyon","-5","{""ArrowUp,ArrowLeft"":26,""ArrowUp,ArrowRight"":10,""ArrowDown,ArrowLeft"":5,""ArrowDown,ArrowRight"":17}","false","","true","revaluation","1","68","","",""
"html-keyboard-response","190","900056","0.0-4.0-2.0-1.34","spark_pilot_norest","10827","8","7","Male","","","","","","","null","<div style=""font-size:60px;"">+</div>","null","fixation","","","","","","","","","69","","",""
"revaluation","191","906069","0.0-4.0-2.0-0.35","spark_pilot_norest","10827","8","7","Male","","false","","","","","[1644.4000000953674,1986.5999999046326]","./assets/img/canyon/memory/36.jpg","[""ArrowDown"",""ArrowLeft""]","value training","canyon","5","{""ArrowUp,ArrowLeft"":26,""ArrowUp,ArrowRight"":10,""ArrowDown,ArrowLeft"":5,""ArrowDown,ArrowRight"":17}","false","ArrowDown,ArrowLeft","false","revaluation","1","70","","",""
"html-keyboard-response","192","906575","0.0-4.0-2.0-1.35","spark_pilot_norest","10827","8","7","Male","","","","","","","null","<div style=""font-size:60px;"">+</div>","null","fixation","","","","","","","","","71","","",""
"revaluation","193","912610","0.0-4.0-2.0-0.36","spark_pilot_norest","10827","8","7","Male","","true","","","","","[1403.2999997138977]","./assets/img/canyon/memory/28.jpg","[""ArrowUp""]","value training","canyon","-5","{""ArrowUp,ArrowLeft"":26,""ArrowUp,ArrowRight"":10,""ArrowDown,ArrowLeft"":5,""ArrowDown,ArrowRight"":17}","false","ArrowUp","false","revaluation","1","72","","",""
"html-keyboard-response","194","913128","0.0-4.0-2.0-1.36","spark_pilot_norest","10827","8","7","Male","","","","","","","null","<div style=""font-size:60px;"">+</div>","null","fixation","","","","","","","","","73","","",""
"revaluation","195","917150","0.0-4.0-2.0-0.37","spark_pilot_norest","10827","8","7","Male","","false","","","","","[1462.5]","./assets/img/canyon/catch/2.jpg","[""spaceBar""]","value training","canyon","0","{""ArrowUp,ArrowLeft"":26,""ArrowUp,ArrowRight"":10,""ArrowDown,ArrowLeft"":5,""ArrowDown,ArrowRight"":17}","true","spaceBar","true","revaluation","1","74","","",""
"html-keyboard-response","196","917657","0.0-4.0-2.0-1.37","spark_pilot_norest","10827","8","7","Male","","","","","","","null","<div style=""font-size:60px;"">+</div>","null","fixation","","","","","","","","","75","","",""
"revaluation","197","923680","0.0-4.0-2.0-0.38","spark_pilot_norest","10827","8","7","Male","","false","","","","","[853.4000000953674,788]","./assets/img/canyon/memory/10.jpg","[""ArrowUp"",""ArrowRight""]","value training","canyon","10","{""ArrowUp,ArrowLeft"":26,""ArrowUp,ArrowRight"":10,""ArrowDown,ArrowLeft"":5,""ArrowDown,ArrowRight"":17}","false","ArrowUp,ArrowRight","false","revaluation","1","76","","",""
"html-keyboard-response","198","924183","0.0-4.0-2.0-1.38","spark_pilot_norest","10827","8","7","Male","","","","","","","null","<div style=""font-size:60px;"">+</div>","null","fixation","","","","","","","","","77","","",""
"revaluation","199","930203","0.0-4.0-2.0-0.39","spark_pilot_norest","10827","8","7","Male","","false","","","","","[1714.5,883.0999999046326]","./assets/img/canyon/memory/24.jpg","[""ArrowUp"",""ArrowRight""]","value training","canyon","10","{""ArrowUp,ArrowLeft"":26,""ArrowUp,ArrowRight"":10,""ArrowDown,ArrowLeft"":5,""ArrowDown,ArrowRight"":17}","false","ArrowUp,ArrowRight","false","revaluation","1","78","","",""
"html-keyboard-response","200","930711","0.0-4.0-2.0-1.39","spark_pilot_norest","10827","8","7","Male","","","","","","","null","<div style=""font-size:60px;"">+</div>","null","fixation","","","","","","","","","79","","",""
"revaluation","201","936731","0.0-4.0-2.0-0.40","spark_pilot_norest","10827","8","7","Male","","false","","","","","[1014.5999999046326,713.5999999046326]","./assets/img/canyon/memory/28.jpg","[""ArrowUp"",""ArrowRight""]","value training","canyon","10","{""ArrowUp,ArrowLeft"":26,""ArrowUp,ArrowRight"":10,""ArrowDown,ArrowLeft"":5,""ArrowDown,ArrowRight"":17}","false","ArrowUp,ArrowRight","false","revaluation","1","80","","",""
"html-keyboard-response","202","937234","0.0-4.0-2.0-1.40","spark_pilot_norest","10827","8","7","Male","","","","","","","null","<div style=""font-size:60px;"">+</div>","null","fixation","","","","","","","","","81","","",""
"revaluation","203","941247","0.0-4.0-2.0-0.41","spark_pilot_norest","10827","8","7","Male","","false","","","","","[530.2999997138977]","./assets/img/canyon/catch/1.jpg","[""ArrowDown""]","value training","canyon","-10","{""ArrowUp,ArrowLeft"":26,""ArrowUp,ArrowRight"":10,""ArrowDown,ArrowLeft"":5,""ArrowDown,ArrowRight"":17}","false","ArrowDown","true","revaluation","1","82","","",""
"html-keyboard-response","204","941763","0.0-4.0-2.0-1.41","spark_pilot_norest","10827","8","7","Male","","","","","","","null","<div style=""font-size:60px;"">+</div>","null","fixation","","","","","","","","","83","","",""
"revaluation","205","947795","0.0-4.0-2.0-0.42","spark_pilot_norest","10827","8","7","Male","","true","","","","","[1799.8000001907349]","./assets/img/canyon/memory/26.jpg","[""ArrowUp""]","value training","canyon","-5","{""ArrowUp,ArrowLeft"":26,""ArrowUp,ArrowRight"":10,""ArrowDown,ArrowLeft"":5,""ArrowDown,ArrowRight"":17}","false","ArrowUp","false","revaluation","1","84","","",""
"html-keyboard-response","206","948309","0.0-4.0-2.0-1.42","spark_pilot_norest","10827","8","7","Male","","","","","","","null","<div style=""font-size:60px;"">+</div>","null","fixation","","","","","","","","","85","","",""
"revaluation","207","952323","0.0-4.0-2.0-0.43","spark_pilot_norest","10827","8","7","Male","","true","","","","","[]","./assets/img/canyon/memory/21.jpg","[]","value training","canyon","-5","{""ArrowUp,ArrowLeft"":26,""ArrowUp,ArrowRight"":10,""ArrowDown,ArrowLeft"":5,""ArrowDown,ArrowRight"":17}","false","","false","revaluation","1","86","","",""
"html-keyboard-response","208","952830","0.0-4.0-2.0-1.43","spark_pilot_norest","10827","8","7","Male","","","","","","","null","<div style=""font-size:60px;"">+</div>","null","fixation","","","","","","","","","87","","",""
"revaluation","209","956848","0.0-4.0-2.0-0.44","spark_pilot_norest","10827","8","7","Male","","true","","","","","[]","./assets/img/canyon/memory/17.jpg","[]","value training","canyon","-5","{""ArrowUp,ArrowLeft"":26,""ArrowUp,ArrowRight"":10,""ArrowDown,ArrowLeft"":5,""ArrowDown,ArrowRight"":17}","false","","false","revaluation","1","88","","",""
"html-keyboard-response","210","957353","0.0-4.0-2.0-1.44","spark_pilot_norest","10827","8","7","Male","","","","","","","null","<div style=""font-size:60px;"">+</div>","null","fixation","","","","","","","","","89","","",""
"revaluation","211","963386","0.0-4.0-2.0-0.45","spark_pilot_norest","10827","8","7","Male","","false","","","","","[671.7999997138977,951.6999998092651]","./assets/img/canyon/memory/22.jpg","[""ArrowDown"",""ArrowRight""]","value training","canyon","17","{""ArrowUp,ArrowLeft"":26,""ArrowUp,ArrowRight"":10,""ArrowDown,ArrowLeft"":5,""ArrowDown,ArrowRight"":17}","false","ArrowDown,ArrowRight","false","revaluation","1","90","","",""
"html-keyboard-response","212","963891","0.0-4.0-2.0-1.45","spark_pilot_norest","10827","8","7","Male","","","","","","","null","<div style=""font-size:60px;"">+</div>","null","fixation","","","","","","","","","91","","",""
"revaluation","213","969908","0.0-4.0-2.0-0.46","spark_pilot_norest","10827","8","7","Male","","false","","","","","[878.2999997138977,390.59999990463257]","./assets/img/canyon/memory/29.jpg","[""ArrowUp"",""ArrowLeft""]","value training","canyon","26","{""ArrowUp,ArrowLeft"":26,""ArrowUp,ArrowRight"":10,""ArrowDown,ArrowLeft"":5,""ArrowDown,ArrowRight"":17}","true","ArrowUp,ArrowLeft","false","revaluation","1","92","","",""
"html-keyboard-response","214","970410","0.0-4.0-2.0-1.46","spark_pilot_norest","10827","8","7","Male","","","","","","","null","<div style=""font-size:60px;"">+</div>","null","fixation","","","","","","","","","93","","",""
"revaluation","215","976434","0.0-4.0-2.0-0.47","spark_pilot_norest","10827","8","7","Male","","false","","","","","[476.40000009536743,1256.1999998092651]","./assets/img/canyon/memory/29.jpg","[""ArrowUp"",""ArrowLeft""]","value training","canyon","26","{""ArrowUp,ArrowLeft"":26,""ArrowUp,ArrowRight"":10,""ArrowDown,ArrowLeft"":5,""ArrowDown,ArrowRight"":17}","true","ArrowUp,ArrowLeft","false","revaluation","1","94","","",""
"html-keyboard-response","216","976950","0.0-4.0-2.0-1.47","spark_pilot_norest","10827","8","7","Male","","","","","","","null","<div style=""font-size:60px;"">+</div>","null","fixation","","","","","","","","","95","","",""
"revaluation","217","982970","0.0-4.0-2.0-0.48","spark_pilot_norest","10827","8","7","Male","","false","","","","","[1455.3000001907349,1973.5]","./assets/img/canyon/memory/9.jpg","[""ArrowUp"",""ArrowLeft""]","value training","canyon","26","{""ArrowUp,ArrowLeft"":26,""ArrowUp,ArrowRight"":10,""ArrowDown,ArrowLeft"":5,""ArrowDown,ArrowRight"":17}","true","ArrowUp,ArrowLeft","false","revaluation","1","96","","",""
"html-keyboard-response","218","983483","0.0-4.0-2.0-1.48","spark_pilot_norest","10827","8","7","Male","","","","","","","null","<div style=""font-size:60px;"">+</div>","null","fixation","","","","","","","","","97","","",""
"revaluation","219","989498","0.0-4.0-2.0-0.49","spark_pilot_norest","10827","8","7","Male","","false","","","","","[1468.0999999046326,686.4000000953674]","./assets/img/canyon/memory/27.jpg","[""ArrowDown"",""ArrowRight""]","value training","canyon","17","{""ArrowUp,ArrowLeft"":26,""ArrowUp,ArrowRight"":10,""ArrowDown,ArrowLeft"":5,""ArrowDown,ArrowRight"":17}","false","ArrowDown,ArrowRight","false","revaluation","1","98","","",""
"html-keyboard-response","220","990001","0.0-4.0-2.0-1.49","spark_pilot_norest","10827","8","7","Male","","","","","","","null","<div style=""font-size:60px;"">+</div>","null","fixation","","","","","","","","","99","","",""
"learning-instructions","221","1007070","0.0-4.0-3.0-0.0","spark_pilot_norest","10827","8","7","Male","","","","","","","3945.0999999046326","<p> Now, you will travel with a friend who will choose whether you go up or down first. </p>
            <p> On these turns, you will just see the animal that they found. You will still get to choose which chest to search for treasure.</p>","","instructions","","","","","","","","","","","",""
"revaluation","222","1011081","0.0-4.0-4.0-0.0","spark_pilot_norest","10827","8","7","Male","","false","","","","","[1514.1000003814697]","./assets/img/canyon/animals/lion.jpg","[""ArrowRight""]","revaluation","canyon","27","{""ArrowUp,ArrowLeft"":2,""ArrowUp,ArrowRight"":11,""ArrowDown,ArrowLeft"":8,""ArrowDown,ArrowRight"":27}","true","ArrowDown,ArrowRight","","revaluation","1","0","","",""
"html-keyboard-response","223","1011600","0.0-4.0-4.0-1.0","spark_pilot_norest","10827","8","7","Male","","","","","","","null","<div style=""font-size:60px;"">+</div>","null","fixation","","","","","","","","","1","","",""
"revaluation","224","1015622","0.0-4.0-4.0-0.1","spark_pilot_norest","10827","8","7","Male","","false","","","","","[353.69999980926514]","./assets/img/canyon/animals/giraffe.jpg","[""ArrowLeft""]","revaluation","canyon","2","{""ArrowUp,ArrowLeft"":2,""ArrowUp,ArrowRight"":11,""ArrowDown,ArrowLeft"":8,""ArrowDown,ArrowRight"":27}","false","ArrowUp,ArrowLeft","","revaluation","1","2","","",""
"html-keyboard-response","225","1016129","0.0-4.0-4.0-1.1","spark_pilot_norest","10827","8","7","Male","","","","","","","null","<div style=""font-size:60px;"">+</div>","null","fixation","","","","","","","","","3","","",""
"revaluation","226","1020144","0.0-4.0-4.0-0.2","spark_pilot_norest","10827","8","7","Male","","true","","","","","[]","./assets/img/canyon/animals/giraffe.jpg","[]","revaluation","canyon","-5","{""ArrowUp,ArrowLeft"":2,""ArrowUp,ArrowRight"":11,""ArrowDown,ArrowLeft"":8,""ArrowDown,ArrowRight"":27}","false","ArrowUp","","revaluation","1","4","","",""
"html-keyboard-response","227","1020649","0.0-4.0-4.0-1.2","spark_pilot_norest","10827","8","7","Male","","","","","","","null","<div style=""font-size:60px;"">+</div>","null","fixation","","","","","","","","","5","","",""
"revaluation","228","1024675","0.0-4.0-4.0-0.3","spark_pilot_norest","10827","8","7","Male","","true","","","","","[]","./assets/img/canyon/animals/giraffe.jpg","[]","revaluation","canyon","-5","{""ArrowUp,ArrowLeft"":2,""ArrowUp,ArrowRight"":11,""ArrowDown,ArrowLeft"":8,""ArrowDown,ArrowRight"":27}","false","ArrowUp","","revaluation","1","6","","",""
"html-keyboard-response","229","1025181","0.0-4.0-4.0-1.3","spark_pilot_norest","10827","8","7","Male","","","","","","","null","<div style=""font-size:60px;"">+</div>","null","fixation","","","","","","","","","7","","",""
"revaluation","230","1029206","0.0-4.0-4.0-0.4","spark_pilot_norest","10827","8","7","Male","","false","","","","","[846.3000001907349]","./assets/img/canyon/animals/lion.jpg","[""ArrowRight""]","revaluation","canyon","27","{""ArrowUp,ArrowLeft"":2,""ArrowUp,ArrowRight"":11,""ArrowDown,ArrowLeft"":8,""ArrowDown,ArrowRight"":27}","true","ArrowDown,ArrowRight","","revaluation","1","8","","",""
"html-keyboard-response","231","1029715","0.0-4.0-4.0-1.4","spark_pilot_norest","10827","8","7","Male","","","","","","","null","<div style=""font-size:60px;"">+</div>","null","fixation","","","","","","","","","9","","",""
"revaluation","232","1033739","0.0-4.0-4.0-0.5","spark_pilot_norest","10827","8","7","Male","","false","","","","","[1548.4000000953674]","./assets/img/canyon/animals/giraffe.jpg","[""ArrowLeft""]","revaluation","canyon","2","{""ArrowUp,ArrowLeft"":2,""ArrowUp,ArrowRight"":11,""ArrowDown,ArrowLeft"":8,""ArrowDown,ArrowRight"":27}","false","ArrowUp,ArrowLeft","","revaluation","1","10","","",""
"html-keyboard-response","233","1034242","0.0-4.0-4.0-1.5","spark_pilot_norest","10827","8","7","Male","","","","","","","null","<div style=""font-size:60px;"">+</div>","null","fixation","","","","","","","","","11","","",""
"revaluation","234","1038266","0.0-4.0-4.0-0.6","spark_pilot_norest","10827","8","7","Male","","false","","","","","[88.59999990463257]","./assets/img/canyon/animals/giraffe.jpg","[""ArrowRight""]","revaluation","canyon","11","{""ArrowUp,ArrowLeft"":2,""ArrowUp,ArrowRight"":11,""ArrowDown,ArrowLeft"":8,""ArrowDown,ArrowRight"":27}","true","ArrowUp,ArrowRight","","revaluation","1","12","","",""
"html-keyboard-response","235","1038778","0.0-4.0-4.0-1.6","spark_pilot_norest","10827","8","7","Male","","","","","","","null","<div style=""font-size:60px;"">+</div>","null","fixation","","","","","","","","","13","","",""
"revaluation","236","1042795","0.0-4.0-4.0-0.7","spark_pilot_norest","10827","8","7","Male","","false","","","","","[337.3999996185303]","./assets/img/canyon/animals/lion.jpg","[""ArrowRight""]","revaluation","canyon","27","{""ArrowUp,ArrowLeft"":2,""ArrowUp,ArrowRight"":11,""ArrowDown,ArrowLeft"":8,""ArrowDown,ArrowRight"":27}","true","ArrowDown,ArrowRight","","revaluation","1","14","","",""
"html-keyboard-response","237","1043300","0.0-4.0-4.0-1.7","spark_pilot_norest","10827","8","7","Male","","","","","","","null","<div style=""font-size:60px;"">+</div>","null","fixation","","","","","","","","","15","","",""
"revaluation","238","1047312","0.0-4.0-4.0-0.8","spark_pilot_norest","10827","8","7","Male","","false","","","","","[166.80000019073486]","./assets/img/canyon/animals/lion.jpg","[""ArrowRight""]","revaluation","canyon","27","{""ArrowUp,ArrowLeft"":2,""ArrowUp,ArrowRight"":11,""ArrowDown,ArrowLeft"":8,""ArrowDown,ArrowRight"":27}","true","ArrowDown,ArrowRight","","revaluation","1","16","","",""
"html-keyboard-response","239","1047825","0.0-4.0-4.0-1.8","spark_pilot_norest","10827","8","7","Male","","","","","","","null","<div style=""font-size:60px;"">+</div>","null","fixation","","","","","","","","","17","","",""
"revaluation","240","1051842","0.0-4.0-4.0-0.9","spark_pilot_norest","10827","8","7","Male","","true","","","","","[]","./assets/img/canyon/animals/giraffe.jpg","[]","revaluation","canyon","-5","{""ArrowUp,ArrowLeft"":2,""ArrowUp,ArrowRight"":11,""ArrowDown,ArrowLeft"":8,""ArrowDown,ArrowRight"":27}","false","ArrowUp","","revaluation","1","18","","",""
"html-keyboard-response","241","1052349","0.0-4.0-4.0-1.9","spark_pilot_norest","10827","8","7","Male","","","","","","","null","<div style=""font-size:60px;"">+</div>","null","fixation","","","","","","","","","19","","",""
"revaluation","242","1056363","0.0-4.0-4.0-0.10","spark_pilot_norest","10827","8","7","Male","","true","","","","","[]","./assets/img/canyon/animals/lion.jpg","[]","revaluation","canyon","-5","{""ArrowUp,ArrowLeft"":2,""ArrowUp,ArrowRight"":11,""ArrowDown,ArrowLeft"":8,""ArrowDown,ArrowRight"":27}","false","ArrowDown","","revaluation","1","20","","",""
"html-keyboard-response","243","1056870","0.0-4.0-4.0-1.10","spark_pilot_norest","10827","8","7","Male","","","","","","","null","<div style=""font-size:60px;"">+</div>","null","fixation","","","","","","","","","21","","",""
"revaluation","244","1060881","0.0-4.0-4.0-0.11","spark_pilot_norest","10827","8","7","Male","","true","","","","","[]","./assets/img/canyon/animals/giraffe.jpg","[]","revaluation","canyon","-5","{""ArrowUp,ArrowLeft"":2,""ArrowUp,ArrowRight"":11,""ArrowDown,ArrowLeft"":8,""ArrowDown,ArrowRight"":27}","false","ArrowUp","","revaluation","1","22","","",""
"html-keyboard-response","245","1061397","0.0-4.0-4.0-1.11","spark_pilot_norest","10827","8","7","Male","","","","","","","null","<div style=""font-size:60px;"">+</div>","null","fixation","","","","","","","","","23","","",""
"revaluation","246","1065407","0.0-4.0-4.0-0.12","spark_pilot_norest","10827","8","7","Male","","true","","","","","[]","./assets/img/canyon/animals/lion.jpg","[]","revaluation","canyon","-5","{""ArrowUp,ArrowLeft"":2,""ArrowUp,ArrowRight"":11,""ArrowDown,ArrowLeft"":8,""ArrowDown,ArrowRight"":27}","false","ArrowDown","","revaluation","1","24","","",""
"html-keyboard-response","247","1065909","0.0-4.0-4.0-1.12","spark_pilot_norest","10827","8","7","Male","","","","","","","null","<div style=""font-size:60px;"">+</div>","null","fixation","","","","","","","","","25","","",""
"revaluation","248","1069934","0.0-4.0-4.0-0.13","spark_pilot_norest","10827","8","7","Male","","true","","","","","[]","./assets/img/canyon/animals/giraffe.jpg","[]","revaluation","canyon","-5","{""ArrowUp,ArrowLeft"":2,""ArrowUp,ArrowRight"":11,""ArrowDown,ArrowLeft"":8,""ArrowDown,ArrowRight"":27}","false","ArrowUp","","revaluation","1","26","","",""
"html-keyboard-response","249","1070437","0.0-4.0-4.0-1.13","spark_pilot_norest","10827","8","7","Male","","","","","","","null","<div style=""font-size:60px;"">+</div>","null","fixation","","","","","","","","","27","","",""
"revaluation","250","1074455","0.0-4.0-4.0-0.14","spark_pilot_norest","10827","8","7","Male","","true","","","","","[]","./assets/img/canyon/animals/lion.jpg","[]","revaluation","canyon","-5","{""ArrowUp,ArrowLeft"":2,""ArrowUp,ArrowRight"":11,""ArrowDown,ArrowLeft"":8,""ArrowDown,ArrowRight"":27}","false","ArrowDown","","revaluation","1","28","","",""
"html-keyboard-response","251","1074969","0.0-4.0-4.0-1.14","spark_pilot_norest","10827","8","7","Male","","","","","","","null","<div style=""font-size:60px;"">+</div>","null","fixation","","","","","","","","","29","","",""
"revaluation","252","1078982","0.0-4.0-4.0-0.15","spark_pilot_norest","10827","8","7","Male","","true","","","","","[]","./assets/img/canyon/animals/giraffe.jpg","[]","revaluation","canyon","-5","{""ArrowUp,ArrowLeft"":2,""ArrowUp,ArrowRight"":11,""ArrowDown,ArrowLeft"":8,""ArrowDown,ArrowRight"":27}","false","ArrowUp","","revaluation","1","30","","",""
"html-keyboard-response","253","1079488","0.0-4.0-4.0-1.15","spark_pilot_norest","10827","8","7","Male","","","","","","[{""event"":""fullscreenenter"",""trial"":2,""time"":35415},{""event"":""blur"",""trial"":155,""time"":812400},{""event"":""focus"",""trial"":155,""time"":813653},{""event"":""blur"",""trial"":169,""time"":851961},{""event"":""focus"",""trial"":169,""time"":853787},{""event"":""fullscreenexit"",""trial"":254,""time"":1079828}]","null","<div style=""font-size:60px;"">+</div>","null","fixation","","","","","","","","","31","","",""
"revaluation","254","1083514","0.0-4.0-4.0-0.16","spark_pilot_norest","10827","8","7","Male","","true","","","","","[]","./assets/img/canyon/animals/lion.jpg","[]","revaluation","canyon","-5","{""ArrowUp,ArrowLeft"":2,""ArrowUp,ArrowRight"":11,""ArrowDown,ArrowLeft"":8,""ArrowDown,ArrowRight"":27}","false","ArrowDown","","revaluation","1","32","","",""
"html-keyboard-response","255","1084024","0.0-4.0-4.0-1.16","spark_pilot_norest","10827","8","7","Male","","","","","","","null","<div style=""font-size:60px;"">+</div>","null","fixation","","","","","","","","","33","","",""
"revaluation","256","1088039","0.0-4.0-4.0-0.17","spark_pilot_norest","10827","8","7","Male","","false","","","","","[941]","./assets/img/canyon/animals/lion.jpg","[""ArrowRight""]","revaluation","canyon","27","{""ArrowUp,ArrowLeft"":2,""ArrowUp,ArrowRight"":11,""ArrowDown,ArrowLeft"":8,""ArrowDown,ArrowRight"":27}","true","ArrowDown,ArrowRight","","revaluation","1","34","","",""
"html-keyboard-response","257","1088549","0.0-4.0-4.0-1.17","spark_pilot_norest","10827","8","7","Male","","","","","","","null","<div style=""font-size:60px;"">+</div>","null","fixation","","","","","","","","","35","","",""
"learning-instructions","258","1096895","0.0-4.0-5.0-0.0","spark_pilot_norest","10827","8","7","Male","","","","","","","null","<p> You have almost finished this part of the game! </p>
            <p> We are going to ask you to make a few more choices. </p>","","instructions","","","","","","","","","","","",""
"learning-instructions","259","1112868","0.0-4.0-5.0-0.1","spark_pilot_norest","10827","8","7","Male","","","","","","","null","<p> First, you need to decide whether to go up or down. When you see each picture, use the arrow keys to make your choice. </p>
            <p><b>You will not see which animal you found, but try to get to the one that will give you the most treasure.</b></p>","","instructions","","","","","","","","","","","",""
"html-keyboard-response","260","1113877","0.0-4.0-6.0-0.0","spark_pilot_norest","10827","8","7","Male","","","","","","","null","<div style=""font-size:100px;color:red;"">Starting in...</div>","null","","","","","","","","","","","","",""
"html-keyboard-response","261","1114890","0.0-4.0-6.0-1.0","spark_pilot_norest","10827","8","7","Male","","","","","","","null","<div style=""font-size:200px;color:red;"">3</div>","null","","","","","","","","","","","","",""
"html-keyboard-response","262","1115891","0.0-4.0-6.0-2.0","spark_pilot_norest","10827","8","7","Male","","","","","","","null","<div style=""font-size:200px;color:red;"">2</div>","null","","","","","","","","","","","","",""
"html-keyboard-response","263","1116893","0.0-4.0-6.0-3.0","spark_pilot_norest","10827","8","7","Male","","","","","","","null","<div style=""font-size:200px;color:red;"">1</div>","null","","","","","","","","","","","","",""
"revaluation","264","1118591","0.0-4.0-7.0-0.0","spark_pilot_norest","10827","8","7","Male","","false","","","","","[1689.7999997138977]","./assets/img/canyon/test/1.jpg","[""ArrowUp""]","first stage test","canyon","0","{""ArrowUp,ArrowLeft"":2,""ArrowUp,ArrowRight"":11,""ArrowDown,ArrowLeft"":8,""ArrowDown,ArrowRight"":27}","false","ArrowUp","false","revaluation","1","","","",""
"html-keyboard-response","265","1119106","0.0-4.0-7.0-1.0","spark_pilot_norest","10827","8","7","Male","","","","","","","null","<div style=""font-size:60px;"">+</div>","null","fixation","","","","","","","","","","","",""
"revaluation","266","1119659","0.0-4.0-7.0-0.1","spark_pilot_norest","10827","8","7","Male","","false","","","","","[544.5]","./assets/img/canyon/test/0.jpg","[""ArrowUp""]","first stage test","canyon","0","{""ArrowUp,ArrowLeft"":2,""ArrowUp,ArrowRight"":11,""ArrowDown,ArrowLeft"":8,""ArrowDown,ArrowRight"":27}","false","ArrowUp","false","revaluation","1","","","",""
"html-keyboard-response","267","1120172","0.0-4.0-7.0-1.1","spark_pilot_norest","10827","8","7","Male","","","","","","","null","<div style=""font-size:60px;"">+</div>","null","fixation","","","","","","","","","","","",""
"revaluation","268","1120776","0.0-4.0-7.0-0.2","spark_pilot_norest","10827","8","7","Male","","false","","","","","[599.8000001907349]","./assets/img/canyon/test/3.jpg","[""ArrowUp""]","first stage test","canyon","0","{""ArrowUp,ArrowLeft"":2,""ArrowUp,ArrowRight"":11,""ArrowDown,ArrowLeft"":8,""ArrowDown,ArrowRight"":27}","false","ArrowUp","false","revaluation","1","","","",""
"html-keyboard-response","269","1121290","0.0-4.0-7.0-1.2","spark_pilot_norest","10827","8","7","Male","","","","","","","null","<div style=""font-size:60px;"">+</div>","null","fixation","","","","","","","","","","","",""
"revaluation","270","1122107","0.0-4.0-7.0-0.3","spark_pilot_norest","10827","8","7","Male","","false","","","","","[814.5999999046326]","./assets/img/canyon/test/2.jpg","[""ArrowUp""]","first stage test","canyon","0","{""ArrowUp,ArrowLeft"":2,""ArrowUp,ArrowRight"":11,""ArrowDown,ArrowLeft"":8,""ArrowDown,ArrowRight"":27}","false","ArrowUp","false","revaluation","1","","","",""
"html-keyboard-response","271","1122614","0.0-4.0-7.0-1.3","spark_pilot_norest","10827","8","7","Male","","","","","","","null","<div style=""font-size:60px;"">+</div>","null","fixation","","","","","","","","","","","",""
"learning-instructions","272","1135968","0.0-4.0-8.0-0.0","spark_pilot_norest","10827","8","7","Male","","","","","","","null","<p> Now you will see the animals again and can search their chests for treasure. </p>
            <p> This time, you will not see how much treasure you earned, but you will earn more bonus money for making better choices. </p>","","instructions","","","","","","","","","","","",""
"html-keyboard-response","273","1136975","0.0-4.0-9.0-0.0","spark_pilot_norest","10827","8","7","Male","","","","","","","null","<div style=""font-size:100px;color:red;"">Starting in...</div>","null","","","","","","","","","","","","",""
"html-keyboard-response","274","1137990","0.0-4.0-9.0-1.0","spark_pilot_norest","10827","8","7","Male","","","","","","","null","<div style=""font-size:200px;color:red;"">3</div>","null","","","","","","","","","","","","",""
"html-keyboard-response","275","1138992","0.0-4.0-9.0-2.0","spark_pilot_norest","10827","8","7","Male","","","","","","","null","<div style=""font-size:200px;color:red;"">2</div>","null","","","","","","","","","","","","",""
"html-keyboard-response","276","1140009","0.0-4.0-9.0-3.0","spark_pilot_norest","10827","8","7","Male","","","","","","","null","<div style=""font-size:200px;color:red;"">1</div>","null","","","","","","","","","","","","",""
"revaluation","277","1142040","0.0-4.0-10.0-0.0","spark_pilot_norest","10827","8","7","Male","","false","","","","","[2023.1999998092651]","./assets/img/canyon/animals/giraffe.jpg","[""ArrowRight""]","second stage test","canyon","0","{""ArrowUp,ArrowLeft"":2,""ArrowUp,ArrowRight"":11,""ArrowDown,ArrowLeft"":8,""ArrowDown,ArrowRight"":27}","true","ArrowUp,ArrowRight","","revaluation","1","","","",""
"html-keyboard-response","278","1142542","0.0-4.0-10.0-1.0","spark_pilot_norest","10827","8","7","Male","","","","","","","null","<div style=""font-size:60px;"">+</div>","null","fixation","","","","","","","","","","","",""
"revaluation","279","1142552","0.0-4.0-10.0-0.1","spark_pilot_norest","10827","8","7","Male","","false","","","","","[5.099999904632568]","./assets/img/canyon/animals/giraffe.jpg","[""ArrowRight""]","second stage test","canyon","0","{""ArrowUp,ArrowLeft"":2,""ArrowUp,ArrowRight"":11,""ArrowDown,ArrowLeft"":8,""ArrowDown,ArrowRight"":27}","true","ArrowUp,ArrowRight","","revaluation","1","","","",""
"html-keyboard-response","280","1143064","0.0-4.0-10.0-1.1","spark_pilot_norest","10827","8","7","Male","","","","","","","null","<div style=""font-size:60px;"">+</div>","null","fixation","","","","","","","","","","","",""
"revaluation","281","1143074","0.0-4.0-10.0-0.2","spark_pilot_norest","10827","8","7","Male","","false","","","","","[7.900000095367432]","./assets/img/canyon/animals/giraffe.jpg","[""ArrowRight""]","second stage test","canyon","0","{""ArrowUp,ArrowLeft"":2,""ArrowUp,ArrowRight"":11,""ArrowDown,ArrowLeft"":8,""ArrowDown,ArrowRight"":27}","true","ArrowUp,ArrowRight","","revaluation","1","","","",""
"html-keyboard-response","282","1143581","0.0-4.0-10.0-1.2","spark_pilot_norest","10827","8","7","Male","","","","","","","null","<div style=""font-size:60px;"">+</div>","null","fixation","","","","","","","","","","","",""
"revaluation","283","1143598","0.0-4.0-10.0-0.3","spark_pilot_norest","10827","8","7","Male","","false","","","","","[15.199999809265137]","./assets/img/canyon/animals/giraffe.jpg","[""ArrowRight""]","second stage test","canyon","0","{""ArrowUp,ArrowLeft"":2,""ArrowUp,ArrowRight"":11,""ArrowDown,ArrowLeft"":8,""ArrowDown,ArrowRight"":27}","true","ArrowUp,ArrowRight","","revaluation","1","","","",""
"html-keyboard-response","284","1144113","0.0-4.0-10.0-1.3","spark_pilot_norest","10827","8","7","Male","","","","","","","null","<div style=""font-size:60px;"">+</div>","null","fixation","","","","","","","","","","","",""
"revaluation","285","1144124","0.0-4.0-10.0-0.4","spark_pilot_norest","10827","8","7","Male","","false","","","","","[9.5]","./assets/img/canyon/animals/lion.jpg","[""ArrowRight""]","second stage test","canyon","0","{""ArrowUp,ArrowLeft"":2,""ArrowUp,ArrowRight"":11,""ArrowDown,ArrowLeft"":8,""ArrowDown,ArrowRight"":27}","true","ArrowDown,ArrowRight","","revaluation","1","","","",""
"html-keyboard-response","286","1144633","0.0-4.0-10.0-1.4","spark_pilot_norest","10827","8","7","Male","","","","","","","null","<div style=""font-size:60px;"">+</div>","null","fixation","","","","","","","","","","","",""
"revaluation","287","1145176","0.0-4.0-10.0-0.5","spark_pilot_norest","10827","8","7","Male","","false","","","","","[538.5999999046326]","./assets/img/canyon/animals/lion.jpg","[""ArrowRight""]","second stage test","canyon","0","{""ArrowUp,ArrowLeft"":2,""ArrowUp,ArrowRight"":11,""ArrowDown,ArrowLeft"":8,""ArrowDown,ArrowRight"":27}","true","ArrowDown,ArrowRight","","revaluation","1","","","",""
"html-keyboard-response","288","1145692","0.0-4.0-10.0-1.5","spark_pilot_norest","10827","8","7","Male","","","","","","","null","<div style=""font-size:60px;"">+</div>","null","fixation","","","","","","","","","","","",""
"revaluation","289","1146179","0.0-4.0-10.0-0.6","spark_pilot_norest","10827","8","7","Male","","false","","","","","[483.19999980926514]","./assets/img/canyon/animals/lion.jpg","[""ArrowRight""]","second stage test","canyon","0","{""ArrowUp,ArrowLeft"":2,""ArrowUp,ArrowRight"":11,""ArrowDown,ArrowLeft"":8,""ArrowDown,ArrowRight"":27}","true","ArrowDown,ArrowRight","","revaluation","1","","","",""
"html-keyboard-response","290","1146689","0.0-4.0-10.0-1.6","spark_pilot_norest","10827","8","7","Male","","","","","","","null","<div style=""font-size:60px;"">+</div>","null","fixation","","","","","","","","","","","",""
"revaluation","291","1147533","0.0-4.0-10.0-0.7","spark_pilot_norest","10827","8","7","Male","","false","","","","","[837.2999997138977]","./assets/img/canyon/animals/lion.jpg","[""ArrowLeft""]","second stage test","canyon","0","{""ArrowUp,ArrowLeft"":2,""ArrowUp,ArrowRight"":11,""ArrowDown,ArrowLeft"":8,""ArrowDown,ArrowRight"":27}","false","ArrowDown,ArrowLeft","","revaluation","1","","","",""
"html-keyboard-response","292","1148041","0.0-4.0-10.0-1.7","spark_pilot_norest","10827","8","7","Male","","","","","","","null","<div style=""font-size:60px;"">+</div>","null","fixation","","","","","","","","","","","",""
"learning-instructions","293","1157987","0.0-4.0-0.1-0.2","spark_pilot_norest","10827","8","7","Male","","","","","","","7214.5","<p> This time you are searching for treasure in the <b>ocean</b>.</p>","","instructions","","","","","","","","","","","",""
"learning-instructions","294","1195568","0.0-4.0-0.1-0.3","spark_pilot_norest","10827","8","7","Male","","","","","","","20334.800000190735","<p><b>New</b> animals with <b>new</b> treasure chests live here. You need to explore to discover where the animal with the best treasure chest is.</p>
                    <p> Like before, once you figure out which animal has the chest with the most treasure, you should try to get to that animal and select that chest! </p>","","instructions","","","","","","","","","","","",""
"learning-instructions","295","1238317","0.0-4.0-1.1-0.1","spark_pilot_norest","10827","8","7","Male","","","","","","","28005.199999809265","<p> Remember, when you see a picture of the place, use the up and down keys to <b>find an animal</b>.</p>
            <p> When you encounter an animal, you should use the left and right keys to <b>select a treasure chest</b>.</p>
            <p> Don't forget to look out for the robber! </p>","","instructions","","","","","","","","","","","",""
"revaluation","296","1242338","0.0-4.0-2.1-0.50","spark_pilot_norest","10827","8","7","Male","","true","","","","","[]","./assets/img/ocean/memory/11.jpg","[]","value training","ocean","-5","{""ArrowUp,ArrowLeft"":23,""ArrowUp,ArrowRight"":10,""ArrowDown,ArrowLeft"":8,""ArrowDown,ArrowRight"":30}","false","","false","original","2","0","","",""
"html-keyboard-response","297","1242853","0.0-4.0-2.1-1.50","spark_pilot_norest","10827","8","7","Male","","","","","","","null","<div style=""font-size:60px;"">+</div>","null","fixation","","","","","","","","","1","","",""
"revaluation","298","1246870","0.0-4.0-2.1-0.51","spark_pilot_norest","10827","8","7","Male","","true","","","","","[]","./assets/img/ocean/memory/21.jpg","[]","value training","ocean","-5","{""ArrowUp,ArrowLeft"":23,""ArrowUp,ArrowRight"":10,""ArrowDown,ArrowLeft"":8,""ArrowDown,ArrowRight"":30}","false","","false","original","2","2","","",""
"html-keyboard-response","299","1247375","0.0-4.0-2.1-1.51","spark_pilot_norest","10827","8","7","Male","","","","","","","null","<div style=""font-size:60px;"">+</div>","null","fixation","","","","","","","","","3","","",""
"revaluation","300","1251389","0.0-4.0-2.1-0.52","spark_pilot_norest","10827","8","7","Male","","true","","","","","[]","./assets/img/ocean/memory/8.jpg","[]","value training","ocean","-5","{""ArrowUp,ArrowLeft"":23,""ArrowUp,ArrowRight"":10,""ArrowDown,ArrowLeft"":8,""ArrowDown,ArrowRight"":30}","false","","false","original","2","4","","",""
"html-keyboard-response","301","1251905","0.0-4.0-2.1-1.52","spark_pilot_norest","10827","8","7","Male","","","","","","","null","<div style=""font-size:60px;"">+</div>","null","fixation","","","","","","","","","5","","",""
"revaluation","302","1255918","0.0-4.0-2.1-0.53","spark_pilot_norest","10827","8","7","Male","","true","","","","","[]","./assets/img/ocean/memory/6.jpg","[]","value training","ocean","-5","{""ArrowUp,ArrowLeft"":23,""ArrowUp,ArrowRight"":10,""ArrowDown,ArrowLeft"":8,""ArrowDown,ArrowRight"":30}","false","","false","original","2","6","","",""
"html-keyboard-response","303","1256441","0.0-4.0-2.1-1.53","spark_pilot_norest","10827","8","7","Male","","","","","","","null","<div style=""font-size:60px;"">+</div>","null","fixation","","","","","","","","","7","","",""
"revaluation","304","1262470","0.0-4.0-2.1-0.54","spark_pilot_norest","10827","8","7","Male","","false","","","","","[1411,1483.6999998092651]","./assets/img/ocean/memory/29.jpg","[""ArrowUp"",""ArrowRight""]","value training","ocean","10","{""ArrowUp,ArrowLeft"":23,""ArrowUp,ArrowRight"":10,""ArrowDown,ArrowLeft"":8,""ArrowDown,ArrowRight"":30}","false","ArrowUp,ArrowRight","false","original","2","8","","",""
"html-keyboard-response","305","1262972","0.0-4.0-2.1-1.54","spark_pilot_norest","10827","8","7","Male","","","","","","","null","<div style=""font-size:60px;"">+</div>","null","fixation","","","","","","","","","9","","",""
"revaluation","306","1268999","0.0-4.0-2.1-0.55","spark_pilot_norest","10827","8","7","Male","","false","","","","","[325.2999997138977,184.80000019073486]","./assets/img/ocean/memory/23.jpg","[""ArrowUp"",""ArrowRight""]","value training","ocean","10","{""ArrowUp,ArrowLeft"":23,""ArrowUp,ArrowRight"":10,""ArrowDown,ArrowLeft"":8,""ArrowDown,ArrowRight"":30}","false","ArrowUp,ArrowRight","false","original","2","10","","",""
"html-keyboard-response","307","1269502","0.0-4.0-2.1-1.55","spark_pilot_norest","10827","8","7","Male","","","","","","","null","<div style=""font-size:60px;"">+</div>","null","fixation","","","","","","","","","11","","",""
"revaluation","308","1273536","0.0-4.0-2.1-0.56","spark_pilot_norest","10827","8","7","Male","","true","","","","","[]","./assets/img/ocean/memory/2.jpg","[]","value training","ocean","-5","{""ArrowUp,ArrowLeft"":23,""ArrowUp,ArrowRight"":10,""ArrowDown,ArrowLeft"":8,""ArrowDown,ArrowRight"":30}","false","","false","original","2","12","","",""
"html-keyboard-response","309","1274046","0.0-4.0-2.1-1.56","spark_pilot_norest","10827","8","7","Male","","","","","","","null","<div style=""font-size:60px;"">+</div>","null","fixation","","","","","","","","","13","","",""
"revaluation","310","1280065","0.0-4.0-2.1-0.57","spark_pilot_norest","10827","8","7","Male","","false","","","","","[1563.5999999046326,1771.2000002861023]","./assets/img/ocean/memory/9.jpg","[""ArrowUp"",""ArrowRight""]","value training","ocean","10","{""ArrowUp,ArrowLeft"":23,""ArrowUp,ArrowRight"":10,""ArrowDown,ArrowLeft"":8,""ArrowDown,ArrowRight"":30}","false","ArrowUp,ArrowRight","false","original","2","14","","",""
"html-keyboard-response","311","1280577","0.0-4.0-2.1-1.57","spark_pilot_norest","10827","8","7","Male","","","","","","","null","<div style=""font-size:60px;"">+</div>","null","fixation","","","","","","","","","15","","",""
"revaluation","312","1284607","0.0-4.0-2.1-0.58","spark_pilot_norest","10827","8","7","Male","","true","","","","","[]","./assets/img/ocean/catch/4.jpg","[]","value training","ocean","-5","{""ArrowUp,ArrowLeft"":23,""ArrowUp,ArrowRight"":10,""ArrowDown,ArrowLeft"":8,""ArrowDown,ArrowRight"":30}","false","","true","original","2","16","","",""
"html-keyboard-response","313","1285111","0.0-4.0-2.1-1.58","spark_pilot_norest","10827","8","7","Male","","","","","","","null","<div style=""font-size:60px;"">+</div>","null","fixation","","","","","","","","","17","","",""
"revaluation","314","1291129","0.0-4.0-2.1-0.59","spark_pilot_norest","10827","8","7","Male","","false","","","","","[1067.8000001907349,492.5]","./assets/img/ocean/memory/17.jpg","[""ArrowUp"",""ArrowRight""]","value training","ocean","10","{""ArrowUp,ArrowLeft"":23,""ArrowUp,ArrowRight"":10,""ArrowDown,ArrowLeft"":8,""ArrowDown,ArrowRight"":30}","false","ArrowUp,ArrowRight","false","original","2","18","","",""
"html-keyboard-response","315","1291637","0.0-4.0-2.1-1.59","spark_pilot_norest","10827","8","7","Male","","","","","","","null","<div style=""font-size:60px;"">+</div>","null","fixation","","","","","","","","","19","","",""
