"trial_type","trial_index","time_elapsed","internal_node_id","task_version","subject_id","assigned_condition","age","gender","success","timeout","failed_images","failed_audio","failed_video","browser_interaction","rt","stimulus","response","task_part","environment","score","rewardMap","correct","fullState","isCatch","condition","order","trial_num","key_press","ground_truth","bonus"
"pavlovia","0","995","0.0-0.0","spark_pilot_norest","12865","4","8","Female","","","","","","","","","","","","","","","","","","","","","",""
"preload","1","24130","0.0-1.0","spark_pilot_norest","12865","4","8","Female","true","false","[]","[]","[]","[{""event"":""blur"",""trial"":2,""time"":32617},{""event"":""focus"",""trial"":2,""time"":38888},{""event"":""blur"",""trial"":2,""time"":43670},{""event"":""focus"",""trial"":2,""time"":47620},{""event"":""blur"",""trial"":2,""time"":50289},{""event"":""focus"",""trial"":2,""time"":54095},{""event"":""fullscreenenter"",""trial"":2,""time"":59211}]","","","","","","","","","","","","","","","",""
"fullscreen","2","60171","0.0-2.0","spark_pilot_norest","12865","4","8","Female","true","","","","","","","","","","","","","","","","","","","","",""
"audio-button-response","3","64641","0.0-3.0-0.0-0.0","spark_pilot_norest","12865","4","8","Female","","","","","","","4384","./assets/audio/audiotest/turtle.mp3","2","audio_test","","","","","","","","","","","",""
"learning-instructions","4","75780","0.0-3.0-1.0-0.0","spark_pilot_norest","12865","4","8","Female","","","","","","","4133.5","<p> Welcome! Please remember to stay in fullscreen mode and don't click away from the experiment. </p>","","instructions","","","","","","","","","","","",""
"learning-instructions","5","85978","0.0-3.0-1.0-0.1","spark_pilot_norest","12865","4","8","Female","","","","","","","1655.7000000029802","<p> Today you will be playing a game to earn treasure. </p>
            <p> At the end of the experiment, you will earn a bonus based on how much treasure you find. </p>
            <img src='./assets/img/instructions/treasure.jpg' class='instructions-image'>","","instructions","","","","","","","","","","","",""
"learning-instructions","6","95511","0.0-3.0-1.0-0.2","spark_pilot_norest","12865","4","8","Female","","","","","","","1225.7000000029802","<p> Animals have hidden treasure in treasure chests. </p>
            <p> You need to first find an animal and then choose which of their treasure chests to search. </p>
            <img src='./assets/img/space/animals/cat.jpg' class='instructions-image'>","","instructions","","","","","","","","","","","",""
"learning-instructions","7","110546","0.0-3.0-1.0-0.3","spark_pilot_norest","12865","4","8","Female","","","","","","","1838.8999999910593","<p> In each round, you will search for treasure in a different place. In the real game, there will be two rounds. </p>
            <p> You will begin with a separate, practice round where you will search for treasure in outer space. </p>
            <img src='./assets/img/space/0.jpg' class='instructions-image'>","","instructions","","","","","","","","","","","",""
"learning-instructions","8","124147","0.0-3.0-1.0-0.4","spark_pilot_norest","12865","4","8","Female","","","","","","","2149.2999999970198","<p> On every turn, you will see a picture of the place that you are in, but the specific image may be different each time. </p>
            <p> For example, both of these images mean you are in outer space. </p>
            <img src='./assets/img/instructions/outerspace.jpg' class='instructions-image'>","","instructions","","","","","","","","","","","",""
"learning-instructions","9","133726","0.0-3.0-1.0-0.5","spark_pilot_norest","12865","4","8","Female","","","","","","","1710.2000000029802","<p> You need to decide which direction to travel in. </p>
            <p> You can choose between going <b>up or down</b> by using the arrow keys. </p>
            <img src='./assets/img/instructions/updown.jpg' class='instructions-image'>","","instructions","","","","","","","","","","","",""
"learning-instructions","10","143982","0.0-3.0-1.0-0.6","spark_pilot_norest","12865","4","8","Female","","","","","","","1397.5999999940395","<p> You will have <b>2 seconds</b> to make your choice. </p>
            <p> If you do not make a choice within 2 seconds, you will not find an animal or earn treasure. </p>
            <img src='./assets/img/instructions/2seconds.jpg' class='instructions-image'>","","instructions","","","","","","","","","","","",""
"learning-instructions","11","153764","0.0-3.0-1.0-0.7","spark_pilot_norest","12865","4","8","Female","","","","","","","2710.5","<p> Let’s try practicing that now! </p>
            <p> When you see a picture of the place you are in, press the <b>up</b> key to travel up. </p>
            <img src='./assets/img/instructions/pressUp.jpg' class='instructions-image'>","","instructions","","","","","","","","","","","",""
"revaluation","12","157810","0.0-3.0-2.0-0.0","spark_pilot_norest","12865","4","8","Female","","true","","","","","[]","./assets/img/space/0.jpg","[]","first stage practice","space","-5","null","null","","false","","","","","",""
"html-keyboard-response","13","158316","0.0-3.0-2.0-1.0","spark_pilot_norest","12865","4","8","Female","","","","","","","null","<div style=""font-size:60px;"">+</div>","null","fixation","","","","","","","","","","","",""
"revaluation","14","162338","0.0-3.0-2.0-0.1","spark_pilot_norest","12865","4","8","Female","","false","","","","","[1461.0999999940395]","./assets/img/space/1.jpg","[""ArrowUp""]","first stage practice","space","0","null","null","ArrowUp","false","","","","","",""
"html-keyboard-response","15","162843","0.0-3.0-2.0-1.1","spark_pilot_norest","12865","4","8","Female","","","","","","","null","<div style=""font-size:60px;"">+</div>","null","fixation","","","","","","","","","","","",""
"revaluation","16","166853","0.0-3.0-2.0-0.2","spark_pilot_norest","12865","4","8","Female","","false","","","","","[1851.5]","./assets/img/space/2.jpg","[""ArrowUp""]","first stage practice","space","0","null","null","ArrowUp","false","","","","","",""
"html-keyboard-response","17","167362","0.0-3.0-2.0-1.2","spark_pilot_norest","12865","4","8","Female","","","","","","","null","<div style=""font-size:60px;"">+</div>","null","fixation","","","","","","","","","","","",""
"learning-instructions","18","174162","0.0-3.0-3.0-0.0","spark_pilot_norest","12865","4","8","Female","","","","","","","2083.7000000029802","<p> Great job! Now try pressing the <b>down</b> key to travel down. </p>
            <img src='./assets/img/instructions/pressDown.jpg' class='instructions-image'>","","instructions","","","","","","","","","","","",""
"revaluation","19","178178","0.0-3.0-4.0-0.0","spark_pilot_norest","12865","4","8","Female","","false","","","","","[384.30000001192093]","./assets/img/space/3.jpg","[""ArrowDown""]","first stage practice","space","0","null","null","ArrowDown","false","","","","","",""
"html-keyboard-response","20","178682","0.0-3.0-4.0-1.0","spark_pilot_norest","12865","4","8","Female","","","","","","","null","<div style=""font-size:60px;"">+</div>","null","fixation","","","","","","","","","","","",""
"revaluation","21","182699","0.0-3.0-4.0-0.1","spark_pilot_norest","12865","4","8","Female","","false","","","","","[1233]","./assets/img/space/4.jpg","[""ArrowDown""]","first stage practice","space","0","null","null","ArrowDown","false","","","","","",""
"html-keyboard-response","22","183212","0.0-3.0-4.0-1.1","spark_pilot_norest","12865","4","8","Female","","","","","","","null","<div style=""font-size:60px;"">+</div>","null","fixation","","","","","","","","","","","",""
"revaluation","23","187235","0.0-3.0-4.0-0.2","spark_pilot_norest","12865","4","8","Female","","false","","","","","[1028.5]","./assets/img/space/5.jpg","[""ArrowDown""]","first stage practice","space","0","null","null","ArrowDown","false","","","","","",""
"html-keyboard-response","24","187737","0.0-3.0-4.0-1.2","spark_pilot_norest","12865","4","8","Female","","","","","","","null","<div style=""font-size:60px;"">+</div>","null","fixation","","","","","","","","","","","",""
"learning-instructions","25","209563","0.0-3.0-5.0-0.0","spark_pilot_norest","12865","4","8","Female","","","","","","","11940.09999999404","<p> The animals don’t move, so the animal in the upper part of a place will stay in the upper part of a place, and the animal in the lower part of a place will stay in the lower part of a place. </p>","","instructions","","","","","","","","","","","",""
"learning-instructions","26","221286","0.0-3.0-5.0-0.1","spark_pilot_norest","12865","4","8","Female","","","","","","","2543.6000000089407","<p> Each animal has two treasure chests for you to choose from. </p>
            <p> The amount of treasure in each chest can range from <b> 0 to 40 pieces.</b></p>","","instructions","","","","","","","","","","","",""
"learning-instructions","27","234084","0.0-3.0-5.0-0.2","spark_pilot_norest","12865","4","8","Female","","","","","","","1591.300000011921","<p> You should decide which chest to search for treasure by using the <b>left</b> and <b>right</b> arrow keys. </p>
            <p><b> Pay attention to which animal is on the screen, as the animals have different treasure chests. </b></p>
            <img src='./assets/img/instructions/leftright.jpg' class='instructions-image'>","","instructions","","","","","","","","","","","",""
"learning-instructions","28","242411","0.0-3.0-5.0-0.3","spark_pilot_norest","12865","4","8","Female","","","","","","","1908.5999999940395","<p> Let’s try practicing that now. </p>
            <p> When you see an animal, choose which chest to search for treasure. </p>
            <img src='./assets/img/instructions/chooseChest.jpg' class='instructions-image'>","","instructions","","","","","","","","","","","",""
"revaluation","29","246442","0.0-3.0-6.0-0.0","spark_pilot_norest","12865","4","8","Female","","true","","","","","[]","./assets/img/space/animals/cat.jpg","[]","second stage practice","space","-5","{""ArrowUp,ArrowLeft"":3,""ArrowUp,ArrowRight"":36,""ArrowDown,ArrowLeft"":15,""ArrowDown,ArrowRight"":23}","false","ArrowUp","","","","","","",""
"html-keyboard-response","30","246954","0.0-3.0-6.0-1.0","spark_pilot_norest","12865","4","8","Female","","","","","","","null","<div style=""font-size:60px;"">+</div>","null","fixation","","","","","","","","","","","",""
"revaluation","31","250964","0.0-3.0-6.0-0.1","spark_pilot_norest","12865","4","8","Female","","false","","","","","[929.7999999970198]","./assets/img/space/animals/rabbit.jpg","[""ArrowRight""]","second stage practice","space","23","{""ArrowUp,ArrowLeft"":3,""ArrowUp,ArrowRight"":36,""ArrowDown,ArrowLeft"":15,""ArrowDown,ArrowRight"":23}","true","ArrowDown,ArrowRight","","","","","","",""
"html-keyboard-response","32","251468","0.0-3.0-6.0-1.1","spark_pilot_norest","12865","4","8","Female","","","","","","","null","<div style=""font-size:60px;"">+</div>","null","fixation","","","","","","","","","","","",""
"revaluation","33","255488","0.0-3.0-6.0-0.2","spark_pilot_norest","12865","4","8","Female","","false","","","","","[759]","./assets/img/space/animals/cat.jpg","[""ArrowLeft""]","second stage practice","space","3","{""ArrowUp,ArrowLeft"":3,""ArrowUp,ArrowRight"":36,""ArrowDown,ArrowLeft"":15,""ArrowDown,ArrowRight"":23}","false","ArrowUp,ArrowLeft","","","","","","",""
"html-keyboard-response","34","255990","0.0-3.0-6.0-1.2","spark_pilot_norest","12865","4","8","Female","","","","","","","null","<div style=""font-size:60px;"">+</div>","null","fixation","","","","","","","","","","","",""
"revaluation","35","260008","0.0-3.0-6.0-0.3","spark_pilot_norest","12865","4","8","Female","","false","","","","","[504.70000000298023]","./assets/img/space/animals/rabbit.jpg","[""ArrowRight""]","second stage practice","space","23","{""ArrowUp,ArrowLeft"":3,""ArrowUp,ArrowRight"":36,""ArrowDown,ArrowLeft"":15,""ArrowDown,ArrowRight"":23}","true","ArrowDown,ArrowRight","","","","","","",""
"html-keyboard-response","36","260514","0.0-3.0-6.0-1.3","spark_pilot_norest","12865","4","8","Female","","","","","","","null","<div style=""font-size:60px;"">+</div>","null","fixation","","","","","","","","","","","",""
"learning-instructions","37","279146","0.0-3.0-7.0-0.0","spark_pilot_norest","12865","4","8","Female","","","","","","","1728.0999999940395","<p> Great job. Now let’s try putting it together. </p>
            <p> On each turn, you will first see a picture to remind you of the place you are in, and you need to choose whether to go up or down. </p>
            <p> Then you will see an animal and choose which of its chests to search for treasure. </p>","","instructions","","","","","","","","","","","",""
"learning-instructions","38","288341","0.0-3.0-7.0-0.1","spark_pilot_norest","12865","4","8","Female","","","","","","","905.2999999970198","<p> When you choose whether to go up or down, try to go to the animal with the chest with the most treasure. </p>
            <p> Try practicing that now! </p>","","instructions","","","","","","","","","","","",""
"revaluation","39","292373","0.0-3.0-8.0-0.0","spark_pilot_norest","12865","4","8","Female","","true","","","","","[]","./assets/img/space/6.jpg","[]","full practice","space","-5","{""ArrowUp,ArrowLeft"":3,""ArrowUp,ArrowRight"":36,""ArrowDown,ArrowLeft"":15,""ArrowDown,ArrowRight"":23}","false","","false","","","","","",""
"html-keyboard-response","40","292885","0.0-3.0-8.0-1.0","spark_pilot_norest","12865","4","8","Female","","","","","","","null","<div style=""font-size:60px;"">+</div>","null","fixation","","","","","","","","","","","",""
"revaluation","41","298899","0.0-3.0-8.0-0.1","spark_pilot_norest","12865","4","8","Female","","false","","","","","[716.2000000029802,1918.2000000029802]","./assets/img/space/7.jpg","[""ArrowUp"",""ArrowRight""]","full practice","space","36","{""ArrowUp,ArrowLeft"":3,""ArrowUp,ArrowRight"":36,""ArrowDown,ArrowLeft"":15,""ArrowDown,ArrowRight"":23}","true","ArrowUp,ArrowRight","false","","","","","",""
"html-keyboard-response","42","299406","0.0-3.0-8.0-1.1","spark_pilot_norest","12865","4","8","Female","","","","","","","null","<div style=""font-size:60px;"">+</div>","null","fixation","","","","","","","","","","","",""
"revaluation","43","305440","0.0-3.0-8.0-0.2","spark_pilot_norest","12865","4","8","Female","","false","","","","","[1336,101]","./assets/img/space/8.jpg","[""ArrowUp"",""ArrowRight""]","full practice","space","36","{""ArrowUp,ArrowLeft"":3,""ArrowUp,ArrowRight"":36,""ArrowDown,ArrowLeft"":15,""ArrowDown,ArrowRight"":23}","true","ArrowUp,ArrowRight","false","","","","","",""
"html-keyboard-response","44","305958","0.0-3.0-8.0-1.2","spark_pilot_norest","12865","4","8","Female","","","","","","","null","<div style=""font-size:60px;"">+</div>","null","fixation","","","","","","","","","","","",""
"revaluation","45","311997","0.0-3.0-8.0-0.3","spark_pilot_norest","12865","4","8","Female","","false","","","","","[1378.7000000029802,1652.7000000029802]","./assets/img/space/9.jpg","[""ArrowUp"",""ArrowRight""]","full practice","space","36","{""ArrowUp,ArrowLeft"":3,""ArrowUp,ArrowRight"":36,""ArrowDown,ArrowLeft"":15,""ArrowDown,ArrowRight"":23}","true","ArrowUp,ArrowRight","false","","","","","",""
"html-keyboard-response","46","312499","0.0-3.0-8.0-1.3","spark_pilot_norest","12865","4","8","Female","","","","","","","null","<div style=""font-size:60px;"">+</div>","null","fixation","","","","","","","","","","","",""
"revaluation","47","318530","0.0-3.0-8.0-0.4","spark_pilot_norest","12865","4","8","Female","","false","","","","","[1323.7999999970198,1383.5999999940395]","./assets/img/space/10.jpg","[""ArrowUp"",""ArrowRight""]","full practice","space","36","{""ArrowUp,ArrowLeft"":3,""ArrowUp,ArrowRight"":36,""ArrowDown,ArrowLeft"":15,""ArrowDown,ArrowRight"":23}","true","ArrowUp,ArrowRight","false","","","","","",""
"html-keyboard-response","48","319044","0.0-3.0-8.0-1.4","spark_pilot_norest","12865","4","8","Female","","","","","","","null","<div style=""font-size:60px;"">+</div>","null","fixation","","","","","","","","","","","",""
"learning-instructions","49","330680","0.0-3.0-9.0-0.0","spark_pilot_norest","12865","4","8","Female","","","","","","","1302","<p> One last thing: sometimes, you will see a robber. The robber can be anywhere in the picture. </p>
            <p> If you do not stop them, you will lose treasure. </p>
            <img src='./assets/img/instructions/robber.jpg' class='instructions-image'>","","instructions","","","","","","","","","","","",""
"learning-instructions","50","339355","0.0-3.0-9.0-0.1","spark_pilot_norest","12865","4","8","Female","","","","","","","1466.300000011921","<p> If you see the robber, you should <b>press the space bar</b> rather than using the arrow keys. </p>
            <p> Try practicing that now! </p>","","instructions","","","","","","","","","","","",""
"revaluation","51","343372","0.0-3.0-10.0-0.0","spark_pilot_norest","12865","4","8","Female","","false","","","","","[471.6000000089407]","./assets/img/space/catch/0.jpg","[""spaceBar""]","catch practice","space","0","{""ArrowUp,ArrowLeft"":3,""ArrowUp,ArrowRight"":36,""ArrowDown,ArrowLeft"":15,""ArrowDown,ArrowRight"":23}","true","spaceBar","true","","","","","",""
"html-keyboard-response","52","343878","0.0-3.0-10.0-1.0","spark_pilot_norest","12865","4","8","Female","","","","","","","null","<div style=""font-size:60px;"">+</div>","null","fixation","","","","","","","","","","","",""
"revaluation","53","347893","0.0-3.0-10.0-0.1","spark_pilot_norest","12865","4","8","Female","","false","","","","","[652.1999999880791]","./assets/img/space/catch/1.jpg","[""spaceBar""]","catch practice","space","0","{""ArrowUp,ArrowLeft"":3,""ArrowUp,ArrowRight"":36,""ArrowDown,ArrowLeft"":15,""ArrowDown,ArrowRight"":23}","true","spaceBar","true","","","","","",""
"html-keyboard-response","54","348397","0.0-3.0-10.0-1.1","spark_pilot_norest","12865","4","8","Female","","","","","","","null","<div style=""font-size:60px;"">+</div>","null","fixation","","","","","","","","","","","",""
"revaluation","55","352420","0.0-3.0-10.0-0.2","spark_pilot_norest","12865","4","8","Female","","false","","","","","[979.7000000029802]","./assets/img/space/catch/2.jpg","[""spaceBar""]","catch practice","space","0","{""ArrowUp,ArrowLeft"":3,""ArrowUp,ArrowRight"":36,""ArrowDown,ArrowLeft"":15,""ArrowDown,ArrowRight"":23}","true","spaceBar","true","","","","","",""
"html-keyboard-response","56","352922","0.0-3.0-10.0-1.2","spark_pilot_norest","12865","4","8","Female","","","","","","","null","<div style=""font-size:60px;"">+</div>","null","fixation","","","","","","","","","","","",""
"learning-instructions","57","360167","0.0-3.0-11.0-0.0-0.0","spark_pilot_norest","12865","4","8","Female","","","","","","","1947.800000011921","<p> Now, you will practice a shortened version of the game to get a sense of how it all fits together. </p>","","instructions","","","","","","","","","","","",""
"learning-instructions","58","364981","0.0-3.0-11.0-0.0-0.1","spark_pilot_norest","12865","4","8","Female","","","","","","","1598.2999999970198","<p>This time you are searching for treasure in outer space.</p>","","instructions","","","","","","","","","","","",""
"learning-instructions","59","383078","0.0-3.0-11.0-1.0-0.0","spark_pilot_norest","12865","4","8","Female","","","","","","","3295","<p> Remember, when you see a picture of the place, use the up and down keys to <b>find an animal</b>.</p>
            <p> When you encounter an animal, you should use the left and right keys to <b>select a treasure chest</b>.</p>
            <p> Don't forget to look out for the robber! </p>","","instructions","","","","","","","","","","","",""
"revaluation","60","389091","0.0-3.0-11.0-2.0-0.0","spark_pilot_norest","12865","4","8","Female","","false","","","","","[810,1290]","./assets/img/space/11.jpg","[""ArrowDown"",""ArrowRight""]","practice block","space","23","{""ArrowUp,ArrowLeft"":3,""ArrowUp,ArrowRight"":36,""ArrowDown,ArrowLeft"":15,""ArrowDown,ArrowRight"":23}","false","ArrowDown,ArrowRight","false","","","","","",""
"html-keyboard-response","61","389606","0.0-3.0-11.0-2.0-1.0","spark_pilot_norest","12865","4","8","Female","","","","","","","null","<div style=""font-size:60px;"">+</div>","null","fixation","","","","","","","","","","","",""
"revaluation","62","395626","0.0-3.0-11.0-2.0-0.1","spark_pilot_norest","12865","4","8","Female","","true","","","","","[1184.5]","./assets/img/space/12.jpg","[""ArrowUp""]","practice block","space","-5","{""ArrowUp,ArrowLeft"":3,""ArrowUp,ArrowRight"":36,""ArrowDown,ArrowLeft"":15,""ArrowDown,ArrowRight"":23}","false","ArrowUp","false","","","","","",""
"html-keyboard-response","63","396136","0.0-3.0-11.0-2.0-1.1","spark_pilot_norest","12865","4","8","Female","","","","","","","null","<div style=""font-size:60px;"">+</div>","null","fixation","","","","","","","","","","","",""
"revaluation","64","402168","0.0-3.0-11.0-2.0-0.2","spark_pilot_norest","12865","4","8","Female","","false","","","","","[1242.699999988079,1123.300000011921]","./assets/img/space/13.jpg","[""ArrowUp"",""ArrowLeft""]","practice block","space","3","{""ArrowUp,ArrowLeft"":3,""ArrowUp,ArrowRight"":36,""ArrowDown,ArrowLeft"":15,""ArrowDown,ArrowRight"":23}","false","ArrowUp,ArrowLeft","false","","","","","",""
"html-keyboard-response","65","402675","0.0-3.0-11.0-2.0-1.2","spark_pilot_norest","12865","4","8","Female","","","","","","","null","<div style=""font-size:60px;"">+</div>","null","fixation","","","","","","","","","","","",""
"revaluation","66","408702","0.0-3.0-11.0-2.0-0.3","spark_pilot_norest","12865","4","8","Female","","false","","","","","[1436.9000000059605,503.5]","./assets/img/space/14.jpg","[""ArrowDown"",""ArrowRight""]","practice block","space","23","{""ArrowUp,ArrowLeft"":3,""ArrowUp,ArrowRight"":36,""ArrowDown,ArrowLeft"":15,""ArrowDown,ArrowRight"":23}","false","ArrowDown,ArrowRight","false","","","","","",""
"html-keyboard-response","67","409209","0.0-3.0-11.0-2.0-1.3","spark_pilot_norest","12865","4","8","Female","","","","","","","null","<div style=""font-size:60px;"">+</div>","null","fixation","","","","","","","","","","","",""
"revaluation","68","415223","0.0-3.0-11.0-2.0-0.4","spark_pilot_norest","12865","4","8","Female","","false","","","","","[483.5,1277.199999988079]","./assets/img/space/11.jpg","[""ArrowUp"",""ArrowRight""]","practice block","space","36","{""ArrowUp,ArrowLeft"":3,""ArrowUp,ArrowRight"":36,""ArrowDown,ArrowLeft"":15,""ArrowDown,ArrowRight"":23}","true","ArrowUp,ArrowRight","false","","","","","",""
"html-keyboard-response","69","415725","0.0-3.0-11.0-2.0-1.4","spark_pilot_norest","12865","4","8","Female","","","","","","","null","<div style=""font-size:60px;"">+</div>","null","fixation","","","","","","","","","","","",""
"revaluation","70","421741","0.0-3.0-11.0-2.0-0.5","spark_pilot_norest","12865","4","8","Female","","false","","","","","[1364.5999999940395,1531.2000000029802]","./assets/img/space/12.jpg","[""ArrowUp"",""ArrowRight""]","practice block","space","36","{""ArrowUp,ArrowLeft"":3,""ArrowUp,ArrowRight"":36,""ArrowDown,ArrowLeft"":15,""ArrowDown,ArrowRight"":23}","true","ArrowUp,ArrowRight","false","","","","","",""
"html-keyboard-response","71","422244","0.0-3.0-11.0-2.0-1.5","spark_pilot_norest","12865","4","8","Female","","","","","","","null","<div style=""font-size:60px;"">+</div>","null","fixation","","","","","","","","","","","",""
"revaluation","72","428275","0.0-3.0-11.0-2.0-0.6","spark_pilot_norest","12865","4","8","Female","","false","","","","","[867,1243.0999999940395]","./assets/img/space/13.jpg","[""ArrowUp"",""ArrowRight""]","practice block","space","36","{""ArrowUp,ArrowLeft"":3,""ArrowUp,ArrowRight"":36,""ArrowDown,ArrowLeft"":15,""ArrowDown,ArrowRight"":23}","true","ArrowUp,ArrowRight","false","","","","","",""
"html-keyboard-response","73","428777","0.0-3.0-11.0-2.0-1.6","spark_pilot_norest","12865","4","8","Female","","","","","","","null","<div style=""font-size:60px;"">+</div>","null","fixation","","","","","","","","","","","",""
"revaluation","74","434810","0.0-3.0-11.0-2.0-0.7","spark_pilot_norest","12865","4","8","Female","","false","","","","","[458.1000000089407,142.3999999910593]","./assets/img/space/14.jpg","[""ArrowUp"",""ArrowRight""]","practice block","space","36","{""ArrowUp,ArrowLeft"":3,""ArrowUp,ArrowRight"":36,""ArrowDown,ArrowLeft"":15,""ArrowDown,ArrowRight"":23}","true","ArrowUp,ArrowRight","false","","","","","",""
"html-keyboard-response","75","435319","0.0-3.0-11.0-2.0-1.7","spark_pilot_norest","12865","4","8","Female","","","","","","","null","<div style=""font-size:60px;"">+</div>","null","fixation","","","","","","","","","","","",""
"revaluation","76","439340","0.0-3.0-11.0-2.0-0.8","spark_pilot_norest","12865","4","8","Female","","false","","","","","[435.20000000298023]","./assets/img/space/catch/3.jpg","[""ArrowUp""]","practice block","space","-10","{""ArrowUp,ArrowLeft"":3,""ArrowUp,ArrowRight"":36,""ArrowDown,ArrowLeft"":15,""ArrowDown,ArrowRight"":23}","false","ArrowUp","true","","","","","",""
"html-keyboard-response","77","439845","0.0-3.0-11.0-2.0-1.8","spark_pilot_norest","12865","4","8","Female","","","","","","","null","<div style=""font-size:60px;"">+</div>","null","fixation","","","","","","","","","","","",""
"learning-instructions","78","454335","0.0-3.0-11.0-3.0-0.0","spark_pilot_norest","12865","4","8","Female","","","","","","","1143.5","<p> Now, you will travel with a friend who will choose whether you go up or down first. </p>
            <p> On these turns, you will just see the animal that they found. You will still get to choose which chest to search for treasure.</p>","","instructions","","","","","","","","","","","",""
"revaluation","79","458354","0.0-3.0-11.0-4.0-0.0","spark_pilot_norest","12865","4","8","Female","","true","","","","","[]","./assets/img/space/animals/rabbit.jpg","[]","practice block","space","-5","{""ArrowUp,ArrowLeft"":3,""ArrowUp,ArrowRight"":36,""ArrowDown,ArrowLeft"":15,""ArrowDown,ArrowRight"":23}","false","ArrowDown","","","","","","",""
"html-keyboard-response","80","458858","0.0-3.0-11.0-4.0-1.0","spark_pilot_norest","12865","4","8","Female","","","","","","","null","<div style=""font-size:60px;"">+</div>","null","fixation","","","","","","","","","","","",""
"revaluation","81","462885","0.0-3.0-11.0-4.0-0.1","spark_pilot_norest","12865","4","8","Female","","false","","","","","[877.0999999940395]","./assets/img/space/animals/rabbit.jpg","[""ArrowRight""]","practice block","space","23","{""ArrowUp,ArrowLeft"":3,""ArrowUp,ArrowRight"":36,""ArrowDown,ArrowLeft"":15,""ArrowDown,ArrowRight"":23}","true","ArrowDown,ArrowRight","","","","","","",""
"html-keyboard-response","82","463399","0.0-3.0-11.0-4.0-1.1","spark_pilot_norest","12865","4","8","Female","","","","","","","null","<div style=""font-size:60px;"">+</div>","null","fixation","","","","","","","","","","","",""
"revaluation","83","467424","0.0-3.0-11.0-4.0-0.2","spark_pilot_norest","12865","4","8","Female","","false","","","","","[837.5]","./assets/img/space/animals/cat.jpg","[""ArrowRight""]","practice block","space","36","{""ArrowUp,ArrowLeft"":3,""ArrowUp,ArrowRight"":36,""ArrowDown,ArrowLeft"":15,""ArrowDown,ArrowRight"":23}","true","ArrowUp,ArrowRight","","","","","","",""
"html-keyboard-response","84","467925","0.0-3.0-11.0-4.0-1.2","spark_pilot_norest","12865","4","8","Female","","","","","","","null","<div style=""font-size:60px;"">+</div>","null","fixation","","","","","","","","","","","",""
"revaluation","85","471946","0.0-3.0-11.0-4.0-0.3","spark_pilot_norest","12865","4","8","Female","","false","","","","","[448.8999999910593]","./assets/img/space/animals/cat.jpg","[""ArrowRight""]","practice block","space","36","{""ArrowUp,ArrowLeft"":3,""ArrowUp,ArrowRight"":36,""ArrowDown,ArrowLeft"":15,""ArrowDown,ArrowRight"":23}","true","ArrowUp,ArrowRight","","","","","","",""
"html-keyboard-response","86","472452","0.0-3.0-11.0-4.0-1.3","spark_pilot_norest","12865","4","8","Female","","","","","","","null","<div style=""font-size:60px;"">+</div>","null","fixation","","","","","","","","","","","",""
"learning-instructions","87","480612","0.0-3.0-11.0-5.0-0.0","spark_pilot_norest","12865","4","8","Female","","","","","","","null","<p> You have almost finished this part of the game! </p>
            <p> We are going to ask you to make a few more choices. </p>","","instructions","","","","","","","","","","","",""
"learning-instructions","88","496669","0.0-3.0-11.0-5.0-0.1","spark_pilot_norest","12865","4","8","Female","","","","","","","null","<p> First, you need to decide whether to go up or down. When you see each picture, use the arrow keys to make your choice. </p>
            <p><b>You will not see which animal you found, but try to get to the one that will give you the most treasure.</b></p>","","instructions","","","","","","","","","","","",""
"html-keyboard-response","89","497676","0.0-3.0-11.0-6.0-0.0","spark_pilot_norest","12865","4","8","Female","","","","","","","null","<div style=""font-size:100px;color:red;"">Starting in...</div>","null","","","","","","","","","","","","",""
"html-keyboard-response","90","498690","0.0-3.0-11.0-6.0-1.0","spark_pilot_norest","12865","4","8","Female","","","","","","","null","<div style=""font-size:200px;color:red;"">3</div>","null","","","","","","","","","","","","",""
"html-keyboard-response","91","499692","0.0-3.0-11.0-6.0-2.0","spark_pilot_norest","12865","4","8","Female","","","","","","","null","<div style=""font-size:200px;color:red;"">2</div>","null","","","","","","","","","","","","",""
"html-keyboard-response","92","500696","0.0-3.0-11.0-6.0-3.0","spark_pilot_norest","12865","4","8","Female","","","","","","","null","<div style=""font-size:200px;color:red;"">1</div>","null","","","","","","","","","","","","",""
"revaluation","93","501523","0.0-3.0-11.0-7.0","spark_pilot_norest","12865","4","8","Female","","false","","","","","[824.3999999910593]","./assets/img/space/15.jpg","[""ArrowUp""]","practice block","space","0","{""ArrowUp,ArrowLeft"":3,""ArrowUp,ArrowRight"":36,""ArrowDown,ArrowLeft"":15,""ArrowDown,ArrowRight"":23}","true","ArrowUp","false","","","","","",""
"html-keyboard-response","94","502036","0.0-3.0-11.0-8.0","spark_pilot_norest","12865","4","8","Female","","","","","","","null","<div style=""font-size:60px;"">+</div>","null","fixation","","","","","","","","","","","",""
"learning-instructions","95","515449","0.0-3.0-11.0-9.0-0.0","spark_pilot_norest","12865","4","8","Female","","","","","","","null","<p> Now you will see the animals again and can search their chests for treasure. </p>
            <p> This time, you will not see how much treasure you earned, but you will earn more bonus money for making better choices. </p>","","instructions","","","","","","","","","","","",""
"html-keyboard-response","96","516462","0.0-3.0-11.0-10.0-0.0","spark_pilot_norest","12865","4","8","Female","","","","","","","null","<div style=""font-size:100px;color:red;"">Starting in...</div>","null","","","","","","","","","","","","",""
"html-keyboard-response","97","517465","0.0-3.0-11.0-10.0-1.0","spark_pilot_norest","12865","4","8","Female","","","","","","","null","<div style=""font-size:200px;color:red;"">3</div>","null","","","","","","","","","","","","",""
"html-keyboard-response","98","518469","0.0-3.0-11.0-10.0-2.0","spark_pilot_norest","12865","4","8","Female","","","","","","","null","<div style=""font-size:200px;color:red;"">2</div>","null","","","","","","","","","","","","",""
"html-keyboard-response","99","519484","0.0-3.0-11.0-10.0-3.0","spark_pilot_norest","12865","4","8","Female","","","","","","","null","<div style=""font-size:200px;color:red;"">1</div>","null","","","","","","","","","","","","",""
"revaluation","100","520544","0.0-3.0-11.0-11.0-0.0","spark_pilot_norest","12865","4","8","Female","","false","","","","","[1054.800000011921]","./assets/img/space/animals/cat.jpg","[""ArrowRight""]","practice block","space","0","{""ArrowUp,ArrowLeft"":3,""ArrowUp,ArrowRight"":36,""ArrowDown,ArrowLeft"":15,""ArrowDown,ArrowRight"":23}","true","ArrowUp,ArrowRight","","","","","","",""
"html-keyboard-response","101","521048","0.0-3.0-11.0-11.0-1.0","spark_pilot_norest","12865","4","8","Female","","","","","","","null","<div style=""font-size:60px;"">+</div>","null","fixation","","","","","","","","","","","",""
"revaluation","102","521590","0.0-3.0-11.0-11.0-0.1","spark_pilot_norest","12865","4","8","Female","","false","","","","","[540.2000000029802]","./assets/img/space/animals/rabbit.jpg","[""ArrowRight""]","practice block","space","0","{""ArrowUp,ArrowLeft"":3,""ArrowUp,ArrowRight"":36,""ArrowDown,ArrowLeft"":15,""ArrowDown,ArrowRight"":23}","true","ArrowDown,ArrowRight","","","","","","",""
"html-keyboard-response","103","522094","0.0-3.0-11.0-11.0-1.1","spark_pilot_norest","12865","4","8","Female","","","","","","","null","<div style=""font-size:60px;"">+</div>","null","fixation","","","","","","","","","","","",""
"learning-instructions","104","529878","0.0-3.0-12.0-0.0","spark_pilot_norest","12865","4","8","Female","","","","","","","3190.7000000029802","<p> Before you start, we're going to ask you a few questions about how the game works. </p>","","instructions","","","","","","","","","","","",""
"comp-q","105","540705","0.0-3.0-13.0-0.0-0.0","spark_pilot_norest","12865","4","8","Female","","","","","","","5190.70000000298","<p> <b> True or False? </b> </p>
            <p> There can be 50 pieces of treasure in a given animal's chest. </p>","0","comp_question","","","","false","","","","","","","",""
"comp-q","106","549125","0.0-3.0-13.0-0.0-1.0","spark_pilot_norest","12865","4","8","Female","","","","","","","1882.6000000089407","<p> <b>Incorrect.</b> The amount of treasure in each chest can range from 0 to 40 pieces. </p>","0","comp_answer","","","","","","","","","","","",""
"comp-q","107","556737","0.0-3.0-13.0-0.1-0.1","spark_pilot_norest","12865","4","8","Female","","","","","","","2039.2999999970198","<p> <b> True or False? </b> </p>
            <p> There can be 50 pieces of treasure in a given animal's chest. </p>","1","comp_question","","","","true","","","","","","","",""
"comp-q","108","565910","0.0-3.0-13.0-0.1-1.1","spark_pilot_norest","12865","4","8","Female","","","","","","","2487.2999999970198","<p> <b> That's right! </b> The amount of treasure in each chest can range from 0 to 40 pieces. </p>","0","comp_answer","","","","","","","","","","","",""
"comp-q","109","574548","0.0-3.0-13.0-0.2-0.2","spark_pilot_norest","12865","4","8","Female","","","","","","","1513.199999988079","<p> <b> True or False? </b> </p><p> In this game, all animals have the same amount of treasure in their left and right chests. </p>","1","comp_question","","","","true","","","","","","","",""
"comp-q","110","582822","0.0-3.0-13.0-0.2-1.2","spark_pilot_norest","12865","4","8","Female","","","","","","","3015.4000000059605","<p> <b> That's right! </b> Animals have different amounts of treasure in their treasure chests. </p>","0","comp_answer","","","","","","","","","","","",""
"comp-q","111","590607","0.0-3.0-13.0-0.3-0.3","spark_pilot_norest","12865","4","8","Female","","","","","","","1914.5999999940395","<p> <b> True or False? </b> </p><p> The same animal will always be there if you go up in the same place. </p>","1","comp_question","","","","false","","","","","","","",""
"comp-q","112","598170","0.0-3.0-13.0-0.3-1.3","spark_pilot_norest","12865","4","8","Female","","","","","","","1231.8999999910593","<p> <b>Incorrect.</b> One animal lives in the upper part and one lives in the lower part of every place. </p>","0","comp_answer","","","","","","","","","","","",""
"comp-q","113","605478","0.0-3.0-13.0-0.4-0.4","spark_pilot_norest","12865","4","8","Female","","","","","","","1489.2999999970198","<p> <b> True or False? </b> </p><p> The same animal will always be there if you go up in the same place. </p>","0","comp_question","","","","true","","","","","","","",""
"comp-q","114","614278","0.0-3.0-13.0-0.4-1.4","spark_pilot_norest","12865","4","8","Female","","","","","","","2332.2000000029802","<p> <b> That's right! </b> One animal lives in the upper part and one lives in the lower part of every place. </p>","0","comp_answer","","","","","","","","","","","",""
"comp-q","115","621347","0.0-3.0-13.0-0.5-0.5","spark_pilot_norest","12865","4","8","Female","","","","","","","1519","<p> <b> True or False? </b> </p><p> If you see a different picture, it means you are in a new place. </p>","0","comp_question","","","","false","","","","","","","",""
"comp-q","116","634201","0.0-3.0-13.0-0.5-1.5","spark_pilot_norest","12865","4","8","Female","","","","","","","1722.2000000029802","<p> <b>Incorrect.</b> Lots of different images may show the same place. For example,  you may see three different images that all remind you that you are in outer space. </p>","0","comp_answer","","","","","","","","","","","",""
"comp-q","117","641469","0.0-3.0-13.0-0.6-0.6","spark_pilot_norest","12865","4","8","Female","","","","","","","1769.7999999970198","<p> <b> True or False? </b> </p><p> If you see a different picture, it means you are in a new place. </p>","0","comp_question","","","","false","","","","","","","",""
"comp-q","118","654296","0.0-3.0-13.0-0.6-1.6","spark_pilot_norest","12865","4","8","Female","","","","","","","1764.7000000029802","<p> <b>Incorrect.</b> Lots of different images may show the same place. For example,  you may see three different images that all remind you that you are in outer space. </p>","0","comp_answer","","","","","","","","","","","",""
"comp-q","119","662286","0.0-3.0-13.0-0.7-0.7","spark_pilot_norest","12865","4","8","Female","","","","","","","2490.2999999970198","<p> <b> True or False? </b> </p><p> If you see a different picture, it means you are in a new place. </p>","1","comp_question","","","","true","","","","","","","",""
"comp-q","120","677829","0.0-3.0-13.0-0.7-1.7","spark_pilot_norest","12865","4","8","Female","","","","","","","4273.4000000059605","<p> <b> That's right! </b> Lots of different images may show the same place. For example,  you may see three different images that all remind you that you are in outer space. </p>","0","comp_answer","","","","","","","","","","","",""
"learning-instructions","121","690997","0.0-3.0-14.0-0.0","spark_pilot_norest","12865","4","8","Female","","","","","","","3276.2999999970198","<p> Good job. Remember to do your best because the amount of treasure you earn will be converted into bonus money. </p>
            <p> It’s time to start the real game! </p>","","instructions","","","","","","","","","","","",""
"learning-instructions","122","700303","0.0-4.0-0.0-0.0","spark_pilot_norest","12865","4","8","Female","","","","","","","6555.399999991059","<p> This time you are searching for treasure in the <b>ocean</b>.</p>","","instructions","","","","","","","","","","","",""
"learning-instructions","123","720310","0.0-4.0-0.0-0.1","spark_pilot_norest","12865","4","8","Female","","","","","","","2669.199999988079","<p><b>New</b> animals with <b>new</b> treasure chests live here. You need to explore to discover where the animal with the best treasure chest is.</p>
                    <p> Like before, once you figure out which animal has the chest with the most treasure, you should try to get to that animal and select that chest! </p>","","instructions","","","","","","","","","","","",""
"learning-instructions","124","738495","0.0-4.0-1.0-0.0","spark_pilot_norest","12865","4","8","Female","","","","","","","3455.2999999970198","<p> Remember, when you see a picture of the place, use the up and down keys to <b>find an animal</b>.</p>
            <p> When you encounter an animal, you should use the left and right keys to <b>select a treasure chest</b>.</p>
            <p> Don't forget to look out for the robber! </p>","","instructions","","","","","","","","","","","",""
"revaluation","125","742504","0.0-4.0-2.0-0.0","spark_pilot_norest","12865","4","8","Female","","false","","","","","[1002.1000000089407]","./assets/img/ocean/catch/4.jpg","[""ArrowDown""]","value training","ocean","-10","{""ArrowUp,ArrowLeft"":26,""ArrowUp,ArrowRight"":10,""ArrowDown,ArrowLeft"":5,""ArrowDown,ArrowRight"":17}","false","ArrowDown","true","revaluation","1","0","","",""
"html-keyboard-response","126","743014","0.0-4.0-2.0-1.0","spark_pilot_norest","12865","4","8","Female","","","","","","","null","<div style=""font-size:60px;"">+</div>","null","fixation","","","","","","","","","1","","",""
"revaluation","127","749043","0.0-4.0-2.0-0.1","spark_pilot_norest","12865","4","8","Female","","false","","","","","[1049.2999999970198,894.0999999940395]","./assets/img/ocean/memory/25.jpg","[""ArrowDown"",""ArrowRight""]","value training","ocean","17","{""ArrowUp,ArrowLeft"":26,""ArrowUp,ArrowRight"":10,""ArrowDown,ArrowLeft"":5,""ArrowDown,ArrowRight"":17}","false","ArrowDown,ArrowRight","false","revaluation","1","2","","",""
"html-keyboard-response","128","749558","0.0-4.0-2.0-1.1","spark_pilot_norest","12865","4","8","Female","","","","","","","null","<div style=""font-size:60px;"">+</div>","null","fixation","","","","","","","","","3","","",""
"revaluation","129","755575","0.0-4.0-2.0-0.2","spark_pilot_norest","12865","4","8","Female","","false","","","","","[792.2999999970198,1829.5]","./assets/img/ocean/memory/25.jpg","[""ArrowDown"",""ArrowRight""]","value training","ocean","17","{""ArrowUp,ArrowLeft"":26,""ArrowUp,ArrowRight"":10,""ArrowDown,ArrowLeft"":5,""ArrowDown,ArrowRight"":17}","false","ArrowDown,ArrowRight","false","revaluation","1","4","","",""
"html-keyboard-response","130","756084","0.0-4.0-2.0-1.2","spark_pilot_norest","12865","4","8","Female","","","","","","","null","<div style=""font-size:60px;"">+</div>","null","fixation","","","","","","","","","5","","",""
"revaluation","131","762103","0.0-4.0-2.0-0.3","spark_pilot_norest","12865","4","8","Female","","false","","","","","[1089,961.0999999940395]","./assets/img/ocean/memory/17.jpg","[""ArrowUp"",""ArrowLeft""]","value training","ocean","26","{""ArrowUp,ArrowLeft"":26,""ArrowUp,ArrowRight"":10,""ArrowDown,ArrowLeft"":5,""ArrowDown,ArrowRight"":17}","true","ArrowUp,ArrowLeft","false","revaluation","1","6","","",""
"html-keyboard-response","132","762609","0.0-4.0-2.0-1.3","spark_pilot_norest","12865","4","8","Female","","","","","","","null","<div style=""font-size:60px;"">+</div>","null","fixation","","","","","","","","","7","","",""
"revaluation","133","768636","0.0-4.0-2.0-0.4","spark_pilot_norest","12865","4","8","Female","","false","","","","","[771.5,1842.7000000029802]","./assets/img/ocean/memory/35.jpg","[""ArrowUp"",""ArrowLeft""]","value training","ocean","26","{""ArrowUp,ArrowLeft"":26,""ArrowUp,ArrowRight"":10,""ArrowDown,ArrowLeft"":5,""ArrowDown,ArrowRight"":17}","true","ArrowUp,ArrowLeft","false","revaluation","1","8","","",""
"html-keyboard-response","134","769143","0.0-4.0-2.0-1.4","spark_pilot_norest","12865","4","8","Female","","","","","","","null","<div style=""font-size:60px;"">+</div>","null","fixation","","","","","","","","","9","","",""
"revaluation","135","775175","0.0-4.0-2.0-0.5","spark_pilot_norest","12865","4","8","Female","","false","","","","","[547.4000000059605,1611]","./assets/img/ocean/memory/1.jpg","[""ArrowDown"",""ArrowLeft""]","value training","ocean","5","{""ArrowUp,ArrowLeft"":26,""ArrowUp,ArrowRight"":10,""ArrowDown,ArrowLeft"":5,""ArrowDown,ArrowRight"":17}","false","ArrowDown,ArrowLeft","false","revaluation","1","10","","",""
"html-keyboard-response","136","775687","0.0-4.0-2.0-1.5","spark_pilot_norest","12865","4","8","Female","","","","","","","null","<div style=""font-size:60px;"">+</div>","null","fixation","","","","","","","","","11","","",""
"revaluation","137","781703","0.0-4.0-2.0-0.6","spark_pilot_norest","12865","4","8","Female","","false","","","","","[381.90000000596046,720.6000000089407]","./assets/img/ocean/memory/15.jpg","[""ArrowDown"",""ArrowRight""]","value training","ocean","17","{""ArrowUp,ArrowLeft"":26,""ArrowUp,ArrowRight"":10,""ArrowDown,ArrowLeft"":5,""ArrowDown,ArrowRight"":17}","false","ArrowDown,ArrowRight","false","revaluation","1","12","","",""
"html-keyboard-response","138","782214","0.0-4.0-2.0-1.6","spark_pilot_norest","12865","4","8","Female","","","","","","","null","<div style=""font-size:60px;"">+</div>","null","fixation","","","","","","","","","13","","",""
"revaluation","139","788235","0.0-4.0-2.0-0.7","spark_pilot_norest","12865","4","8","Female","","false","","","","","[1745.2999999970198,874]","./assets/img/ocean/memory/34.jpg","[""ArrowDown"",""ArrowRight""]","value training","ocean","17","{""ArrowUp,ArrowLeft"":26,""ArrowUp,ArrowRight"":10,""ArrowDown,ArrowLeft"":5,""ArrowDown,ArrowRight"":17}","false","ArrowDown,ArrowRight","false","revaluation","1","14","","",""
"html-keyboard-response","140","788740","0.0-4.0-2.0-1.7","spark_pilot_norest","12865","4","8","Female","","","","","","","null","<div style=""font-size:60px;"">+</div>","null","fixation","","","","","","","","","15","","",""
"revaluation","141","794775","0.0-4.0-2.0-0.8","spark_pilot_norest","12865","4","8","Female","","false","","","","","[573.2000000029802,1142.2999999970198]","./assets/img/ocean/memory/3.jpg","[""ArrowDown"",""ArrowLeft""]","value training","ocean","5","{""ArrowUp,ArrowLeft"":26,""ArrowUp,ArrowRight"":10,""ArrowDown,ArrowLeft"":5,""ArrowDown,ArrowRight"":17}","false","ArrowDown,ArrowLeft","false","revaluation","1","16","","",""
"html-keyboard-response","142","795285","0.0-4.0-2.0-1.8","spark_pilot_norest","12865","4","8","Female","","","","","","","null","<div style=""font-size:60px;"">+</div>","null","fixation","","","","","","","","","17","","",""
"revaluation","143","801309","0.0-4.0-2.0-0.9","spark_pilot_norest","12865","4","8","Female","","false","","","","","[872.9000000059605,842.4000000059605]","./assets/img/ocean/memory/34.jpg","[""ArrowDown"",""ArrowRight""]","value training","ocean","17","{""ArrowUp,ArrowLeft"":26,""ArrowUp,ArrowRight"":10,""ArrowDown,ArrowLeft"":5,""ArrowDown,ArrowRight"":17}","false","ArrowDown,ArrowRight","false","revaluation","1","18","","",""
"html-keyboard-response","144","801813","0.0-4.0-2.0-1.9","spark_pilot_norest","12865","4","8","Female","","","","","","","null","<div style=""font-size:60px;"">+</div>","null","fixation","","","","","","","","","19","","",""
"revaluation","145","807828","0.0-4.0-2.0-0.10","spark_pilot_norest","12865","4","8","Female","","false","","","","","[1012.2999999970198,1762.5]","./assets/img/ocean/memory/41.jpg","[""ArrowDown"",""ArrowLeft""]","value training","ocean","5","{""ArrowUp,ArrowLeft"":26,""ArrowUp,ArrowRight"":10,""ArrowDown,ArrowLeft"":5,""ArrowDown,ArrowRight"":17}","false","ArrowDown,ArrowLeft","false","revaluation","1","20","","",""
"html-keyboard-response","146","808330","0.0-4.0-2.0-1.10","spark_pilot_norest","12865","4","8","Female","","","","","","","null","<div style=""font-size:60px;"">+</div>","null","fixation","","","","","","","","","21","","",""
"revaluation","147","812349","0.0-4.0-2.0-0.11","spark_pilot_norest","12865","4","8","Female","","false","","","","","[701.4000000059605]","./assets/img/ocean/catch/6.jpg","[""ArrowDown""]","value training","ocean","-10","{""ArrowUp,ArrowLeft"":26,""ArrowUp,ArrowRight"":10,""ArrowDown,ArrowLeft"":5,""ArrowDown,ArrowRight"":17}","false","ArrowDown","true","revaluation","1","22","","",""
"html-keyboard-response","148","812860","0.0-4.0-2.0-1.11","spark_pilot_norest","12865","4","8","Female","","","","","","","null","<div style=""font-size:60px;"">+</div>","null","fixation","","","","","","","","","23","","",""
"revaluation","149","816870","0.0-4.0-2.0-0.12","spark_pilot_norest","12865","4","8","Female","","false","","","","","[1698.6000000089407]","./assets/img/ocean/catch/2.jpg","[""ArrowDown""]","value training","ocean","-10","{""ArrowUp,ArrowLeft"":26,""ArrowUp,ArrowRight"":10,""ArrowDown,ArrowLeft"":5,""ArrowDown,ArrowRight"":17}","false","ArrowDown","true","revaluation","1","24","","",""
"html-keyboard-response","150","817380","0.0-4.0-2.0-1.12","spark_pilot_norest","12865","4","8","Female","","","","","","","null","<div style=""font-size:60px;"">+</div>","null","fixation","","","","","","","","","25","","",""
"revaluation","151","821396","0.0-4.0-2.0-0.13","spark_pilot_norest","12865","4","8","Female","","true","","","","","[]","./assets/img/ocean/memory/9.jpg","[]","value training","ocean","-5","{""ArrowUp,ArrowLeft"":26,""ArrowUp,ArrowRight"":10,""ArrowDown,ArrowLeft"":5,""ArrowDown,ArrowRight"":17}","false","","false","revaluation","1","26","","",""
"html-keyboard-response","152","821905","0.0-4.0-2.0-1.13","spark_pilot_norest","12865","4","8","Female","","","","","","","null","<div style=""font-size:60px;"">+</div>","null","fixation","","","","","","","","","27","","",""
"revaluation","153","827925","0.0-4.0-2.0-0.14","spark_pilot_norest","12865","4","8","Female","","false","","","","","[825,1195.9000000059605]","./assets/img/ocean/memory/31.jpg","[""ArrowDown"",""ArrowRight""]","value training","ocean","17","{""ArrowUp,ArrowLeft"":26,""ArrowUp,ArrowRight"":10,""ArrowDown,ArrowLeft"":5,""ArrowDown,ArrowRight"":17}","false","ArrowDown,ArrowRight","false","revaluation","1","28","","",""
"html-keyboard-response","154","828434","0.0-4.0-2.0-1.14","spark_pilot_norest","12865","4","8","Female","","","","","","","null","<div style=""font-size:60px;"">+</div>","null","fixation","","","","","","","","","29","","",""
"revaluation","155","834451","0.0-4.0-2.0-0.15","spark_pilot_norest","12865","4","8","Female","","false","","","","","[820.6999999880791,43.6000000089407]","./assets/img/ocean/memory/11.jpg","[""ArrowDown"",""ArrowRight""]","value training","ocean","17","{""ArrowUp,ArrowLeft"":26,""ArrowUp,ArrowRight"":10,""ArrowDown,ArrowLeft"":5,""ArrowDown,ArrowRight"":17}","false","ArrowDown,ArrowRight","false","revaluation","1","30","","",""
"html-keyboard-response","156","834961","0.0-4.0-2.0-1.15","spark_pilot_norest","12865","4","8","Female","","","","","","","null","<div style=""font-size:60px;"">+</div>","null","fixation","","","","","","","","","31","","",""
"revaluation","157","838989","0.0-4.0-2.0-0.16","spark_pilot_norest","12865","4","8","Female","","false","","","","","[728.7000000029802]","./assets/img/ocean/catch/3.jpg","[""spaceBar""]","value training","ocean","0","{""ArrowUp,ArrowLeft"":26,""ArrowUp,ArrowRight"":10,""ArrowDown,ArrowLeft"":5,""ArrowDown,ArrowRight"":17}","true","spaceBar","true","revaluation","1","32","","",""
"html-keyboard-response","158","839505","0.0-4.0-2.0-1.16","spark_pilot_norest","12865","4","8","Female","","","","","","","null","<div style=""font-size:60px;"">+</div>","null","fixation","","","","","","","","","33","","",""
"revaluation","159","843519","0.0-4.0-2.0-0.17","spark_pilot_norest","12865","4","8","Female","","false","","","","","[642.7999999970198]","./assets/img/ocean/catch/0.jpg","[""spaceBar""]","value training","ocean","0","{""ArrowUp,ArrowLeft"":26,""ArrowUp,ArrowRight"":10,""ArrowDown,ArrowLeft"":5,""ArrowDown,ArrowRight"":17}","true","spaceBar","true","revaluation","1","34","","",""
"html-keyboard-response","160","844027","0.0-4.0-2.0-1.17","spark_pilot_norest","12865","4","8","Female","","","","","","","null","<div style=""font-size:60px;"">+</div>","null","fixation","","","","","","","","","35","","",""
"revaluation","161","850049","0.0-4.0-2.0-0.18","spark_pilot_norest","12865","4","8","Female","","false","","","","","[1531.2000000029802,190.29999999701977]","./assets/img/ocean/memory/36.jpg","[""ArrowUp"",""ArrowRight""]","value training","ocean","10","{""ArrowUp,ArrowLeft"":26,""ArrowUp,ArrowRight"":10,""ArrowDown,ArrowLeft"":5,""ArrowDown,ArrowRight"":17}","false","ArrowUp,ArrowRight","false","revaluation","1","36","","",""
"html-keyboard-response","162","850566","0.0-4.0-2.0-1.18","spark_pilot_norest","12865","4","8","Female","","","","","","","null","<div style=""font-size:60px;"">+</div>","null","fixation","","","","","","","","","37","","",""
"revaluation","163","854589","0.0-4.0-2.0-0.19","spark_pilot_norest","12865","4","8","Female","","false","","","","","[516.7999999970198]","./assets/img/ocean/catch/1.jpg","[""spaceBar""]","value training","ocean","0","{""ArrowUp,ArrowLeft"":26,""ArrowUp,ArrowRight"":10,""ArrowDown,ArrowLeft"":5,""ArrowDown,ArrowRight"":17}","true","spaceBar","true","revaluation","1","38","","",""
"html-keyboard-response","164","855098","0.0-4.0-2.0-1.19","spark_pilot_norest","12865","4","8","Female","","","","","","","null","<div style=""font-size:60px;"">+</div>","null","fixation","","","","","","","","","39","","",""
"revaluation","165","861128","0.0-4.0-2.0-0.20","spark_pilot_norest","12865","4","8","Female","","false","","","","","[1118.5,657.3999999910593]","./assets/img/ocean/memory/17.jpg","[""ArrowUp"",""ArrowRight""]","value training","ocean","10","{""ArrowUp,ArrowLeft"":26,""ArrowUp,ArrowRight"":10,""ArrowDown,ArrowLeft"":5,""ArrowDown,ArrowRight"":17}","false","ArrowUp,ArrowRight","false","revaluation","1","40","","",""
"html-keyboard-response","166","861644","0.0-4.0-2.0-1.20","spark_pilot_norest","12865","4","8","Female","","","","","","","null","<div style=""font-size:60px;"">+</div>","null","fixation","","","","","","","","","41","","",""
"revaluation","167","867666","0.0-4.0-2.0-0.21","spark_pilot_norest","12865","4","8","Female","","false","","","","","[1069.5999999940395,1346.3999999910593]","./assets/img/ocean/memory/9.jpg","[""ArrowDown"",""ArrowRight""]","value training","ocean","17","{""ArrowUp,ArrowLeft"":26,""ArrowUp,ArrowRight"":10,""ArrowDown,ArrowLeft"":5,""ArrowDown,ArrowRight"":17}","false","ArrowDown,ArrowRight","false","revaluation","1","42","","",""
"html-keyboard-response","168","868183","0.0-4.0-2.0-1.21","spark_pilot_norest","12865","4","8","Female","","","","","","","null","<div style=""font-size:60px;"">+</div>","null","fixation","","","","","","","","","43","","",""
"revaluation","169","874200","0.0-4.0-2.0-0.22","spark_pilot_norest","12865","4","8","Female","","false","","","","","[500.1000000089407,1006.2999999970198]","./assets/img/ocean/memory/29.jpg","[""ArrowDown"",""ArrowRight""]","value training","ocean","17","{""ArrowUp,ArrowLeft"":26,""ArrowUp,ArrowRight"":10,""ArrowDown,ArrowLeft"":5,""ArrowDown,ArrowRight"":17}","false","ArrowDown,ArrowRight","false","revaluation","1","44","","",""
"html-keyboard-response","170","874716","0.0-4.0-2.0-1.22","spark_pilot_norest","12865","4","8","Female","","","","","","","null","<div style=""font-size:60px;"">+</div>","null","fixation","","","","","","","","","45","","",""
"revaluation","171","880743","0.0-4.0-2.0-0.23","spark_pilot_norest","12865","4","8","Female","","false","","","","","[1039.7000000029802,1545]","./assets/img/ocean/memory/28.jpg","[""ArrowDown"",""ArrowRight""]","value training","ocean","17","{""ArrowUp,ArrowLeft"":26,""ArrowUp,ArrowRight"":10,""ArrowDown,ArrowLeft"":5,""ArrowDown,ArrowRight"":17}","false","ArrowDown,ArrowRight","false","revaluation","1","46","","",""
"html-keyboard-response","172","881251","0.0-4.0-2.0-1.23","spark_pilot_norest","12865","4","8","Female","","","","","","","null","<div style=""font-size:60px;"">+</div>","null","fixation","","","","","","","","","47","","",""
"revaluation","173","887274","0.0-4.0-2.0-0.24","spark_pilot_norest","12865","4","8","Female","","false","","","","","[481.90000000596046,580.6000000089407]","./assets/img/ocean/memory/28.jpg","[""ArrowDown"",""ArrowRight""]","value training","ocean","17","{""ArrowUp,ArrowLeft"":26,""ArrowUp,ArrowRight"":10,""ArrowDown,ArrowLeft"":5,""ArrowDown,ArrowRight"":17}","false","ArrowDown,ArrowRight","false","revaluation","1","48","","",""
"html-keyboard-response","174","887789","0.0-4.0-2.0-1.24","spark_pilot_norest","12865","4","8","Female","","","","","","","null","<div style=""font-size:60px;"">+</div>","null","fixation","","","","","","","","","49","","",""
"revaluation","175","893809","0.0-4.0-2.0-0.25","spark_pilot_norest","12865","4","8","Female","","true","","","","","[734.5]","./assets/img/ocean/memory/14.jpg","[""ArrowDown""]","value training","ocean","-5","{""ArrowUp,ArrowLeft"":26,""ArrowUp,ArrowRight"":10,""ArrowDown,ArrowLeft"":5,""ArrowDown,ArrowRight"":17}","false","ArrowDown","false","revaluation","1","50","","",""
"html-keyboard-response","176","894315","0.0-4.0-2.0-1.25","spark_pilot_norest","12865","4","8","Female","","","","","","","null","<div style=""font-size:60px;"">+</div>","null","fixation","","","","","","","","","51","","",""
"revaluation","177","900339","0.0-4.0-2.0-0.26","spark_pilot_norest","12865","4","8","Female","","false","","","","","[1009.2000000029802,658.5]","./assets/img/ocean/memory/13.jpg","[""ArrowDown"",""ArrowRight""]","value training","ocean","17","{""ArrowUp,ArrowLeft"":26,""ArrowUp,ArrowRight"":10,""ArrowDown,ArrowLeft"":5,""ArrowDown,ArrowRight"":17}","false","ArrowDown,ArrowRight","false","revaluation","1","52","","",""
"html-keyboard-response","178","900856","0.0-4.0-2.0-1.26","spark_pilot_norest","12865","4","8","Female","","","","","","","null","<div style=""font-size:60px;"">+</div>","null","fixation","","","","","","","","","53","","",""
"revaluation","179","906882","0.0-4.0-2.0-0.27","spark_pilot_norest","12865","4","8","Female","","false","","","","","[729.7999999970198,512.5999999940395]","./assets/img/ocean/memory/19.jpg","[""ArrowDown"",""ArrowRight""]","value training","ocean","17","{""ArrowUp,ArrowLeft"":26,""ArrowUp,ArrowRight"":10,""ArrowDown,ArrowLeft"":5,""ArrowDown,ArrowRight"":17}","false","ArrowDown,ArrowRight","false","revaluation","1","54","","",""
"html-keyboard-response","180","907388","0.0-4.0-2.0-1.27","spark_pilot_norest","12865","4","8","Female","","","","","","","null","<div style=""font-size:60px;"">+</div>","null","fixation","","","","","","","","","55","","",""
"revaluation","181","913406","0.0-4.0-2.0-0.28","spark_pilot_norest","12865","4","8","Female","","true","","","","","[712.2999999970198]","./assets/img/ocean/memory/11.jpg","[""ArrowDown""]","value training","ocean","-5","{""ArrowUp,ArrowLeft"":26,""ArrowUp,ArrowRight"":10,""ArrowDown,ArrowLeft"":5,""ArrowDown,ArrowRight"":17}","false","ArrowDown","false","revaluation","1","56","","",""
"html-keyboard-response","182","913915","0.0-4.0-2.0-1.28","spark_pilot_norest","12865","4","8","Female","","","","","","","null","<div style=""font-size:60px;"">+</div>","null","fixation","","","","","","","","","57","","",""
"revaluation","183","919947","0.0-4.0-2.0-0.29","spark_pilot_norest","12865","4","8","Female","","false","","","","","[836.7999999970198,463]","./assets/img/ocean/memory/19.jpg","[""ArrowDown"",""ArrowRight""]","value training","ocean","17","{""ArrowUp,ArrowLeft"":26,""ArrowUp,ArrowRight"":10,""ArrowDown,ArrowLeft"":5,""ArrowDown,ArrowRight"":17}","false","ArrowDown,ArrowRight","false","revaluation","1","58","","",""
"html-keyboard-response","184","920453","0.0-4.0-2.0-1.29","spark_pilot_norest","12865","4","8","Female","","","","","","","null","<div style=""font-size:60px;"">+</div>","null","fixation","","","","","","","","","59","","",""
"revaluation","185","926482","0.0-4.0-2.0-0.30","spark_pilot_norest","12865","4","8","Female","","false","","","","","[693.5,424.29999999701977]","./assets/img/ocean/memory/41.jpg","[""ArrowDown"",""ArrowLeft""]","value training","ocean","5","{""ArrowUp,ArrowLeft"":26,""ArrowUp,ArrowRight"":10,""ArrowDown,ArrowLeft"":5,""ArrowDown,ArrowRight"":17}","false","ArrowDown,ArrowLeft","false","revaluation","1","60","","",""
"html-keyboard-response","186","926987","0.0-4.0-2.0-1.30","spark_pilot_norest","12865","4","8","Female","","","","","","","null","<div style=""font-size:60px;"">+</div>","null","fixation","","","","","","","","","61","","",""
"revaluation","187","933019","0.0-4.0-2.0-0.31","spark_pilot_norest","12865","4","8","Female","","false","","","","","[657.7000000029802,454.5]","./assets/img/ocean/memory/18.jpg","[""ArrowDown"",""ArrowRight""]","value training","ocean","17","{""ArrowUp,ArrowLeft"":26,""ArrowUp,ArrowRight"":10,""ArrowDown,ArrowLeft"":5,""ArrowDown,ArrowRight"":17}","false","ArrowDown,ArrowRight","false","revaluation","1","62","","",""
"html-keyboard-response","188","933526","0.0-4.0-2.0-1.31","spark_pilot_norest","12865","4","8","Female","","","","","","","null","<div style=""font-size:60px;"">+</div>","null","fixation","","","","","","","","","63","","",""
"revaluation","189","939553","0.0-4.0-2.0-0.32","spark_pilot_norest","12865","4","8","Female","","false","","","","","[683.7000000029802,1068.5]","./assets/img/ocean/memory/23.jpg","[""ArrowDown"",""ArrowRight""]","value training","ocean","17","{""ArrowUp,ArrowLeft"":26,""ArrowUp,ArrowRight"":10,""ArrowDown,ArrowLeft"":5,""ArrowDown,ArrowRight"":17}","false","ArrowDown,ArrowRight","false","revaluation","1","64","","",""
"html-keyboard-response","190","940055","0.0-4.0-2.0-1.32","spark_pilot_norest","12865","4","8","Female","","","","","","","null","<div style=""font-size:60px;"">+</div>","null","fixation","","","","","","","","","65","","",""
"revaluation","191","946076","0.0-4.0-2.0-0.33","spark_pilot_norest","12865","4","8","Female","","false","","","","","[1363.5999999940395,1397.6000000089407]","./assets/img/ocean/memory/4.jpg","[""ArrowDown"",""ArrowRight""]","value training","ocean","17","{""ArrowUp,ArrowLeft"":26,""ArrowUp,ArrowRight"":10,""ArrowDown,ArrowLeft"":5,""ArrowDown,ArrowRight"":17}","false","ArrowDown,ArrowRight","false","revaluation","1","66","","",""
"html-keyboard-response","192","946592","0.0-4.0-2.0-1.33","spark_pilot_norest","12865","4","8","Female","","","","","","","null","<div style=""font-size:60px;"">+</div>","null","fixation","","","","","","","","","67","","",""
"revaluation","193","952621","0.0-4.0-2.0-0.34","spark_pilot_norest","12865","4","8","Female","","false","","","","","[855.2000000029802,1188.9000000059605]","./assets/img/ocean/memory/35.jpg","[""ArrowDown"",""ArrowRight""]","value training","ocean","17","{""ArrowUp,ArrowLeft"":26,""ArrowUp,ArrowRight"":10,""ArrowDown,ArrowLeft"":5,""ArrowDown,ArrowRight"":17}","false","ArrowDown,ArrowRight","false","revaluation","1","68","","",""
"html-keyboard-response","194","953138","0.0-4.0-2.0-1.34","spark_pilot_norest","12865","4","8","Female","","","","","","","null","<div style=""font-size:60px;"">+</div>","null","fixation","","","","","","","","","69","","",""
"revaluation","195","959158","0.0-4.0-2.0-0.35","spark_pilot_norest","12865","4","8","Female","","false","","","","","[1128.9000000059605,1156.5999999940395]","./assets/img/ocean/memory/29.jpg","[""ArrowDown"",""ArrowRight""]","value training","ocean","17","{""ArrowUp,ArrowLeft"":26,""ArrowUp,ArrowRight"":10,""ArrowDown,ArrowLeft"":5,""ArrowDown,ArrowRight"":17}","false","ArrowDown,ArrowRight","false","revaluation","1","70","","",""
"html-keyboard-response","196","959673","0.0-4.0-2.0-1.35","spark_pilot_norest","12865","4","8","Female","","","","","","","null","<div style=""font-size:60px;"">+</div>","null","fixation","","","","","","","","","71","","",""
"revaluation","197","965704","0.0-4.0-2.0-0.36","spark_pilot_norest","12865","4","8","Female","","false","","","","","[654.5,880.1000000089407]","./assets/img/ocean/memory/31.jpg","[""ArrowDown"",""ArrowRight""]","value training","ocean","17","{""ArrowUp,ArrowLeft"":26,""ArrowUp,ArrowRight"":10,""ArrowDown,ArrowLeft"":5,""ArrowDown,ArrowRight"":17}","false","ArrowDown,ArrowRight","false","revaluation","1","72","","",""
"html-keyboard-response","198","966211","0.0-4.0-2.0-1.36","spark_pilot_norest","12865","4","8","Female","","","","","","","null","<div style=""font-size:60px;"">+</div>","null","fixation","","","","","","","","","73","","",""
"revaluation","199","972240","0.0-4.0-2.0-0.37","spark_pilot_norest","12865","4","8","Female","","false","","","","","[658.6999999880791,1242.7999999970198]","./assets/img/ocean/memory/4.jpg","[""ArrowDown"",""ArrowRight""]","value training","ocean","17","{""ArrowUp,ArrowLeft"":26,""ArrowUp,ArrowRight"":10,""ArrowDown,ArrowLeft"":5,""ArrowDown,ArrowRight"":17}","false","ArrowDown,ArrowRight","false","revaluation","1","74","","",""
"html-keyboard-response","200","972750","0.0-4.0-2.0-1.37","spark_pilot_norest","12865","4","8","Female","","","","","","","null","<div style=""font-size:60px;"">+</div>","null","fixation","","","","","","","","","75","","",""
"revaluation","201","978776","0.0-4.0-2.0-0.38","spark_pilot_norest","12865","4","8","Female","","false","","","","","[685,1117.7000000029802]","./assets/img/ocean/memory/1.jpg","[""ArrowDown"",""ArrowRight""]","value training","ocean","17","{""ArrowUp,ArrowLeft"":26,""ArrowUp,ArrowRight"":10,""ArrowDown,ArrowLeft"":5,""ArrowDown,ArrowRight"":17}","false","ArrowDown,ArrowRight","false","revaluation","1","76","","",""
"html-keyboard-response","202","979290","0.0-4.0-2.0-1.38","spark_pilot_norest","12865","4","8","Female","","","","","","","null","<div style=""font-size:60px;"">+</div>","null","fixation","","","","","","","","","77","","",""
"revaluation","203","985322","0.0-4.0-2.0-0.39","spark_pilot_norest","12865","4","8","Female","","false","","","","","[536.2999999970198,472.20000000298023]","./assets/img/ocean/memory/23.jpg","[""ArrowDown"",""ArrowRight""]","value training","ocean","17","{""ArrowUp,ArrowLeft"":26,""ArrowUp,ArrowRight"":10,""ArrowDown,ArrowLeft"":5,""ArrowDown,ArrowRight"":17}","false","ArrowDown,ArrowRight","false","revaluation","1","78","","",""
"html-keyboard-response","204","985830","0.0-4.0-2.0-1.39","spark_pilot_norest","12865","4","8","Female","","","","","","","null","<div style=""font-size:60px;"">+</div>","null","fixation","","","","","","","","","79","","",""
"revaluation","205","991865","0.0-4.0-2.0-0.40","spark_pilot_norest","12865","4","8","Female","","false","","","","","[635,1033.2999999970198]","./assets/img/ocean/memory/36.jpg","[""ArrowDown"",""ArrowRight""]","value training","ocean","17","{""ArrowUp,ArrowLeft"":26,""ArrowUp,ArrowRight"":10,""ArrowDown,ArrowLeft"":5,""ArrowDown,ArrowRight"":17}","false","ArrowDown,ArrowRight","false","revaluation","1","80","","",""
"html-keyboard-response","206","992374","0.0-4.0-2.0-1.40","spark_pilot_norest","12865","4","8","Female","","","","","","","null","<div style=""font-size:60px;"">+</div>","null","fixation","","","","","","","","","81","","",""
"revaluation","207","998400","0.0-4.0-2.0-0.41","spark_pilot_norest","12865","4","8","Female","","false","","","","","[922.5,1111.0999999940395]","./assets/img/ocean/memory/18.jpg","[""ArrowDown"",""ArrowRight""]","value training","ocean","17","{""ArrowUp,ArrowLeft"":26,""ArrowUp,ArrowRight"":10,""ArrowDown,ArrowLeft"":5,""ArrowDown,ArrowRight"":17}","false","ArrowDown,ArrowRight","false","revaluation","1","82","","",""
"html-keyboard-response","208","998902","0.0-4.0-2.0-1.41","spark_pilot_norest","12865","4","8","Female","","","","","","","null","<div style=""font-size:60px;"">+</div>","null","fixation","","","","","","","","","83","","",""
"revaluation","209","1004925","0.0-4.0-2.0-0.42","spark_pilot_norest","12865","4","8","Female","","false","","","","","[1095.2000000029802,1198.7999999970198]","./assets/img/ocean/memory/14.jpg","[""ArrowDown"",""ArrowRight""]","value training","ocean","17","{""ArrowUp,ArrowLeft"":26,""ArrowUp,ArrowRight"":10,""ArrowDown,ArrowLeft"":5,""ArrowDown,ArrowRight"":17}","false","ArrowDown,ArrowRight","false","revaluation","1","84","","",""
"html-keyboard-response","210","1005441","0.0-4.0-2.0-1.42","spark_pilot_norest","12865","4","8","Female","","","","","","","null","<div style=""font-size:60px;"">+</div>","null","fixation","","","","","","","","","85","","",""
"revaluation","211","1011464","0.0-4.0-2.0-0.43","spark_pilot_norest","12865","4","8","Female","","false","","","","","[822.8999999910593,1824.7999999970198]","./assets/img/ocean/memory/2.jpg","[""ArrowDown"",""ArrowLeft""]","value training","ocean","5","{""ArrowUp,ArrowLeft"":26,""ArrowUp,ArrowRight"":10,""ArrowDown,ArrowLeft"":5,""ArrowDown,ArrowRight"":17}","false","ArrowDown,ArrowLeft","false","revaluation","1","86","","",""
"html-keyboard-response","212","1011980","0.0-4.0-2.0-1.43","spark_pilot_norest","12865","4","8","Female","","","","","","","null","<div style=""font-size:60px;"">+</div>","null","fixation","","","","","","","","","87","","",""
"revaluation","213","1018009","0.0-4.0-2.0-0.44","spark_pilot_norest","12865","4","8","Female","","false","","","","","[857.8999999910593,1343.800000011921]","./assets/img/ocean/memory/13.jpg","[""ArrowDown"",""ArrowRight""]","value training","ocean","17","{""ArrowUp,ArrowLeft"":26,""ArrowUp,ArrowRight"":10,""ArrowDown,ArrowLeft"":5,""ArrowDown,ArrowRight"":17}","false","ArrowDown,ArrowRight","false","revaluation","1","88","","",""
"html-keyboard-response","214","1018512","0.0-4.0-2.0-1.44","spark_pilot_norest","12865","4","8","Female","","","","","","","null","<div style=""font-size:60px;"">+</div>","null","fixation","","","","","","","","","89","","",""
"revaluation","215","1022532","0.0-4.0-2.0-0.45","spark_pilot_norest","12865","4","8","Female","","false","","","","","[553.2000000029802]","./assets/img/ocean/catch/7.jpg","[""ArrowDown""]","value training","ocean","-10","{""ArrowUp,ArrowLeft"":26,""ArrowUp,ArrowRight"":10,""ArrowDown,ArrowLeft"":5,""ArrowDown,ArrowRight"":17}","false","ArrowDown","true","revaluation","1","90","","",""
"html-keyboard-response","216","1023040","0.0-4.0-2.0-1.45","spark_pilot_norest","12865","4","8","Female","","","","","","","null","<div style=""font-size:60px;"">+</div>","null","fixation","","","","","","","","","91","","",""
"revaluation","217","1027070","0.0-4.0-2.0-0.46","spark_pilot_norest","12865","4","8","Female","","true","","","","","[]","./assets/img/ocean/memory/2.jpg","[]","value training","ocean","-5","{""ArrowUp,ArrowLeft"":26,""ArrowUp,ArrowRight"":10,""ArrowDown,ArrowLeft"":5,""ArrowDown,ArrowRight"":17}","false","","false","revaluation","1","92","","",""
"html-keyboard-response","218","1027578","0.0-4.0-2.0-1.46","spark_pilot_norest","12865","4","8","Female","","","","","","","null","<div style=""font-size:60px;"">+</div>","null","fixation","","","","","","","","","93","","",""
"revaluation","219","1033595","0.0-4.0-2.0-0.47","spark_pilot_norest","12865","4","8","Female","","false","","","","","[1636.7000000029802,560.1000000089407]","./assets/img/ocean/memory/15.jpg","[""ArrowUp"",""ArrowRight""]","value training","ocean","10","{""ArrowUp,ArrowLeft"":26,""ArrowUp,ArrowRight"":10,""ArrowDown,ArrowLeft"":5,""ArrowDown,ArrowRight"":17}","false","ArrowUp,ArrowRight","false","revaluation","1","94","","",""
"html-keyboard-response","220","1034105","0.0-4.0-2.0-1.47","spark_pilot_norest","12865","4","8","Female","","","","","","","null","<div style=""font-size:60px;"">+</div>","null","fixation","","","","","","","","","95","","",""
"revaluation","221","1040136","0.0-4.0-2.0-0.48","spark_pilot_norest","12865","4","8","Female","","false","","","","","[1189.2000000029802,298.90000000596046]","./assets/img/ocean/memory/3.jpg","[""ArrowUp"",""ArrowLeft""]","value training","ocean","26","{""ArrowUp,ArrowLeft"":26,""ArrowUp,ArrowRight"":10,""ArrowDown,ArrowLeft"":5,""ArrowDown,ArrowRight"":17}","true","ArrowUp,ArrowLeft","false","revaluation","1","96","","",""
"html-keyboard-response","222","1040652","0.0-4.0-2.0-1.48","spark_pilot_norest","12865","4","8","Female","","","","","","","null","<div style=""font-size:60px;"">+</div>","null","fixation","","","","","","","","","97","","",""
"revaluation","223","1044667","0.0-4.0-2.0-0.49","spark_pilot_norest","12865","4","8","Female","","false","","","","","[761]","./assets/img/ocean/catch/5.jpg","[""spaceBar""]","value training","ocean","0","{""ArrowUp,ArrowLeft"":26,""ArrowUp,ArrowRight"":10,""ArrowDown,ArrowLeft"":5,""ArrowDown,ArrowRight"":17}","true","spaceBar","true","revaluation","1","98","","",""
"html-keyboard-response","224","1045182","0.0-4.0-2.0-1.49","spark_pilot_norest","12865","4","8","Female","","","","","","","null","<div style=""font-size:60px;"">+</div>","null","fixation","","","","","","","","","99","","",""
"learning-instructions","225","1062476","0.0-4.0-3.0-0.0","spark_pilot_norest","12865","4","8","Female","","","","","","","3973.3999999910593","<p> Now, you will travel with a friend who will choose whether you go up or down first. </p>
            <p> On these turns, you will just see the animal that they found. You will still get to choose which chest to search for treasure.</p>","","instructions","","","","","","","","","","","",""
"revaluation","226","1066496","0.0-4.0-4.0-0.0","spark_pilot_norest","12865","4","8","Female","","false","","","","","[1491.5]","./assets/img/ocean/animals/seahorse.jpg","[""ArrowRight""]","revaluation","ocean","27","{""ArrowUp,ArrowLeft"":2,""ArrowUp,ArrowRight"":11,""ArrowDown,ArrowLeft"":8,""ArrowDown,ArrowRight"":27}","true","ArrowDown,ArrowRight","","revaluation","1","0","","",""
"html-keyboard-response","227","1067007","0.0-4.0-4.0-1.0","spark_pilot_norest","12865","4","8","Female","","","","","","","null","<div style=""font-size:60px;"">+</div>","null","fixation","","","","","","","","","1","","",""
"revaluation","228","1071018","0.0-4.0-4.0-0.1","spark_pilot_norest","12865","4","8","Female","","false","","","","","[667.5]","./assets/img/ocean/animals/octopus.jpg","[""ArrowRight""]","revaluation","ocean","11","{""ArrowUp,ArrowLeft"":2,""ArrowUp,ArrowRight"":11,""ArrowDown,ArrowLeft"":8,""ArrowDown,ArrowRight"":27}","true","ArrowUp,ArrowRight","","revaluation","1","2","","",""
"html-keyboard-response","229","1071534","0.0-4.0-4.0-1.1","spark_pilot_norest","12865","4","8","Female","","","","","","","null","<div style=""font-size:60px;"">+</div>","null","fixation","","","","","","","","","3","","",""
"revaluation","230","1075569","0.0-4.0-4.0-0.2","spark_pilot_norest","12865","4","8","Female","","false","","","","","[366.5]","./assets/img/ocean/animals/octopus.jpg","[""ArrowLeft""]","revaluation","ocean","2","{""ArrowUp,ArrowLeft"":2,""ArrowUp,ArrowRight"":11,""ArrowDown,ArrowLeft"":8,""ArrowDown,ArrowRight"":27}","false","ArrowUp,ArrowLeft","","revaluation","1","4","","",""
"html-keyboard-response","231","1076074","0.0-4.0-4.0-1.2","spark_pilot_norest","12865","4","8","Female","","","","","","","null","<div style=""font-size:60px;"">+</div>","null","fixation","","","","","","","","","5","","",""
"revaluation","232","1080098","0.0-4.0-4.0-0.3","spark_pilot_norest","12865","4","8","Female","","false","","","","","[476]","./assets/img/ocean/animals/octopus.jpg","[""ArrowRight""]","revaluation","ocean","11","{""ArrowUp,ArrowLeft"":2,""ArrowUp,ArrowRight"":11,""ArrowDown,ArrowLeft"":8,""ArrowDown,ArrowRight"":27}","true","ArrowUp,ArrowRight","","revaluation","1","6","","",""
"html-keyboard-response","233","1080607","0.0-4.0-4.0-1.3","spark_pilot_norest","12865","4","8","Female","","","","","","","null","<div style=""font-size:60px;"">+</div>","null","fixation","","","","","","","","","7","","",""
"revaluation","234","1084634","0.0-4.0-4.0-0.4","spark_pilot_norest","12865","4","8","Female","","false","","","","","[805.2000000029802]","./assets/img/ocean/animals/octopus.jpg","[""ArrowLeft""]","revaluation","ocean","2","{""ArrowUp,ArrowLeft"":2,""ArrowUp,ArrowRight"":11,""ArrowDown,ArrowLeft"":8,""ArrowDown,ArrowRight"":27}","false","ArrowUp,ArrowLeft","","revaluation","1","8","","",""
"html-keyboard-response","235","1085148","0.0-4.0-4.0-1.4","spark_pilot_norest","12865","4","8","Female","","","","","","","null","<div style=""font-size:60px;"">+</div>","null","fixation","","","","","","","","","9","","",""
"revaluation","236","1089174","0.0-4.0-4.0-0.5","spark_pilot_norest","12865","4","8","Female","","false","","","","","[469.5]","./assets/img/ocean/animals/seahorse.jpg","[""ArrowRight""]","revaluation","ocean","27","{""ArrowUp,ArrowLeft"":2,""ArrowUp,ArrowRight"":11,""ArrowDown,ArrowLeft"":8,""ArrowDown,ArrowRight"":27}","true","ArrowDown,ArrowRight","","revaluation","1","10","","",""
"html-keyboard-response","237","1089690","0.0-4.0-4.0-1.5","spark_pilot_norest","12865","4","8","Female","","","","","","","null","<div style=""font-size:60px;"">+</div>","null","fixation","","","","","","","","","11","","",""
"revaluation","238","1093699","0.0-4.0-4.0-0.6","spark_pilot_norest","12865","4","8","Female","","false","","","","","[464.20000000298023]","./assets/img/ocean/animals/seahorse.jpg","[""ArrowRight""]","revaluation","ocean","27","{""ArrowUp,ArrowLeft"":2,""ArrowUp,ArrowRight"":11,""ArrowDown,ArrowLeft"":8,""ArrowDown,ArrowRight"":27}","true","ArrowDown,ArrowRight","","revaluation","1","12","","",""
"html-keyboard-response","239","1094208","0.0-4.0-4.0-1.6","spark_pilot_norest","12865","4","8","Female","","","","","","","null","<div style=""font-size:60px;"">+</div>","null","fixation","","","","","","","","","13","","",""
"revaluation","240","1098225","0.0-4.0-4.0-0.7","spark_pilot_norest","12865","4","8","Female","","false","","","","","[429.5]","./assets/img/ocean/animals/octopus.jpg","[""ArrowRight""]","revaluation","ocean","11","{""ArrowUp,ArrowLeft"":2,""ArrowUp,ArrowRight"":11,""ArrowDown,ArrowLeft"":8,""ArrowDown,ArrowRight"":27}","true","ArrowUp,ArrowRight","","revaluation","1","14","","",""
"html-keyboard-response","241","1098730","0.0-4.0-4.0-1.7","spark_pilot_norest","12865","4","8","Female","","","","","","","null","<div style=""font-size:60px;"">+</div>","null","fixation","","","","","","","","","15","","",""
"revaluation","242","1102751","0.0-4.0-4.0-0.8","spark_pilot_norest","12865","4","8","Female","","false","","","","","[492.3999999910593]","./assets/img/ocean/animals/seahorse.jpg","[""ArrowRight""]","revaluation","ocean","27","{""ArrowUp,ArrowLeft"":2,""ArrowUp,ArrowRight"":11,""ArrowDown,ArrowLeft"":8,""ArrowDown,ArrowRight"":27}","true","ArrowDown,ArrowRight","","revaluation","1","16","","",""
"html-keyboard-response","243","1103253","0.0-4.0-4.0-1.8","spark_pilot_norest","12865","4","8","Female","","","","","","","null","<div style=""font-size:60px;"">+</div>","null","fixation","","","","","","","","","17","","",""
"revaluation","244","1107281","0.0-4.0-4.0-0.9","spark_pilot_norest","12865","4","8","Female","","false","","","","","[671.7999999970198]","./assets/img/ocean/animals/seahorse.jpg","[""ArrowRight""]","revaluation","ocean","27","{""ArrowUp,ArrowLeft"":2,""ArrowUp,ArrowRight"":11,""ArrowDown,ArrowLeft"":8,""ArrowDown,ArrowRight"":27}","true","ArrowDown,ArrowRight","","revaluation","1","18","","",""
"html-keyboard-response","245","1107790","0.0-4.0-4.0-1.9","spark_pilot_norest","12865","4","8","Female","","","","","","","null","<div style=""font-size:60px;"">+</div>","null","fixation","","","","","","","","","19","","",""
"revaluation","246","1111807","0.0-4.0-4.0-0.10","spark_pilot_norest","12865","4","8","Female","","false","","","","","[541.5]","./assets/img/ocean/animals/seahorse.jpg","[""ArrowRight""]","revaluation","ocean","27","{""ArrowUp,ArrowLeft"":2,""ArrowUp,ArrowRight"":11,""ArrowDown,ArrowLeft"":8,""ArrowDown,ArrowRight"":27}","true","ArrowDown,ArrowRight","","revaluation","1","20","","",""
"html-keyboard-response","247","1112310","0.0-4.0-4.0-1.10","spark_pilot_norest","12865","4","8","Female","","","","","","","null","<div style=""font-size:60px;"">+</div>","null","fixation","","","","","","","","","21","","",""
"revaluation","248","1116321","0.0-4.0-4.0-0.11","spark_pilot_norest","12865","4","8","Female","","false","","","","","[603.6000000089407]","./assets/img/ocean/animals/seahorse.jpg","[""ArrowRight""]","revaluation","ocean","27","{""ArrowUp,ArrowLeft"":2,""ArrowUp,ArrowRight"":11,""ArrowDown,ArrowLeft"":8,""ArrowDown,ArrowRight"":27}","true","ArrowDown,ArrowRight","","revaluation","1","22","","",""
"html-keyboard-response","249","1116830","0.0-4.0-4.0-1.11","spark_pilot_norest","12865","4","8","Female","","","","","","","null","<div style=""font-size:60px;"">+</div>","null","fixation","","","","","","","","","23","","",""
"revaluation","250","1120851","0.0-4.0-4.0-0.12","spark_pilot_norest","12865","4","8","Female","","false","","","","","[871.9000000059605]","./assets/img/ocean/animals/octopus.jpg","[""ArrowRight""]","revaluation","ocean","11","{""ArrowUp,ArrowLeft"":2,""ArrowUp,ArrowRight"":11,""ArrowDown,ArrowLeft"":8,""ArrowDown,ArrowRight"":27}","true","ArrowUp,ArrowRight","","revaluation","1","24","","",""
"html-keyboard-response","251","1121367","0.0-4.0-4.0-1.12","spark_pilot_norest","12865","4","8","Female","","","","","","","null","<div style=""font-size:60px;"">+</div>","null","fixation","","","","","","","","","25","","",""
"revaluation","252","1125385","0.0-4.0-4.0-0.13","spark_pilot_norest","12865","4","8","Female","","false","","","","","[463.70000000298023]","./assets/img/ocean/animals/octopus.jpg","[""ArrowLeft""]","revaluation","ocean","2","{""ArrowUp,ArrowLeft"":2,""ArrowUp,ArrowRight"":11,""ArrowDown,ArrowLeft"":8,""ArrowDown,ArrowRight"":27}","false","ArrowUp,ArrowLeft","","revaluation","1","26","","",""
"html-keyboard-response","253","1125894","0.0-4.0-4.0-1.13","spark_pilot_norest","12865","4","8","Female","","","","","","","null","<div style=""font-size:60px;"">+</div>","null","fixation","","","","","","","","","27","","",""
"revaluation","254","1129903","0.0-4.0-4.0-0.14","spark_pilot_norest","12865","4","8","Female","","false","","","","","[351]","./assets/img/ocean/animals/seahorse.jpg","[""ArrowRight""]","revaluation","ocean","27","{""ArrowUp,ArrowLeft"":2,""ArrowUp,ArrowRight"":11,""ArrowDown,ArrowLeft"":8,""ArrowDown,ArrowRight"":27}","true","ArrowDown,ArrowRight","","revaluation","1","28","","",""
"html-keyboard-response","255","1130411","0.0-4.0-4.0-1.14","spark_pilot_norest","12865","4","8","Female","","","","","","","null","<div style=""font-size:60px;"">+</div>","null","fixation","","","","","","","","","29","","",""
"revaluation","256","1134424","0.0-4.0-4.0-0.15","spark_pilot_norest","12865","4","8","Female","","false","","","","","[576]","./assets/img/ocean/animals/octopus.jpg","[""ArrowRight""]","revaluation","ocean","11","{""ArrowUp,ArrowLeft"":2,""ArrowUp,ArrowRight"":11,""ArrowDown,ArrowLeft"":8,""ArrowDown,ArrowRight"":27}","true","ArrowUp,ArrowRight","","revaluation","1","30","","",""
"html-keyboard-response","257","1134929","0.0-4.0-4.0-1.15","spark_pilot_norest","12865","4","8","Female","","","","","","","null","<div style=""font-size:60px;"">+</div>","null","fixation","","","","","","","","","31","","",""
"revaluation","258","1138948","0.0-4.0-4.0-0.16","spark_pilot_norest","12865","4","8","Female","","false","","","","","[369.79999999701977]","./assets/img/ocean/animals/seahorse.jpg","[""ArrowLeft""]","revaluation","ocean","8","{""ArrowUp,ArrowLeft"":2,""ArrowUp,ArrowRight"":11,""ArrowDown,ArrowLeft"":8,""ArrowDown,ArrowRight"":27}","false","ArrowDown,ArrowLeft","","revaluation","1","32","","",""
"html-keyboard-response","259","1139470","0.0-4.0-4.0-1.16","spark_pilot_norest","12865","4","8","Female","","","","","","","null","<div style=""font-size:60px;"">+</div>","null","fixation","","","","","","","","","33","","",""
"revaluation","260","1143483","0.0-4.0-4.0-0.17","spark_pilot_norest","12865","4","8","Female","","false","","","","","[461.5]","./assets/img/ocean/animals/octopus.jpg","[""ArrowRight""]","revaluation","ocean","11","{""ArrowUp,ArrowLeft"":2,""ArrowUp,ArrowRight"":11,""ArrowDown,ArrowLeft"":8,""ArrowDown,ArrowRight"":27}","true","ArrowUp,ArrowRight","","revaluation","1","34","","",""
"html-keyboard-response","261","1143986","0.0-4.0-4.0-1.17","spark_pilot_norest","12865","4","8","Female","","","","","","","null","<div style=""font-size:60px;"">+</div>","null","fixation","","","","","","","","","35","","",""
"learning-instructions","262","1152525","0.0-4.0-5.0-0.0","spark_pilot_norest","12865","4","8","Female","","","","","","","null","<p> You have almost finished this part of the game! </p>
            <p> We are going to ask you to make a few more choices. </p>","","instructions","","","","","","","","","","","",""
"learning-instructions","263","1168504","0.0-4.0-5.0-0.1","spark_pilot_norest","12865","4","8","Female","","","","","","","null","<p> First, you need to decide whether to go up or down. When you see each picture, use the arrow keys to make your choice. </p>
            <p><b>You will not see which animal you found, but try to get to the one that will give you the most treasure.</b></p>","","instructions","","","","","","","","","","","",""
"html-keyboard-response","264","1169508","0.0-4.0-6.0-0.0","spark_pilot_norest","12865","4","8","Female","","","","","","","null","<div style=""font-size:100px;color:red;"">Starting in...</div>","null","","","","","","","","","","","","",""
"html-keyboard-response","265","1170515","0.0-4.0-6.0-1.0","spark_pilot_norest","12865","4","8","Female","","","","","","","null","<div style=""font-size:200px;color:red;"">3</div>","null","","","","","","","","","","","","",""
"html-keyboard-response","266","1171527","0.0-4.0-6.0-2.0","spark_pilot_norest","12865","4","8","Female","","","","","","","null","<div style=""font-size:200px;color:red;"">2</div>","null","","","","","","","","","","","","",""
"html-keyboard-response","267","1172533","0.0-4.0-6.0-3.0","spark_pilot_norest","12865","4","8","Female","","","","","","","null","<div style=""font-size:200px;color:red;"">1</div>","null","","","","","","","","","","","","",""
"revaluation","268","1173329","0.0-4.0-7.0-0.0","spark_pilot_norest","12865","4","8","Female","","false","","","","","[789.7999999970198]","./assets/img/ocean/test/0.jpg","[""ArrowUp""]","first stage test","ocean","0","{""ArrowUp,ArrowLeft"":2,""ArrowUp,ArrowRight"":11,""ArrowDown,ArrowLeft"":8,""ArrowDown,ArrowRight"":27}","false","ArrowUp","false","revaluation","1","","","",""
"html-keyboard-response","269","1173836","0.0-4.0-7.0-1.0","spark_pilot_norest","12865","4","8","Female","","","","","","","null","<div style=""font-size:60px;"">+</div>","null","fixation","","","","","","","","","","","",""
"revaluation","270","1174683","0.0-4.0-7.0-0.1","spark_pilot_norest","12865","4","8","Female","","false","","","","","[841.2999999970198]","./assets/img/ocean/test/2.jpg","[""ArrowUp""]","first stage test","ocean","0","{""ArrowUp,ArrowLeft"":2,""ArrowUp,ArrowRight"":11,""ArrowDown,ArrowLeft"":8,""ArrowDown,ArrowRight"":27}","false","ArrowUp","false","revaluation","1","","","",""
"html-keyboard-response","271","1175188","0.0-4.0-7.0-1.1","spark_pilot_norest","12865","4","8","Female","","","","","","","null","<div style=""font-size:60px;"">+</div>","null","fixation","","","","","","","","","","","",""
"revaluation","272","1175764","0.0-4.0-7.0-0.2","spark_pilot_norest","12865","4","8","Female","","false","","","","","[570.2999999970198]","./assets/img/ocean/test/3.jpg","[""ArrowUp""]","first stage test","ocean","0","{""ArrowUp,ArrowLeft"":2,""ArrowUp,ArrowRight"":11,""ArrowDown,ArrowLeft"":8,""ArrowDown,ArrowRight"":27}","false","ArrowUp","false","revaluation","1","","","",""
"html-keyboard-response","273","1176265","0.0-4.0-7.0-1.2","spark_pilot_norest","12865","4","8","Female","","","","","","","null","<div style=""font-size:60px;"">+</div>","null","fixation","","","","","","","","","","","",""
"revaluation","274","1176324","0.0-4.0-7.0-0.3","spark_pilot_norest","12865","4","8","Female","","false","","","","","[54.29999999701977]","./assets/img/ocean/test/1.jpg","[""ArrowUp""]","first stage test","ocean","0","{""ArrowUp,ArrowLeft"":2,""ArrowUp,ArrowRight"":11,""ArrowDown,ArrowLeft"":8,""ArrowDown,ArrowRight"":27}","false","ArrowUp","false","revaluation","1","","","",""
"html-keyboard-response","275","1176838","0.0-4.0-7.0-1.3","spark_pilot_norest","12865","4","8","Female","","","","","","","null","<div style=""font-size:60px;"">+</div>","null","fixation","","","","","","","","","","","",""
"learning-instructions","276","1190199","0.0-4.0-8.0-0.0","spark_pilot_norest","12865","4","8","Female","","","","","","","null","<p> Now you will see the animals again and can search their chests for treasure. </p>
            <p> This time, you will not see how much treasure you earned, but you will earn more bonus money for making better choices. </p>","","instructions","","","","","","","","","","","",""
"html-keyboard-response","277","1191202","0.0-4.0-9.0-0.0","spark_pilot_norest","12865","4","8","Female","","","","","","","null","<div style=""font-size:100px;color:red;"">Starting in...</div>","null","","","","","","","","","","","","",""
"html-keyboard-response","278","1192209","0.0-4.0-9.0-1.0","spark_pilot_norest","12865","4","8","Female","","","","","","","null","<div style=""font-size:200px;color:red;"">3</div>","null","","","","","","","","","","","","",""
"html-keyboard-response","279","1193223","0.0-4.0-9.0-2.0","spark_pilot_norest","12865","4","8","Female","","","","","","","null","<div style=""font-size:200px;color:red;"">2</div>","null","","","","","","","","","","","","",""
"html-keyboard-response","280","1194231","0.0-4.0-9.0-3.0","spark_pilot_norest","12865","4","8","Female","","","","","","","null","<div style=""font-size:200px;color:red;"">1</div>","null","","","","","","","","","","","","",""
"revaluation","281","1194829","0.0-4.0-10.0-0.0","spark_pilot_norest","12865","4","8","Female","","false","","","","","[591.6000000089407]","./assets/img/ocean/animals/octopus.jpg","[""ArrowRight""]","second stage test","ocean","0","{""ArrowUp,ArrowLeft"":2,""ArrowUp,ArrowRight"":11,""ArrowDown,ArrowLeft"":8,""ArrowDown,ArrowRight"":27}","true","ArrowUp,ArrowRight","","revaluation","1","","","",""
"html-keyboard-response","282","1195334","0.0-4.0-10.0-1.0","spark_pilot_norest","12865","4","8","Female","","","","","","","null","<div style=""font-size:60px;"">+</div>","null","fixation","","","","","","","","","","","",""
"revaluation","283","1195388","0.0-4.0-10.0-0.1","spark_pilot_norest","12865","4","8","Female","","false","","","","","[49]","./assets/img/ocean/animals/octopus.jpg","[""ArrowRight""]","second stage test","ocean","0","{""ArrowUp,ArrowLeft"":2,""ArrowUp,ArrowRight"":11,""ArrowDown,ArrowLeft"":8,""ArrowDown,ArrowRight"":27}","true","ArrowUp,ArrowRight","","revaluation","1","","","",""
"html-keyboard-response","284","1195895","0.0-4.0-10.0-1.1","spark_pilot_norest","12865","4","8","Female","","","","","","","null","<div style=""font-size:60px;"">+</div>","null","fixation","","","","","","","","","","","",""
"revaluation","285","1195925","0.0-4.0-10.0-0.2","spark_pilot_norest","12865","4","8","Female","","false","","","","","[25.299999997019768]","./assets/img/ocean/animals/octopus.jpg","[""ArrowRight""]","second stage test","ocean","0","{""ArrowUp,ArrowLeft"":2,""ArrowUp,ArrowRight"":11,""ArrowDown,ArrowLeft"":8,""ArrowDown,ArrowRight"":27}","true","ArrowUp,ArrowRight","","revaluation","1","","","",""
"html-keyboard-response","286","1196429","0.0-4.0-10.0-1.2","spark_pilot_norest","12865","4","8","Female","","","","","","","null","<div style=""font-size:60px;"">+</div>","null","fixation","","","","","","","","","","","",""
"revaluation","287","1196459","0.0-4.0-10.0-0.3","spark_pilot_norest","12865","4","8","Female","","false","","","","","[25.799999997019768]","./assets/img/ocean/animals/octopus.jpg","[""ArrowRight""]","second stage test","ocean","0","{""ArrowUp,ArrowLeft"":2,""ArrowUp,ArrowRight"":11,""ArrowDown,ArrowLeft"":8,""ArrowDown,ArrowRight"":27}","true","ArrowUp,ArrowRight","","revaluation","1","","","",""
"html-keyboard-response","288","1196962","0.0-4.0-10.0-1.3","spark_pilot_norest","12865","4","8","Female","","","","","","","null","<div style=""font-size:60px;"">+</div>","null","fixation","","","","","","","","","","","",""
"revaluation","289","1197034","0.0-4.0-10.0-0.4","spark_pilot_norest","12865","4","8","Female","","false","","","","","[66.90000000596046]","./assets/img/ocean/animals/seahorse.jpg","[""ArrowRight""]","second stage test","ocean","0","{""ArrowUp,ArrowLeft"":2,""ArrowUp,ArrowRight"":11,""ArrowDown,ArrowLeft"":8,""ArrowDown,ArrowRight"":27}","true","ArrowDown,ArrowRight","","revaluation","1","","","",""
"html-keyboard-response","290","1197537","0.0-4.0-10.0-1.4","spark_pilot_norest","12865","4","8","Female","","","","","","","null","<div style=""font-size:60px;"">+</div>","null","fixation","","","","","","","","","","","",""
"revaluation","291","1197609","0.0-4.0-10.0-0.5","spark_pilot_norest","12865","4","8","Female","","false","","","","","[65.79999999701977]","./assets/img/ocean/animals/seahorse.jpg","[""ArrowRight""]","second stage test","ocean","0","{""ArrowUp,ArrowLeft"":2,""ArrowUp,ArrowRight"":11,""ArrowDown,ArrowLeft"":8,""ArrowDown,ArrowRight"":27}","true","ArrowDown,ArrowRight","","revaluation","1","","","",""
"html-keyboard-response","292","1198114","0.0-4.0-10.0-1.5","spark_pilot_norest","12865","4","8","Female","","","","","","","null","<div style=""font-size:60px;"">+</div>","null","fixation","","","","","","","","","","","",""
"revaluation","293","1198235","0.0-4.0-10.0-0.6","spark_pilot_norest","12865","4","8","Female","","false","","","","","[114.29999999701977]","./assets/img/ocean/animals/seahorse.jpg","[""ArrowRight""]","second stage test","ocean","0","{""ArrowUp,ArrowLeft"":2,""ArrowUp,ArrowRight"":11,""ArrowDown,ArrowLeft"":8,""ArrowDown,ArrowRight"":27}","true","ArrowDown,ArrowRight","","revaluation","1","","","",""
"html-keyboard-response","294","1198743","0.0-4.0-10.0-1.6","spark_pilot_norest","12865","4","8","Female","","","","","","","null","<div style=""font-size:60px;"">+</div>","null","fixation","","","","","","","","","","","",""
"revaluation","295","1198845","0.0-4.0-10.0-0.7","spark_pilot_norest","12865","4","8","Female","","false","","","","","[96.70000000298023]","./assets/img/ocean/animals/seahorse.jpg","[""ArrowRight""]","second stage test","ocean","0","{""ArrowUp,ArrowLeft"":2,""ArrowUp,ArrowRight"":11,""ArrowDown,ArrowLeft"":8,""ArrowDown,ArrowRight"":27}","true","ArrowDown,ArrowRight","","revaluation","1","","","",""
"html-keyboard-response","296","1199358","0.0-4.0-10.0-1.7","spark_pilot_norest","12865","4","8","Female","","","","","","","null","<div style=""font-size:60px;"">+</div>","null","fixation","","","","","","","","","","","",""
"learning-instructions","297","1204972","0.0-4.0-0.1-0.2","spark_pilot_norest","12865","4","8","Female","","","","","","","2822","<p> This time you are searching for treasure in the <b>canyon</b>.</p>","","instructions","","","","","","","","","","","",""
"learning-instructions","298","1225295","0.0-4.0-0.1-0.3","spark_pilot_norest","12865","4","8","Female","","","","","","","3069.9000000059605","<p><b>New</b> animals with <b>new</b> treasure chests live here. You need to explore to discover where the animal with the best treasure chest is.</p>
                    <p> Like before, once you figure out which animal has the chest with the most treasure, you should try to get to that animal and select that chest! </p>","","instructions","","","","","","","","","","","",""
"learning-instructions","299","1242844","0.0-4.0-1.1-0.1","spark_pilot_norest","12865","4","8","Female","","","","","","","2816.199999988079","<p> Remember, when you see a picture of the place, use the up and down keys to <b>find an animal</b>.</p>
            <p> When you encounter an animal, you should use the left and right keys to <b>select a treasure chest</b>.</p>
            <p> Don't forget to look out for the robber! </p>","","instructions","","","","","","","","","","","",""
"revaluation","300","1246861","0.0-4.0-2.1-0.50","spark_pilot_norest","12865","4","8","Female","","false","","","","","[805.3999999910593]","./assets/img/canyon/catch/2.jpg","[""ArrowUp""]","value training","canyon","-10","{""ArrowUp,ArrowLeft"":23,""ArrowUp,ArrowRight"":10,""ArrowDown,ArrowLeft"":8,""ArrowDown,ArrowRight"":30}","false","ArrowUp","true","original","2","0","","",""
"html-keyboard-response","301","1247372","0.0-4.0-2.1-1.50","spark_pilot_norest","12865","4","8","Female","","","","","","","null","<div style=""font-size:60px;"">+</div>","null","fixation","","","","","","","","","1","","",""
"revaluation","302","1253412","0.0-4.0-2.1-0.51","spark_pilot_norest","12865","4","8","Female","","false","","","","","[960.1999999880791,1144.7000000029802]","./assets/img/canyon/memory/31.jpg","[""ArrowUp"",""ArrowRight""]","value training","canyon","10","{""ArrowUp,ArrowLeft"":23,""ArrowUp,ArrowRight"":10,""ArrowDown,ArrowLeft"":8,""ArrowDown,ArrowRight"":30}","false","ArrowUp,ArrowRight","false","original","2","2","","",""
"html-keyboard-response","303","1253919","0.0-4.0-2.1-1.51","spark_pilot_norest","12865","4","8","Female","","","","","","","null","<div style=""font-size:60px;"">+</div>","null","fixation","","","","","","","","","3","","",""
"revaluation","304","1259957","0.0-4.0-2.1-0.52","spark_pilot_norest","12865","4","8","Female","","false","","","","","[968.7000000029802,1276.8999999910593]","./assets/img/canyon/memory/34.jpg","[""ArrowUp"",""ArrowLeft""]","value training","canyon","23","{""ArrowUp,ArrowLeft"":23,""ArrowUp,ArrowRight"":10,""ArrowDown,ArrowLeft"":8,""ArrowDown,ArrowRight"":30}","false","ArrowUp,ArrowLeft","false","original","2","4","","",""
"html-keyboard-response","305","1260462","0.0-4.0-2.1-1.52","spark_pilot_norest","12865","4","8","Female","","","","","","","null","<div style=""font-size:60px;"">+</div>","null","fixation","","","","","","","","","5","","",""
"revaluation","306","1264480","0.0-4.0-2.1-0.53","spark_pilot_norest","12865","4","8","Female","","false","","","","","[500.29999999701977]","./assets/img/canyon/catch/7.jpg","[""spaceBar""]","value training","canyon","0","{""ArrowUp,ArrowLeft"":23,""ArrowUp,ArrowRight"":10,""ArrowDown,ArrowLeft"":8,""ArrowDown,ArrowRight"":30}","true","spaceBar","true","original","2","6","","",""
"html-keyboard-response","307","1264991","0.0-4.0-2.1-1.53","spark_pilot_norest","12865","4","8","Female","","","","","","","null","<div style=""font-size:60px;"">+</div>","null","fixation","","","","","","","","","7","","",""
"revaluation","308","1271012","0.0-4.0-2.1-0.54","spark_pilot_norest","12865","4","8","Female","","false","","","","","[971.2000000029802,1069.800000011921]","./assets/img/canyon/memory/2.jpg","[""ArrowUp"",""ArrowLeft""]","value training","canyon","23","{""ArrowUp,ArrowLeft"":23,""ArrowUp,ArrowRight"":10,""ArrowDown,ArrowLeft"":8,""ArrowDown,ArrowRight"":30}","false","ArrowUp,ArrowLeft","false","original","2","8","","",""
"html-keyboard-response","309","1271522","0.0-4.0-2.1-1.54","spark_pilot_norest","12865","4","8","Female","","","","","","","null","<div style=""font-size:60px;"">+</div>","null","fixation","","","","","","","","","9","","",""
"revaluation","310","1277539","0.0-4.0-2.1-0.55","spark_pilot_norest","12865","4","8","Female","","false","","","","","[972.2000000029802,919.7000000029802]","./assets/img/canyon/memory/17.jpg","[""ArrowUp"",""ArrowRight""]","value training","canyon","10","{""ArrowUp,ArrowLeft"":23,""ArrowUp,ArrowRight"":10,""ArrowDown,ArrowLeft"":8,""ArrowDown,ArrowRight"":30}","false","ArrowUp,ArrowRight","false","original","2","10","","",""
"html-keyboard-response","311","1278045","0.0-4.0-2.1-1.55","spark_pilot_norest","12865","4","8","Female","","","","","","","null","<div style=""font-size:60px;"">+</div>","null","fixation","","","","","","","","","11","","",""
