"trial_type","trial_index","time_elapsed","internal_node_id","task_version","subject_id","assigned_condition","age","gender","success","timeout","failed_images","failed_audio","failed_video","browser_interaction","rt","stimulus","response","task_part","environment","score","rewardMap","correct","fullState","isCatch","condition","order","trial_num","key_press","ground_truth","bonus"
"pavlovia","0","1060","0.0-0.0","spark_pilot_norest","10608","3","8","Male","","","","","","","","","","","","","","","","","","","","","",""
"preload","1","81868","0.0-1.0","spark_pilot_norest","10608","3","8","Male","true","false","[]","[]","[]","[{""event"":""fullscreenenter"",""trial"":2,""time"":93592}]","","","","","","","","","","","","","","","",""
"fullscreen","2","94586","0.0-2.0","spark_pilot_norest","10608","3","8","Male","true","","","","","","","","","","","","","","","","","","","","",""
"audio-button-response","3","96744","0.0-3.0-0.0-0.0","spark_pilot_norest","10608","3","8","Male","","","","","","","2120","./assets/audio/audiotest/turtle.mp3","2","audio_test","","","","","","","","","","","",""
"learning-instructions","4","107160","0.0-3.0-1.0-0.0","spark_pilot_norest","10608","3","8","Male","","","","","","","3444.7999999970198","<p> Welcome! Please remember to stay in fullscreen mode and don't click away from the experiment. </p>","","instructions","","","","","","","","","","","",""
"learning-instructions","5","129000","0.0-3.0-1.0-0.1","spark_pilot_norest","10608","3","8","Male","","","","","","","13446.70000000298","<p> Today you will be playing a game to earn treasure. </p>
            <p> At the end of the experiment, you will earn a bonus based on how much treasure you find. </p>
            <img src='./assets/img/instructions/treasure.jpg' class='instructions-image'>","","instructions","","","","","","","","","","","",""
"learning-instructions","6","138673","0.0-3.0-1.0-0.2","spark_pilot_norest","10608","3","8","Male","","","","","","","1428.8999999910593","<p> Animals have hidden treasure in treasure chests. </p>
            <p> You need to first find an animal and then choose which of their treasure chests to search. </p>
            <img src='./assets/img/space/animals/cat.jpg' class='instructions-image'>","","instructions","","","","","","","","","","","",""
"learning-instructions","7","153520","0.0-3.0-1.0-0.3","spark_pilot_norest","10608","3","8","Male","","","","","","","1715.800000011921","<p> In each round, you will search for treasure in a different place. In the real game, there will be two rounds. </p>
            <p> You will begin with a separate, practice round where you will search for treasure in outer space. </p>
            <img src='./assets/img/space/0.jpg' class='instructions-image'>","","instructions","","","","","","","","","","","",""
"learning-instructions","8","173448","0.0-3.0-1.0-0.4","spark_pilot_norest","10608","3","8","Male","","","","","","","8533.70000000298","<p> On every turn, you will see a picture of the place that you are in, but the specific image may be different each time. </p>
            <p> For example, both of these images mean you are in outer space. </p>
            <img src='./assets/img/instructions/outerspace.jpg' class='instructions-image'>","","instructions","","","","","","","","","","","",""
"learning-instructions","9","185952","0.0-3.0-1.0-0.5","spark_pilot_norest","10608","3","8","Male","","","","","","","4698.100000008941","<p> You need to decide which direction to travel in. </p>
            <p> You can choose between going <b>up or down</b> by using the arrow keys. </p>
            <img src='./assets/img/instructions/updown.jpg' class='instructions-image'>","","instructions","","","","","","","","","","","",""
"learning-instructions","10","199032","0.0-3.0-1.0-0.6","spark_pilot_norest","10608","3","8","Male","","","","","","","4278.399999991059","<p> You will have <b>2 seconds</b> to make your choice. </p>
            <p> If you do not make a choice within 2 seconds, you will not find an animal or earn treasure. </p>
            <img src='./assets/img/instructions/2seconds.jpg' class='instructions-image'>","","instructions","","","","","","","","","","","",""
"learning-instructions","11","207176","0.0-3.0-1.0-0.7","spark_pilot_norest","10608","3","8","Male","","","","","","","1111.7000000029802","<p> Let’s try practicing that now! </p>
            <p> When you see a picture of the place you are in, press the <b>up</b> key to travel up. </p>
            <img src='./assets/img/instructions/pressUp.jpg' class='instructions-image'>","","instructions","","","","","","","","","","","",""
"revaluation","12","211196","0.0-3.0-2.0-0.0","spark_pilot_norest","10608","3","8","Male","","false","","","","","[668.2999999970198]","./assets/img/space/0.jpg","[""ArrowUp""]","first stage practice","space","0","null","null","ArrowUp","false","","","","","",""
"html-keyboard-response","13","211712","0.0-3.0-2.0-1.0","spark_pilot_norest","10608","3","8","Male","","","","","","","null","<div style=""font-size:60px;"">+</div>","null","fixation","","","","","","","","","","","",""
"revaluation","14","215734","0.0-3.0-2.0-0.1","spark_pilot_norest","10608","3","8","Male","","false","","","","","[849]","./assets/img/space/1.jpg","[""ArrowUp""]","first stage practice","space","0","null","null","ArrowUp","false","","","","","",""
"html-keyboard-response","15","216249","0.0-3.0-2.0-1.1","spark_pilot_norest","10608","3","8","Male","","","","","","","null","<div style=""font-size:60px;"">+</div>","null","fixation","","","","","","","","","","","",""
"revaluation","16","220276","0.0-3.0-2.0-0.2","spark_pilot_norest","10608","3","8","Male","","false","","","","","[335.79999999701977]","./assets/img/space/2.jpg","[""ArrowUp""]","first stage practice","space","0","null","null","ArrowUp","false","","","","","",""
"html-keyboard-response","17","220778","0.0-3.0-2.0-1.2","spark_pilot_norest","10608","3","8","Male","","","","","","","null","<div style=""font-size:60px;"">+</div>","null","fixation","","","","","","","","","","","",""
"learning-instructions","18","226688","0.0-3.0-3.0-0.0","spark_pilot_norest","10608","3","8","Male","","","","","","","1223.7999999970198","<p> Great job! Now try pressing the <b>down</b> key to travel down. </p>
            <img src='./assets/img/instructions/pressDown.jpg' class='instructions-image'>","","instructions","","","","","","","","","","","",""
"revaluation","19","230696","0.0-3.0-4.0-0.0","spark_pilot_norest","10608","3","8","Male","","false","","","","","[274]","./assets/img/space/3.jpg","[""ArrowDown""]","first stage practice","space","0","null","null","ArrowDown","false","","","","","",""
"html-keyboard-response","20","231212","0.0-3.0-4.0-1.0","spark_pilot_norest","10608","3","8","Male","","","","","","","null","<div style=""font-size:60px;"">+</div>","null","fixation","","","","","","","","","","","",""
"revaluation","21","235232","0.0-3.0-4.0-0.1","spark_pilot_norest","10608","3","8","Male","","false","","","","","[335.80000001192093]","./assets/img/space/4.jpg","[""ArrowDown""]","first stage practice","space","0","null","null","ArrowDown","false","","","","","",""
"html-keyboard-response","22","235747","0.0-3.0-4.0-1.1","spark_pilot_norest","10608","3","8","Male","","","","","","","null","<div style=""font-size:60px;"">+</div>","null","fixation","","","","","","","","","","","",""
"revaluation","23","239771","0.0-3.0-4.0-0.2","spark_pilot_norest","10608","3","8","Male","","false","","","","","[782.5999999940395]","./assets/img/space/5.jpg","[""ArrowDown""]","first stage practice","space","0","null","null","ArrowDown","false","","","","","",""
"html-keyboard-response","24","240285","0.0-3.0-4.0-1.2","spark_pilot_norest","10608","3","8","Male","","","","","","","null","<div style=""font-size:60px;"">+</div>","null","fixation","","","","","","","","","","","",""
"learning-instructions","25","256960","0.0-3.0-5.0-0.0","spark_pilot_norest","10608","3","8","Male","","","","","","","6846.5","<p> The animals don’t move, so the animal in the upper part of a place will stay in the upper part of a place, and the animal in the lower part of a place will stay in the lower part of a place. </p>","","instructions","","","","","","","","","","","",""
"learning-instructions","26","268296","0.0-3.0-5.0-0.1","spark_pilot_norest","10608","3","8","Male","","","","","","","2222.7000000029802","<p> Each animal has two treasure chests for you to choose from. </p>
            <p> The amount of treasure in each chest can range from <b> 0 to 40 pieces.</b></p>","","instructions","","","","","","","","","","","",""
"learning-instructions","27","280888","0.0-3.0-5.0-0.2","spark_pilot_norest","10608","3","8","Male","","","","","","","1423.9000000059605","<p> You should decide which chest to search for treasure by using the <b>left</b> and <b>right</b> arrow keys. </p>
            <p><b> Pay attention to which animal is on the screen, as the animals have different treasure chests. </b></p>
            <img src='./assets/img/instructions/leftright.jpg' class='instructions-image'>","","instructions","","","","","","","","","","","",""
"learning-instructions","28","288759","0.0-3.0-5.0-0.3","spark_pilot_norest","10608","3","8","Male","","","","","","","1526.0999999940395","<p> Let’s try practicing that now. </p>
            <p> When you see an animal, choose which chest to search for treasure. </p>
            <img src='./assets/img/instructions/chooseChest.jpg' class='instructions-image'>","","instructions","","","","","","","","","","","",""
"revaluation","29","292780","0.0-3.0-6.0-0.0","spark_pilot_norest","10608","3","8","Male","","false","","","","","[883.6000000089407]","./assets/img/space/animals/cat.jpg","[""ArrowRight""]","second stage practice","space","36","{""ArrowUp,ArrowLeft"":3,""ArrowUp,ArrowRight"":36,""ArrowDown,ArrowLeft"":15,""ArrowDown,ArrowRight"":23}","true","ArrowUp,ArrowRight","","","","","","",""
"html-keyboard-response","30","293292","0.0-3.0-6.0-1.0","spark_pilot_norest","10608","3","8","Male","","","","","","","null","<div style=""font-size:60px;"">+</div>","null","fixation","","","","","","","","","","","",""
"revaluation","31","297321","0.0-3.0-6.0-0.1","spark_pilot_norest","10608","3","8","Male","","false","","","","","[404.90000000596046]","./assets/img/space/animals/rabbit.jpg","[""ArrowRight""]","second stage practice","space","23","{""ArrowUp,ArrowLeft"":3,""ArrowUp,ArrowRight"":36,""ArrowDown,ArrowLeft"":15,""ArrowDown,ArrowRight"":23}","true","ArrowDown,ArrowRight","","","","","","",""
"html-keyboard-response","32","297835","0.0-3.0-6.0-1.1","spark_pilot_norest","10608","3","8","Male","","","","","","","null","<div style=""font-size:60px;"">+</div>","null","fixation","","","","","","","","","","","",""
"revaluation","33","301856","0.0-3.0-6.0-0.2","spark_pilot_norest","10608","3","8","Male","","false","","","","","[758]","./assets/img/space/animals/cat.jpg","[""ArrowRight""]","second stage practice","space","36","{""ArrowUp,ArrowLeft"":3,""ArrowUp,ArrowRight"":36,""ArrowDown,ArrowLeft"":15,""ArrowDown,ArrowRight"":23}","true","ArrowUp,ArrowRight","","","","","","",""
"html-keyboard-response","34","302361","0.0-3.0-6.0-1.2","spark_pilot_norest","10608","3","8","Male","","","","","","","null","<div style=""font-size:60px;"">+</div>","null","fixation","","","","","","","","","","","",""
"revaluation","35","306389","0.0-3.0-6.0-0.3","spark_pilot_norest","10608","3","8","Male","","false","","","","","[458.59999999403954]","./assets/img/space/animals/rabbit.jpg","[""ArrowLeft""]","second stage practice","space","15","{""ArrowUp,ArrowLeft"":3,""ArrowUp,ArrowRight"":36,""ArrowDown,ArrowLeft"":15,""ArrowDown,ArrowRight"":23}","false","ArrowDown,ArrowLeft","","","","","","",""
"html-keyboard-response","36","306902","0.0-3.0-6.0-1.3","spark_pilot_norest","10608","3","8","Male","","","","","","","null","<div style=""font-size:60px;"">+</div>","null","fixation","","","","","","","","","","","",""
"learning-instructions","37","325304","0.0-3.0-7.0-0.0","spark_pilot_norest","10608","3","8","Male","","","","","","","1620","<p> Great job. Now let’s try putting it together. </p>
            <p> On each turn, you will first see a picture to remind you of the place you are in, and you need to choose whether to go up or down. </p>
            <p> Then you will see an animal and choose which of its chests to search for treasure. </p>","","instructions","","","","","","","","","","","",""
"learning-instructions","38","336391","0.0-3.0-7.0-0.1","spark_pilot_norest","10608","3","8","Male","","","","","","","2838.7999999970198","<p> When you choose whether to go up or down, try to go to the animal with the chest with the most treasure. </p>
            <p> Try practicing that now! </p>","","instructions","","","","","","","","","","","",""
"revaluation","39","342417","0.0-3.0-8.0-0.0","spark_pilot_norest","10608","3","8","Male","","false","","","","","[305.80000001192093,328.09999999403954]","./assets/img/space/6.jpg","[""ArrowUp"",""ArrowRight""]","full practice","space","36","{""ArrowUp,ArrowLeft"":3,""ArrowUp,ArrowRight"":36,""ArrowDown,ArrowLeft"":15,""ArrowDown,ArrowRight"":23}","true","ArrowUp,ArrowRight","false","","","","","",""
"html-keyboard-response","40","342933","0.0-3.0-8.0-1.0","spark_pilot_norest","10608","3","8","Male","","","","","","","null","<div style=""font-size:60px;"">+</div>","null","fixation","","","","","","","","","","","",""
"revaluation","41","348970","0.0-3.0-8.0-0.1","spark_pilot_norest","10608","3","8","Male","","false","","","","","[709.1999999880791,280.20000000298023]","./assets/img/space/7.jpg","[""ArrowUp"",""ArrowLeft""]","full practice","space","3","{""ArrowUp,ArrowLeft"":3,""ArrowUp,ArrowRight"":36,""ArrowDown,ArrowLeft"":15,""ArrowDown,ArrowRight"":23}","false","ArrowUp,ArrowLeft","false","","","","","",""
"html-keyboard-response","42","349485","0.0-3.0-8.0-1.1","spark_pilot_norest","10608","3","8","Male","","","","","","","null","<div style=""font-size:60px;"">+</div>","null","fixation","","","","","","","","","","","",""
"revaluation","43","355520","0.0-3.0-8.0-0.2","spark_pilot_norest","10608","3","8","Male","","false","","","","","[724,188.8999999910593]","./assets/img/space/8.jpg","[""ArrowUp"",""ArrowRight""]","full practice","space","36","{""ArrowUp,ArrowLeft"":3,""ArrowUp,ArrowRight"":36,""ArrowDown,ArrowLeft"":15,""ArrowDown,ArrowRight"":23}","true","ArrowUp,ArrowRight","false","","","","","",""
"html-keyboard-response","44","356023","0.0-3.0-8.0-1.2","spark_pilot_norest","10608","3","8","Male","","","","","","","null","<div style=""font-size:60px;"">+</div>","null","fixation","","","","","","","","","","","",""
"revaluation","45","362050","0.0-3.0-8.0-0.3","spark_pilot_norest","10608","3","8","Male","","false","","","","","[146.29999999701977,168.40000000596046]","./assets/img/space/9.jpg","[""ArrowUp"",""ArrowRight""]","full practice","space","36","{""ArrowUp,ArrowLeft"":3,""ArrowUp,ArrowRight"":36,""ArrowDown,ArrowLeft"":15,""ArrowDown,ArrowRight"":23}","true","ArrowUp,ArrowRight","false","","","","","",""
"html-keyboard-response","46","362564","0.0-3.0-8.0-1.3","spark_pilot_norest","10608","3","8","Male","","","","","","","null","<div style=""font-size:60px;"">+</div>","null","fixation","","","","","","","","","","","",""
"revaluation","47","368568","0.0-3.0-8.0-0.4","spark_pilot_norest","10608","3","8","Male","","false","","","","","[150.70000000298023,5.0999999940395355]","./assets/img/space/10.jpg","[""ArrowUp"",""ArrowRight""]","full practice","space","36","{""ArrowUp,ArrowLeft"":3,""ArrowUp,ArrowRight"":36,""ArrowDown,ArrowLeft"":15,""ArrowDown,ArrowRight"":23}","true","ArrowUp,ArrowRight","false","","","","","",""
"html-keyboard-response","48","369070","0.0-3.0-8.0-1.4","spark_pilot_norest","10608","3","8","Male","","","","","","","null","<div style=""font-size:60px;"">+</div>","null","fixation","","","","","","","","","","","",""
"learning-instructions","49","381768","0.0-3.0-9.0-0.0","spark_pilot_norest","10608","3","8","Male","","","","","","","2367.4000000059605","<p> One last thing: sometimes, you will see a robber. The robber can be anywhere in the picture. </p>
            <p> If you do not stop them, you will lose treasure. </p>
            <img src='./assets/img/instructions/robber.jpg' class='instructions-image'>","","instructions","","","","","","","","","","","",""
"learning-instructions","50","391832","0.0-3.0-9.0-0.1","spark_pilot_norest","10608","3","8","Male","","","","","","","2921","<p> If you see the robber, you should <b>press the space bar</b> rather than using the arrow keys. </p>
            <p> Try practicing that now! </p>","","instructions","","","","","","","","","","","",""
"revaluation","51","395860","0.0-3.0-10.0-0.0","spark_pilot_norest","10608","3","8","Male","","false","","","","","[178.59999999403954]","./assets/img/space/catch/0.jpg","[""spaceBar""]","catch practice","space","0","{""ArrowUp,ArrowLeft"":3,""ArrowUp,ArrowRight"":36,""ArrowDown,ArrowLeft"":15,""ArrowDown,ArrowRight"":23}","true","spaceBar","true","","","","","",""
"html-keyboard-response","52","396361","0.0-3.0-10.0-1.0","spark_pilot_norest","10608","3","8","Male","","","","","","","null","<div style=""font-size:60px;"">+</div>","null","fixation","","","","","","","","","","","",""
"revaluation","53","400389","0.0-3.0-10.0-0.1","spark_pilot_norest","10608","3","8","Male","","false","","","","","[481.1000000089407]","./assets/img/space/catch/1.jpg","[""spaceBar""]","catch practice","space","0","{""ArrowUp,ArrowLeft"":3,""ArrowUp,ArrowRight"":36,""ArrowDown,ArrowLeft"":15,""ArrowDown,ArrowRight"":23}","true","spaceBar","true","","","","","",""
"html-keyboard-response","54","400891","0.0-3.0-10.0-1.1","spark_pilot_norest","10608","3","8","Male","","","","","","","null","<div style=""font-size:60px;"">+</div>","null","fixation","","","","","","","","","","","",""
"revaluation","55","404915","0.0-3.0-10.0-0.2","spark_pilot_norest","10608","3","8","Male","","false","","","","","[454.29999999701977]","./assets/img/space/catch/2.jpg","[""spaceBar""]","catch practice","space","0","{""ArrowUp,ArrowLeft"":3,""ArrowUp,ArrowRight"":36,""ArrowDown,ArrowLeft"":15,""ArrowDown,ArrowRight"":23}","true","spaceBar","true","","","","","",""
"html-keyboard-response","56","405430","0.0-3.0-10.0-1.2","spark_pilot_norest","10608","3","8","Male","","","","","","","null","<div style=""font-size:60px;"">+</div>","null","fixation","","","","","","","","","","","",""
"learning-instructions","57","413536","0.0-3.0-11.0-0.0-0.0","spark_pilot_norest","10608","3","8","Male","","","","","","","2875.0999999940395","<p> Now, you will practice a shortened version of the game to get a sense of how it all fits together. </p>","","instructions","","","","","","","","","","","",""
"learning-instructions","58","418184","0.0-3.0-11.0-0.0-0.1","spark_pilot_norest","10608","3","8","Male","","","","","","","1472.7000000029802","<p>This time you are searching for treasure in outer space.</p>","","instructions","","","","","","","","","","","",""
"learning-instructions","59","434984","0.0-3.0-11.0-1.0-0.0","spark_pilot_norest","10608","3","8","Male","","","","","","","2053","<p> Remember, when you see a picture of the place, use the up and down keys to <b>find an animal</b>.</p>
            <p> When you encounter an animal, you should use the left and right keys to <b>select a treasure chest</b>.</p>
            <p> Don't forget to look out for the robber! </p>","","instructions","","","","","","","","","","","",""
"revaluation","60","441018","0.0-3.0-11.0-2.0-0.0","spark_pilot_norest","10608","3","8","Male","","false","","","","","[1690.1000000089407,551.0999999940395]","./assets/img/space/11.jpg","[""ArrowUp"",""ArrowRight""]","practice block","space","36","{""ArrowUp,ArrowLeft"":3,""ArrowUp,ArrowRight"":36,""ArrowDown,ArrowLeft"":15,""ArrowDown,ArrowRight"":23}","true","ArrowUp,ArrowRight","false","","","","","",""
"html-keyboard-response","61","441519","0.0-3.0-11.0-2.0-1.0","spark_pilot_norest","10608","3","8","Male","","","","","","","null","<div style=""font-size:60px;"">+</div>","null","fixation","","","","","","","","","","","",""
"revaluation","62","447550","0.0-3.0-11.0-2.0-0.1","spark_pilot_norest","10608","3","8","Male","","false","","","","","[898.9000000059605,302.20000000298023]","./assets/img/space/12.jpg","[""ArrowUp"",""ArrowRight""]","practice block","space","36","{""ArrowUp,ArrowLeft"":3,""ArrowUp,ArrowRight"":36,""ArrowDown,ArrowLeft"":15,""ArrowDown,ArrowRight"":23}","true","ArrowUp,ArrowRight","false","","","","","",""
"html-keyboard-response","63","448050","0.0-3.0-11.0-2.0-1.1","spark_pilot_norest","10608","3","8","Male","","","","","","","null","<div style=""font-size:60px;"">+</div>","null","fixation","","","","","","","","","","","",""
"revaluation","64","454087","0.0-3.0-11.0-2.0-0.2","spark_pilot_norest","10608","3","8","Male","","false","","","","","[753.4000000059605,51.3999999910593]","./assets/img/space/13.jpg","[""ArrowUp"",""ArrowRight""]","practice block","space","36","{""ArrowUp,ArrowLeft"":3,""ArrowUp,ArrowRight"":36,""ArrowDown,ArrowLeft"":15,""ArrowDown,ArrowRight"":23}","true","ArrowUp,ArrowRight","false","","","","","",""
"html-keyboard-response","65","454602","0.0-3.0-11.0-2.0-1.2","spark_pilot_norest","10608","3","8","Male","","","","","","","null","<div style=""font-size:60px;"">+</div>","null","fixation","","","","","","","","","","","",""
"revaluation","66","460633","0.0-3.0-11.0-2.0-0.3","spark_pilot_norest","10608","3","8","Male","","false","","","","","[702.9000000059605,535.7000000029802]","./assets/img/space/14.jpg","[""ArrowUp"",""ArrowRight""]","practice block","space","36","{""ArrowUp,ArrowLeft"":3,""ArrowUp,ArrowRight"":36,""ArrowDown,ArrowLeft"":15,""ArrowDown,ArrowRight"":23}","true","ArrowUp,ArrowRight","false","","","","","",""
"html-keyboard-response","67","461134","0.0-3.0-11.0-2.0-1.3","spark_pilot_norest","10608","3","8","Male","","","","","","","null","<div style=""font-size:60px;"">+</div>","null","fixation","","","","","","","","","","","",""
"revaluation","68","467138","0.0-3.0-11.0-2.0-0.4","spark_pilot_norest","10608","3","8","Male","","false","","","","","[740,379.69999998807907]","./assets/img/space/11.jpg","[""ArrowUp"",""ArrowRight""]","practice block","space","36","{""ArrowUp,ArrowLeft"":3,""ArrowUp,ArrowRight"":36,""ArrowDown,ArrowLeft"":15,""ArrowDown,ArrowRight"":23}","true","ArrowUp,ArrowRight","false","","","","","",""
"html-keyboard-response","69","467639","0.0-3.0-11.0-2.0-1.4","spark_pilot_norest","10608","3","8","Male","","","","","","","null","<div style=""font-size:60px;"">+</div>","null","fixation","","","","","","","","","","","",""
"revaluation","70","473643","0.0-3.0-11.0-2.0-0.5","spark_pilot_norest","10608","3","8","Male","","false","","","","","[674.1000000089407,524.0999999940395]","./assets/img/space/12.jpg","[""ArrowUp"",""ArrowRight""]","practice block","space","36","{""ArrowUp,ArrowLeft"":3,""ArrowUp,ArrowRight"":36,""ArrowDown,ArrowLeft"":15,""ArrowDown,ArrowRight"":23}","true","ArrowUp,ArrowRight","false","","","","","",""
"html-keyboard-response","71","474144","0.0-3.0-11.0-2.0-1.5","spark_pilot_norest","10608","3","8","Male","","","","","","","null","<div style=""font-size:60px;"">+</div>","null","fixation","","","","","","","","","","","",""
"revaluation","72","480149","0.0-3.0-11.0-2.0-0.6","spark_pilot_norest","10608","3","8","Male","","false","","","","","[705.4000000059605,608.8999999910593]","./assets/img/space/13.jpg","[""ArrowUp"",""ArrowRight""]","practice block","space","36","{""ArrowUp,ArrowLeft"":3,""ArrowUp,ArrowRight"":36,""ArrowDown,ArrowLeft"":15,""ArrowDown,ArrowRight"":23}","true","ArrowUp,ArrowRight","false","","","","","",""
"html-keyboard-response","73","480650","0.0-3.0-11.0-2.0-1.6","spark_pilot_norest","10608","3","8","Male","","","","","","","null","<div style=""font-size:60px;"">+</div>","null","fixation","","","","","","","","","","","",""
"revaluation","74","486655","0.0-3.0-11.0-2.0-0.7","spark_pilot_norest","10608","3","8","Male","","false","","","","","[616.2000000029802,42.099999994039536]","./assets/img/space/14.jpg","[""ArrowUp"",""ArrowRight""]","practice block","space","36","{""ArrowUp,ArrowLeft"":3,""ArrowUp,ArrowRight"":36,""ArrowDown,ArrowLeft"":15,""ArrowDown,ArrowRight"":23}","true","ArrowUp,ArrowRight","false","","","","","",""
"html-keyboard-response","75","487156","0.0-3.0-11.0-2.0-1.7","spark_pilot_norest","10608","3","8","Male","","","","","","","null","<div style=""font-size:60px;"">+</div>","null","fixation","","","","","","","","","","","",""
"revaluation","76","491159","0.0-3.0-11.0-2.0-0.8","spark_pilot_norest","10608","3","8","Male","","false","","","","","[669.2999999970198]","./assets/img/space/catch/3.jpg","[""spaceBar""]","practice block","space","0","{""ArrowUp,ArrowLeft"":3,""ArrowUp,ArrowRight"":36,""ArrowDown,ArrowLeft"":15,""ArrowDown,ArrowRight"":23}","true","spaceBar","true","","","","","",""
"html-keyboard-response","77","491661","0.0-3.0-11.0-2.0-1.8","spark_pilot_norest","10608","3","8","Male","","","","","","","null","<div style=""font-size:60px;"">+</div>","null","fixation","","","","","","","","","","","",""
"learning-instructions","78","508608","0.0-3.0-11.0-3.0-0.0","spark_pilot_norest","10608","3","8","Male","","","","","","","4023.5","<p> Now, you will travel with a friend who will choose whether you go up or down first. </p>
            <p> On these turns, you will just see the animal that they found. You will still get to choose which chest to search for treasure.</p>","","instructions","","","","","","","","","","","",""
"revaluation","79","512637","0.0-3.0-11.0-4.0-0.0","spark_pilot_norest","10608","3","8","Male","","false","","","","","[1370.0999999940395]","./assets/img/space/animals/cat.jpg","[""ArrowRight""]","practice block","space","36","{""ArrowUp,ArrowLeft"":3,""ArrowUp,ArrowRight"":36,""ArrowDown,ArrowLeft"":15,""ArrowDown,ArrowRight"":23}","true","ArrowUp,ArrowRight","","","","","","",""
"html-keyboard-response","80","513151","0.0-3.0-11.0-4.0-1.0","spark_pilot_norest","10608","3","8","Male","","","","","","","null","<div style=""font-size:60px;"">+</div>","null","fixation","","","","","","","","","","","",""
"revaluation","81","517175","0.0-3.0-11.0-4.0-0.1","spark_pilot_norest","10608","3","8","Male","","false","","","","","[436.20000000298023]","./assets/img/space/animals/cat.jpg","[""ArrowRight""]","practice block","space","36","{""ArrowUp,ArrowLeft"":3,""ArrowUp,ArrowRight"":36,""ArrowDown,ArrowLeft"":15,""ArrowDown,ArrowRight"":23}","true","ArrowUp,ArrowRight","","","","","","",""
"html-keyboard-response","82","517688","0.0-3.0-11.0-4.0-1.1","spark_pilot_norest","10608","3","8","Male","","","","","","","null","<div style=""font-size:60px;"">+</div>","null","fixation","","","","","","","","","","","",""
"revaluation","83","521711","0.0-3.0-11.0-4.0-0.2","spark_pilot_norest","10608","3","8","Male","","false","","","","","[14.899999991059303]","./assets/img/space/animals/rabbit.jpg","[""ArrowRight""]","practice block","space","23","{""ArrowUp,ArrowLeft"":3,""ArrowUp,ArrowRight"":36,""ArrowDown,ArrowLeft"":15,""ArrowDown,ArrowRight"":23}","true","ArrowDown,ArrowRight","","","","","","",""
"html-keyboard-response","84","522225","0.0-3.0-11.0-4.0-1.2","spark_pilot_norest","10608","3","8","Male","","","","","","","null","<div style=""font-size:60px;"">+</div>","null","fixation","","","","","","","","","","","",""
"revaluation","85","526251","0.0-3.0-11.0-4.0-0.3","spark_pilot_norest","10608","3","8","Male","","false","","","","","[15.799999997019768]","./assets/img/space/animals/rabbit.jpg","[""ArrowRight""]","practice block","space","23","{""ArrowUp,ArrowLeft"":3,""ArrowUp,ArrowRight"":36,""ArrowDown,ArrowLeft"":15,""ArrowDown,ArrowRight"":23}","true","ArrowDown,ArrowRight","","","","","","",""
"html-keyboard-response","86","526752","0.0-3.0-11.0-4.0-1.3","spark_pilot_norest","10608","3","8","Male","","","","","","","null","<div style=""font-size:60px;"">+</div>","null","fixation","","","","","","","","","","","",""
"learning-instructions","87","534860","0.0-3.0-11.0-5.0-0.0","spark_pilot_norest","10608","3","8","Male","","","","","","","null","<p> You have almost finished this part of the game! </p>
            <p> We are going to ask you to make a few more choices. </p>","","instructions","","","","","","","","","","","",""
"learning-instructions","88","550852","0.0-3.0-11.0-5.0-0.1","spark_pilot_norest","10608","3","8","Male","","","","","","","null","<p> First, you need to decide whether to go up or down. When you see each picture, use the arrow keys to make your choice. </p>
            <p><b>You will not see which animal you found, but try to get to the one that will give you the most treasure.</b></p>","","instructions","","","","","","","","","","","",""
"html-keyboard-response","89","551860","0.0-3.0-11.0-6.0-0.0","spark_pilot_norest","10608","3","8","Male","","","","","","","null","<div style=""font-size:100px;color:red;"">Starting in...</div>","null","","","","","","","","","","","","",""
"html-keyboard-response","90","552872","0.0-3.0-11.0-6.0-1.0","spark_pilot_norest","10608","3","8","Male","","","","","","","null","<div style=""font-size:200px;color:red;"">3</div>","null","","","","","","","","","","","","",""
"html-keyboard-response","91","553885","0.0-3.0-11.0-6.0-2.0","spark_pilot_norest","10608","3","8","Male","","","","","","","null","<div style=""font-size:200px;color:red;"">2</div>","null","","","","","","","","","","","","",""
"html-keyboard-response","92","554898","0.0-3.0-11.0-6.0-3.0","spark_pilot_norest","10608","3","8","Male","","","","","","","null","<div style=""font-size:200px;color:red;"">1</div>","null","","","","","","","","","","","","",""
"revaluation","93","555326","0.0-3.0-11.0-7.0","spark_pilot_norest","10608","3","8","Male","","false","","","","","[426]","./assets/img/space/15.jpg","[""ArrowUp""]","practice block","space","0","{""ArrowUp,ArrowLeft"":3,""ArrowUp,ArrowRight"":36,""ArrowDown,ArrowLeft"":15,""ArrowDown,ArrowRight"":23}","true","ArrowUp","false","","","","","",""
"html-keyboard-response","94","555836","0.0-3.0-11.0-8.0","spark_pilot_norest","10608","3","8","Male","","","","","","","null","<div style=""font-size:60px;"">+</div>","null","fixation","","","","","","","","","","","",""
"learning-instructions","95","569205","0.0-3.0-11.0-9.0-0.0","spark_pilot_norest","10608","3","8","Male","","","","","","","null","<p> Now you will see the animals again and can search their chests for treasure. </p>
            <p> This time, you will not see how much treasure you earned, but you will earn more bonus money for making better choices. </p>","","instructions","","","","","","","","","","","",""
"html-keyboard-response","96","570217","0.0-3.0-11.0-10.0-0.0","spark_pilot_norest","10608","3","8","Male","","","","","","","null","<div style=""font-size:100px;color:red;"">Starting in...</div>","null","","","","","","","","","","","","",""
"html-keyboard-response","97","571218","0.0-3.0-11.0-10.0-1.0","spark_pilot_norest","10608","3","8","Male","","","","","","","null","<div style=""font-size:200px;color:red;"">3</div>","null","","","","","","","","","","","","",""
"html-keyboard-response","98","572219","0.0-3.0-11.0-10.0-2.0","spark_pilot_norest","10608","3","8","Male","","","","","","","null","<div style=""font-size:200px;color:red;"">2</div>","null","","","","","","","","","","","","",""
"html-keyboard-response","99","573232","0.0-3.0-11.0-10.0-3.0","spark_pilot_norest","10608","3","8","Male","","","","","","","null","<div style=""font-size:200px;color:red;"">1</div>","null","","","","","","","","","","","","",""
"revaluation","100","573971","0.0-3.0-11.0-11.0-0.0","spark_pilot_norest","10608","3","8","Male","","false","","","","","[736.6999999880791]","./assets/img/space/animals/cat.jpg","[""ArrowRight""]","practice block","space","0","{""ArrowUp,ArrowLeft"":3,""ArrowUp,ArrowRight"":36,""ArrowDown,ArrowLeft"":15,""ArrowDown,ArrowRight"":23}","true","ArrowUp,ArrowRight","","","","","","",""
"html-keyboard-response","101","574480","0.0-3.0-11.0-11.0-1.0","spark_pilot_norest","10608","3","8","Male","","","","","","","null","<div style=""font-size:60px;"">+</div>","null","fixation","","","","","","","","","","","",""
"revaluation","102","575117","0.0-3.0-11.0-11.0-0.1","spark_pilot_norest","10608","3","8","Male","","false","","","","","[635.5999999940395]","./assets/img/space/animals/rabbit.jpg","[""ArrowRight""]","practice block","space","0","{""ArrowUp,ArrowLeft"":3,""ArrowUp,ArrowRight"":36,""ArrowDown,ArrowLeft"":15,""ArrowDown,ArrowRight"":23}","true","ArrowDown,ArrowRight","","","","","","",""
"html-keyboard-response","103","575621","0.0-3.0-11.0-11.0-1.1","spark_pilot_norest","10608","3","8","Male","","","","","","","null","<div style=""font-size:60px;"">+</div>","null","fixation","","","","","","","","","","","",""
"learning-instructions","104","583264","0.0-3.0-12.0-0.0","spark_pilot_norest","10608","3","8","Male","","","","","","","3079.2999999970198","<p> Before you start, we're going to ask you a few questions about how the game works. </p>","","instructions","","","","","","","","","","","",""
"comp-q","105","590328","0.0-3.0-13.0-0.0-0.0","spark_pilot_norest","10608","3","8","Male","","","","","","","1492.2999999970198","<p> <b> True or False? </b> </p>
            <p> There can be 50 pieces of treasure in a given animal's chest. </p>","1","comp_question","","","","true","","","","","","","",""
"comp-q","106","598560","0.0-3.0-13.0-0.0-1.0","spark_pilot_norest","10608","3","8","Male","","","","","","","1585.6000000089407","<p> <b> That's right! </b> The amount of treasure in each chest can range from 0 to 40 pieces. </p>","0","comp_answer","","","","","","","","","","","",""
"comp-q","107","606296","0.0-3.0-13.0-0.1-0.1","spark_pilot_norest","10608","3","8","Male","","","","","","","641.2999999970198","<p> <b> True or False? </b> </p><p> In this game, all animals have the same amount of treasure in their left and right chests. </p>","1","comp_question","","","","true","","","","","","","",""
"comp-q","108","613616","0.0-3.0-13.0-0.1-1.1","spark_pilot_norest","10608","3","8","Male","","","","","","","2101.0999999940395","<p> <b> That's right! </b> Animals have different amounts of treasure in their treasure chests. </p>","0","comp_answer","","","","","","","","","","","",""
"comp-q","109","620161","0.0-3.0-13.0-0.2-0.2","spark_pilot_norest","10608","3","8","Male","","","","","","","716.2000000029802","<p> <b> True or False? </b> </p><p> The same animal will always be there if you go up in the same place. </p>","0","comp_question","","","","true","","","","","","","",""
"comp-q","110","631063","0.0-3.0-13.0-0.2-1.2","spark_pilot_norest","10608","3","8","Male","","","","","","","4468.699999988079","<p> <b> That's right! </b> One animal lives in the upper part and one lives in the lower part of every place. </p>","0","comp_answer","","","","","","","","","","","",""
"comp-q","111","638168","0.0-3.0-13.0-0.3-0.3","spark_pilot_norest","10608","3","8","Male","","","","","","","1603.2000000029802","<p> <b> True or False? </b> </p><p> If you see a different picture, it means you are in a new place. </p>","1","comp_question","","","","true","","","","","","","",""
"comp-q","112","650599","0.0-3.0-13.0-0.3-1.3","spark_pilot_norest","10608","3","8","Male","","","","","","","1224.4000000059605","<p> <b> That's right! </b> Lots of different images may show the same place. For example,  you may see three different images that all remind you that you are in outer space. </p>","0","comp_answer","","","","","","","","","","","",""
"learning-instructions","113","662703","0.0-3.0-14.0-0.0","spark_pilot_norest","10608","3","8","Male","","","","","","","2269.1000000089407","<p> Good job. Remember to do your best because the amount of treasure you earn will be converted into bonus money. </p>
            <p> It’s time to start the real game! </p>","","instructions","","","","","","","","","","","",""
"learning-instructions","114","670263","0.0-4.0-0.0-0.0","spark_pilot_norest","10608","3","8","Male","","","","","","","4869.20000000298","<p> This time you are searching for treasure in the <b>ocean</b>.</p>","","instructions","","","","","","","","","","","",""
"learning-instructions","115","688752","0.0-4.0-0.0-0.1","spark_pilot_norest","10608","3","8","Male","","","","","","","1227.2000000029802","<p><b>New</b> animals with <b>new</b> treasure chests live here. You need to explore to discover where the animal with the best treasure chest is.</p>
                    <p> Like before, once you figure out which animal has the chest with the most treasure, you should try to get to that animal and select that chest! </p>","","instructions","","","","","","","","","","","",""
"learning-instructions","116","705248","0.0-4.0-1.0-0.0","spark_pilot_norest","10608","3","8","Male","","","","","","","1773.2000000029802","<p> Remember, when you see a picture of the place, use the up and down keys to <b>find an animal</b>.</p>
            <p> When you encounter an animal, you should use the left and right keys to <b>select a treasure chest</b>.</p>
            <p> Don't forget to look out for the robber! </p>","","instructions","","","","","","","","","","","",""
"revaluation","117","709275","0.0-4.0-2.0-0.0","spark_pilot_norest","10608","3","8","Male","","true","","","","","[]","./assets/img/ocean/memory/40.jpg","[]","value training","ocean","-5","{""ArrowUp,ArrowLeft"":23,""ArrowUp,ArrowRight"":10,""ArrowDown,ArrowLeft"":8,""ArrowDown,ArrowRight"":30}","false","","false","original","1","0","","",""
"html-keyboard-response","118","709790","0.0-4.0-2.0-1.0","spark_pilot_norest","10608","3","8","Male","","","","","","","null","<div style=""font-size:60px;"">+</div>","null","fixation","","","","","","","","","1","","",""
"revaluation","119","715834","0.0-4.0-2.0-0.1","spark_pilot_norest","10608","3","8","Male","","false","","","","","[804.2999999970198,718.1999999880791]","./assets/img/ocean/memory/25.jpg","[""ArrowUp"",""ArrowRight""]","value training","ocean","10","{""ArrowUp,ArrowLeft"":23,""ArrowUp,ArrowRight"":10,""ArrowDown,ArrowLeft"":8,""ArrowDown,ArrowRight"":30}","false","ArrowUp,ArrowRight","false","original","1","2","","",""
"html-keyboard-response","120","716349","0.0-4.0-2.0-1.1","spark_pilot_norest","10608","3","8","Male","","","","","","","null","<div style=""font-size:60px;"">+</div>","null","fixation","","","","","","","","","3","","",""
"revaluation","121","722394","0.0-4.0-2.0-0.2","spark_pilot_norest","10608","3","8","Male","","false","","","","","[332.59999999403954,113.20000000298023]","./assets/img/ocean/memory/21.jpg","[""ArrowUp"",""ArrowLeft""]","value training","ocean","23","{""ArrowUp,ArrowLeft"":23,""ArrowUp,ArrowRight"":10,""ArrowDown,ArrowLeft"":8,""ArrowDown,ArrowRight"":30}","false","ArrowUp,ArrowLeft","false","original","1","4","","",""
"html-keyboard-response","122","722905","0.0-4.0-2.0-1.2","spark_pilot_norest","10608","3","8","Male","","","","","","","null","<div style=""font-size:60px;"">+</div>","null","fixation","","","","","","","","","5","","",""
"revaluation","123","728937","0.0-4.0-2.0-0.3","spark_pilot_norest","10608","3","8","Male","","false","","","","","[169.29999999701977,536.3999999910593]","./assets/img/ocean/memory/4.jpg","[""ArrowDown"",""ArrowLeft""]","value training","ocean","8","{""ArrowUp,ArrowLeft"":23,""ArrowUp,ArrowRight"":10,""ArrowDown,ArrowLeft"":8,""ArrowDown,ArrowRight"":30}","false","ArrowDown,ArrowLeft","false","original","1","6","","",""
"html-keyboard-response","124","729453","0.0-4.0-2.0-1.3","spark_pilot_norest","10608","3","8","Male","","","","","","","null","<div style=""font-size:60px;"">+</div>","null","fixation","","","","","","","","","7","","",""
"revaluation","125","735478","0.0-4.0-2.0-0.4","spark_pilot_norest","10608","3","8","Male","","false","","","","","[855.1999999880791,517]","./assets/img/ocean/memory/14.jpg","[""ArrowDown"",""ArrowRight""]","value training","ocean","30","{""ArrowUp,ArrowLeft"":23,""ArrowUp,ArrowRight"":10,""ArrowDown,ArrowLeft"":8,""ArrowDown,ArrowRight"":30}","true","ArrowDown,ArrowRight","false","original","1","8","","",""
"html-keyboard-response","126","735979","0.0-4.0-2.0-1.4","spark_pilot_norest","10608","3","8","Male","","","","","","","null","<div style=""font-size:60px;"">+</div>","null","fixation","","","","","","","","","9","","",""
"revaluation","127","739982","0.0-4.0-2.0-0.5","spark_pilot_norest","10608","3","8","Male","","false","","","","","[943.4000000059605]","./assets/img/ocean/catch/1.jpg","[""spaceBar""]","value training","ocean","0","{""ArrowUp,ArrowLeft"":23,""ArrowUp,ArrowRight"":10,""ArrowDown,ArrowLeft"":8,""ArrowDown,ArrowRight"":30}","true","spaceBar","true","original","1","10","","",""
"html-keyboard-response","128","740492","0.0-4.0-2.0-1.5","spark_pilot_norest","10608","3","8","Male","","","","","","","null","<div style=""font-size:60px;"">+</div>","null","fixation","","","","","","","","","11","","",""
"revaluation","129","746497","0.0-4.0-2.0-0.6","spark_pilot_norest","10608","3","8","Male","","false","","","","","[404.90000000596046,197.40000000596046]","./assets/img/ocean/memory/4.jpg","[""ArrowDown"",""ArrowRight""]","value training","ocean","30","{""ArrowUp,ArrowLeft"":23,""ArrowUp,ArrowRight"":10,""ArrowDown,ArrowLeft"":8,""ArrowDown,ArrowRight"":30}","true","ArrowDown,ArrowRight","false","original","1","12","","",""
"html-keyboard-response","130","746998","0.0-4.0-2.0-1.6","spark_pilot_norest","10608","3","8","Male","","","","","","","null","<div style=""font-size:60px;"">+</div>","null","fixation","","","","","","","","","13","","",""
"revaluation","131","753007","0.0-4.0-2.0-0.7","spark_pilot_norest","10608","3","8","Male","","false","","","","","[1091.800000011921,559]","./assets/img/ocean/memory/18.jpg","[""ArrowDown"",""ArrowRight""]","value training","ocean","30","{""ArrowUp,ArrowLeft"":23,""ArrowUp,ArrowRight"":10,""ArrowDown,ArrowLeft"":8,""ArrowDown,ArrowRight"":30}","true","ArrowDown,ArrowRight","false","original","1","14","","",""
"html-keyboard-response","132","753508","0.0-4.0-2.0-1.7","spark_pilot_norest","10608","3","8","Male","","","","","","","null","<div style=""font-size:60px;"">+</div>","null","fixation","","","","","","","","","15","","",""
"revaluation","133","759512","0.0-4.0-2.0-0.8","spark_pilot_norest","10608","3","8","Male","","false","","","","","[665.2999999970198,582.1000000089407]","./assets/img/ocean/memory/0.jpg","[""ArrowDown"",""ArrowRight""]","value training","ocean","30","{""ArrowUp,ArrowLeft"":23,""ArrowUp,ArrowRight"":10,""ArrowDown,ArrowLeft"":8,""ArrowDown,ArrowRight"":30}","true","ArrowDown,ArrowRight","false","original","1","16","","",""
"html-keyboard-response","134","760013","0.0-4.0-2.0-1.8","spark_pilot_norest","10608","3","8","Male","","","","","","","null","<div style=""font-size:60px;"">+</div>","null","fixation","","","","","","","","","17","","",""
"revaluation","135","766019","0.0-4.0-2.0-0.9","spark_pilot_norest","10608","3","8","Male","","false","","","","","[605.7000000029802,475]","./assets/img/ocean/memory/1.jpg","[""ArrowDown"",""ArrowRight""]","value training","ocean","30","{""ArrowUp,ArrowLeft"":23,""ArrowUp,ArrowRight"":10,""ArrowDown,ArrowLeft"":8,""ArrowDown,ArrowRight"":30}","true","ArrowDown,ArrowRight","false","original","1","18","","",""
"html-keyboard-response","136","766520","0.0-4.0-2.0-1.9","spark_pilot_norest","10608","3","8","Male","","","","","","","null","<div style=""font-size:60px;"">+</div>","null","fixation","","","","","","","","","19","","",""
"revaluation","137","772530","0.0-4.0-2.0-0.10","spark_pilot_norest","10608","3","8","Male","","false","","","","","[617.8999999910593,353]","./assets/img/ocean/memory/16.jpg","[""ArrowDown"",""ArrowRight""]","value training","ocean","30","{""ArrowUp,ArrowLeft"":23,""ArrowUp,ArrowRight"":10,""ArrowDown,ArrowLeft"":8,""ArrowDown,ArrowRight"":30}","true","ArrowDown,ArrowRight","false","original","1","20","","",""
"html-keyboard-response","138","773032","0.0-4.0-2.0-1.10","spark_pilot_norest","10608","3","8","Male","","","","","","","null","<div style=""font-size:60px;"">+</div>","null","fixation","","","","","","","","","21","","",""
"revaluation","139","779041","0.0-4.0-2.0-0.11","spark_pilot_norest","10608","3","8","Male","","false","","","","","[617.9000000059605,557.6999999880791]","./assets/img/ocean/memory/18.jpg","[""ArrowDown"",""ArrowRight""]","value training","ocean","30","{""ArrowUp,ArrowLeft"":23,""ArrowUp,ArrowRight"":10,""ArrowDown,ArrowLeft"":8,""ArrowDown,ArrowRight"":30}","true","ArrowDown,ArrowRight","false","original","1","22","","",""
"html-keyboard-response","140","779557","0.0-4.0-2.0-1.11","spark_pilot_norest","10608","3","8","Male","","","","","","","null","<div style=""font-size:60px;"">+</div>","null","fixation","","","","","","","","","23","","",""
"revaluation","141","785560","0.0-4.0-2.0-0.12","spark_pilot_norest","10608","3","8","Male","","false","","","","","[908.5999999940395,432.79999999701977]","./assets/img/ocean/memory/31.jpg","[""ArrowDown"",""ArrowRight""]","value training","ocean","30","{""ArrowUp,ArrowLeft"":23,""ArrowUp,ArrowRight"":10,""ArrowDown,ArrowLeft"":8,""ArrowDown,ArrowRight"":30}","true","ArrowDown,ArrowRight","false","original","1","24","","",""
"html-keyboard-response","142","786061","0.0-4.0-2.0-1.12","spark_pilot_norest","10608","3","8","Male","","","","","","","null","<div style=""font-size:60px;"">+</div>","null","fixation","","","","","","","","","25","","",""
"revaluation","143","792065","0.0-4.0-2.0-0.13","spark_pilot_norest","10608","3","8","Male","","false","","","","","[631.2999999970198,388.6000000089407]","./assets/img/ocean/memory/6.jpg","[""ArrowDown"",""ArrowRight""]","value training","ocean","30","{""ArrowUp,ArrowLeft"":23,""ArrowUp,ArrowRight"":10,""ArrowDown,ArrowLeft"":8,""ArrowDown,ArrowRight"":30}","true","ArrowDown,ArrowRight","false","original","1","26","","",""
"html-keyboard-response","144","792567","0.0-4.0-2.0-1.13","spark_pilot_norest","10608","3","8","Male","","","","","","","null","<div style=""font-size:60px;"">+</div>","null","fixation","","","","","","","","","27","","",""
"revaluation","145","798570","0.0-4.0-2.0-0.14","spark_pilot_norest","10608","3","8","Male","","false","","","","","[1021.5999999940395,364]","./assets/img/ocean/memory/27.jpg","[""ArrowDown"",""ArrowRight""]","value training","ocean","30","{""ArrowUp,ArrowLeft"":23,""ArrowUp,ArrowRight"":10,""ArrowDown,ArrowLeft"":8,""ArrowDown,ArrowRight"":30}","true","ArrowDown,ArrowRight","false","original","1","28","","",""
"html-keyboard-response","146","799071","0.0-4.0-2.0-1.14","spark_pilot_norest","10608","3","8","Male","","","","","","","null","<div style=""font-size:60px;"">+</div>","null","fixation","","","","","","","","","29","","",""
"revaluation","147","803074","0.0-4.0-2.0-0.15","spark_pilot_norest","10608","3","8","Male","","false","","","","","[642.4000000059605]","./assets/img/ocean/catch/3.jpg","[""spaceBar""]","value training","ocean","0","{""ArrowUp,ArrowLeft"":23,""ArrowUp,ArrowRight"":10,""ArrowDown,ArrowLeft"":8,""ArrowDown,ArrowRight"":30}","true","spaceBar","true","original","1","30","","",""
"html-keyboard-response","148","803575","0.0-4.0-2.0-1.15","spark_pilot_norest","10608","3","8","Male","","","","","","","null","<div style=""font-size:60px;"">+</div>","null","fixation","","","","","","","","","31","","",""
"revaluation","149","807579","0.0-4.0-2.0-0.16","spark_pilot_norest","10608","3","8","Male","","false","","","","","[987.9000000059605]","./assets/img/ocean/catch/7.jpg","[""spaceBar""]","value training","ocean","0","{""ArrowUp,ArrowLeft"":23,""ArrowUp,ArrowRight"":10,""ArrowDown,ArrowLeft"":8,""ArrowDown,ArrowRight"":30}","true","spaceBar","true","original","1","32","","",""
"html-keyboard-response","150","808080","0.0-4.0-2.0-1.16","spark_pilot_norest","10608","3","8","Male","","","","","","","null","<div style=""font-size:60px;"">+</div>","null","fixation","","","","","","","","","33","","",""
"revaluation","151","814083","0.0-4.0-2.0-0.17","spark_pilot_norest","10608","3","8","Male","","false","","","","","[1097.5,394.29999999701977]","./assets/img/ocean/memory/2.jpg","[""ArrowDown"",""ArrowRight""]","value training","ocean","30","{""ArrowUp,ArrowLeft"":23,""ArrowUp,ArrowRight"":10,""ArrowDown,ArrowLeft"":8,""ArrowDown,ArrowRight"":30}","true","ArrowDown,ArrowRight","false","original","1","34","","",""
"html-keyboard-response","152","814585","0.0-4.0-2.0-1.17","spark_pilot_norest","10608","3","8","Male","","","","","","","null","<div style=""font-size:60px;"">+</div>","null","fixation","","","","","","","","","35","","",""
"revaluation","153","820589","0.0-4.0-2.0-0.18","spark_pilot_norest","10608","3","8","Male","","false","","","","","[1224.5,640.0999999940395]","./assets/img/ocean/memory/11.jpg","[""ArrowDown"",""ArrowRight""]","value training","ocean","30","{""ArrowUp,ArrowLeft"":23,""ArrowUp,ArrowRight"":10,""ArrowDown,ArrowLeft"":8,""ArrowDown,ArrowRight"":30}","true","ArrowDown,ArrowRight","false","original","1","36","","",""
"html-keyboard-response","154","821090","0.0-4.0-2.0-1.18","spark_pilot_norest","10608","3","8","Male","","","","","","","null","<div style=""font-size:60px;"">+</div>","null","fixation","","","","","","","","","37","","",""
"revaluation","155","827095","0.0-4.0-2.0-0.19","spark_pilot_norest","10608","3","8","Male","","false","","","","","[759.7999999970198,1119.8999999910593]","./assets/img/ocean/memory/19.jpg","[""ArrowDown"",""ArrowRight""]","value training","ocean","30","{""ArrowUp,ArrowLeft"":23,""ArrowUp,ArrowRight"":10,""ArrowDown,ArrowLeft"":8,""ArrowDown,ArrowRight"":30}","true","ArrowDown,ArrowRight","false","original","1","38","","",""
"html-keyboard-response","156","827596","0.0-4.0-2.0-1.19","spark_pilot_norest","10608","3","8","Male","","","","","","","null","<div style=""font-size:60px;"">+</div>","null","fixation","","","","","","","","","39","","",""
"revaluation","157","833600","0.0-4.0-2.0-0.20","spark_pilot_norest","10608","3","8","Male","","false","","","","","[732.6000000089407,502]","./assets/img/ocean/memory/11.jpg","[""ArrowDown"",""ArrowRight""]","value training","ocean","30","{""ArrowUp,ArrowLeft"":23,""ArrowUp,ArrowRight"":10,""ArrowDown,ArrowLeft"":8,""ArrowDown,ArrowRight"":30}","true","ArrowDown,ArrowRight","false","original","1","40","","",""
"html-keyboard-response","158","834101","0.0-4.0-2.0-1.20","spark_pilot_norest","10608","3","8","Male","","","","","","","null","<div style=""font-size:60px;"">+</div>","null","fixation","","","","","","","","","41","","",""
"revaluation","159","840105","0.0-4.0-2.0-0.21","spark_pilot_norest","10608","3","8","Male","","false","","","","","[652.7000000029802,611.3999999910593]","./assets/img/ocean/memory/29.jpg","[""ArrowDown"",""ArrowRight""]","value training","ocean","30","{""ArrowUp,ArrowLeft"":23,""ArrowUp,ArrowRight"":10,""ArrowDown,ArrowLeft"":8,""ArrowDown,ArrowRight"":30}","true","ArrowDown,ArrowRight","false","original","1","42","","",""
"html-keyboard-response","160","840607","0.0-4.0-2.0-1.21","spark_pilot_norest","10608","3","8","Male","","","","","","","null","<div style=""font-size:60px;"">+</div>","null","fixation","","","","","","","","","43","","",""
"revaluation","161","846611","0.0-4.0-2.0-0.22","spark_pilot_norest","10608","3","8","Male","","false","","","","","[627.0999999940395,370.20000000298023]","./assets/img/ocean/memory/7.jpg","[""ArrowDown"",""ArrowRight""]","value training","ocean","30","{""ArrowUp,ArrowLeft"":23,""ArrowUp,ArrowRight"":10,""ArrowDown,ArrowLeft"":8,""ArrowDown,ArrowRight"":30}","true","ArrowDown,ArrowRight","false","original","1","44","","",""
"html-keyboard-response","162","847113","0.0-4.0-2.0-1.22","spark_pilot_norest","10608","3","8","Male","","","","","","","null","<div style=""font-size:60px;"">+</div>","null","fixation","","","","","","","","","45","","",""
"revaluation","163","853116","0.0-4.0-2.0-0.23","spark_pilot_norest","10608","3","8","Male","","false","","","","","[482,544.6000000089407]","./assets/img/ocean/memory/13.jpg","[""ArrowDown"",""ArrowRight""]","value training","ocean","30","{""ArrowUp,ArrowLeft"":23,""ArrowUp,ArrowRight"":10,""ArrowDown,ArrowLeft"":8,""ArrowDown,ArrowRight"":30}","true","ArrowDown,ArrowRight","false","original","1","46","","",""
"html-keyboard-response","164","853617","0.0-4.0-2.0-1.23","spark_pilot_norest","10608","3","8","Male","","","","","","","null","<div style=""font-size:60px;"">+</div>","null","fixation","","","","","","","","","47","","",""
"revaluation","165","859621","0.0-4.0-2.0-0.24","spark_pilot_norest","10608","3","8","Male","","false","","","","","[913.5,1146.1000000089407]","./assets/img/ocean/memory/40.jpg","[""ArrowDown"",""ArrowRight""]","value training","ocean","30","{""ArrowUp,ArrowLeft"":23,""ArrowUp,ArrowRight"":10,""ArrowDown,ArrowLeft"":8,""ArrowDown,ArrowRight"":30}","true","ArrowDown,ArrowRight","false","original","1","48","","",""
"html-keyboard-response","166","860124","0.0-4.0-2.0-1.24","spark_pilot_norest","10608","3","8","Male","","","","","","","null","<div style=""font-size:60px;"">+</div>","null","fixation","","","","","","","","","49","","",""
"revaluation","167","866129","0.0-4.0-2.0-0.25","spark_pilot_norest","10608","3","8","Male","","false","","","","","[773.5999999940395,636.5]","./assets/img/ocean/memory/2.jpg","[""ArrowDown"",""ArrowRight""]","value training","ocean","30","{""ArrowUp,ArrowLeft"":23,""ArrowUp,ArrowRight"":10,""ArrowDown,ArrowLeft"":8,""ArrowDown,ArrowRight"":30}","true","ArrowDown,ArrowRight","false","original","1","50","","",""
"html-keyboard-response","168","866630","0.0-4.0-2.0-1.25","spark_pilot_norest","10608","3","8","Male","","","","","","","null","<div style=""font-size:60px;"">+</div>","null","fixation","","","","","","","","","51","","",""
"revaluation","169","870633","0.0-4.0-2.0-0.26","spark_pilot_norest","10608","3","8","Male","","false","","","","","[891.8999999910593]","./assets/img/ocean/catch/5.jpg","[""spaceBar""]","value training","ocean","0","{""ArrowUp,ArrowLeft"":23,""ArrowUp,ArrowRight"":10,""ArrowDown,ArrowLeft"":8,""ArrowDown,ArrowRight"":30}","true","spaceBar","true","original","1","52","","",""
"html-keyboard-response","170","871134","0.0-4.0-2.0-1.26","spark_pilot_norest","10608","3","8","Male","","","","","","","null","<div style=""font-size:60px;"">+</div>","null","fixation","","","","","","","","","53","","",""
"revaluation","171","877139","0.0-4.0-2.0-0.27","spark_pilot_norest","10608","3","8","Male","","false","","","","","[1189.2999999970198,562.4000000059605]","./assets/img/ocean/memory/21.jpg","[""ArrowDown"",""ArrowRight""]","value training","ocean","30","{""ArrowUp,ArrowLeft"":23,""ArrowUp,ArrowRight"":10,""ArrowDown,ArrowLeft"":8,""ArrowDown,ArrowRight"":30}","true","ArrowDown,ArrowRight","false","original","1","54","","",""
"html-keyboard-response","172","877641","0.0-4.0-2.0-1.27","spark_pilot_norest","10608","3","8","Male","","","","","","","null","<div style=""font-size:60px;"">+</div>","null","fixation","","","","","","","","","55","","",""
"revaluation","173","881644","0.0-4.0-2.0-0.28","spark_pilot_norest","10608","3","8","Male","","false","","","","","[768.2999999970198]","./assets/img/ocean/catch/6.jpg","[""spaceBar""]","value training","ocean","0","{""ArrowUp,ArrowLeft"":23,""ArrowUp,ArrowRight"":10,""ArrowDown,ArrowLeft"":8,""ArrowDown,ArrowRight"":30}","true","spaceBar","true","original","1","56","","",""
"html-keyboard-response","174","882145","0.0-4.0-2.0-1.28","spark_pilot_norest","10608","3","8","Male","","","","","","","null","<div style=""font-size:60px;"">+</div>","null","fixation","","","","","","","","","57","","",""
"revaluation","175","888150","0.0-4.0-2.0-0.29","spark_pilot_norest","10608","3","8","Male","","false","","","","","[584.5,904.1999999880791]","./assets/img/ocean/memory/9.jpg","[""ArrowDown"",""ArrowRight""]","value training","ocean","30","{""ArrowUp,ArrowLeft"":23,""ArrowUp,ArrowRight"":10,""ArrowDown,ArrowLeft"":8,""ArrowDown,ArrowRight"":30}","true","ArrowDown,ArrowRight","false","original","1","58","","",""
"html-keyboard-response","176","888652","0.0-4.0-2.0-1.29","spark_pilot_norest","10608","3","8","Male","","","","","","","null","<div style=""font-size:60px;"">+</div>","null","fixation","","","","","","","","","59","","",""
"revaluation","177","894668","0.0-4.0-2.0-0.30","spark_pilot_norest","10608","3","8","Male","","false","","","","","[1199.4000000059605,461.8999999910593]","./assets/img/ocean/memory/5.jpg","[""ArrowDown"",""ArrowRight""]","value training","ocean","30","{""ArrowUp,ArrowLeft"":23,""ArrowUp,ArrowRight"":10,""ArrowDown,ArrowLeft"":8,""ArrowDown,ArrowRight"":30}","true","ArrowDown,ArrowRight","false","original","1","60","","",""
"html-keyboard-response","178","895169","0.0-4.0-2.0-1.30","spark_pilot_norest","10608","3","8","Male","","","","","","","null","<div style=""font-size:60px;"">+</div>","null","fixation","","","","","","","","","61","","",""
"revaluation","179","901173","0.0-4.0-2.0-0.31","spark_pilot_norest","10608","3","8","Male","","false","","","","","[840.3000000119209,575.8999999910593]","./assets/img/ocean/memory/0.jpg","[""ArrowDown"",""ArrowRight""]","value training","ocean","30","{""ArrowUp,ArrowLeft"":23,""ArrowUp,ArrowRight"":10,""ArrowDown,ArrowLeft"":8,""ArrowDown,ArrowRight"":30}","true","ArrowDown,ArrowRight","false","original","1","62","","",""
"html-keyboard-response","180","901674","0.0-4.0-2.0-1.31","spark_pilot_norest","10608","3","8","Male","","","","","","","null","<div style=""font-size:60px;"">+</div>","null","fixation","","","","","","","","","63","","",""
"revaluation","181","905677","0.0-4.0-2.0-0.32","spark_pilot_norest","10608","3","8","Male","","false","","","","","[1160]","./assets/img/ocean/catch/0.jpg","[""spaceBar""]","value training","ocean","0","{""ArrowUp,ArrowLeft"":23,""ArrowUp,ArrowRight"":10,""ArrowDown,ArrowLeft"":8,""ArrowDown,ArrowRight"":30}","true","spaceBar","true","original","1","64","","",""
"html-keyboard-response","182","906178","0.0-4.0-2.0-1.32","spark_pilot_norest","10608","3","8","Male","","","","","","","null","<div style=""font-size:60px;"">+</div>","null","fixation","","","","","","","","","65","","",""
"revaluation","183","912183","0.0-4.0-2.0-0.33","spark_pilot_norest","10608","3","8","Male","","false","","","","","[919.7999999970198,502.29999999701977]","./assets/img/ocean/memory/31.jpg","[""ArrowDown"",""ArrowRight""]","value training","ocean","30","{""ArrowUp,ArrowLeft"":23,""ArrowUp,ArrowRight"":10,""ArrowDown,ArrowLeft"":8,""ArrowDown,ArrowRight"":30}","true","ArrowDown,ArrowRight","false","original","1","66","","",""
"html-keyboard-response","184","912697","0.0-4.0-2.0-1.33","spark_pilot_norest","10608","3","8","Male","","","","","","","null","<div style=""font-size:60px;"">+</div>","null","fixation","","","","","","","","","67","","",""
"revaluation","185","916710","0.0-4.0-2.0-0.34","spark_pilot_norest","10608","3","8","Male","","false","","","","","[841]","./assets/img/ocean/catch/4.jpg","[""spaceBar""]","value training","ocean","0","{""ArrowUp,ArrowLeft"":23,""ArrowUp,ArrowRight"":10,""ArrowDown,ArrowLeft"":8,""ArrowDown,ArrowRight"":30}","true","spaceBar","true","original","1","68","","",""
"html-keyboard-response","186","917211","0.0-4.0-2.0-1.34","spark_pilot_norest","10608","3","8","Male","","","","","","","null","<div style=""font-size:60px;"">+</div>","null","fixation","","","","","","","","","69","","",""
"revaluation","187","923215","0.0-4.0-2.0-0.35","spark_pilot_norest","10608","3","8","Male","","false","","","","","[838.7999999970198,310.29999999701977]","./assets/img/ocean/memory/9.jpg","[""ArrowDown"",""ArrowRight""]","value training","ocean","30","{""ArrowUp,ArrowLeft"":23,""ArrowUp,ArrowRight"":10,""ArrowDown,ArrowLeft"":8,""ArrowDown,ArrowRight"":30}","true","ArrowDown,ArrowRight","false","original","1","70","","",""
"html-keyboard-response","188","923716","0.0-4.0-2.0-1.35","spark_pilot_norest","10608","3","8","Male","","","","","","","null","<div style=""font-size:60px;"">+</div>","null","fixation","","","","","","","","","71","","",""
"revaluation","189","929721","0.0-4.0-2.0-0.36","spark_pilot_norest","10608","3","8","Male","","false","","","","","[790.6000000089407,678.4000000059605]","./assets/img/ocean/memory/27.jpg","[""ArrowDown"",""ArrowRight""]","value training","ocean","30","{""ArrowUp,ArrowLeft"":23,""ArrowUp,ArrowRight"":10,""ArrowDown,ArrowLeft"":8,""ArrowDown,ArrowRight"":30}","true","ArrowDown,ArrowRight","false","original","1","72","","",""
"html-keyboard-response","190","930223","0.0-4.0-2.0-1.36","spark_pilot_norest","10608","3","8","Male","","","","","","","null","<div style=""font-size:60px;"">+</div>","null","fixation","","","","","","","","","73","","",""
"revaluation","191","936226","0.0-4.0-2.0-0.37","spark_pilot_norest","10608","3","8","Male","","false","","","","","[653,426.1000000089407]","./assets/img/ocean/memory/29.jpg","[""ArrowDown"",""ArrowRight""]","value training","ocean","30","{""ArrowUp,ArrowLeft"":23,""ArrowUp,ArrowRight"":10,""ArrowDown,ArrowLeft"":8,""ArrowDown,ArrowRight"":30}","true","ArrowDown,ArrowRight","false","original","1","74","","",""
"html-keyboard-response","192","936728","0.0-4.0-2.0-1.37","spark_pilot_norest","10608","3","8","Male","","","","","","","null","<div style=""font-size:60px;"">+</div>","null","fixation","","","","","","","","","75","","",""
"revaluation","193","942731","0.0-4.0-2.0-0.38","spark_pilot_norest","10608","3","8","Male","","false","","","","","[721.8000000119209,416.90000000596046]","./assets/img/ocean/memory/6.jpg","[""ArrowDown"",""ArrowRight""]","value training","ocean","30","{""ArrowUp,ArrowLeft"":23,""ArrowUp,ArrowRight"":10,""ArrowDown,ArrowLeft"":8,""ArrowDown,ArrowRight"":30}","true","ArrowDown,ArrowRight","false","original","1","76","","",""
"html-keyboard-response","194","943232","0.0-4.0-2.0-1.38","spark_pilot_norest","10608","3","8","Male","","","","","","","null","<div style=""font-size:60px;"">+</div>","null","fixation","","","","","","","","","77","","",""
"revaluation","195","949237","0.0-4.0-2.0-0.39","spark_pilot_norest","10608","3","8","Male","","false","","","","","[593.2000000029802,793]","./assets/img/ocean/memory/1.jpg","[""ArrowDown"",""ArrowRight""]","value training","ocean","30","{""ArrowUp,ArrowLeft"":23,""ArrowUp,ArrowRight"":10,""ArrowDown,ArrowLeft"":8,""ArrowDown,ArrowRight"":30}","true","ArrowDown,ArrowRight","false","original","1","78","","",""
"html-keyboard-response","196","949738","0.0-4.0-2.0-1.39","spark_pilot_norest","10608","3","8","Male","","","","","","","null","<div style=""font-size:60px;"">+</div>","null","fixation","","","","","","","","","79","","",""
"revaluation","197","955742","0.0-4.0-2.0-0.40","spark_pilot_norest","10608","3","8","Male","","false","","","","","[520,1.2000000029802322]","./assets/img/ocean/memory/13.jpg","[""ArrowDown"",""ArrowRight""]","value training","ocean","30","{""ArrowUp,ArrowLeft"":23,""ArrowUp,ArrowRight"":10,""ArrowDown,ArrowLeft"":8,""ArrowDown,ArrowRight"":30}","true","ArrowDown,ArrowRight","false","original","1","80","","",""
"html-keyboard-response","198","956245","0.0-4.0-2.0-1.40","spark_pilot_norest","10608","3","8","Male","","","","","","","null","<div style=""font-size:60px;"">+</div>","null","fixation","","","","","","","","","81","","",""
"revaluation","199","960248","0.0-4.0-2.0-0.41","spark_pilot_norest","10608","3","8","Male","","false","","","","","[1325.4000000059605]","./assets/img/ocean/catch/2.jpg","[""spaceBar""]","value training","ocean","0","{""ArrowUp,ArrowLeft"":23,""ArrowUp,ArrowRight"":10,""ArrowDown,ArrowLeft"":8,""ArrowDown,ArrowRight"":30}","true","spaceBar","true","original","1","82","","",""
"html-keyboard-response","200","960751","0.0-4.0-2.0-1.41","spark_pilot_norest","10608","3","8","Male","","","","","","","null","<div style=""font-size:60px;"">+</div>","null","fixation","","","","","","","","","83","","",""
"revaluation","201","966758","0.0-4.0-2.0-0.42","spark_pilot_norest","10608","3","8","Male","","false","","","","","[315.40000000596046,74]","./assets/img/ocean/memory/16.jpg","[""ArrowDown"",""ArrowRight""]","value training","ocean","30","{""ArrowUp,ArrowLeft"":23,""ArrowUp,ArrowRight"":10,""ArrowDown,ArrowLeft"":8,""ArrowDown,ArrowRight"":30}","true","ArrowDown,ArrowRight","false","original","1","84","","",""
"html-keyboard-response","202","967259","0.0-4.0-2.0-1.42","spark_pilot_norest","10608","3","8","Male","","","","","","","null","<div style=""font-size:60px;"">+</div>","null","fixation","","","","","","","","","85","","",""
"revaluation","203","973263","0.0-4.0-2.0-0.43","spark_pilot_norest","10608","3","8","Male","","false","","","","","[576.5999999940395,525.4000000059605]","./assets/img/ocean/memory/14.jpg","[""ArrowDown"",""ArrowRight""]","value training","ocean","30","{""ArrowUp,ArrowLeft"":23,""ArrowUp,ArrowRight"":10,""ArrowDown,ArrowLeft"":8,""ArrowDown,ArrowRight"":30}","true","ArrowDown,ArrowRight","false","original","1","86","","",""
"html-keyboard-response","204","973767","0.0-4.0-2.0-1.43","spark_pilot_norest","10608","3","8","Male","","","","","","","null","<div style=""font-size:60px;"">+</div>","null","fixation","","","","","","","","","87","","",""
"revaluation","205","979770","0.0-4.0-2.0-0.44","spark_pilot_norest","10608","3","8","Male","","false","","","","","[651.2000000029802,394]","./assets/img/ocean/memory/7.jpg","[""ArrowDown"",""ArrowRight""]","value training","ocean","30","{""ArrowUp,ArrowLeft"":23,""ArrowUp,ArrowRight"":10,""ArrowDown,ArrowLeft"":8,""ArrowDown,ArrowRight"":30}","true","ArrowDown,ArrowRight","false","original","1","88","","",""
"html-keyboard-response","206","980271","0.0-4.0-2.0-1.44","spark_pilot_norest","10608","3","8","Male","","","","","","","null","<div style=""font-size:60px;"">+</div>","null","fixation","","","","","","","","","89","","",""
"revaluation","207","986275","0.0-4.0-2.0-0.45","spark_pilot_norest","10608","3","8","Male","","false","","","","","[802.2999999970198,689.6000000089407]","./assets/img/ocean/memory/5.jpg","[""ArrowDown"",""ArrowRight""]","value training","ocean","30","{""ArrowUp,ArrowLeft"":23,""ArrowUp,ArrowRight"":10,""ArrowDown,ArrowLeft"":8,""ArrowDown,ArrowRight"":30}","true","ArrowDown,ArrowRight","false","original","1","90","","",""
"html-keyboard-response","208","986778","0.0-4.0-2.0-1.45","spark_pilot_norest","10608","3","8","Male","","","","","","","null","<div style=""font-size:60px;"">+</div>","null","fixation","","","","","","","","","91","","",""
"revaluation","209","992781","0.0-4.0-2.0-0.46","spark_pilot_norest","10608","3","8","Male","","false","","","","","[665.5,703.4000000059605]","./assets/img/ocean/memory/39.jpg","[""ArrowDown"",""ArrowRight""]","value training","ocean","30","{""ArrowUp,ArrowLeft"":23,""ArrowUp,ArrowRight"":10,""ArrowDown,ArrowLeft"":8,""ArrowDown,ArrowRight"":30}","true","ArrowDown,ArrowRight","false","original","1","92","","",""
"html-keyboard-response","210","993283","0.0-4.0-2.0-1.46","spark_pilot_norest","10608","3","8","Male","","","","","","","null","<div style=""font-size:60px;"">+</div>","null","fixation","","","","","","","","","93","","",""
"revaluation","211","999287","0.0-4.0-2.0-0.47","spark_pilot_norest","10608","3","8","Male","","false","","","","","[734.8999999910593,926]","./assets/img/ocean/memory/39.jpg","[""ArrowDown"",""ArrowRight""]","value training","ocean","30","{""ArrowUp,ArrowLeft"":23,""ArrowUp,ArrowRight"":10,""ArrowDown,ArrowLeft"":8,""ArrowDown,ArrowRight"":30}","true","ArrowDown,ArrowRight","false","original","1","94","","",""
"html-keyboard-response","212","999787","0.0-4.0-2.0-1.47","spark_pilot_norest","10608","3","8","Male","","","","","","","null","<div style=""font-size:60px;"">+</div>","null","fixation","","","","","","","","","95","","",""
"revaluation","213","1005790","0.0-4.0-2.0-0.48","spark_pilot_norest","10608","3","8","Male","","false","","","","","[550.3999999910593,473.90000000596046]","./assets/img/ocean/memory/19.jpg","[""ArrowDown"",""ArrowRight""]","value training","ocean","30","{""ArrowUp,ArrowLeft"":23,""ArrowUp,ArrowRight"":10,""ArrowDown,ArrowLeft"":8,""ArrowDown,ArrowRight"":30}","true","ArrowDown,ArrowRight","false","original","1","96","","",""
"html-keyboard-response","214","1006292","0.0-4.0-2.0-1.48","spark_pilot_norest","10608","3","8","Male","","","","","","","null","<div style=""font-size:60px;"">+</div>","null","fixation","","","","","","","","","97","","",""
"revaluation","215","1012296","0.0-4.0-2.0-0.49","spark_pilot_norest","10608","3","8","Male","","false","","","","","[502.70000000298023,485.20000000298023]","./assets/img/ocean/memory/25.jpg","[""ArrowDown"",""ArrowRight""]","value training","ocean","30","{""ArrowUp,ArrowLeft"":23,""ArrowUp,ArrowRight"":10,""ArrowDown,ArrowLeft"":8,""ArrowDown,ArrowRight"":30}","true","ArrowDown,ArrowRight","false","original","1","98","","",""
"html-keyboard-response","216","1012798","0.0-4.0-2.0-1.49","spark_pilot_norest","10608","3","8","Male","","","","","","","null","<div style=""font-size:60px;"">+</div>","null","fixation","","","","","","","","","99","","",""
"learning-instructions","217","1028080","0.0-4.0-3.0-0.0","spark_pilot_norest","10608","3","8","Male","","","","","","","2371.7000000029802","<p> Now, you will travel with a friend who will choose whether you go up or down first. </p>
            <p> On these turns, you will just see the animal that they found. You will still get to choose which chest to search for treasure.</p>","","instructions","","","","","","","","","","","",""
"revaluation","218","1032095","0.0-4.0-4.0-0.0","spark_pilot_norest","10608","3","8","Male","","true","","","","","[]","./assets/img/ocean/animals/seahorse.jpg","[]","revaluation","ocean","-5","{""ArrowUp,ArrowLeft"":23,""ArrowUp,ArrowRight"":10,""ArrowDown,ArrowLeft"":8,""ArrowDown,ArrowRight"":30}","false","ArrowUp","","original","1","0","","",""
"html-keyboard-response","219","1032610","0.0-4.0-4.0-1.0","spark_pilot_norest","10608","3","8","Male","","","","","","","null","<div style=""font-size:60px;"">+</div>","null","fixation","","","","","","","","","1","","",""
"revaluation","220","1036618","0.0-4.0-4.0-0.1","spark_pilot_norest","10608","3","8","Male","","false","","","","","[384.1000000089407]","./assets/img/ocean/animals/seahorse.jpg","[""ArrowRight""]","revaluation","ocean","10","{""ArrowUp,ArrowLeft"":23,""ArrowUp,ArrowRight"":10,""ArrowDown,ArrowLeft"":8,""ArrowDown,ArrowRight"":30}","false","ArrowUp,ArrowRight","","original","1","2","","",""
"html-keyboard-response","221","1037133","0.0-4.0-4.0-1.1","spark_pilot_norest","10608","3","8","Male","","","","","","","null","<div style=""font-size:60px;"">+</div>","null","fixation","","","","","","","","","3","","",""
"revaluation","222","1041156","0.0-4.0-4.0-0.2","spark_pilot_norest","10608","3","8","Male","","false","","","","","[396.8999999910593]","./assets/img/ocean/animals/seahorse.jpg","[""ArrowLeft""]","revaluation","ocean","23","{""ArrowUp,ArrowLeft"":23,""ArrowUp,ArrowRight"":10,""ArrowDown,ArrowLeft"":8,""ArrowDown,ArrowRight"":30}","true","ArrowUp,ArrowLeft","","original","1","4","","",""
"html-keyboard-response","223","1041659","0.0-4.0-4.0-1.2","spark_pilot_norest","10608","3","8","Male","","","","","","","null","<div style=""font-size:60px;"">+</div>","null","fixation","","","","","","","","","5","","",""
"revaluation","224","1045676","0.0-4.0-4.0-0.3","spark_pilot_norest","10608","3","8","Male","","false","","","","","[502.59999999403954]","./assets/img/ocean/animals/seahorse.jpg","[""ArrowLeft""]","revaluation","ocean","23","{""ArrowUp,ArrowLeft"":23,""ArrowUp,ArrowRight"":10,""ArrowDown,ArrowLeft"":8,""ArrowDown,ArrowRight"":30}","true","ArrowUp,ArrowLeft","","original","1","6","","",""
"html-keyboard-response","225","1046180","0.0-4.0-4.0-1.3","spark_pilot_norest","10608","3","8","Male","","","","","","","null","<div style=""font-size:60px;"">+</div>","null","fixation","","","","","","","","","7","","",""
"revaluation","226","1050198","0.0-4.0-4.0-0.4","spark_pilot_norest","10608","3","8","Male","","false","","","","","[918.2000000029802]","./assets/img/ocean/animals/octopus.jpg","[""ArrowRight""]","revaluation","ocean","30","{""ArrowUp,ArrowLeft"":23,""ArrowUp,ArrowRight"":10,""ArrowDown,ArrowLeft"":8,""ArrowDown,ArrowRight"":30}","true","ArrowDown,ArrowRight","","original","1","8","","",""
"html-keyboard-response","227","1050699","0.0-4.0-4.0-1.4","spark_pilot_norest","10608","3","8","Male","","","","","","","null","<div style=""font-size:60px;"">+</div>","null","fixation","","","","","","","","","9","","",""
"revaluation","228","1054729","0.0-4.0-4.0-0.5","spark_pilot_norest","10608","3","8","Male","","true","","","","","[]","./assets/img/ocean/animals/octopus.jpg","[]","revaluation","ocean","-5","{""ArrowUp,ArrowLeft"":23,""ArrowUp,ArrowRight"":10,""ArrowDown,ArrowLeft"":8,""ArrowDown,ArrowRight"":30}","false","ArrowDown","","original","1","10","","",""
"html-keyboard-response","229","1055243","0.0-4.0-4.0-1.5","spark_pilot_norest","10608","3","8","Male","","","","","","","null","<div style=""font-size:60px;"">+</div>","null","fixation","","","","","","","","","11","","",""
"revaluation","230","1059247","0.0-4.0-4.0-0.6","spark_pilot_norest","10608","3","8","Male","","false","","","","","[630.4000000059605]","./assets/img/ocean/animals/octopus.jpg","[""ArrowRight""]","revaluation","ocean","30","{""ArrowUp,ArrowLeft"":23,""ArrowUp,ArrowRight"":10,""ArrowDown,ArrowLeft"":8,""ArrowDown,ArrowRight"":30}","true","ArrowDown,ArrowRight","","original","1","12","","",""
"html-keyboard-response","231","1059749","0.0-4.0-4.0-1.6","spark_pilot_norest","10608","3","8","Male","","","","","","","null","<div style=""font-size:60px;"">+</div>","null","fixation","","","","","","","","","13","","",""
"revaluation","232","1063752","0.0-4.0-4.0-0.7","spark_pilot_norest","10608","3","8","Male","","false","","","","","[1350.5999999940395]","./assets/img/ocean/animals/octopus.jpg","[""ArrowRight""]","revaluation","ocean","30","{""ArrowUp,ArrowLeft"":23,""ArrowUp,ArrowRight"":10,""ArrowDown,ArrowLeft"":8,""ArrowDown,ArrowRight"":30}","true","ArrowDown,ArrowRight","","original","1","14","","",""
"html-keyboard-response","233","1064254","0.0-4.0-4.0-1.7","spark_pilot_norest","10608","3","8","Male","","","","","","","null","<div style=""font-size:60px;"">+</div>","null","fixation","","","","","","","","","15","","",""
"revaluation","234","1068258","0.0-4.0-4.0-0.8","spark_pilot_norest","10608","3","8","Male","","false","","","","","[829.9000000059605]","./assets/img/ocean/animals/seahorse.jpg","[""ArrowLeft""]","revaluation","ocean","23","{""ArrowUp,ArrowLeft"":23,""ArrowUp,ArrowRight"":10,""ArrowDown,ArrowLeft"":8,""ArrowDown,ArrowRight"":30}","true","ArrowUp,ArrowLeft","","original","1","16","","",""
"html-keyboard-response","235","1068760","0.0-4.0-4.0-1.8","spark_pilot_norest","10608","3","8","Male","","","","","","","null","<div style=""font-size:60px;"">+</div>","null","fixation","","","","","","","","","17","","",""
"revaluation","236","1072762","0.0-4.0-4.0-0.9","spark_pilot_norest","10608","3","8","Male","","false","","","","","[1369.7000000029802]","./assets/img/ocean/animals/seahorse.jpg","[""ArrowLeft""]","revaluation","ocean","23","{""ArrowUp,ArrowLeft"":23,""ArrowUp,ArrowRight"":10,""ArrowDown,ArrowLeft"":8,""ArrowDown,ArrowRight"":30}","true","ArrowUp,ArrowLeft","","original","1","18","","",""
"html-keyboard-response","237","1073263","0.0-4.0-4.0-1.9","spark_pilot_norest","10608","3","8","Male","","","","","","","null","<div style=""font-size:60px;"">+</div>","null","fixation","","","","","","","","","19","","",""
"revaluation","238","1077266","0.0-4.0-4.0-0.10","spark_pilot_norest","10608","3","8","Male","","false","","","","","[1225.5999999940395]","./assets/img/ocean/animals/seahorse.jpg","[""ArrowLeft""]","revaluation","ocean","23","{""ArrowUp,ArrowLeft"":23,""ArrowUp,ArrowRight"":10,""ArrowDown,ArrowLeft"":8,""ArrowDown,ArrowRight"":30}","true","ArrowUp,ArrowLeft","","original","1","20","","",""
"html-keyboard-response","239","1077768","0.0-4.0-4.0-1.10","spark_pilot_norest","10608","3","8","Male","","","","","","","null","<div style=""font-size:60px;"">+</div>","null","fixation","","","","","","","","","21","","",""
"revaluation","240","1081772","0.0-4.0-4.0-0.11","spark_pilot_norest","10608","3","8","Male","","false","","","","","[627.4000000059605]","./assets/img/ocean/animals/octopus.jpg","[""ArrowRight""]","revaluation","ocean","30","{""ArrowUp,ArrowLeft"":23,""ArrowUp,ArrowRight"":10,""ArrowDown,ArrowLeft"":8,""ArrowDown,ArrowRight"":30}","true","ArrowDown,ArrowRight","","original","1","22","","",""
"html-keyboard-response","241","1082273","0.0-4.0-4.0-1.11","spark_pilot_norest","10608","3","8","Male","","","","","","","null","<div style=""font-size:60px;"">+</div>","null","fixation","","","","","","","","","23","","",""
"revaluation","242","1086276","0.0-4.0-4.0-0.12","spark_pilot_norest","10608","3","8","Male","","false","","","","","[1088.2999999970198]","./assets/img/ocean/animals/octopus.jpg","[""ArrowRight""]","revaluation","ocean","30","{""ArrowUp,ArrowLeft"":23,""ArrowUp,ArrowRight"":10,""ArrowDown,ArrowLeft"":8,""ArrowDown,ArrowRight"":30}","true","ArrowDown,ArrowRight","","original","1","24","","",""
"html-keyboard-response","243","1086777","0.0-4.0-4.0-1.12","spark_pilot_norest","10608","3","8","Male","","","","","","","null","<div style=""font-size:60px;"">+</div>","null","fixation","","","","","","","","","25","","",""
"revaluation","244","1090780","0.0-4.0-4.0-0.13","spark_pilot_norest","10608","3","8","Male","","false","","","","","[585]","./assets/img/ocean/animals/octopus.jpg","[""ArrowRight""]","revaluation","ocean","30","{""ArrowUp,ArrowLeft"":23,""ArrowUp,ArrowRight"":10,""ArrowDown,ArrowLeft"":8,""ArrowDown,ArrowRight"":30}","true","ArrowDown,ArrowRight","","original","1","26","","",""
"html-keyboard-response","245","1091282","0.0-4.0-4.0-1.13","spark_pilot_norest","10608","3","8","Male","","","","","","","null","<div style=""font-size:60px;"">+</div>","null","fixation","","","","","","","","","27","","",""
"revaluation","246","1095285","0.0-4.0-4.0-0.14","spark_pilot_norest","10608","3","8","Male","","false","","","","","[815.8999999910593]","./assets/img/ocean/animals/octopus.jpg","[""ArrowRight""]","revaluation","ocean","30","{""ArrowUp,ArrowLeft"":23,""ArrowUp,ArrowRight"":10,""ArrowDown,ArrowLeft"":8,""ArrowDown,ArrowRight"":30}","true","ArrowDown,ArrowRight","","original","1","28","","",""
"html-keyboard-response","247","1095786","0.0-4.0-4.0-1.14","spark_pilot_norest","10608","3","8","Male","","","","","","","null","<div style=""font-size:60px;"">+</div>","null","fixation","","","","","","","","","29","","",""
"revaluation","248","1099790","0.0-4.0-4.0-0.15","spark_pilot_norest","10608","3","8","Male","","false","","","","","[487.80000001192093]","./assets/img/ocean/animals/octopus.jpg","[""ArrowRight""]","revaluation","ocean","30","{""ArrowUp,ArrowLeft"":23,""ArrowUp,ArrowRight"":10,""ArrowDown,ArrowLeft"":8,""ArrowDown,ArrowRight"":30}","true","ArrowDown,ArrowRight","","original","1","30","","",""
"html-keyboard-response","249","1100291","0.0-4.0-4.0-1.15","spark_pilot_norest","10608","3","8","Male","","","","","","","null","<div style=""font-size:60px;"">+</div>","null","fixation","","","","","","","","","31","","",""
"revaluation","250","1104292","0.0-4.0-4.0-0.16","spark_pilot_norest","10608","3","8","Male","","false","","","","","[746.3000000119209]","./assets/img/ocean/animals/seahorse.jpg","[""ArrowLeft""]","revaluation","ocean","23","{""ArrowUp,ArrowLeft"":23,""ArrowUp,ArrowRight"":10,""ArrowDown,ArrowLeft"":8,""ArrowDown,ArrowRight"":30}","true","ArrowUp,ArrowLeft","","original","1","32","","",""
"html-keyboard-response","251","1104793","0.0-4.0-4.0-1.16","spark_pilot_norest","10608","3","8","Male","","","","","","","null","<div style=""font-size:60px;"">+</div>","null","fixation","","","","","","","","","33","","",""
"revaluation","252","1108797","0.0-4.0-4.0-0.17","spark_pilot_norest","10608","3","8","Male","","false","","","","","[1328.800000011921]","./assets/img/ocean/animals/seahorse.jpg","[""ArrowLeft""]","revaluation","ocean","23","{""ArrowUp,ArrowLeft"":23,""ArrowUp,ArrowRight"":10,""ArrowDown,ArrowLeft"":8,""ArrowDown,ArrowRight"":30}","true","ArrowUp,ArrowLeft","","original","1","34","","",""
"html-keyboard-response","253","1109299","0.0-4.0-4.0-1.17","spark_pilot_norest","10608","3","8","Male","","","","","","","null","<div style=""font-size:60px;"">+</div>","null","fixation","","","","","","","","","35","","",""
"learning-instructions","254","1117442","0.0-4.0-5.0-0.0","spark_pilot_norest","10608","3","8","Male","","","","","","","null","<p> You have almost finished this part of the game! </p>
            <p> We are going to ask you to make a few more choices. </p>","","instructions","","","","","","","","","","","",""
"learning-instructions","255","1133423","0.0-4.0-5.0-0.1","spark_pilot_norest","10608","3","8","Male","","","","","","","null","<p> First, you need to decide whether to go up or down. When you see each picture, use the arrow keys to make your choice. </p>
            <p><b>You will not see which animal you found, but try to get to the one that will give you the most treasure.</b></p>","","instructions","","","","","","","","","","","",""
"html-keyboard-response","256","1134437","0.0-4.0-6.0-0.0","spark_pilot_norest","10608","3","8","Male","","","","","","","null","<div style=""font-size:100px;color:red;"">Starting in...</div>","null","","","","","","","","","","","","",""
"html-keyboard-response","257","1135439","0.0-4.0-6.0-1.0","spark_pilot_norest","10608","3","8","Male","","","","","","","null","<div style=""font-size:200px;color:red;"">3</div>","null","","","","","","","","","","","","",""
"html-keyboard-response","258","1136441","0.0-4.0-6.0-2.0","spark_pilot_norest","10608","3","8","Male","","","","","","","null","<div style=""font-size:200px;color:red;"">2</div>","null","","","","","","","","","","","","",""
"html-keyboard-response","259","1137455","0.0-4.0-6.0-3.0","spark_pilot_norest","10608","3","8","Male","","","","","","","null","<div style=""font-size:200px;color:red;"">1</div>","null","","","","","","","","","","","","",""
"revaluation","260","1138243","0.0-4.0-7.0-0.0","spark_pilot_norest","10608","3","8","Male","","false","","","","","[786.5999999940395]","./assets/img/ocean/test/1.jpg","[""ArrowUp""]","first stage test","ocean","0","{""ArrowUp,ArrowLeft"":23,""ArrowUp,ArrowRight"":10,""ArrowDown,ArrowLeft"":8,""ArrowDown,ArrowRight"":30}","false","ArrowUp","false","original","1","","","",""
"html-keyboard-response","261","1138749","0.0-4.0-7.0-1.0","spark_pilot_norest","10608","3","8","Male","","","","","","","null","<div style=""font-size:60px;"">+</div>","null","fixation","","","","","","","","","","","",""
"revaluation","262","1139699","0.0-4.0-7.0-0.1","spark_pilot_norest","10608","3","8","Male","","false","","","","","[948]","./assets/img/ocean/test/0.jpg","[""ArrowUp""]","first stage test","ocean","0","{""ArrowUp,ArrowLeft"":23,""ArrowUp,ArrowRight"":10,""ArrowDown,ArrowLeft"":8,""ArrowDown,ArrowRight"":30}","false","ArrowUp","false","original","1","","","",""
"html-keyboard-response","263","1140204","0.0-4.0-7.0-1.1","spark_pilot_norest","10608","3","8","Male","","","","","","","null","<div style=""font-size:60px;"">+</div>","null","fixation","","","","","","","","","","","",""
"revaluation","264","1140867","0.0-4.0-7.0-0.2","spark_pilot_norest","10608","3","8","Male","","false","","","","","[661.9000000059605]","./assets/img/ocean/test/2.jpg","[""ArrowUp""]","first stage test","ocean","0","{""ArrowUp,ArrowLeft"":23,""ArrowUp,ArrowRight"":10,""ArrowDown,ArrowLeft"":8,""ArrowDown,ArrowRight"":30}","false","ArrowUp","false","original","1","","","",""
"html-keyboard-response","265","1141375","0.0-4.0-7.0-1.2","spark_pilot_norest","10608","3","8","Male","","","","","","","null","<div style=""font-size:60px;"">+</div>","null","fixation","","","","","","","","","","","",""
"revaluation","266","1141828","0.0-4.0-7.0-0.3","spark_pilot_norest","10608","3","8","Male","","false","","","","","[450.90000000596046]","./assets/img/ocean/test/3.jpg","[""ArrowDown""]","first stage test","ocean","0","{""ArrowUp,ArrowLeft"":23,""ArrowUp,ArrowRight"":10,""ArrowDown,ArrowLeft"":8,""ArrowDown,ArrowRight"":30}","true","ArrowDown","false","original","1","","","",""
"html-keyboard-response","267","1142331","0.0-4.0-7.0-1.3","spark_pilot_norest","10608","3","8","Male","","","","","","","null","<div style=""font-size:60px;"">+</div>","null","fixation","","","","","","","","","","","",""
"learning-instructions","268","1155678","0.0-4.0-8.0-0.0","spark_pilot_norest","10608","3","8","Male","","","","","","","null","<p> Now you will see the animals again and can search their chests for treasure. </p>
            <p> This time, you will not see how much treasure you earned, but you will earn more bonus money for making better choices. </p>","","instructions","","","","","","","","","","","",""
"html-keyboard-response","269","1156688","0.0-4.0-9.0-0.0","spark_pilot_norest","10608","3","8","Male","","","","","","","null","<div style=""font-size:100px;color:red;"">Starting in...</div>","null","","","","","","","","","","","","",""
"html-keyboard-response","270","1157690","0.0-4.0-9.0-1.0","spark_pilot_norest","10608","3","8","Male","","","","","","","null","<div style=""font-size:200px;color:red;"">3</div>","null","","","","","","","","","","","","",""
"html-keyboard-response","271","1158692","0.0-4.0-9.0-2.0","spark_pilot_norest","10608","3","8","Male","","","","","","","null","<div style=""font-size:200px;color:red;"">2</div>","null","","","","","","","","","","","","",""
"html-keyboard-response","272","1159707","0.0-4.0-9.0-3.0","spark_pilot_norest","10608","3","8","Male","","","","","","","null","<div style=""font-size:200px;color:red;"">1</div>","null","","","","","","","","","","","","",""
"revaluation","273","1160395","0.0-4.0-10.0-0.0","spark_pilot_norest","10608","3","8","Male","","false","","","","","[687]","./assets/img/ocean/animals/seahorse.jpg","[""ArrowRight""]","second stage test","ocean","0","{""ArrowUp,ArrowLeft"":23,""ArrowUp,ArrowRight"":10,""ArrowDown,ArrowLeft"":8,""ArrowDown,ArrowRight"":30}","false","ArrowUp,ArrowRight","","original","1","","","",""
"html-keyboard-response","274","1160897","0.0-4.0-10.0-1.0","spark_pilot_norest","10608","3","8","Male","","","","","","","null","<div style=""font-size:60px;"">+</div>","null","fixation","","","","","","","","","","","",""
"revaluation","275","1161403","0.0-4.0-10.0-0.1","spark_pilot_norest","10608","3","8","Male","","false","","","","","[504.59999999403954]","./assets/img/ocean/animals/seahorse.jpg","[""ArrowRight""]","second stage test","ocean","0","{""ArrowUp,ArrowLeft"":23,""ArrowUp,ArrowRight"":10,""ArrowDown,ArrowLeft"":8,""ArrowDown,ArrowRight"":30}","false","ArrowUp,ArrowRight","","original","1","","","",""
"html-keyboard-response","276","1161916","0.0-4.0-10.0-1.1","spark_pilot_norest","10608","3","8","Male","","","","","","","null","<div style=""font-size:60px;"">+</div>","null","fixation","","","","","","","","","","","",""
"revaluation","277","1161918","0.0-4.0-10.0-0.2","spark_pilot_norest","10608","3","8","Male","","false","","","","","[0.09999999403953552]","./assets/img/ocean/animals/seahorse.jpg","[""ArrowRight""]","second stage test","ocean","0","{""ArrowUp,ArrowLeft"":23,""ArrowUp,ArrowRight"":10,""ArrowDown,ArrowLeft"":8,""ArrowDown,ArrowRight"":30}","false","ArrowUp,ArrowRight","","original","1","","","",""
"html-keyboard-response","278","1162433","0.0-4.0-10.0-1.2","spark_pilot_norest","10608","3","8","Male","","","","","","","null","<div style=""font-size:60px;"">+</div>","null","fixation","","","","","","","","","","","",""
"revaluation","279","1162435","0.0-4.0-10.0-0.3","spark_pilot_norest","10608","3","8","Male","","false","","","","","[0.4000000059604645]","./assets/img/ocean/animals/seahorse.jpg","[""ArrowRight""]","second stage test","ocean","0","{""ArrowUp,ArrowLeft"":23,""ArrowUp,ArrowRight"":10,""ArrowDown,ArrowLeft"":8,""ArrowDown,ArrowRight"":30}","false","ArrowUp,ArrowRight","","original","1","","","",""
"html-keyboard-response","280","1162948","0.0-4.0-10.0-1.3","spark_pilot_norest","10608","3","8","Male","","","","","","","null","<div style=""font-size:60px;"">+</div>","null","fixation","","","","","","","","","","","",""
"revaluation","281","1163747","0.0-4.0-10.0-0.4","spark_pilot_norest","10608","3","8","Male","","false","","","","","[797.4000000059605]","./assets/img/ocean/animals/octopus.jpg","[""ArrowRight""]","second stage test","ocean","0","{""ArrowUp,ArrowLeft"":23,""ArrowUp,ArrowRight"":10,""ArrowDown,ArrowLeft"":8,""ArrowDown,ArrowRight"":30}","true","ArrowDown,ArrowRight","","original","1","","","",""
"html-keyboard-response","282","1164256","0.0-4.0-10.0-1.4","spark_pilot_norest","10608","3","8","Male","","","","","","","null","<div style=""font-size:60px;"">+</div>","null","fixation","","","","","","","","","","","",""
"revaluation","283","1164971","0.0-4.0-10.0-0.5","spark_pilot_norest","10608","3","8","Male","","false","","","","","[713.7999999970198]","./assets/img/ocean/animals/octopus.jpg","[""ArrowRight""]","second stage test","ocean","0","{""ArrowUp,ArrowLeft"":23,""ArrowUp,ArrowRight"":10,""ArrowDown,ArrowLeft"":8,""ArrowDown,ArrowRight"":30}","true","ArrowDown,ArrowRight","","original","1","","","",""
"html-keyboard-response","284","1165479","0.0-4.0-10.0-1.5","spark_pilot_norest","10608","3","8","Male","","","","","","","null","<div style=""font-size:60px;"">+</div>","null","fixation","","","","","","","","","","","",""
"revaluation","285","1165899","0.0-4.0-10.0-0.6","spark_pilot_norest","10608","3","8","Male","","false","","","","","[418.79999999701977]","./assets/img/ocean/animals/octopus.jpg","[""ArrowRight""]","second stage test","ocean","0","{""ArrowUp,ArrowLeft"":23,""ArrowUp,ArrowRight"":10,""ArrowDown,ArrowLeft"":8,""ArrowDown,ArrowRight"":30}","true","ArrowDown,ArrowRight","","original","1","","","",""
"html-keyboard-response","286","1166401","0.0-4.0-10.0-1.6","spark_pilot_norest","10608","3","8","Male","","","","","","","null","<div style=""font-size:60px;"">+</div>","null","fixation","","","","","","","","","","","",""
"revaluation","287","1166837","0.0-4.0-10.0-0.7","spark_pilot_norest","10608","3","8","Male","","false","","","","","[434.20000000298023]","./assets/img/ocean/animals/octopus.jpg","[""ArrowRight""]","second stage test","ocean","0","{""ArrowUp,ArrowLeft"":23,""ArrowUp,ArrowRight"":10,""ArrowDown,ArrowLeft"":8,""ArrowDown,ArrowRight"":30}","true","ArrowDown,ArrowRight","","original","1","","","",""
"html-keyboard-response","288","1167340","0.0-4.0-10.0-1.7","spark_pilot_norest","10608","3","8","Male","","","","","","","null","<div style=""font-size:60px;"">+</div>","null","fixation","","","","","","","","","","","",""
"learning-instructions","289","1173344","0.0-4.0-0.1-0.2","spark_pilot_norest","10608","3","8","Male","","","","","","","3245.7000000029802","<p> This time you are searching for treasure in the <b>canyon</b>.</p>","","instructions","","","","","","","","","","","",""
"learning-instructions","290","1195832","0.0-4.0-0.1-0.3","spark_pilot_norest","10608","3","8","Male","","","","","","","5233.29999999702","<p><b>New</b> animals with <b>new</b> treasure chests live here. You need to explore to discover where the animal with the best treasure chest is.</p>
                    <p> Like before, once you figure out which animal has the chest with the most treasure, you should try to get to that animal and select that chest! </p>","","instructions","","","","","","","","","","","",""
"learning-instructions","291","1212064","0.0-4.0-1.1-0.1","spark_pilot_norest","10608","3","8","Male","","","","","","","1505.7999999970198","<p> Remember, when you see a picture of the place, use the up and down keys to <b>find an animal</b>.</p>
            <p> When you encounter an animal, you should use the left and right keys to <b>select a treasure chest</b>.</p>
            <p> Don't forget to look out for the robber! </p>","","instructions","","","","","","","","","","","",""
"revaluation","292","1218075","0.0-4.0-2.1-0.50","spark_pilot_norest","10608","3","8","Male","","false","","","","","[1714.2000000029802,922]","./assets/img/canyon/memory/25.jpg","[""ArrowUp"",""ArrowRight""]","value training","canyon","10","{""ArrowUp,ArrowLeft"":26,""ArrowUp,ArrowRight"":10,""ArrowDown,ArrowLeft"":5,""ArrowDown,ArrowRight"":17}","false","ArrowUp,ArrowRight","false","revaluation","2","0","","",""
"html-keyboard-response","293","1218576","0.0-4.0-2.1-1.50","spark_pilot_norest","10608","3","8","Male","","","","","","","null","<div style=""font-size:60px;"">+</div>","null","fixation","","","","","","","","","1","","",""
"revaluation","294","1222587","0.0-4.0-2.1-0.51","spark_pilot_norest","10608","3","8","Male","","false","","","","","[940.2999999970198]","./assets/img/canyon/catch/5.jpg","[""ArrowUp""]","value training","canyon","-10","{""ArrowUp,ArrowLeft"":26,""ArrowUp,ArrowRight"":10,""ArrowDown,ArrowLeft"":5,""ArrowDown,ArrowRight"":17}","false","ArrowUp","true","revaluation","2","2","","",""
"html-keyboard-response","295","1223104","0.0-4.0-2.1-1.51","spark_pilot_norest","10608","3","8","Male","","","","","","","null","<div style=""font-size:60px;"">+</div>","null","fixation","","","","","","","","","3","","",""
"revaluation","296","1229134","0.0-4.0-2.1-0.52","spark_pilot_norest","10608","3","8","Male","","false","","","","","[778.3000000119209,296.30000001192093]","./assets/img/canyon/memory/5.jpg","[""ArrowDown"",""ArrowRight""]","value training","canyon","17","{""ArrowUp,ArrowLeft"":26,""ArrowUp,ArrowRight"":10,""ArrowDown,ArrowLeft"":5,""ArrowDown,ArrowRight"":17}","false","ArrowDown,ArrowRight","false","revaluation","2","4","","",""
"html-keyboard-response","297","1229650","0.0-4.0-2.1-1.52","spark_pilot_norest","10608","3","8","Male","","","","","","","null","<div style=""font-size:60px;"">+</div>","null","fixation","","","","","","","","","5","","",""
"revaluation","298","1235675","0.0-4.0-2.1-0.53","spark_pilot_norest","10608","3","8","Male","","false","","","","","[222.79999999701977,114.79999999701977]","./assets/img/canyon/memory/21.jpg","[""ArrowUp"",""ArrowLeft""]","value training","canyon","26","{""ArrowUp,ArrowLeft"":26,""ArrowUp,ArrowRight"":10,""ArrowDown,ArrowLeft"":5,""ArrowDown,ArrowRight"":17}","true","ArrowUp,ArrowLeft","false","revaluation","2","6","","",""
"html-keyboard-response","299","1236189","0.0-4.0-2.1-1.53","spark_pilot_norest","10608","3","8","Male","","","","","","","null","<div style=""font-size:60px;"">+</div>","null","fixation","","","","","","","","","7","","",""
"revaluation","300","1242210","0.0-4.0-2.1-0.54","spark_pilot_norest","10608","3","8","Male","","false","","","","","[662.1000000089407,121.3999999910593]","./assets/img/canyon/memory/0.jpg","[""ArrowDown"",""ArrowLeft""]","value training","canyon","5","{""ArrowUp,ArrowLeft"":26,""ArrowUp,ArrowRight"":10,""ArrowDown,ArrowLeft"":5,""ArrowDown,ArrowRight"":17}","false","ArrowDown,ArrowLeft","false","revaluation","2","8","","",""
"html-keyboard-response","301","1242711","0.0-4.0-2.1-1.54","spark_pilot_norest","10608","3","8","Male","","","","","","","null","<div style=""font-size:60px;"">+</div>","null","fixation","","","","","","","","","9","","",""
"revaluation","302","1248715","0.0-4.0-2.1-0.55","spark_pilot_norest","10608","3","8","Male","","false","","","","","[426,41.5]","./assets/img/canyon/memory/11.jpg","[""ArrowUp"",""ArrowLeft""]","value training","canyon","26","{""ArrowUp,ArrowLeft"":26,""ArrowUp,ArrowRight"":10,""ArrowDown,ArrowLeft"":5,""ArrowDown,ArrowRight"":17}","true","ArrowUp,ArrowLeft","false","revaluation","2","10","","",""
"html-keyboard-response","303","1249215","0.0-4.0-2.1-1.55","spark_pilot_norest","10608","3","8","Male","","","","","","","null","<div style=""font-size:60px;"">+</div>","null","fixation","","","","","","","","","11","","",""
"revaluation","304","1255220","0.0-4.0-2.1-0.56","spark_pilot_norest","10608","3","8","Male","","false","","","","","[250.8999999910593,369.5]","./assets/img/canyon/memory/4.jpg","[""ArrowUp"",""ArrowLeft""]","value training","canyon","26","{""ArrowUp,ArrowLeft"":26,""ArrowUp,ArrowRight"":10,""ArrowDown,ArrowLeft"":5,""ArrowDown,ArrowRight"":17}","true","ArrowUp,ArrowLeft","false","revaluation","2","12","","",""
"html-keyboard-response","305","1255721","0.0-4.0-2.1-1.56","spark_pilot_norest","10608","3","8","Male","","","","","","","null","<div style=""font-size:60px;"">+</div>","null","fixation","","","","","","","","","13","","",""
"revaluation","306","1261725","0.0-4.0-2.1-0.57","spark_pilot_norest","10608","3","8","Male","","false","","","","","[713.7000000029802,359.6000000089407]","./assets/img/canyon/memory/4.jpg","[""ArrowUp"",""ArrowLeft""]","value training","canyon","26","{""ArrowUp,ArrowLeft"":26,""ArrowUp,ArrowRight"":10,""ArrowDown,ArrowLeft"":5,""ArrowDown,ArrowRight"":17}","true","ArrowUp,ArrowLeft","false","revaluation","2","14","","",""
"html-keyboard-response","307","1262227","0.0-4.0-2.1-1.57","spark_pilot_norest","10608","3","8","Male","","","","","","","null","<div style=""font-size:60px;"">+</div>","null","fixation","","","","","","","","","15","","",""
"revaluation","308","1268232","0.0-4.0-2.1-0.58","spark_pilot_norest","10608","3","8","Male","","false","","","","","[454.5,341.20000000298023]","./assets/img/canyon/memory/2.jpg","[""ArrowUp"",""ArrowLeft""]","value training","canyon","26","{""ArrowUp,ArrowLeft"":26,""ArrowUp,ArrowRight"":10,""ArrowDown,ArrowLeft"":5,""ArrowDown,ArrowRight"":17}","true","ArrowUp,ArrowLeft","false","revaluation","2","16","","",""
"html-keyboard-response","309","1268734","0.0-4.0-2.1-1.58","spark_pilot_norest","10608","3","8","Male","","","","","","","null","<div style=""font-size:60px;"">+</div>","null","fixation","","","","","","","","","17","","",""
"revaluation","310","1272736","0.0-4.0-2.1-0.59","spark_pilot_norest","10608","3","8","Male","","false","","","","","[876.5]","./assets/img/canyon/catch/2.jpg","[""spaceBar""]","value training","canyon","0","{""ArrowUp,ArrowLeft"":26,""ArrowUp,ArrowRight"":10,""ArrowDown,ArrowLeft"":5,""ArrowDown,ArrowRight"":17}","true","spaceBar","true","revaluation","2","18","","",""
"html-keyboard-response","311","1273237","0.0-4.0-2.1-1.59","spark_pilot_norest","10608","3","8","Male","","","","","","","null","<div style=""font-size:60px;"">+</div>","null","fixation","","","","","","","","","19","","",""
"revaluation","312","1279242","0.0-4.0-2.1-0.60","spark_pilot_norest","10608","3","8","Male","","false","","","","","[227.8999999910593,794.7999999970198]","./assets/img/canyon/memory/1.jpg","[""ArrowUp"",""ArrowLeft""]","value training","canyon","26","{""ArrowUp,ArrowLeft"":26,""ArrowUp,ArrowRight"":10,""ArrowDown,ArrowLeft"":5,""ArrowDown,ArrowRight"":17}","true","ArrowUp,ArrowLeft","false","revaluation","2","20","","",""
"html-keyboard-response","313","1279743","0.0-4.0-2.1-1.60","spark_pilot_norest","10608","3","8","Male","","","","","","","null","<div style=""font-size:60px;"">+</div>","null","fixation","","","","","","","","","21","","",""
