"trial_type","trial_index","time_elapsed","internal_node_id","task_version","subject_id","assigned_condition","age","gender","success","timeout","failed_images","failed_audio","failed_video","browser_interaction","value","rt","stimulus","response","task_part","environment","score","rewardMap","correct","fullState","isCatch","condition","order","trial_num","key_press","ground_truth","bonus"
"pavlovia","0","1308","0.0-0.0","spark_pilot_norest","9154","4","14","Female","","","","","","","","","","","","","","","","","","","","","","",""
"preload","1","12187","0.0-1.0","spark_pilot_norest","9154","4","14","Female","true","false","[]","[]","[]","[{""event"":""fullscreenenter"",""trial"":2,""time"":83438},{""event"":""blur"",""trial"":321,""time"":1354855},{""event"":""focus"",""trial"":321,""time"":1357433},{""event"":""blur"",""trial"":323,""time"":1360264},{""event"":""focus"",""trial"":323,""time"":1361298}]","","","","","","","","","","","","","","","","",""
"fullscreen","2","84160","0.0-2.0","spark_pilot_norest","9154","4","14","Female","true","","","","","","","","","","","","","","","","","","","","","",""
"call-function","3","86762","0.0-3.0","spark_pilot_norest","9154","4","14","Female","","","","","","","","","","","","","","","","","","","","","","",""
"audio-button-response","4","93542","0.0-4.0-0.0-0.0","spark_pilot_norest","9154","4","14","Female","","","","","","","","6536","./assets/audio/audiotest/turtle.mp3","4","audio_test","","","","","","","","","","","",""
"audio-button-response","5","98683","0.0-4.0-0.1-0.1","spark_pilot_norest","9154","4","14","Female","","","","","","","","4139","./assets/audio/audiotest/turtle.mp3","4","audio_test","","","","","","","","","","","",""
"audio-button-response","6","101687","0.0-4.0-0.2-0.2","spark_pilot_norest","9154","4","14","Female","","","","","","","","2003","./assets/audio/audiotest/turtle.mp3","4","audio_test","","","","","","","","","","","",""
"audio-button-response","7","106040","0.0-4.0-0.3-0.3","spark_pilot_norest","9154","4","14","Female","","","","","","","","3019","./assets/audio/audiotest/turtle.mp3","4","audio_test","","","","","","","","","","","",""
"audio-button-response","8","108707","0.0-4.0-0.4-0.4","spark_pilot_norest","9154","4","14","Female","","","","","","","","1666","./assets/audio/audiotest/turtle.mp3","2","audio_test","","","","","","","","","","","",""
"learning-instructions","9","119811","0.0-4.0-1.0-0.0","spark_pilot_norest","9154","4","14","Female","","","","","","","","4146","<p> Welcome! Please remember to stay in fullscreen mode and don't click away from the experiment. </p>","","instructions","","","","","","","","","","","",""
"learning-instructions","10","133120","0.0-4.0-1.0-0.1","spark_pilot_norest","9154","4","14","Female","","","","","","","","4916","<p> Today you will be playing a game to earn treasure. </p>
            <p> At the end of the experiment, you will earn a bonus based on how much treasure you find. </p>
            <img src='./assets/img/instructions/treasure.jpg' class='instructions-image'>","","instructions","","","","","","","","","","","",""
"learning-instructions","11","147340","0.0-4.0-1.0-0.2","spark_pilot_norest","9154","4","14","Female","","","","","","","","5979.999999999971","<p> Animals have hidden treasure in treasure chests. </p>
            <p> You need to first find an animal and then choose which of their treasure chests to search. </p>
            <img src='./assets/img/space/animals/cat.jpg' class='instructions-image'>","","instructions","","","","","","","","","","","",""
"learning-instructions","12","173812","0.0-4.0-1.0-0.3","spark_pilot_norest","9154","4","14","Female","","","","","","","","12454","<p> In each round, you will search for treasure in a different place. In the real game, there will be two rounds. </p>
            <p> You will begin with a separate, practice round where you will search for treasure in outer space. </p>
            <img src='./assets/img/space/0.jpg' class='instructions-image'>","","instructions","","","","","","","","","","","",""
"learning-instructions","13","188212","0.0-4.0-1.0-0.4","spark_pilot_norest","9154","4","14","Female","","","","","","","","3001","<p> On every turn, you will see a picture of the place that you are in, but the specific image may be different each time. </p>
            <p> For example, both of these images mean you are in outer space. </p>
            <img src='./assets/img/instructions/outerspace.jpg' class='instructions-image'>","","instructions","","","","","","","","","","","",""
"learning-instructions","14","199463","0.0-4.0-1.0-0.5","spark_pilot_norest","9154","4","14","Female","","","","","","","","3443","<p> You need to decide which direction to travel in. </p>
            <p> You can choose between going <b>up or down</b> by using the arrow keys. </p>
            <img src='./assets/img/instructions/updown.jpg' class='instructions-image'>","","instructions","","","","","","","","","","","",""
"learning-instructions","15","254004","0.0-4.0-1.0-0.6","spark_pilot_norest","9154","4","14","Female","","","","","","","","45753","<p> You will have <b>2 seconds</b> to make your choice. </p>
            <p> If you do not make a choice within 2 seconds, you will not find an animal or earn treasure. </p>
            <img src='./assets/img/instructions/2seconds.jpg' class='instructions-image'>","","instructions","","","","","","","","","","","",""
"learning-instructions","16","264051","0.0-4.0-1.0-0.7","spark_pilot_norest","9154","4","14","Female","","","","","","","","3026.999999999942","<p> Let’s try practicing that now! </p>
            <p> When you see a picture of the place you are in, press the <b>up</b> key to travel up. </p>
            <img src='./assets/img/instructions/pressUp.jpg' class='instructions-image'>","","instructions","","","","","","","","","","","",""
"revaluation","17","268063","0.0-4.0-2.0-0.0","spark_pilot_norest","9154","4","14","Female","","true","","","","","","[]","./assets/img/space/0.jpg","[]","first stage practice","space","-5","null","null","","false","","","","","",""
"html-keyboard-response","18","268566","0.0-4.0-2.0-1.0","spark_pilot_norest","9154","4","14","Female","","","","","","","","null","<div style=""font-size:60px;"">+</div>","null","fixation","","","","","","","","","","","",""
"revaluation","19","272570","0.0-4.0-2.0-0.1","spark_pilot_norest","9154","4","14","Female","","true","","","","","","[]","./assets/img/space/1.jpg","[]","first stage practice","space","-5","null","null","","false","","","","","",""
"html-keyboard-response","20","273072","0.0-4.0-2.0-1.1","spark_pilot_norest","9154","4","14","Female","","","","","","","","null","<div style=""font-size:60px;"">+</div>","null","fixation","","","","","","","","","","","",""
"revaluation","21","277076","0.0-4.0-2.0-0.2","spark_pilot_norest","9154","4","14","Female","","false","","","","","","[738]","./assets/img/space/2.jpg","[""ArrowUp""]","first stage practice","space","0","null","null","ArrowUp","false","","","","","",""
"html-keyboard-response","22","277579","0.0-4.0-2.0-1.2","spark_pilot_norest","9154","4","14","Female","","","","","","","","null","<div style=""font-size:60px;"">+</div>","null","fixation","","","","","","","","","","","",""
"learning-instructions","23","283739","0.0-4.0-3.0-0.0","spark_pilot_norest","9154","4","14","Female","","","","","","","","1474","<p> Great job! Now try pressing the <b>down</b> key to travel down. </p>
            <img src='./assets/img/instructions/pressDown.jpg' class='instructions-image'>","","instructions","","","","","","","","","","","",""
"revaluation","24","287743","0.0-4.0-4.0-0.0","spark_pilot_norest","9154","4","14","Female","","false","","","","","","[567]","./assets/img/space/3.jpg","[""ArrowDown""]","first stage practice","space","0","null","null","ArrowDown","false","","","","","",""
"html-keyboard-response","25","288245","0.0-4.0-4.0-1.0","spark_pilot_norest","9154","4","14","Female","","","","","","","","null","<div style=""font-size:60px;"">+</div>","null","fixation","","","","","","","","","","","",""
"revaluation","26","292250","0.0-4.0-4.0-0.1","spark_pilot_norest","9154","4","14","Female","","false","","","","","","[669]","./assets/img/space/4.jpg","[""ArrowDown""]","first stage practice","space","0","null","null","ArrowDown","false","","","","","",""
"html-keyboard-response","27","292753","0.0-4.0-4.0-1.1","spark_pilot_norest","9154","4","14","Female","","","","","","","","null","<div style=""font-size:60px;"">+</div>","null","fixation","","","","","","","","","","","",""
"revaluation","28","296758","0.0-4.0-4.0-0.2","spark_pilot_norest","9154","4","14","Female","","false","","","","","","[577]","./assets/img/space/5.jpg","[""ArrowDown""]","first stage practice","space","0","null","null","ArrowDown","false","","","","","",""
"html-keyboard-response","29","297260","0.0-4.0-4.0-1.2","spark_pilot_norest","9154","4","14","Female","","","","","","","","null","<div style=""font-size:60px;"">+</div>","null","fixation","","","","","","","","","","","",""
"learning-instructions","30","308523","0.0-4.0-5.0-0.0","spark_pilot_norest","9154","4","14","Female","","","","","","","","1432.0000000000582","<p> The animals don’t move, so the animal in the upper part of a place will stay in the upper part of a place, and the animal in the lower part of a place will stay in the lower part of a place. </p>","","instructions","","","","","","","","","","","",""
"learning-instructions","31","318492","0.0-4.0-5.0-0.1","spark_pilot_norest","9154","4","14","Female","","","","","","","","859","<p> Each animal has two treasure chests for you to choose from. </p>
            <p> The amount of treasure in each chest can range from <b> 0 to 40 pieces.</b></p>","","instructions","","","","","","","","","","","",""
"learning-instructions","32","331013","0.0-4.0-5.0-0.2","spark_pilot_norest","9154","4","14","Female","","","","","","","","1351","<p> You should decide which chest to search for treasure by using the <b>left</b> and <b>right</b> arrow keys. </p>
            <p><b> Pay attention to which animal is on the screen, as the animals have different treasure chests. </b></p>
            <img src='./assets/img/instructions/leftright.jpg' class='instructions-image'>","","instructions","","","","","","","","","","","",""
"learning-instructions","33","339012","0.0-4.0-5.0-0.3","spark_pilot_norest","9154","4","14","Female","","","","","","","","1650.0000000000582","<p> Let’s try practicing that now. </p>
            <p> When you see an animal, choose which chest to search for treasure. </p>
            <img src='./assets/img/instructions/chooseChest.jpg' class='instructions-image'>","","instructions","","","","","","","","","","","",""
"revaluation","34","343017","0.0-4.0-6.0-0.0","spark_pilot_norest","9154","4","14","Female","","false","","","","","","[1062]","./assets/img/space/animals/rabbit.jpg","[""ArrowLeft""]","second stage practice","space","15","{""ArrowUp,ArrowLeft"":3,""ArrowUp,ArrowRight"":36,""ArrowDown,ArrowLeft"":15,""ArrowDown,ArrowRight"":23}","false","ArrowDown,ArrowLeft","","","","","","",""
"html-keyboard-response","35","343518","0.0-4.0-6.0-1.0","spark_pilot_norest","9154","4","14","Female","","","","","","","","null","<div style=""font-size:60px;"">+</div>","null","fixation","","","","","","","","","","","",""
"revaluation","36","347523","0.0-4.0-6.0-0.1","spark_pilot_norest","9154","4","14","Female","","false","","","","","","[1219]","./assets/img/space/animals/cat.jpg","[""ArrowLeft""]","second stage practice","space","3","{""ArrowUp,ArrowLeft"":3,""ArrowUp,ArrowRight"":36,""ArrowDown,ArrowLeft"":15,""ArrowDown,ArrowRight"":23}","false","ArrowUp,ArrowLeft","","","","","","",""
"html-keyboard-response","37","348025","0.0-4.0-6.0-1.1","spark_pilot_norest","9154","4","14","Female","","","","","","","","null","<div style=""font-size:60px;"">+</div>","null","fixation","","","","","","","","","","","",""
"revaluation","38","352030","0.0-4.0-6.0-0.2","spark_pilot_norest","9154","4","14","Female","","false","","","","","","[569.0000000000582]","./assets/img/space/animals/cat.jpg","[""ArrowRight""]","second stage practice","space","36","{""ArrowUp,ArrowLeft"":3,""ArrowUp,ArrowRight"":36,""ArrowDown,ArrowLeft"":15,""ArrowDown,ArrowRight"":23}","true","ArrowUp,ArrowRight","","","","","","",""
"html-keyboard-response","39","352532","0.0-4.0-6.0-1.2","spark_pilot_norest","9154","4","14","Female","","","","","","","","null","<div style=""font-size:60px;"">+</div>","null","fixation","","","","","","","","","","","",""
"revaluation","40","356536","0.0-4.0-6.0-0.3","spark_pilot_norest","9154","4","14","Female","","false","","","","","","[646]","./assets/img/space/animals/rabbit.jpg","[""ArrowRight""]","second stage practice","space","23","{""ArrowUp,ArrowLeft"":3,""ArrowUp,ArrowRight"":36,""ArrowDown,ArrowLeft"":15,""ArrowDown,ArrowRight"":23}","true","ArrowDown,ArrowRight","","","","","","",""
"html-keyboard-response","41","357038","0.0-4.0-6.0-1.3","spark_pilot_norest","9154","4","14","Female","","","","","","","","null","<div style=""font-size:60px;"">+</div>","null","fixation","","","","","","","","","","","",""
"learning-instructions","42","374731","0.0-4.0-7.0-0.0","spark_pilot_norest","9154","4","14","Female","","","","","","","","903","<p> Great job. Now let’s try putting it together. </p>
            <p> On each turn, you will first see a picture to remind you of the place you are in, and you need to choose whether to go up or down. </p>
            <p> Then you will see an animal and choose which of its chests to search for treasure. </p>","","instructions","","","","","","","","","","","",""
"learning-instructions","43","383473","0.0-4.0-7.0-0.1","spark_pilot_norest","9154","4","14","Female","","","","","","","","501","<p> When you choose whether to go up or down, try to go to the animal with the chest with the most treasure. </p>
            <p> Try practicing that now! </p>","","instructions","","","","","","","","","","","",""
"revaluation","44","389477","0.0-4.0-8.0-0.0","spark_pilot_norest","9154","4","14","Female","","false","","","","","","[1169.0000000000582,1017]","./assets/img/space/6.jpg","[""ArrowUp"",""ArrowLeft""]","full practice","space","3","{""ArrowUp,ArrowLeft"":3,""ArrowUp,ArrowRight"":36,""ArrowDown,ArrowLeft"":15,""ArrowDown,ArrowRight"":23}","false","ArrowUp,ArrowLeft","false","","","","","",""
"html-keyboard-response","45","389978","0.0-4.0-8.0-1.0","spark_pilot_norest","9154","4","14","Female","","","","","","","","null","<div style=""font-size:60px;"">+</div>","null","fixation","","","","","","","","","","","",""
"revaluation","46","395984","0.0-4.0-8.0-0.1","spark_pilot_norest","9154","4","14","Female","","false","","","","","","[904,911]","./assets/img/space/7.jpg","[""ArrowUp"",""ArrowRight""]","full practice","space","36","{""ArrowUp,ArrowLeft"":3,""ArrowUp,ArrowRight"":36,""ArrowDown,ArrowLeft"":15,""ArrowDown,ArrowRight"":23}","true","ArrowUp,ArrowRight","false","","","","","",""
"html-keyboard-response","47","396485","0.0-4.0-8.0-1.1","spark_pilot_norest","9154","4","14","Female","","","","","","","","null","<div style=""font-size:60px;"">+</div>","null","fixation","","","","","","","","","","","",""
"revaluation","48","402491","0.0-4.0-8.0-0.2","spark_pilot_norest","9154","4","14","Female","","false","","","","","","[884,972]","./assets/img/space/8.jpg","[""ArrowUp"",""ArrowRight""]","full practice","space","36","{""ArrowUp,ArrowLeft"":3,""ArrowUp,ArrowRight"":36,""ArrowDown,ArrowLeft"":15,""ArrowDown,ArrowRight"":23}","true","ArrowUp,ArrowRight","false","","","","","",""
"html-keyboard-response","49","402993","0.0-4.0-8.0-1.2","spark_pilot_norest","9154","4","14","Female","","","","","","","","null","<div style=""font-size:60px;"">+</div>","null","fixation","","","","","","","","","","","",""
"revaluation","50","408998","0.0-4.0-8.0-0.3","spark_pilot_norest","9154","4","14","Female","","false","","","","","","[720.9999999999418,1048]","./assets/img/space/9.jpg","[""ArrowDown"",""ArrowLeft""]","full practice","space","15","{""ArrowUp,ArrowLeft"":3,""ArrowUp,ArrowRight"":36,""ArrowDown,ArrowLeft"":15,""ArrowDown,ArrowRight"":23}","false","ArrowDown,ArrowLeft","false","","","","","",""
"html-keyboard-response","51","409500","0.0-4.0-8.0-1.3","spark_pilot_norest","9154","4","14","Female","","","","","","","","null","<div style=""font-size:60px;"">+</div>","null","fixation","","","","","","","","","","","",""
"revaluation","52","415506","0.0-4.0-8.0-0.4","spark_pilot_norest","9154","4","14","Female","","false","","","","","","[725,917]","./assets/img/space/10.jpg","[""ArrowDown"",""ArrowLeft""]","full practice","space","15","{""ArrowUp,ArrowLeft"":3,""ArrowUp,ArrowRight"":36,""ArrowDown,ArrowLeft"":15,""ArrowDown,ArrowRight"":23}","false","ArrowDown,ArrowLeft","false","","","","","",""
"html-keyboard-response","53","416008","0.0-4.0-8.0-1.4","spark_pilot_norest","9154","4","14","Female","","","","","","","","null","<div style=""font-size:60px;"">+</div>","null","fixation","","","","","","","","","","","",""
"learning-instructions","54","427000","0.0-4.0-9.0-0.0","spark_pilot_norest","9154","4","14","Female","","","","","","","","702.9999999999418","<p> One last thing: sometimes, you will see a robber. The robber can be anywhere in the picture. </p>
            <p> If you do not stop them, you will lose treasure. </p>
            <img src='./assets/img/instructions/robber.jpg' class='instructions-image'>","","instructions","","","","","","","","","","","",""
"learning-instructions","55","434920","0.0-4.0-9.0-0.1","spark_pilot_norest","9154","4","14","Female","","","","","","","","766","<p> If you see the robber, you should <b>press the space bar</b> rather than using the arrow keys. </p>
            <p> Try practicing that now! </p>","","instructions","","","","","","","","","","","",""
"revaluation","56","438924","0.0-4.0-10.0-0.0","spark_pilot_norest","9154","4","14","Female","","false","","","","","","[1178]","./assets/img/space/catch/0.jpg","[""spaceBar""]","catch practice","space","0","{""ArrowUp,ArrowLeft"":3,""ArrowUp,ArrowRight"":36,""ArrowDown,ArrowLeft"":15,""ArrowDown,ArrowRight"":23}","true","spaceBar","true","","","","","",""
"html-keyboard-response","57","439427","0.0-4.0-10.0-1.0","spark_pilot_norest","9154","4","14","Female","","","","","","","","null","<div style=""font-size:60px;"">+</div>","null","fixation","","","","","","","","","","","",""
"revaluation","58","443431","0.0-4.0-10.0-0.1","spark_pilot_norest","9154","4","14","Female","","false","","","","","","[511]","./assets/img/space/catch/1.jpg","[""spaceBar""]","catch practice","space","0","{""ArrowUp,ArrowLeft"":3,""ArrowUp,ArrowRight"":36,""ArrowDown,ArrowLeft"":15,""ArrowDown,ArrowRight"":23}","true","spaceBar","true","","","","","",""
"html-keyboard-response","59","443932","0.0-4.0-10.0-1.1","spark_pilot_norest","9154","4","14","Female","","","","","","","","null","<div style=""font-size:60px;"">+</div>","null","fixation","","","","","","","","","","","",""
"revaluation","60","447937","0.0-4.0-10.0-0.2","spark_pilot_norest","9154","4","14","Female","","false","","","","","","[340.9999999999418]","./assets/img/space/catch/2.jpg","[""spaceBar""]","catch practice","space","0","{""ArrowUp,ArrowLeft"":3,""ArrowUp,ArrowRight"":36,""ArrowDown,ArrowLeft"":15,""ArrowDown,ArrowRight"":23}","true","spaceBar","true","","","","","",""
"html-keyboard-response","61","448439","0.0-4.0-10.0-1.2","spark_pilot_norest","9154","4","14","Female","","","","","","","","null","<div style=""font-size:60px;"">+</div>","null","fixation","","","","","","","","","","","",""
"learning-instructions","62","456431","0.0-4.0-11.0-0.0-0.0","spark_pilot_norest","9154","4","14","Female","","","","","","","","2767","<p> Now, you will practice a shortened version of the game to get a sense of how it all fits together. </p>","","instructions","","","","","","","","","","","",""
"learning-instructions","63","461010","0.0-4.0-11.0-0.0-0.1","spark_pilot_norest","9154","4","14","Female","","","","","","","","1404","<p>This time you are searching for treasure in outer space.</p>","","instructions","","","","","","","","","","","",""
"learning-instructions","64","476254","0.0-4.0-11.0-1.0-0.0","spark_pilot_norest","9154","4","14","Female","","","","","","","","492.9999999999418","<p> Remember, when you see a picture of the place, use the up and down keys to <b>find an animal</b>.</p>
            <p> When you encounter an animal, you should use the left and right keys to <b>select a treasure chest</b>.</p>
            <p> Don't forget to look out for the robber! </p>","","instructions","","","","","","","","","","","",""
"revaluation","65","482258","0.0-4.0-11.0-2.0-0.0","spark_pilot_norest","9154","4","14","Female","","false","","","","","","[1340.0000000000582,978.9999999999418]","./assets/img/space/11.jpg","[""ArrowUp"",""ArrowLeft""]","practice block","space","3","{""ArrowUp,ArrowLeft"":3,""ArrowUp,ArrowRight"":36,""ArrowDown,ArrowLeft"":15,""ArrowDown,ArrowRight"":23}","false","ArrowUp,ArrowLeft","false","","","","","",""
"html-keyboard-response","66","482761","0.0-4.0-11.0-2.0-1.0","spark_pilot_norest","9154","4","14","Female","","","","","","","","null","<div style=""font-size:60px;"">+</div>","null","fixation","","","","","","","","","","","",""
"revaluation","67","488765","0.0-4.0-11.0-2.0-0.1","spark_pilot_norest","9154","4","14","Female","","false","","","","","","[313,864]","./assets/img/space/12.jpg","[""ArrowDown"",""ArrowRight""]","practice block","space","23","{""ArrowUp,ArrowLeft"":3,""ArrowUp,ArrowRight"":36,""ArrowDown,ArrowLeft"":15,""ArrowDown,ArrowRight"":23}","false","ArrowDown,ArrowRight","false","","","","","",""
"html-keyboard-response","68","489266","0.0-4.0-11.0-2.0-1.1","spark_pilot_norest","9154","4","14","Female","","","","","","","","null","<div style=""font-size:60px;"">+</div>","null","fixation","","","","","","","","","","","",""
"revaluation","69","495270","0.0-4.0-11.0-2.0-0.2","spark_pilot_norest","9154","4","14","Female","","false","","","","","","[1134.9999999999418,918.9999999999418]","./assets/img/space/13.jpg","[""ArrowDown"",""ArrowRight""]","practice block","space","23","{""ArrowUp,ArrowLeft"":3,""ArrowUp,ArrowRight"":36,""ArrowDown,ArrowLeft"":15,""ArrowDown,ArrowRight"":23}","false","ArrowDown,ArrowRight","false","","","","","",""
"html-keyboard-response","70","495771","0.0-4.0-11.0-2.0-1.2","spark_pilot_norest","9154","4","14","Female","","","","","","","","null","<div style=""font-size:60px;"">+</div>","null","fixation","","","","","","","","","","","",""
"revaluation","71","501776","0.0-4.0-11.0-2.0-0.3","spark_pilot_norest","9154","4","14","Female","","false","","","","","","[886,822]","./assets/img/space/14.jpg","[""ArrowUp"",""ArrowLeft""]","practice block","space","3","{""ArrowUp,ArrowLeft"":3,""ArrowUp,ArrowRight"":36,""ArrowDown,ArrowLeft"":15,""ArrowDown,ArrowRight"":23}","false","ArrowUp,ArrowLeft","false","","","","","",""
"html-keyboard-response","72","502278","0.0-4.0-11.0-2.0-1.3","spark_pilot_norest","9154","4","14","Female","","","","","","","","null","<div style=""font-size:60px;"">+</div>","null","fixation","","","","","","","","","","","",""
"revaluation","73","508284","0.0-4.0-11.0-2.0-0.4","spark_pilot_norest","9154","4","14","Female","","false","","","","","","[818.9999999999418,482.9999999999418]","./assets/img/space/11.jpg","[""ArrowDown"",""ArrowRight""]","practice block","space","23","{""ArrowUp,ArrowLeft"":3,""ArrowUp,ArrowRight"":36,""ArrowDown,ArrowLeft"":15,""ArrowDown,ArrowRight"":23}","false","ArrowDown,ArrowRight","false","","","","","",""
"html-keyboard-response","74","508785","0.0-4.0-11.0-2.0-1.4","spark_pilot_norest","9154","4","14","Female","","","","","","","","null","<div style=""font-size:60px;"">+</div>","null","fixation","","","","","","","","","","","",""
"revaluation","75","514791","0.0-4.0-11.0-2.0-0.5","spark_pilot_norest","9154","4","14","Female","","false","","","","","","[824,583.0000000001164]","./assets/img/space/12.jpg","[""ArrowUp"",""ArrowRight""]","practice block","space","36","{""ArrowUp,ArrowLeft"":3,""ArrowUp,ArrowRight"":36,""ArrowDown,ArrowLeft"":15,""ArrowDown,ArrowRight"":23}","true","ArrowUp,ArrowRight","false","","","","","",""
"html-keyboard-response","76","515293","0.0-4.0-11.0-2.0-1.5","spark_pilot_norest","9154","4","14","Female","","","","","","","","null","<div style=""font-size:60px;"">+</div>","null","fixation","","","","","","","","","","","",""
"revaluation","77","521298","0.0-4.0-11.0-2.0-0.6","spark_pilot_norest","9154","4","14","Female","","false","","","","","","[1125,476]","./assets/img/space/13.jpg","[""ArrowUp"",""ArrowRight""]","practice block","space","36","{""ArrowUp,ArrowLeft"":3,""ArrowUp,ArrowRight"":36,""ArrowDown,ArrowLeft"":15,""ArrowDown,ArrowRight"":23}","true","ArrowUp,ArrowRight","false","","","","","",""
"html-keyboard-response","78","521800","0.0-4.0-11.0-2.0-1.6","spark_pilot_norest","9154","4","14","Female","","","","","","","","null","<div style=""font-size:60px;"">+</div>","null","fixation","","","","","","","","","","","",""
"revaluation","79","527806","0.0-4.0-11.0-2.0-0.7","spark_pilot_norest","9154","4","14","Female","","false","","","","","","[945.0000000000582,575.9999999998836]","./assets/img/space/14.jpg","[""ArrowUp"",""ArrowRight""]","practice block","space","36","{""ArrowUp,ArrowLeft"":3,""ArrowUp,ArrowRight"":36,""ArrowDown,ArrowLeft"":15,""ArrowDown,ArrowRight"":23}","true","ArrowUp,ArrowRight","false","","","","","",""
"html-keyboard-response","80","528308","0.0-4.0-11.0-2.0-1.7","spark_pilot_norest","9154","4","14","Female","","","","","","","","null","<div style=""font-size:60px;"">+</div>","null","fixation","","","","","","","","","","","",""
"revaluation","81","532312","0.0-4.0-11.0-2.0-0.8","spark_pilot_norest","9154","4","14","Female","","false","","","","","","[1262]","./assets/img/space/catch/3.jpg","[""spaceBar""]","practice block","space","0","{""ArrowUp,ArrowLeft"":3,""ArrowUp,ArrowRight"":36,""ArrowDown,ArrowLeft"":15,""ArrowDown,ArrowRight"":23}","true","spaceBar","true","","","","","",""
"html-keyboard-response","82","532814","0.0-4.0-11.0-2.0-1.8","spark_pilot_norest","9154","4","14","Female","","","","","","","","null","<div style=""font-size:60px;"">+</div>","null","fixation","","","","","","","","","","","",""
"learning-instructions","83","549482","0.0-4.0-11.0-3.0-0.0","spark_pilot_norest","9154","4","14","Female","","","","","","","","3768","<p> Now, you will travel with a friend who will choose whether you go up or down first. </p>
            <p> On these turns, you will just see the animal that they found. You will still get to choose which chest to search for treasure.</p>","","instructions","","","","","","","","","","","",""
"revaluation","84","553485","0.0-4.0-11.0-4.0-0.0","spark_pilot_norest","9154","4","14","Female","","false","","","","","","[1160]","./assets/img/space/animals/rabbit.jpg","[""ArrowLeft""]","practice block","space","15","{""ArrowUp,ArrowLeft"":3,""ArrowUp,ArrowRight"":36,""ArrowDown,ArrowLeft"":15,""ArrowDown,ArrowRight"":23}","false","ArrowDown,ArrowLeft","","","","","","",""
"html-keyboard-response","85","553987","0.0-4.0-11.0-4.0-1.0","spark_pilot_norest","9154","4","14","Female","","","","","","","","null","<div style=""font-size:60px;"">+</div>","null","fixation","","","","","","","","","","","",""
"revaluation","86","557991","0.0-4.0-11.0-4.0-0.1","spark_pilot_norest","9154","4","14","Female","","false","","","","","","[654]","./assets/img/space/animals/rabbit.jpg","[""ArrowLeft""]","practice block","space","15","{""ArrowUp,ArrowLeft"":3,""ArrowUp,ArrowRight"":36,""ArrowDown,ArrowLeft"":15,""ArrowDown,ArrowRight"":23}","false","ArrowDown,ArrowLeft","","","","","","",""
"html-keyboard-response","87","558493","0.0-4.0-11.0-4.0-1.1","spark_pilot_norest","9154","4","14","Female","","","","","","","","null","<div style=""font-size:60px;"">+</div>","null","fixation","","","","","","","","","","","",""
"revaluation","88","562498","0.0-4.0-11.0-4.0-0.2","spark_pilot_norest","9154","4","14","Female","","false","","","","","","[779.9999999998836]","./assets/img/space/animals/cat.jpg","[""ArrowRight""]","practice block","space","36","{""ArrowUp,ArrowLeft"":3,""ArrowUp,ArrowRight"":36,""ArrowDown,ArrowLeft"":15,""ArrowDown,ArrowRight"":23}","true","ArrowUp,ArrowRight","","","","","","",""
"html-keyboard-response","89","563000","0.0-4.0-11.0-4.0-1.2","spark_pilot_norest","9154","4","14","Female","","","","","","","","null","<div style=""font-size:60px;"">+</div>","null","fixation","","","","","","","","","","","",""
"revaluation","90","567004","0.0-4.0-11.0-4.0-0.3","spark_pilot_norest","9154","4","14","Female","","false","","","","","","[969.0000000001164]","./assets/img/space/animals/cat.jpg","[""ArrowRight""]","practice block","space","36","{""ArrowUp,ArrowLeft"":3,""ArrowUp,ArrowRight"":36,""ArrowDown,ArrowLeft"":15,""ArrowDown,ArrowRight"":23}","true","ArrowUp,ArrowRight","","","","","","",""
"html-keyboard-response","91","567506","0.0-4.0-11.0-4.0-1.3","spark_pilot_norest","9154","4","14","Female","","","","","","","","null","<div style=""font-size:60px;"">+</div>","null","fixation","","","","","","","","","","","",""
"learning-instructions","92","576728","0.0-4.0-11.0-5.0-0.0","spark_pilot_norest","9154","4","14","Female","","","","","","","","null","<p> You have almost finished this part of the game! </p>
            <p> We are going to ask you to make a few more choices. </p>","","instructions","","","","","","","","","","","",""
"learning-instructions","93","592721","0.0-4.0-11.0-5.0-0.1","spark_pilot_norest","9154","4","14","Female","","","","","","","","null","<p> First, you need to decide whether to go up or down. When you see each picture, use the arrow keys to make your choice. </p>
            <p><b>You will not see which animal you found, but try to get to the one that will give you the most treasure.</b></p>","","instructions","","","","","","","","","","","",""
"html-keyboard-response","94","593723","0.0-4.0-11.0-6.0-0.0","spark_pilot_norest","9154","4","14","Female","","","","","","","","null","<div style=""font-size:100px;color:red;"">Starting in...</div>","null","","","","","","","","","","","","",""
"html-keyboard-response","95","594725","0.0-4.0-11.0-6.0-1.0","spark_pilot_norest","9154","4","14","Female","","","","","","","","null","<div style=""font-size:200px;color:red;"">3</div>","null","","","","","","","","","","","","",""
"html-keyboard-response","96","595727","0.0-4.0-11.0-6.0-2.0","spark_pilot_norest","9154","4","14","Female","","","","","","","","null","<div style=""font-size:200px;color:red;"">2</div>","null","","","","","","","","","","","","",""
"html-keyboard-response","97","596728","0.0-4.0-11.0-6.0-3.0","spark_pilot_norest","9154","4","14","Female","","","","","","","","null","<div style=""font-size:200px;color:red;"">1</div>","null","","","","","","","","","","","","",""
"revaluation","98","597387","0.0-4.0-11.0-7.0","spark_pilot_norest","9154","4","14","Female","","false","","","","","","[657]","./assets/img/space/15.jpg","[""ArrowUp""]","practice block","space","0","{""ArrowUp,ArrowLeft"":3,""ArrowUp,ArrowRight"":36,""ArrowDown,ArrowLeft"":15,""ArrowDown,ArrowRight"":23}","true","ArrowUp","false","","","","","",""
"html-keyboard-response","99","597889","0.0-4.0-11.0-8.0","spark_pilot_norest","9154","4","14","Female","","","","","","","","null","<div style=""font-size:60px;"">+</div>","null","fixation","","","","","","","","","","","",""
"learning-instructions","100","612281","0.0-4.0-11.0-9.0-0.0","spark_pilot_norest","9154","4","14","Female","","","","","","","","null","<p> Now you will see the animals again and can search their chests for treasure. </p>
            <p> This time, you will not see how much treasure you earned, but you will earn more bonus money for making better choices. </p>","","instructions","","","","","","","","","","","",""
"html-keyboard-response","101","613283","0.0-4.0-11.0-10.0-0.0","spark_pilot_norest","9154","4","14","Female","","","","","","","","null","<div style=""font-size:100px;color:red;"">Starting in...</div>","null","","","","","","","","","","","","",""
"html-keyboard-response","102","614285","0.0-4.0-11.0-10.0-1.0","spark_pilot_norest","9154","4","14","Female","","","","","","","","null","<div style=""font-size:200px;color:red;"">3</div>","null","","","","","","","","","","","","",""
"html-keyboard-response","103","615286","0.0-4.0-11.0-10.0-2.0","spark_pilot_norest","9154","4","14","Female","","","","","","","","null","<div style=""font-size:200px;color:red;"">2</div>","null","","","","","","","","","","","","",""
"html-keyboard-response","104","616288","0.0-4.0-11.0-10.0-3.0","spark_pilot_norest","9154","4","14","Female","","","","","","","","null","<div style=""font-size:200px;color:red;"">1</div>","null","","","","","","","","","","","","",""
"revaluation","105","616883","0.0-4.0-11.0-11.0-0.0","spark_pilot_norest","9154","4","14","Female","","false","","","","","","[593]","./assets/img/space/animals/cat.jpg","[""ArrowRight""]","practice block","space","0","{""ArrowUp,ArrowLeft"":3,""ArrowUp,ArrowRight"":36,""ArrowDown,ArrowLeft"":15,""ArrowDown,ArrowRight"":23}","true","ArrowUp,ArrowRight","","","","","","",""
"html-keyboard-response","106","617385","0.0-4.0-11.0-11.0-1.0","spark_pilot_norest","9154","4","14","Female","","","","","","","","null","<div style=""font-size:60px;"">+</div>","null","fixation","","","","","","","","","","","",""
"revaluation","107","618211","0.0-4.0-11.0-11.0-0.1","spark_pilot_norest","9154","4","14","Female","","false","","","","","","[824]","./assets/img/space/animals/rabbit.jpg","[""ArrowLeft""]","practice block","space","0","{""ArrowUp,ArrowLeft"":3,""ArrowUp,ArrowRight"":36,""ArrowDown,ArrowLeft"":15,""ArrowDown,ArrowRight"":23}","false","ArrowDown,ArrowLeft","","","","","","",""
"html-keyboard-response","108","618713","0.0-4.0-11.0-11.0-1.1","spark_pilot_norest","9154","4","14","Female","","","","","","","","null","<div style=""font-size:60px;"">+</div>","null","fixation","","","","","","","","","","","",""
"learning-instructions","109","624510","0.0-4.0-12.0-0.0","spark_pilot_norest","9154","4","14","Female","","","","","","","","1231","<p> Before you start, we're going to ask you a few questions about how the game works. </p>","","instructions","","","","","","","","","","","",""
"comp-q","110","632791","0.0-4.0-13.0-0.0-0.0","spark_pilot_norest","9154","4","14","Female","","","","","","","","1988","<p> <b> True or False? </b> </p>
            <p> There can be 50 pieces of treasure in a given animal's chest. </p>","1","comp_question","","","","true","","","","","","","",""
"comp-q","111","641195","0.0-4.0-13.0-0.0-1.0","spark_pilot_norest","9154","4","14","Female","","","","","","","","1751","<p> <b> That's right! </b> The amount of treasure in each chest can range from 0 to 40 pieces. </p>","0","comp_answer","","","","","","","","","","","",""
"comp-q","112","648822","0.0-4.0-13.0-0.1-0.1","spark_pilot_norest","9154","4","14","Female","","","","","","","","525.0000000001164","<p> <b> True or False? </b> </p><p> In this game, all animals have the same amount of treasure in their left and right chests. </p>","1","comp_question","","","","true","","","","","","","",""
"comp-q","113","655235","0.0-4.0-13.0-0.1-1.1","spark_pilot_norest","9154","4","14","Female","","","","","","","","1194","<p> <b> That's right! </b> Animals have different amounts of treasure in their treasure chests. </p>","0","comp_answer","","","","","","","","","","","",""
"comp-q","114","663031","0.0-4.0-13.0-0.2-0.2","spark_pilot_norest","9154","4","14","Female","","","","","","","","1964","<p> <b> True or False? </b> </p><p> The same animal will always be there if you go up in the same place. </p>","0","comp_question","","","","true","","","","","","","",""
"comp-q","115","670220","0.0-4.0-13.0-0.2-1.2","spark_pilot_norest","9154","4","14","Female","","","","","","","","756.0000000001164","<p> <b> That's right! </b> One animal lives in the upper part and one lives in the lower part of every place. </p>","0","comp_answer","","","","","","","","","","","",""
"comp-q","116","676475","0.0-4.0-13.0-0.3-0.3","spark_pilot_norest","9154","4","14","Female","","","","","","","","744.0000000001164","<p> <b> True or False? </b> </p><p> If you see a different picture, it means you are in a new place. </p>","0","comp_question","","","","false","","","","","","","",""
"comp-q","117","689278","0.0-4.0-13.0-0.3-1.3","spark_pilot_norest","9154","4","14","Female","","","","","","","","790.0000000001164","<p> <b>Incorrect.</b> Lots of different images may show the same place. For example,  you may see three different images that all remind you that you are in outer space. </p>","0","comp_answer","","","","","","","","","","","",""
"comp-q","118","696580","0.0-4.0-13.0-0.4-0.4","spark_pilot_norest","9154","4","14","Female","","","","","","","","1803","<p> <b> True or False? </b> </p><p> If you see a different picture, it means you are in a new place. </p>","0","comp_question","","","","false","","","","","","","",""
"comp-q","119","709967","0.0-4.0-13.0-0.4-1.4","spark_pilot_norest","9154","4","14","Female","","","","","","","","2327","<p> <b>Incorrect.</b> Lots of different images may show the same place. For example,  you may see three different images that all remind you that you are in outer space. </p>","0","comp_answer","","","","","","","","","","","",""
"comp-q","120","716054","0.0-4.0-13.0-0.5-0.5","spark_pilot_norest","9154","4","14","Female","","","","","","","","584","<p> <b> True or False? </b> </p><p> If you see a different picture, it means you are in a new place. </p>","1","comp_question","","","","true","","","","","","","",""
"comp-q","121","729363","0.0-4.0-13.0-0.5-1.5","spark_pilot_norest","9154","4","14","Female","","","","","","","","1176","<p> <b> That's right! </b> Lots of different images may show the same place. For example,  you may see three different images that all remind you that you are in outer space. </p>","0","comp_answer","","","","","","","","","","","",""
"learning-instructions","122","740535","0.0-4.0-14.0-0.0","spark_pilot_norest","9154","4","14","Female","","","","","","","","1335","<p> Good job. Remember to do your best because the amount of treasure you earn will be converted into bonus money. </p>
            <p> It’s time to start the real game! </p>","","instructions","","","","","","","","","","","",""
"learning-instructions","123","744236","0.0-5.0-0.0-0.0","spark_pilot_norest","9154","4","14","Female","","","","","","","","1008","<p> This time you are searching for treasure in the <b>ocean</b>.</p>","","instructions","","","","","","","","","","","",""
"learning-instructions","124","763530","0.0-5.0-0.0-0.1","spark_pilot_norest","9154","4","14","Female","","","","","","","","2019","<p><b>New</b> animals with <b>new</b> treasure chests live here. You need to explore to discover where the animal with the best treasure chest is.</p>
                    <p> Like before, once you figure out which animal has the chest with the most treasure, you should try to get to that animal and select that chest! </p>","","instructions","","","","","","","","","","","",""
"learning-instructions","125","783556","0.0-5.0-1.0-0.0","spark_pilot_norest","9154","4","14","Female","","","","","","","","5295","<p> Remember, when you see a picture of the place, use the up and down keys to <b>find an animal</b>.</p>
            <p> When you encounter an animal, you should use the left and right keys to <b>select a treasure chest</b>.</p>
            <p> Don't forget to look out for the robber! </p>","","instructions","","","","","","","","","","","",""
"revaluation","126","789561","0.0-5.0-2.0-0.0","spark_pilot_norest","9154","4","14","Female","","false","","","","","","[1349,957]","./assets/img/ocean/memory/17.jpg","[""ArrowUp"",""ArrowRight""]","value training","ocean","10","{""ArrowUp,ArrowLeft"":26,""ArrowUp,ArrowRight"":10,""ArrowDown,ArrowLeft"":5,""ArrowDown,ArrowRight"":17}","false","ArrowUp,ArrowRight","false","revaluation","1","0","","",""
"html-keyboard-response","127","790064","0.0-5.0-2.0-1.0","spark_pilot_norest","9154","4","14","Female","","","","","","","","null","<div style=""font-size:60px;"">+</div>","null","fixation","","","","","","","","","1","","",""
"revaluation","128","796069","0.0-5.0-2.0-0.1","spark_pilot_norest","9154","4","14","Female","","false","","","","","","[657,1079.9999999998836]","./assets/img/ocean/memory/3.jpg","[""ArrowDown"",""ArrowLeft""]","value training","ocean","5","{""ArrowUp,ArrowLeft"":26,""ArrowUp,ArrowRight"":10,""ArrowDown,ArrowLeft"":5,""ArrowDown,ArrowRight"":17}","false","ArrowDown,ArrowLeft","false","revaluation","1","2","","",""
"html-keyboard-response","129","796572","0.0-5.0-2.0-1.1","spark_pilot_norest","9154","4","14","Female","","","","","","","","null","<div style=""font-size:60px;"">+</div>","null","fixation","","","","","","","","","3","","",""
"revaluation","130","800577","0.0-5.0-2.0-0.2","spark_pilot_norest","9154","4","14","Female","","false","","","","","","[1221]","./assets/img/ocean/catch/0.jpg","[""spaceBar""]","value training","ocean","0","{""ArrowUp,ArrowLeft"":26,""ArrowUp,ArrowRight"":10,""ArrowDown,ArrowLeft"":5,""ArrowDown,ArrowRight"":17}","true","spaceBar","true","revaluation","1","4","","",""
"html-keyboard-response","131","801079","0.0-5.0-2.0-1.2","spark_pilot_norest","9154","4","14","Female","","","","","","","","null","<div style=""font-size:60px;"">+</div>","null","fixation","","","","","","","","","5","","",""
"revaluation","132","805083","0.0-5.0-2.0-0.3","spark_pilot_norest","9154","4","14","Female","","false","","","","","","[1306]","./assets/img/ocean/catch/3.jpg","[""spaceBar""]","value training","ocean","0","{""ArrowUp,ArrowLeft"":26,""ArrowUp,ArrowRight"":10,""ArrowDown,ArrowLeft"":5,""ArrowDown,ArrowRight"":17}","true","spaceBar","true","revaluation","1","6","","",""
"html-keyboard-response","133","805585","0.0-5.0-2.0-1.3","spark_pilot_norest","9154","4","14","Female","","","","","","","","null","<div style=""font-size:60px;"">+</div>","null","fixation","","","","","","","","","7","","",""
"revaluation","134","811590","0.0-5.0-2.0-0.4","spark_pilot_norest","9154","4","14","Female","","false","","","","","","[1176,1151]","./assets/img/ocean/memory/10.jpg","[""ArrowUp"",""ArrowLeft""]","value training","ocean","26","{""ArrowUp,ArrowLeft"":26,""ArrowUp,ArrowRight"":10,""ArrowDown,ArrowLeft"":5,""ArrowDown,ArrowRight"":17}","true","ArrowUp,ArrowLeft","false","revaluation","1","8","","",""
"html-keyboard-response","135","812092","0.0-5.0-2.0-1.4","spark_pilot_norest","9154","4","14","Female","","","","","","","","null","<div style=""font-size:60px;"">+</div>","null","fixation","","","","","","","","","9","","",""
"revaluation","136","818097","0.0-5.0-2.0-0.5","spark_pilot_norest","9154","4","14","Female","","false","","","","","","[476,634.9999999998836]","./assets/img/ocean/memory/29.jpg","[""ArrowUp"",""ArrowLeft""]","value training","ocean","26","{""ArrowUp,ArrowLeft"":26,""ArrowUp,ArrowRight"":10,""ArrowDown,ArrowLeft"":5,""ArrowDown,ArrowRight"":17}","true","ArrowUp,ArrowLeft","false","revaluation","1","10","","",""
"html-keyboard-response","137","818600","0.0-5.0-2.0-1.5","spark_pilot_norest","9154","4","14","Female","","","","","","","","null","<div style=""font-size:60px;"">+</div>","null","fixation","","","","","","","","","11","","",""
"revaluation","138","824605","0.0-5.0-2.0-0.6","spark_pilot_norest","9154","4","14","Female","","false","","","","","","[537.0000000001164,1352]","./assets/img/ocean/memory/28.jpg","[""ArrowDown"",""ArrowLeft""]","value training","ocean","5","{""ArrowUp,ArrowLeft"":26,""ArrowUp,ArrowRight"":10,""ArrowDown,ArrowLeft"":5,""ArrowDown,ArrowRight"":17}","false","ArrowDown,ArrowLeft","false","revaluation","1","12","","",""
"html-keyboard-response","139","825107","0.0-5.0-2.0-1.6","spark_pilot_norest","9154","4","14","Female","","","","","","","","null","<div style=""font-size:60px;"">+</div>","null","fixation","","","","","","","","","13","","",""
"revaluation","140","831111","0.0-5.0-2.0-0.7","spark_pilot_norest","9154","4","14","Female","","false","","","","","","[302,485]","./assets/img/ocean/memory/39.jpg","[""ArrowDown"",""ArrowRight""]","value training","ocean","17","{""ArrowUp,ArrowLeft"":26,""ArrowUp,ArrowRight"":10,""ArrowDown,ArrowLeft"":5,""ArrowDown,ArrowRight"":17}","false","ArrowDown,ArrowRight","false","revaluation","1","14","","",""
"html-keyboard-response","141","831613","0.0-5.0-2.0-1.7","spark_pilot_norest","9154","4","14","Female","","","","","","","","null","<div style=""font-size:60px;"">+</div>","null","fixation","","","","","","","","","15","","",""
"revaluation","142","837618","0.0-5.0-2.0-0.8","spark_pilot_norest","9154","4","14","Female","","false","","","","","","[555,738]","./assets/img/ocean/memory/32.jpg","[""ArrowUp"",""ArrowRight""]","value training","ocean","10","{""ArrowUp,ArrowLeft"":26,""ArrowUp,ArrowRight"":10,""ArrowDown,ArrowLeft"":5,""ArrowDown,ArrowRight"":17}","false","ArrowUp,ArrowRight","false","revaluation","1","16","","",""
"html-keyboard-response","143","838120","0.0-5.0-2.0-1.8","spark_pilot_norest","9154","4","14","Female","","","","","","","","null","<div style=""font-size:60px;"">+</div>","null","fixation","","","","","","","","","17","","",""
"revaluation","144","844126","0.0-5.0-2.0-0.9","spark_pilot_norest","9154","4","14","Female","","false","","","","","","[599,597.9999999998836]","./assets/img/ocean/memory/33.jpg","[""ArrowUp"",""ArrowLeft""]","value training","ocean","26","{""ArrowUp,ArrowLeft"":26,""ArrowUp,ArrowRight"":10,""ArrowDown,ArrowLeft"":5,""ArrowDown,ArrowRight"":17}","true","ArrowUp,ArrowLeft","false","revaluation","1","18","","",""
"html-keyboard-response","145","844628","0.0-5.0-2.0-1.9","spark_pilot_norest","9154","4","14","Female","","","","","","","","null","<div style=""font-size:60px;"">+</div>","null","fixation","","","","","","","","","19","","",""
"revaluation","146","850634","0.0-5.0-2.0-0.10","spark_pilot_norest","9154","4","14","Female","","false","","","","","","[476,659]","./assets/img/ocean/memory/37.jpg","[""ArrowUp"",""ArrowLeft""]","value training","ocean","26","{""ArrowUp,ArrowLeft"":26,""ArrowUp,ArrowRight"":10,""ArrowDown,ArrowLeft"":5,""ArrowDown,ArrowRight"":17}","true","ArrowUp,ArrowLeft","false","revaluation","1","20","","",""
"html-keyboard-response","147","851136","0.0-5.0-2.0-1.10","spark_pilot_norest","9154","4","14","Female","","","","","","","","null","<div style=""font-size:60px;"">+</div>","null","fixation","","","","","","","","","21","","",""
"revaluation","148","857141","0.0-5.0-2.0-0.11","spark_pilot_norest","9154","4","14","Female","","false","","","","","","[623.9999999998836,551]","./assets/img/ocean/memory/10.jpg","[""ArrowUp"",""ArrowLeft""]","value training","ocean","26","{""ArrowUp,ArrowLeft"":26,""ArrowUp,ArrowRight"":10,""ArrowDown,ArrowLeft"":5,""ArrowDown,ArrowRight"":17}","true","ArrowUp,ArrowLeft","false","revaluation","1","22","","",""
"html-keyboard-response","149","857644","0.0-5.0-2.0-1.11","spark_pilot_norest","9154","4","14","Female","","","","","","","","null","<div style=""font-size:60px;"">+</div>","null","fixation","","","","","","","","","23","","",""
"revaluation","150","863649","0.0-5.0-2.0-0.12","spark_pilot_norest","9154","4","14","Female","","false","","","","","","[573,804]","./assets/img/ocean/memory/13.jpg","[""ArrowUp"",""ArrowLeft""]","value training","ocean","26","{""ArrowUp,ArrowLeft"":26,""ArrowUp,ArrowRight"":10,""ArrowDown,ArrowLeft"":5,""ArrowDown,ArrowRight"":17}","true","ArrowUp,ArrowLeft","false","revaluation","1","24","","",""
"html-keyboard-response","151","864151","0.0-5.0-2.0-1.12","spark_pilot_norest","9154","4","14","Female","","","","","","","","null","<div style=""font-size:60px;"">+</div>","null","fixation","","","","","","","","","25","","",""
"revaluation","152","870157","0.0-5.0-2.0-0.13","spark_pilot_norest","9154","4","14","Female","","false","","","","","","[392.9999999998836,520]","./assets/img/ocean/memory/35.jpg","[""ArrowDown"",""ArrowLeft""]","value training","ocean","5","{""ArrowUp,ArrowLeft"":26,""ArrowUp,ArrowRight"":10,""ArrowDown,ArrowLeft"":5,""ArrowDown,ArrowRight"":17}","false","ArrowDown,ArrowLeft","false","revaluation","1","26","","",""
"html-keyboard-response","153","870659","0.0-5.0-2.0-1.13","spark_pilot_norest","9154","4","14","Female","","","","","","","","null","<div style=""font-size:60px;"">+</div>","null","fixation","","","","","","","","","27","","",""
"revaluation","154","876664","0.0-5.0-2.0-0.14","spark_pilot_norest","9154","4","14","Female","","false","","","","","","[702,621]","./assets/img/ocean/memory/28.jpg","[""ArrowDown"",""ArrowRight""]","value training","ocean","17","{""ArrowUp,ArrowLeft"":26,""ArrowUp,ArrowRight"":10,""ArrowDown,ArrowLeft"":5,""ArrowDown,ArrowRight"":17}","false","ArrowDown,ArrowRight","false","revaluation","1","28","","",""
"html-keyboard-response","155","877166","0.0-5.0-2.0-1.14","spark_pilot_norest","9154","4","14","Female","","","","","","","","null","<div style=""font-size:60px;"">+</div>","null","fixation","","","","","","","","","29","","",""
"revaluation","156","883171","0.0-5.0-2.0-0.15","spark_pilot_norest","9154","4","14","Female","","false","","","","","","[346,794]","./assets/img/ocean/memory/38.jpg","[""ArrowUp"",""ArrowLeft""]","value training","ocean","26","{""ArrowUp,ArrowLeft"":26,""ArrowUp,ArrowRight"":10,""ArrowDown,ArrowLeft"":5,""ArrowDown,ArrowRight"":17}","true","ArrowUp,ArrowLeft","false","revaluation","1","30","","",""
"html-keyboard-response","157","883673","0.0-5.0-2.0-1.15","spark_pilot_norest","9154","4","14","Female","","","","","","","","null","<div style=""font-size:60px;"">+</div>","null","fixation","","","","","","","","","31","","",""
"revaluation","158","889679","0.0-5.0-2.0-0.16","spark_pilot_norest","9154","4","14","Female","","false","","","","","","[295.0000000001164,446]","./assets/img/ocean/memory/37.jpg","[""ArrowUp"",""ArrowLeft""]","value training","ocean","26","{""ArrowUp,ArrowLeft"":26,""ArrowUp,ArrowRight"":10,""ArrowDown,ArrowLeft"":5,""ArrowDown,ArrowRight"":17}","true","ArrowUp,ArrowLeft","false","revaluation","1","32","","",""
"html-keyboard-response","159","890181","0.0-5.0-2.0-1.16","spark_pilot_norest","9154","4","14","Female","","","","","","","","null","<div style=""font-size:60px;"">+</div>","null","fixation","","","","","","","","","33","","",""
"revaluation","160","896186","0.0-5.0-2.0-0.17","spark_pilot_norest","9154","4","14","Female","","false","","","","","","[508,891]","./assets/img/ocean/memory/18.jpg","[""ArrowUp"",""ArrowLeft""]","value training","ocean","26","{""ArrowUp,ArrowLeft"":26,""ArrowUp,ArrowRight"":10,""ArrowDown,ArrowLeft"":5,""ArrowDown,ArrowRight"":17}","true","ArrowUp,ArrowLeft","false","revaluation","1","34","","",""
"html-keyboard-response","161","896688","0.0-5.0-2.0-1.17","spark_pilot_norest","9154","4","14","Female","","","","","","","","null","<div style=""font-size:60px;"">+</div>","null","fixation","","","","","","","","","35","","",""
"revaluation","162","902694","0.0-5.0-2.0-0.18","spark_pilot_norest","9154","4","14","Female","","false","","","","","","[744,974.9999999998836]","./assets/img/ocean/memory/32.jpg","[""ArrowUp"",""ArrowLeft""]","value training","ocean","26","{""ArrowUp,ArrowLeft"":26,""ArrowUp,ArrowRight"":10,""ArrowDown,ArrowLeft"":5,""ArrowDown,ArrowRight"":17}","true","ArrowUp,ArrowLeft","false","revaluation","1","36","","",""
"html-keyboard-response","163","903195","0.0-5.0-2.0-1.18","spark_pilot_norest","9154","4","14","Female","","","","","","","","null","<div style=""font-size:60px;"">+</div>","null","fixation","","","","","","","","","37","","",""
"revaluation","164","909201","0.0-5.0-2.0-0.19","spark_pilot_norest","9154","4","14","Female","","false","","","","","","[341,788]","./assets/img/ocean/memory/40.jpg","[""ArrowUp"",""ArrowLeft""]","value training","ocean","26","{""ArrowUp,ArrowLeft"":26,""ArrowUp,ArrowRight"":10,""ArrowDown,ArrowLeft"":5,""ArrowDown,ArrowRight"":17}","true","ArrowUp,ArrowLeft","false","revaluation","1","38","","",""
"html-keyboard-response","165","909703","0.0-5.0-2.0-1.19","spark_pilot_norest","9154","4","14","Female","","","","","","","","null","<div style=""font-size:60px;"">+</div>","null","fixation","","","","","","","","","39","","",""
"revaluation","166","915708","0.0-5.0-2.0-0.20","spark_pilot_norest","9154","4","14","Female","","false","","","","","","[361.0000000001164,649]","./assets/img/ocean/memory/29.jpg","[""ArrowUp"",""ArrowLeft""]","value training","ocean","26","{""ArrowUp,ArrowLeft"":26,""ArrowUp,ArrowRight"":10,""ArrowDown,ArrowLeft"":5,""ArrowDown,ArrowRight"":17}","true","ArrowUp,ArrowLeft","false","revaluation","1","40","","",""
"html-keyboard-response","167","916210","0.0-5.0-2.0-1.20","spark_pilot_norest","9154","4","14","Female","","","","","","","","null","<div style=""font-size:60px;"">+</div>","null","fixation","","","","","","","","","41","","",""
"revaluation","168","922214","0.0-5.0-2.0-0.21","spark_pilot_norest","9154","4","14","Female","","false","","","","","","[598,766]","./assets/img/ocean/memory/39.jpg","[""ArrowUp"",""ArrowLeft""]","value training","ocean","26","{""ArrowUp,ArrowLeft"":26,""ArrowUp,ArrowRight"":10,""ArrowDown,ArrowLeft"":5,""ArrowDown,ArrowRight"":17}","true","ArrowUp,ArrowLeft","false","revaluation","1","42","","",""
"html-keyboard-response","169","922716","0.0-5.0-2.0-1.21","spark_pilot_norest","9154","4","14","Female","","","","","","","","null","<div style=""font-size:60px;"">+</div>","null","fixation","","","","","","","","","43","","",""
"revaluation","170","926720","0.0-5.0-2.0-0.22","spark_pilot_norest","9154","4","14","Female","","false","","","","","","[644]","./assets/img/ocean/catch/1.jpg","[""ArrowUp""]","value training","ocean","-10","{""ArrowUp,ArrowLeft"":26,""ArrowUp,ArrowRight"":10,""ArrowDown,ArrowLeft"":5,""ArrowDown,ArrowRight"":17}","false","ArrowUp","true","revaluation","1","44","","",""
"html-keyboard-response","171","927221","0.0-5.0-2.0-1.22","spark_pilot_norest","9154","4","14","Female","","","","","","","","null","<div style=""font-size:60px;"">+</div>","null","fixation","","","","","","","","","45","","",""
"revaluation","172","933226","0.0-5.0-2.0-0.23","spark_pilot_norest","9154","4","14","Female","","false","","","","","","[1571,1562]","./assets/img/ocean/memory/40.jpg","[""ArrowUp"",""ArrowLeft""]","value training","ocean","26","{""ArrowUp,ArrowLeft"":26,""ArrowUp,ArrowRight"":10,""ArrowDown,ArrowLeft"":5,""ArrowDown,ArrowRight"":17}","true","ArrowUp,ArrowLeft","false","revaluation","1","46","","",""
"html-keyboard-response","173","933728","0.0-5.0-2.0-1.23","spark_pilot_norest","9154","4","14","Female","","","","","","","","null","<div style=""font-size:60px;"">+</div>","null","fixation","","","","","","","","","47","","",""
"revaluation","174","939733","0.0-5.0-2.0-0.24","spark_pilot_norest","9154","4","14","Female","","false","","","","","","[440,1726]","./assets/img/ocean/memory/36.jpg","[""ArrowUp"",""ArrowRight""]","value training","ocean","10","{""ArrowUp,ArrowLeft"":26,""ArrowUp,ArrowRight"":10,""ArrowDown,ArrowLeft"":5,""ArrowDown,ArrowRight"":17}","false","ArrowUp,ArrowRight","false","revaluation","1","48","","",""
"html-keyboard-response","175","940236","0.0-5.0-2.0-1.24","spark_pilot_norest","9154","4","14","Female","","","","","","","","null","<div style=""font-size:60px;"">+</div>","null","fixation","","","","","","","","","49","","",""
"revaluation","176","946241","0.0-5.0-2.0-0.25","spark_pilot_norest","9154","4","14","Female","","false","","","","","","[428,458.9999999998836]","./assets/img/ocean/memory/41.jpg","[""ArrowUp"",""ArrowLeft""]","value training","ocean","26","{""ArrowUp,ArrowLeft"":26,""ArrowUp,ArrowRight"":10,""ArrowDown,ArrowLeft"":5,""ArrowDown,ArrowRight"":17}","true","ArrowUp,ArrowLeft","false","revaluation","1","50","","",""
"html-keyboard-response","177","946743","0.0-5.0-2.0-1.25","spark_pilot_norest","9154","4","14","Female","","","","","","","","null","<div style=""font-size:60px;"">+</div>","null","fixation","","","","","","","","","51","","",""
"revaluation","178","952748","0.0-5.0-2.0-0.26","spark_pilot_norest","9154","4","14","Female","","false","","","","","","[745,1024]","./assets/img/ocean/memory/33.jpg","[""ArrowUp"",""ArrowLeft""]","value training","ocean","26","{""ArrowUp,ArrowLeft"":26,""ArrowUp,ArrowRight"":10,""ArrowDown,ArrowLeft"":5,""ArrowDown,ArrowRight"":17}","true","ArrowUp,ArrowLeft","false","revaluation","1","52","","",""
"html-keyboard-response","179","953250","0.0-5.0-2.0-1.26","spark_pilot_norest","9154","4","14","Female","","","","","","","","null","<div style=""font-size:60px;"">+</div>","null","fixation","","","","","","","","","53","","",""
"revaluation","180","959256","0.0-5.0-2.0-0.27","spark_pilot_norest","9154","4","14","Female","","false","","","","","","[678,709]","./assets/img/ocean/memory/2.jpg","[""ArrowUp"",""ArrowLeft""]","value training","ocean","26","{""ArrowUp,ArrowLeft"":26,""ArrowUp,ArrowRight"":10,""ArrowDown,ArrowLeft"":5,""ArrowDown,ArrowRight"":17}","true","ArrowUp,ArrowLeft","false","revaluation","1","54","","",""
"html-keyboard-response","181","959758","0.0-5.0-2.0-1.27","spark_pilot_norest","9154","4","14","Female","","","","","","","","null","<div style=""font-size:60px;"">+</div>","null","fixation","","","","","","","","","55","","",""
"revaluation","182","965763","0.0-5.0-2.0-0.28","spark_pilot_norest","9154","4","14","Female","","false","","","","","","[594,529]","./assets/img/ocean/memory/26.jpg","[""ArrowUp"",""ArrowLeft""]","value training","ocean","26","{""ArrowUp,ArrowLeft"":26,""ArrowUp,ArrowRight"":10,""ArrowDown,ArrowLeft"":5,""ArrowDown,ArrowRight"":17}","true","ArrowUp,ArrowLeft","false","revaluation","1","56","","",""
"html-keyboard-response","183","966264","0.0-5.0-2.0-1.28","spark_pilot_norest","9154","4","14","Female","","","","","","","","null","<div style=""font-size:60px;"">+</div>","null","fixation","","","","","","","","","57","","",""
"revaluation","184","972270","0.0-5.0-2.0-0.29","spark_pilot_norest","9154","4","14","Female","","false","","","","","","[656.0000000001164,613.9999999998836]","./assets/img/ocean/memory/38.jpg","[""ArrowUp"",""ArrowLeft""]","value training","ocean","26","{""ArrowUp,ArrowLeft"":26,""ArrowUp,ArrowRight"":10,""ArrowDown,ArrowLeft"":5,""ArrowDown,ArrowRight"":17}","true","ArrowUp,ArrowLeft","false","revaluation","1","58","","",""
"html-keyboard-response","185","972772","0.0-5.0-2.0-1.29","spark_pilot_norest","9154","4","14","Female","","","","","","","","null","<div style=""font-size:60px;"">+</div>","null","fixation","","","","","","","","","59","","",""
"revaluation","186","978777","0.0-5.0-2.0-0.30","spark_pilot_norest","9154","4","14","Female","","false","","","","","","[516,779]","./assets/img/ocean/memory/41.jpg","[""ArrowUp"",""ArrowLeft""]","value training","ocean","26","{""ArrowUp,ArrowLeft"":26,""ArrowUp,ArrowRight"":10,""ArrowDown,ArrowLeft"":5,""ArrowDown,ArrowRight"":17}","true","ArrowUp,ArrowLeft","false","revaluation","1","60","","",""
"html-keyboard-response","187","979280","0.0-5.0-2.0-1.30","spark_pilot_norest","9154","4","14","Female","","","","","","","","null","<div style=""font-size:60px;"">+</div>","null","fixation","","","","","","","","","61","","",""
"revaluation","188","985285","0.0-5.0-2.0-0.31","spark_pilot_norest","9154","4","14","Female","","false","","","","","","[640.0000000001164,791]","./assets/img/ocean/memory/18.jpg","[""ArrowUp"",""ArrowLeft""]","value training","ocean","26","{""ArrowUp,ArrowLeft"":26,""ArrowUp,ArrowRight"":10,""ArrowDown,ArrowLeft"":5,""ArrowDown,ArrowRight"":17}","true","ArrowUp,ArrowLeft","false","revaluation","1","62","","",""
"html-keyboard-response","189","985787","0.0-5.0-2.0-1.31","spark_pilot_norest","9154","4","14","Female","","","","","","","","null","<div style=""font-size:60px;"">+</div>","null","fixation","","","","","","","","","63","","",""
"revaluation","190","991792","0.0-5.0-2.0-0.32","spark_pilot_norest","9154","4","14","Female","","false","","","","","","[1109.0000000001164,828]","./assets/img/ocean/memory/34.jpg","[""ArrowUp"",""ArrowLeft""]","value training","ocean","26","{""ArrowUp,ArrowLeft"":26,""ArrowUp,ArrowRight"":10,""ArrowDown,ArrowLeft"":5,""ArrowDown,ArrowRight"":17}","true","ArrowUp,ArrowLeft","false","revaluation","1","64","","",""
"html-keyboard-response","191","992295","0.0-5.0-2.0-1.32","spark_pilot_norest","9154","4","14","Female","","","","","","","","null","<div style=""font-size:60px;"">+</div>","null","fixation","","","","","","","","","65","","",""
"revaluation","192","998299","0.0-5.0-2.0-0.33","spark_pilot_norest","9154","4","14","Female","","false","","","","","","[368.9999999998836,816.0000000001164]","./assets/img/ocean/memory/3.jpg","[""ArrowUp"",""ArrowLeft""]","value training","ocean","26","{""ArrowUp,ArrowLeft"":26,""ArrowUp,ArrowRight"":10,""ArrowDown,ArrowLeft"":5,""ArrowDown,ArrowRight"":17}","true","ArrowUp,ArrowLeft","false","revaluation","1","66","","",""
"html-keyboard-response","193","998800","0.0-5.0-2.0-1.33","spark_pilot_norest","9154","4","14","Female","","","","","","","","null","<div style=""font-size:60px;"">+</div>","null","fixation","","","","","","","","","67","","",""
"revaluation","194","1004806","0.0-5.0-2.0-0.34","spark_pilot_norest","9154","4","14","Female","","false","","","","","","[831.9999999998836,935]","./assets/img/ocean/memory/1.jpg","[""ArrowUp"",""ArrowLeft""]","value training","ocean","26","{""ArrowUp,ArrowLeft"":26,""ArrowUp,ArrowRight"":10,""ArrowDown,ArrowLeft"":5,""ArrowDown,ArrowRight"":17}","true","ArrowUp,ArrowLeft","false","revaluation","1","68","","",""
"html-keyboard-response","195","1005308","0.0-5.0-2.0-1.34","spark_pilot_norest","9154","4","14","Female","","","","","","","","null","<div style=""font-size:60px;"">+</div>","null","fixation","","","","","","","","","69","","",""
"revaluation","196","1011312","0.0-5.0-2.0-0.35","spark_pilot_norest","9154","4","14","Female","","false","","","","","","[948.0000000001164,618.9999999998836]","./assets/img/ocean/memory/34.jpg","[""ArrowUp"",""ArrowLeft""]","value training","ocean","26","{""ArrowUp,ArrowLeft"":26,""ArrowUp,ArrowRight"":10,""ArrowDown,ArrowLeft"":5,""ArrowDown,ArrowRight"":17}","true","ArrowUp,ArrowLeft","false","revaluation","1","70","","",""
"html-keyboard-response","197","1011815","0.0-5.0-2.0-1.35","spark_pilot_norest","9154","4","14","Female","","","","","","","","null","<div style=""font-size:60px;"">+</div>","null","fixation","","","","","","","","","71","","",""
"revaluation","198","1015818","0.0-5.0-2.0-0.36","spark_pilot_norest","9154","4","14","Female","","false","","","","","","[1057.0000000001164]","./assets/img/ocean/catch/2.jpg","[""spaceBar""]","value training","ocean","0","{""ArrowUp,ArrowLeft"":26,""ArrowUp,ArrowRight"":10,""ArrowDown,ArrowLeft"":5,""ArrowDown,ArrowRight"":17}","true","spaceBar","true","revaluation","1","72","","",""
"html-keyboard-response","199","1016320","0.0-5.0-2.0-1.36","spark_pilot_norest","9154","4","14","Female","","","","","","","","null","<div style=""font-size:60px;"">+</div>","null","fixation","","","","","","","","","73","","",""
"revaluation","200","1022325","0.0-5.0-2.0-0.37","spark_pilot_norest","9154","4","14","Female","","false","","","","","","[1152,1087]","./assets/img/ocean/memory/2.jpg","[""ArrowUp"",""ArrowLeft""]","value training","ocean","26","{""ArrowUp,ArrowLeft"":26,""ArrowUp,ArrowRight"":10,""ArrowDown,ArrowLeft"":5,""ArrowDown,ArrowRight"":17}","true","ArrowUp,ArrowLeft","false","revaluation","1","74","","",""
"html-keyboard-response","201","1022827","0.0-5.0-2.0-1.37","spark_pilot_norest","9154","4","14","Female","","","","","","","","null","<div style=""font-size:60px;"">+</div>","null","fixation","","","","","","","","","75","","",""
"revaluation","202","1028832","0.0-5.0-2.0-0.38","spark_pilot_norest","9154","4","14","Female","","false","","","","","","[708.9999999997672,364]","./assets/img/ocean/memory/36.jpg","[""ArrowUp"",""ArrowLeft""]","value training","ocean","26","{""ArrowUp,ArrowLeft"":26,""ArrowUp,ArrowRight"":10,""ArrowDown,ArrowLeft"":5,""ArrowDown,ArrowRight"":17}","true","ArrowUp,ArrowLeft","false","revaluation","1","76","","",""
"html-keyboard-response","203","1029334","0.0-5.0-2.0-1.38","spark_pilot_norest","9154","4","14","Female","","","","","","","","null","<div style=""font-size:60px;"">+</div>","null","fixation","","","","","","","","","77","","",""
"revaluation","204","1035340","0.0-5.0-2.0-0.39","spark_pilot_norest","9154","4","14","Female","","false","","","","","","[945.0000000002328,505.0000000001164]","./assets/img/ocean/memory/17.jpg","[""ArrowUp"",""ArrowRight""]","value training","ocean","10","{""ArrowUp,ArrowLeft"":26,""ArrowUp,ArrowRight"":10,""ArrowDown,ArrowLeft"":5,""ArrowDown,ArrowRight"":17}","false","ArrowUp,ArrowRight","false","revaluation","1","78","","",""
"html-keyboard-response","205","1035842","0.0-5.0-2.0-1.39","spark_pilot_norest","9154","4","14","Female","","","","","","","","null","<div style=""font-size:60px;"">+</div>","null","fixation","","","","","","","","","79","","",""
"revaluation","206","1039846","0.0-5.0-2.0-0.40","spark_pilot_norest","9154","4","14","Female","","false","","","","","","[1350.0000000001164]","./assets/img/ocean/catch/5.jpg","[""spaceBar""]","value training","ocean","0","{""ArrowUp,ArrowLeft"":26,""ArrowUp,ArrowRight"":10,""ArrowDown,ArrowLeft"":5,""ArrowDown,ArrowRight"":17}","true","spaceBar","true","revaluation","1","80","","",""
"html-keyboard-response","207","1040348","0.0-5.0-2.0-1.40","spark_pilot_norest","9154","4","14","Female","","","","","","","","null","<div style=""font-size:60px;"">+</div>","null","fixation","","","","","","","","","81","","",""
"revaluation","208","1046353","0.0-5.0-2.0-0.41","spark_pilot_norest","9154","4","14","Female","","false","","","","","","[748,609.9999999998836]","./assets/img/ocean/memory/11.jpg","[""ArrowUp"",""ArrowLeft""]","value training","ocean","26","{""ArrowUp,ArrowLeft"":26,""ArrowUp,ArrowRight"":10,""ArrowDown,ArrowLeft"":5,""ArrowDown,ArrowRight"":17}","true","ArrowUp,ArrowLeft","false","revaluation","1","82","","",""
"html-keyboard-response","209","1046856","0.0-5.0-2.0-1.41","spark_pilot_norest","9154","4","14","Female","","","","","","","","null","<div style=""font-size:60px;"">+</div>","null","fixation","","","","","","","","","83","","",""
"revaluation","210","1052861","0.0-5.0-2.0-0.42","spark_pilot_norest","9154","4","14","Female","","false","","","","","","[944,911.0000000002328]","./assets/img/ocean/memory/35.jpg","[""ArrowUp"",""ArrowLeft""]","value training","ocean","26","{""ArrowUp,ArrowLeft"":26,""ArrowUp,ArrowRight"":10,""ArrowDown,ArrowLeft"":5,""ArrowDown,ArrowRight"":17}","true","ArrowUp,ArrowLeft","false","revaluation","1","84","","",""
"html-keyboard-response","211","1053363","0.0-5.0-2.0-1.42","spark_pilot_norest","9154","4","14","Female","","","","","","","","null","<div style=""font-size:60px;"">+</div>","null","fixation","","","","","","","","","85","","",""
"revaluation","212","1059368","0.0-5.0-2.0-0.43","spark_pilot_norest","9154","4","14","Female","","false","","","","","","[548,612]","./assets/img/ocean/memory/1.jpg","[""ArrowUp"",""ArrowLeft""]","value training","ocean","26","{""ArrowUp,ArrowLeft"":26,""ArrowUp,ArrowRight"":10,""ArrowDown,ArrowLeft"":5,""ArrowDown,ArrowRight"":17}","true","ArrowUp,ArrowLeft","false","revaluation","1","86","","",""
"html-keyboard-response","213","1059870","0.0-5.0-2.0-1.43","spark_pilot_norest","9154","4","14","Female","","","","","","","","null","<div style=""font-size:60px;"">+</div>","null","fixation","","","","","","","","","87","","",""
"revaluation","214","1065875","0.0-5.0-2.0-0.44","spark_pilot_norest","9154","4","14","Female","","true","","","","","","[561.0000000002328]","./assets/img/ocean/memory/11.jpg","[""ArrowUp""]","value training","ocean","-5","{""ArrowUp,ArrowLeft"":26,""ArrowUp,ArrowRight"":10,""ArrowDown,ArrowLeft"":5,""ArrowDown,ArrowRight"":17}","false","ArrowUp","false","revaluation","1","88","","",""
"html-keyboard-response","215","1066377","0.0-5.0-2.0-1.44","spark_pilot_norest","9154","4","14","Female","","","","","","","","null","<div style=""font-size:60px;"">+</div>","null","fixation","","","","","","","","","89","","",""
"revaluation","216","1072381","0.0-5.0-2.0-0.45","spark_pilot_norest","9154","4","14","Female","","false","","","","","","[982,933]","./assets/img/ocean/memory/13.jpg","[""ArrowUp"",""ArrowLeft""]","value training","ocean","26","{""ArrowUp,ArrowLeft"":26,""ArrowUp,ArrowRight"":10,""ArrowDown,ArrowLeft"":5,""ArrowDown,ArrowRight"":17}","true","ArrowUp,ArrowLeft","false","revaluation","1","90","","",""
"html-keyboard-response","217","1072883","0.0-5.0-2.0-1.45","spark_pilot_norest","9154","4","14","Female","","","","","","","","null","<div style=""font-size:60px;"">+</div>","null","fixation","","","","","","","","","91","","",""
"revaluation","218","1076887","0.0-5.0-2.0-0.46","spark_pilot_norest","9154","4","14","Female","","false","","","","","","[1035.9999999997672]","./assets/img/ocean/catch/7.jpg","[""spaceBar""]","value training","ocean","0","{""ArrowUp,ArrowLeft"":26,""ArrowUp,ArrowRight"":10,""ArrowDown,ArrowLeft"":5,""ArrowDown,ArrowRight"":17}","true","spaceBar","true","revaluation","1","92","","",""
"html-keyboard-response","219","1077390","0.0-5.0-2.0-1.46","spark_pilot_norest","9154","4","14","Female","","","","","","","","null","<div style=""font-size:60px;"">+</div>","null","fixation","","","","","","","","","93","","",""
"revaluation","220","1081394","0.0-5.0-2.0-0.47","spark_pilot_norest","9154","4","14","Female","","false","","","","","","[1058]","./assets/img/ocean/catch/6.jpg","[""spaceBar""]","value training","ocean","0","{""ArrowUp,ArrowLeft"":26,""ArrowUp,ArrowRight"":10,""ArrowDown,ArrowLeft"":5,""ArrowDown,ArrowRight"":17}","true","spaceBar","true","revaluation","1","94","","",""
"html-keyboard-response","221","1081895","0.0-5.0-2.0-1.47","spark_pilot_norest","9154","4","14","Female","","","","","","","","null","<div style=""font-size:60px;"">+</div>","null","fixation","","","","","","","","","95","","",""
"revaluation","222","1085899","0.0-5.0-2.0-0.48","spark_pilot_norest","9154","4","14","Female","","false","","","","","","[872.0000000002328]","./assets/img/ocean/catch/4.jpg","[""spaceBar""]","value training","ocean","0","{""ArrowUp,ArrowLeft"":26,""ArrowUp,ArrowRight"":10,""ArrowDown,ArrowLeft"":5,""ArrowDown,ArrowRight"":17}","true","spaceBar","true","revaluation","1","96","","",""
"html-keyboard-response","223","1086402","0.0-5.0-2.0-1.48","spark_pilot_norest","9154","4","14","Female","","","","","","","","null","<div style=""font-size:60px;"">+</div>","null","fixation","","","","","","","","","97","","",""
"revaluation","224","1092407","0.0-5.0-2.0-0.49","spark_pilot_norest","9154","4","14","Female","","false","","","","","","[1582,412.99999999976717]","./assets/img/ocean/memory/26.jpg","[""ArrowUp"",""ArrowLeft""]","value training","ocean","26","{""ArrowUp,ArrowLeft"":26,""ArrowUp,ArrowRight"":10,""ArrowDown,ArrowLeft"":5,""ArrowDown,ArrowRight"":17}","true","ArrowUp,ArrowLeft","false","revaluation","1","98","","",""
"html-keyboard-response","225","1092909","0.0-5.0-2.0-1.49","spark_pilot_norest","9154","4","14","Female","","","","","","","","null","<div style=""font-size:60px;"">+</div>","null","fixation","","","","","","","","","99","","",""
"learning-instructions","226","1110692","0.0-5.0-3.0-0.0","spark_pilot_norest","9154","4","14","Female","","","","","","","","4900.000000000233","<p> Now, you will travel with a friend who will choose whether you go up or down first. </p>
            <p> On these turns, you will just see the animal that they found. You will still get to choose which chest to search for treasure.</p>","","instructions","","","","","","","","","","","",""
"revaluation","227","1114695","0.0-5.0-4.0-0.0","spark_pilot_norest","9154","4","14","Female","","false","","","","","","[1588]","./assets/img/ocean/animals/octopus.jpg","[""ArrowLeft""]","revaluation","ocean","2","{""ArrowUp,ArrowLeft"":2,""ArrowUp,ArrowRight"":11,""ArrowDown,ArrowLeft"":8,""ArrowDown,ArrowRight"":27}","false","ArrowUp,ArrowLeft","","revaluation","1","0","","",""
"html-keyboard-response","228","1115198","0.0-5.0-4.0-1.0","spark_pilot_norest","9154","4","14","Female","","","","","","","","null","<div style=""font-size:60px;"">+</div>","null","fixation","","","","","","","","","1","","",""
"revaluation","229","1119203","0.0-5.0-4.0-0.1","spark_pilot_norest","9154","4","14","Female","","false","","","","","","[521.0000000002328]","./assets/img/ocean/animals/octopus.jpg","[""ArrowRight""]","revaluation","ocean","11","{""ArrowUp,ArrowLeft"":2,""ArrowUp,ArrowRight"":11,""ArrowDown,ArrowLeft"":8,""ArrowDown,ArrowRight"":27}","true","ArrowUp,ArrowRight","","revaluation","1","2","","",""
"html-keyboard-response","230","1119705","0.0-5.0-4.0-1.1","spark_pilot_norest","9154","4","14","Female","","","","","","","","null","<div style=""font-size:60px;"">+</div>","null","fixation","","","","","","","","","3","","",""
"revaluation","231","1123709","0.0-5.0-4.0-0.2","spark_pilot_norest","9154","4","14","Female","","false","","","","","","[863]","./assets/img/ocean/animals/octopus.jpg","[""ArrowRight""]","revaluation","ocean","11","{""ArrowUp,ArrowLeft"":2,""ArrowUp,ArrowRight"":11,""ArrowDown,ArrowLeft"":8,""ArrowDown,ArrowRight"":27}","true","ArrowUp,ArrowRight","","revaluation","1","4","","",""
"html-keyboard-response","232","1124211","0.0-5.0-4.0-1.2","spark_pilot_norest","9154","4","14","Female","","","","","","","","null","<div style=""font-size:60px;"">+</div>","null","fixation","","","","","","","","","5","","",""
"revaluation","233","1128215","0.0-5.0-4.0-0.3","spark_pilot_norest","9154","4","14","Female","","false","","","","","","[396.99999999976717]","./assets/img/ocean/animals/octopus.jpg","[""ArrowRight""]","revaluation","ocean","11","{""ArrowUp,ArrowLeft"":2,""ArrowUp,ArrowRight"":11,""ArrowDown,ArrowLeft"":8,""ArrowDown,ArrowRight"":27}","true","ArrowUp,ArrowRight","","revaluation","1","6","","",""
"html-keyboard-response","234","1128717","0.0-5.0-4.0-1.3","spark_pilot_norest","9154","4","14","Female","","","","","","","","null","<div style=""font-size:60px;"">+</div>","null","fixation","","","","","","","","","7","","",""
"revaluation","235","1132721","0.0-5.0-4.0-0.4","spark_pilot_norest","9154","4","14","Female","","false","","","","","","[394]","./assets/img/ocean/animals/octopus.jpg","[""ArrowRight""]","revaluation","ocean","11","{""ArrowUp,ArrowLeft"":2,""ArrowUp,ArrowRight"":11,""ArrowDown,ArrowLeft"":8,""ArrowDown,ArrowRight"":27}","true","ArrowUp,ArrowRight","","revaluation","1","8","","",""
"html-keyboard-response","236","1133223","0.0-5.0-4.0-1.4","spark_pilot_norest","9154","4","14","Female","","","","","","","","null","<div style=""font-size:60px;"">+</div>","null","fixation","","","","","","","","","9","","",""
"revaluation","237","1137227","0.0-5.0-4.0-0.5","spark_pilot_norest","9154","4","14","Female","","false","","","","","","[960]","./assets/img/ocean/animals/seahorse.jpg","[""ArrowRight""]","revaluation","ocean","27","{""ArrowUp,ArrowLeft"":2,""ArrowUp,ArrowRight"":11,""ArrowDown,ArrowLeft"":8,""ArrowDown,ArrowRight"":27}","true","ArrowDown,ArrowRight","","revaluation","1","10","","",""
"html-keyboard-response","238","1137728","0.0-5.0-4.0-1.5","spark_pilot_norest","9154","4","14","Female","","","","","","","","null","<div style=""font-size:60px;"">+</div>","null","fixation","","","","","","","","","11","","",""
"revaluation","239","1141732","0.0-5.0-4.0-0.6","spark_pilot_norest","9154","4","14","Female","","false","","","","","","[599]","./assets/img/ocean/animals/seahorse.jpg","[""ArrowRight""]","revaluation","ocean","27","{""ArrowUp,ArrowLeft"":2,""ArrowUp,ArrowRight"":11,""ArrowDown,ArrowLeft"":8,""ArrowDown,ArrowRight"":27}","true","ArrowDown,ArrowRight","","revaluation","1","12","","",""
"html-keyboard-response","240","1142234","0.0-5.0-4.0-1.6","spark_pilot_norest","9154","4","14","Female","","","","","","","","null","<div style=""font-size:60px;"">+</div>","null","fixation","","","","","","","","","13","","",""
"revaluation","241","1146238","0.0-5.0-4.0-0.7","spark_pilot_norest","9154","4","14","Female","","false","","","","","","[445]","./assets/img/ocean/animals/seahorse.jpg","[""ArrowLeft""]","revaluation","ocean","8","{""ArrowUp,ArrowLeft"":2,""ArrowUp,ArrowRight"":11,""ArrowDown,ArrowLeft"":8,""ArrowDown,ArrowRight"":27}","false","ArrowDown,ArrowLeft","","revaluation","1","14","","",""
"html-keyboard-response","242","1146740","0.0-5.0-4.0-1.7","spark_pilot_norest","9154","4","14","Female","","","","","","","","null","<div style=""font-size:60px;"">+</div>","null","fixation","","","","","","","","","15","","",""
"revaluation","243","1150744","0.0-5.0-4.0-0.8","spark_pilot_norest","9154","4","14","Female","","false","","","","","","[596.0000000002328]","./assets/img/ocean/animals/seahorse.jpg","[""ArrowRight""]","revaluation","ocean","27","{""ArrowUp,ArrowLeft"":2,""ArrowUp,ArrowRight"":11,""ArrowDown,ArrowLeft"":8,""ArrowDown,ArrowRight"":27}","true","ArrowDown,ArrowRight","","revaluation","1","16","","",""
"html-keyboard-response","244","1151247","0.0-5.0-4.0-1.8","spark_pilot_norest","9154","4","14","Female","","","","","","","","null","<div style=""font-size:60px;"">+</div>","null","fixation","","","","","","","","","17","","",""
"revaluation","245","1155250","0.0-5.0-4.0-0.9","spark_pilot_norest","9154","4","14","Female","","false","","","","","","[865]","./assets/img/ocean/animals/octopus.jpg","[""ArrowRight""]","revaluation","ocean","11","{""ArrowUp,ArrowLeft"":2,""ArrowUp,ArrowRight"":11,""ArrowDown,ArrowLeft"":8,""ArrowDown,ArrowRight"":27}","true","ArrowUp,ArrowRight","","revaluation","1","18","","",""
"html-keyboard-response","246","1155752","0.0-5.0-4.0-1.9","spark_pilot_norest","9154","4","14","Female","","","","","","","","null","<div style=""font-size:60px;"">+</div>","null","fixation","","","","","","","","","19","","",""
"revaluation","247","1159756","0.0-5.0-4.0-0.10","spark_pilot_norest","9154","4","14","Female","","false","","","","","","[671]","./assets/img/ocean/animals/seahorse.jpg","[""ArrowRight""]","revaluation","ocean","27","{""ArrowUp,ArrowLeft"":2,""ArrowUp,ArrowRight"":11,""ArrowDown,ArrowLeft"":8,""ArrowDown,ArrowRight"":27}","true","ArrowDown,ArrowRight","","revaluation","1","20","","",""
"html-keyboard-response","248","1160258","0.0-5.0-4.0-1.10","spark_pilot_norest","9154","4","14","Female","","","","","","","","null","<div style=""font-size:60px;"">+</div>","null","fixation","","","","","","","","","21","","",""
"revaluation","249","1164262","0.0-5.0-4.0-0.11","spark_pilot_norest","9154","4","14","Female","","false","","","","","","[372.99999999976717]","./assets/img/ocean/animals/seahorse.jpg","[""ArrowRight""]","revaluation","ocean","27","{""ArrowUp,ArrowLeft"":2,""ArrowUp,ArrowRight"":11,""ArrowDown,ArrowLeft"":8,""ArrowDown,ArrowRight"":27}","true","ArrowDown,ArrowRight","","revaluation","1","22","","",""
"html-keyboard-response","250","1164764","0.0-5.0-4.0-1.11","spark_pilot_norest","9154","4","14","Female","","","","","","","","null","<div style=""font-size:60px;"">+</div>","null","fixation","","","","","","","","","23","","",""
"revaluation","251","1168768","0.0-5.0-4.0-0.12","spark_pilot_norest","9154","4","14","Female","","false","","","","","","[355]","./assets/img/ocean/animals/seahorse.jpg","[""ArrowRight""]","revaluation","ocean","27","{""ArrowUp,ArrowLeft"":2,""ArrowUp,ArrowRight"":11,""ArrowDown,ArrowLeft"":8,""ArrowDown,ArrowRight"":27}","true","ArrowDown,ArrowRight","","revaluation","1","24","","",""
"html-keyboard-response","252","1169271","0.0-5.0-4.0-1.12","spark_pilot_norest","9154","4","14","Female","","","","","","","","null","<div style=""font-size:60px;"">+</div>","null","fixation","","","","","","","","","25","","",""
"revaluation","253","1173275","0.0-5.0-4.0-0.13","spark_pilot_norest","9154","4","14","Female","","false","","","","","","[465]","./assets/img/ocean/animals/seahorse.jpg","[""ArrowRight""]","revaluation","ocean","27","{""ArrowUp,ArrowLeft"":2,""ArrowUp,ArrowRight"":11,""ArrowDown,ArrowLeft"":8,""ArrowDown,ArrowRight"":27}","true","ArrowDown,ArrowRight","","revaluation","1","26","","",""
"html-keyboard-response","254","1173777","0.0-5.0-4.0-1.13","spark_pilot_norest","9154","4","14","Female","","","","","","","","null","<div style=""font-size:60px;"">+</div>","null","fixation","","","","","","","","","27","","",""
"revaluation","255","1177781","0.0-5.0-4.0-0.14","spark_pilot_norest","9154","4","14","Female","","false","","","","","","[519]","./assets/img/ocean/animals/octopus.jpg","[""ArrowRight""]","revaluation","ocean","11","{""ArrowUp,ArrowLeft"":2,""ArrowUp,ArrowRight"":11,""ArrowDown,ArrowLeft"":8,""ArrowDown,ArrowRight"":27}","true","ArrowUp,ArrowRight","","revaluation","1","28","","",""
"html-keyboard-response","256","1178283","0.0-5.0-4.0-1.14","spark_pilot_norest","9154","4","14","Female","","","","","","","","null","<div style=""font-size:60px;"">+</div>","null","fixation","","","","","","","","","29","","",""
"revaluation","257","1182293","0.0-5.0-4.0-0.15","spark_pilot_norest","9154","4","14","Female","","false","","","","","","[607]","./assets/img/ocean/animals/seahorse.jpg","[""ArrowRight""]","revaluation","ocean","27","{""ArrowUp,ArrowLeft"":2,""ArrowUp,ArrowRight"":11,""ArrowDown,ArrowLeft"":8,""ArrowDown,ArrowRight"":27}","true","ArrowDown,ArrowRight","","revaluation","1","30","","",""
"html-keyboard-response","258","1182795","0.0-5.0-4.0-1.15","spark_pilot_norest","9154","4","14","Female","","","","","","","","null","<div style=""font-size:60px;"">+</div>","null","fixation","","","","","","","","","31","","",""
"revaluation","259","1186799","0.0-5.0-4.0-0.16","spark_pilot_norest","9154","4","14","Female","","false","","","","","","[757]","./assets/img/ocean/animals/octopus.jpg","[""ArrowRight""]","revaluation","ocean","11","{""ArrowUp,ArrowLeft"":2,""ArrowUp,ArrowRight"":11,""ArrowDown,ArrowLeft"":8,""ArrowDown,ArrowRight"":27}","true","ArrowUp,ArrowRight","","revaluation","1","32","","",""
"html-keyboard-response","260","1187301","0.0-5.0-4.0-1.16","spark_pilot_norest","9154","4","14","Female","","","","","","","","null","<div style=""font-size:60px;"">+</div>","null","fixation","","","","","","","","","33","","",""
"revaluation","261","1191305","0.0-5.0-4.0-0.17","spark_pilot_norest","9154","4","14","Female","","false","","","","","","[586]","./assets/img/ocean/animals/octopus.jpg","[""ArrowRight""]","revaluation","ocean","11","{""ArrowUp,ArrowLeft"":2,""ArrowUp,ArrowRight"":11,""ArrowDown,ArrowLeft"":8,""ArrowDown,ArrowRight"":27}","true","ArrowUp,ArrowRight","","revaluation","1","34","","",""
"html-keyboard-response","262","1191807","0.0-5.0-4.0-1.17","spark_pilot_norest","9154","4","14","Female","","","","","","","","null","<div style=""font-size:60px;"">+</div>","null","fixation","","","","","","","","","35","","",""
"learning-instructions","263","1199911","0.0-5.0-5.0-0.0","spark_pilot_norest","9154","4","14","Female","","","","","","","","null","<p> You have almost finished this part of the game! </p>
            <p> We are going to ask you to make a few more choices. </p>","","instructions","","","","","","","","","","","",""
"learning-instructions","264","1215884","0.0-5.0-5.0-0.1","spark_pilot_norest","9154","4","14","Female","","","","","","","","null","<p> First, you need to decide whether to go up or down. When you see each picture, use the arrow keys to make your choice. </p>
            <p><b>You will not see which animal you found, but try to get to the one that will give you the most treasure.</b></p>","","instructions","","","","","","","","","","","",""
"html-keyboard-response","265","1216887","0.0-5.0-6.0-0.0","spark_pilot_norest","9154","4","14","Female","","","","","","","","null","<div style=""font-size:100px;color:red;"">Starting in...</div>","null","","","","","","","","","","","","",""
"html-keyboard-response","266","1217888","0.0-5.0-6.0-1.0","spark_pilot_norest","9154","4","14","Female","","","","","","","","null","<div style=""font-size:200px;color:red;"">3</div>","null","","","","","","","","","","","","",""
"html-keyboard-response","267","1218890","0.0-5.0-6.0-2.0","spark_pilot_norest","9154","4","14","Female","","","","","","","","null","<div style=""font-size:200px;color:red;"">2</div>","null","","","","","","","","","","","","",""
"html-keyboard-response","268","1219891","0.0-5.0-6.0-3.0","spark_pilot_norest","9154","4","14","Female","","","","","","","","null","<div style=""font-size:200px;color:red;"">1</div>","null","","","","","","","","","","","","",""
"revaluation","269","1220689","0.0-5.0-7.0-0.0","spark_pilot_norest","9154","4","14","Female","","false","","","","","","[793]","./assets/img/ocean/test/2.jpg","[""ArrowUp""]","first stage test","ocean","0","{""ArrowUp,ArrowLeft"":2,""ArrowUp,ArrowRight"":11,""ArrowDown,ArrowLeft"":8,""ArrowDown,ArrowRight"":27}","false","ArrowUp","false","revaluation","1","","","",""
"html-keyboard-response","270","1221192","0.0-5.0-7.0-1.0","spark_pilot_norest","9154","4","14","Female","","","","","","","","null","<div style=""font-size:60px;"">+</div>","null","fixation","","","","","","","","","","","",""
"revaluation","271","1222849","0.0-5.0-7.0-0.1","spark_pilot_norest","9154","4","14","Female","","false","","","","","","[1655]","./assets/img/ocean/test/3.jpg","[""ArrowUp""]","first stage test","ocean","0","{""ArrowUp,ArrowLeft"":2,""ArrowUp,ArrowRight"":11,""ArrowDown,ArrowLeft"":8,""ArrowDown,ArrowRight"":27}","false","ArrowUp","false","revaluation","1","","","",""
"html-keyboard-response","272","1223351","0.0-5.0-7.0-1.1","spark_pilot_norest","9154","4","14","Female","","","","","","","","null","<div style=""font-size:60px;"">+</div>","null","fixation","","","","","","","","","","","",""
"revaluation","273","1224489","0.0-5.0-7.0-0.2","spark_pilot_norest","9154","4","14","Female","","false","","","","","","[1136]","./assets/img/ocean/test/0.jpg","[""ArrowUp""]","first stage test","ocean","0","{""ArrowUp,ArrowLeft"":2,""ArrowUp,ArrowRight"":11,""ArrowDown,ArrowLeft"":8,""ArrowDown,ArrowRight"":27}","false","ArrowUp","false","revaluation","1","","","",""
"html-keyboard-response","274","1224991","0.0-5.0-7.0-1.2","spark_pilot_norest","9154","4","14","Female","","","","","","","","null","<div style=""font-size:60px;"">+</div>","null","fixation","","","","","","","","","","","",""
"revaluation","275","1225729","0.0-5.0-7.0-0.3","spark_pilot_norest","9154","4","14","Female","","false","","","","","","[736]","./assets/img/ocean/test/1.jpg","[""ArrowUp""]","first stage test","ocean","0","{""ArrowUp,ArrowLeft"":2,""ArrowUp,ArrowRight"":11,""ArrowDown,ArrowLeft"":8,""ArrowDown,ArrowRight"":27}","false","ArrowUp","false","revaluation","1","","","",""
"html-keyboard-response","276","1226230","0.0-5.0-7.0-1.3","spark_pilot_norest","9154","4","14","Female","","","","","","","","null","<div style=""font-size:60px;"">+</div>","null","fixation","","","","","","","","","","","",""
"learning-instructions","277","1239571","0.0-5.0-8.0-0.0","spark_pilot_norest","9154","4","14","Female","","","","","","","","null","<p> Now you will see the animals again and can search their chests for treasure. </p>
            <p> This time, you will not see how much treasure you earned, but you will earn more bonus money for making better choices. </p>","","instructions","","","","","","","","","","","",""
"html-keyboard-response","278","1240574","0.0-5.0-9.0-0.0","spark_pilot_norest","9154","4","14","Female","","","","","","","","null","<div style=""font-size:100px;color:red;"">Starting in...</div>","null","","","","","","","","","","","","",""
"html-keyboard-response","279","1241576","0.0-5.0-9.0-1.0","spark_pilot_norest","9154","4","14","Female","","","","","","","","null","<div style=""font-size:200px;color:red;"">3</div>","null","","","","","","","","","","","","",""
"html-keyboard-response","280","1242577","0.0-5.0-9.0-2.0","spark_pilot_norest","9154","4","14","Female","","","","","","","","null","<div style=""font-size:200px;color:red;"">2</div>","null","","","","","","","","","","","","",""
"html-keyboard-response","281","1243578","0.0-5.0-9.0-3.0","spark_pilot_norest","9154","4","14","Female","","","","","","","","null","<div style=""font-size:200px;color:red;"">1</div>","null","","","","","","","","","","","","",""
"revaluation","282","1244257","0.0-5.0-10.0-0.0","spark_pilot_norest","9154","4","14","Female","","false","","","","","","[677]","./assets/img/ocean/animals/octopus.jpg","[""ArrowRight""]","second stage test","ocean","0","{""ArrowUp,ArrowLeft"":2,""ArrowUp,ArrowRight"":11,""ArrowDown,ArrowLeft"":8,""ArrowDown,ArrowRight"":27}","true","ArrowUp,ArrowRight","","revaluation","1","","","",""
"html-keyboard-response","283","1244760","0.0-5.0-10.0-1.0","spark_pilot_norest","9154","4","14","Female","","","","","","","","null","<div style=""font-size:60px;"">+</div>","null","fixation","","","","","","","","","","","",""
"revaluation","284","1245409","0.0-5.0-10.0-0.1","spark_pilot_norest","9154","4","14","Female","","false","","","","","","[647]","./assets/img/ocean/animals/octopus.jpg","[""ArrowRight""]","second stage test","ocean","0","{""ArrowUp,ArrowLeft"":2,""ArrowUp,ArrowRight"":11,""ArrowDown,ArrowLeft"":8,""ArrowDown,ArrowRight"":27}","true","ArrowUp,ArrowRight","","revaluation","1","","","",""
"html-keyboard-response","285","1245911","0.0-5.0-10.0-1.1","spark_pilot_norest","9154","4","14","Female","","","","","","","","null","<div style=""font-size:60px;"">+</div>","null","fixation","","","","","","","","","","","",""
"revaluation","286","1246417","0.0-5.0-10.0-0.2","spark_pilot_norest","9154","4","14","Female","","false","","","","","","[504]","./assets/img/ocean/animals/octopus.jpg","[""ArrowRight""]","second stage test","ocean","0","{""ArrowUp,ArrowLeft"":2,""ArrowUp,ArrowRight"":11,""ArrowDown,ArrowLeft"":8,""ArrowDown,ArrowRight"":27}","true","ArrowUp,ArrowRight","","revaluation","1","","","",""
"html-keyboard-response","287","1246919","0.0-5.0-10.0-1.2","spark_pilot_norest","9154","4","14","Female","","","","","","","","null","<div style=""font-size:60px;"">+</div>","null","fixation","","","","","","","","","","","",""
"revaluation","288","1247329","0.0-5.0-10.0-0.3","spark_pilot_norest","9154","4","14","Female","","false","","","","","","[408]","./assets/img/ocean/animals/octopus.jpg","[""ArrowRight""]","second stage test","ocean","0","{""ArrowUp,ArrowLeft"":2,""ArrowUp,ArrowRight"":11,""ArrowDown,ArrowLeft"":8,""ArrowDown,ArrowRight"":27}","true","ArrowUp,ArrowRight","","revaluation","1","","","",""
"html-keyboard-response","289","1247831","0.0-5.0-10.0-1.3","spark_pilot_norest","9154","4","14","Female","","","","","","","","null","<div style=""font-size:60px;"">+</div>","null","fixation","","","","","","","","","","","",""
"revaluation","290","1248313","0.0-5.0-10.0-0.4","spark_pilot_norest","9154","4","14","Female","","false","","","","","","[480]","./assets/img/ocean/animals/seahorse.jpg","[""ArrowRight""]","second stage test","ocean","0","{""ArrowUp,ArrowLeft"":2,""ArrowUp,ArrowRight"":11,""ArrowDown,ArrowLeft"":8,""ArrowDown,ArrowRight"":27}","true","ArrowDown,ArrowRight","","revaluation","1","","","",""
"html-keyboard-response","291","1248814","0.0-5.0-10.0-1.4","spark_pilot_norest","9154","4","14","Female","","","","","","","","null","<div style=""font-size:60px;"">+</div>","null","fixation","","","","","","","","","","","",""
"revaluation","292","1249305","0.0-5.0-10.0-0.5","spark_pilot_norest","9154","4","14","Female","","false","","","","","","[487.99999999976717]","./assets/img/ocean/animals/seahorse.jpg","[""ArrowRight""]","second stage test","ocean","0","{""ArrowUp,ArrowLeft"":2,""ArrowUp,ArrowRight"":11,""ArrowDown,ArrowLeft"":8,""ArrowDown,ArrowRight"":27}","true","ArrowDown,ArrowRight","","revaluation","1","","","",""
"html-keyboard-response","293","1249807","0.0-5.0-10.0-1.5","spark_pilot_norest","9154","4","14","Female","","","","","","","","null","<div style=""font-size:60px;"">+</div>","null","fixation","","","","","","","","","","","",""
"revaluation","294","1250128","0.0-5.0-10.0-0.6","spark_pilot_norest","9154","4","14","Female","","false","","","","","","[320]","./assets/img/ocean/animals/seahorse.jpg","[""ArrowRight""]","second stage test","ocean","0","{""ArrowUp,ArrowLeft"":2,""ArrowUp,ArrowRight"":11,""ArrowDown,ArrowLeft"":8,""ArrowDown,ArrowRight"":27}","true","ArrowDown,ArrowRight","","revaluation","1","","","",""
"html-keyboard-response","295","1250631","0.0-5.0-10.0-1.6","spark_pilot_norest","9154","4","14","Female","","","","","","","","null","<div style=""font-size:60px;"">+</div>","null","fixation","","","","","","","","","","","",""
"revaluation","296","1250936","0.0-5.0-10.0-0.7","spark_pilot_norest","9154","4","14","Female","","false","","","","","","[304]","./assets/img/ocean/animals/seahorse.jpg","[""ArrowRight""]","second stage test","ocean","0","{""ArrowUp,ArrowLeft"":2,""ArrowUp,ArrowRight"":11,""ArrowDown,ArrowLeft"":8,""ArrowDown,ArrowRight"":27}","true","ArrowDown,ArrowRight","","revaluation","1","","","",""
"html-keyboard-response","297","1251438","0.0-5.0-10.0-1.7","spark_pilot_norest","9154","4","14","Female","","","","","","","","null","<div style=""font-size:60px;"">+</div>","null","fixation","","","","","","","","","","","",""
"learning-instructions","298","1255415","0.0-5.0-0.1-0.2","spark_pilot_norest","9154","4","14","Female","","","","","","","","1222","<p> This time you are searching for treasure in the <b>canyon</b>.</p>","","instructions","","","","","","","","","","","",""
"learning-instructions","299","1273157","0.0-5.0-0.1-0.3","spark_pilot_norest","9154","4","14","Female","","","","","","","","490","<p><b>New</b> animals with <b>new</b> treasure chests live here. You need to explore to discover where the animal with the best treasure chest is.</p>
                    <p> Like before, once you figure out which animal has the chest with the most treasure, you should try to get to that animal and select that chest! </p>","","instructions","","","","","","","","","","","",""
"learning-instructions","300","1288637","0.0-5.0-1.1-0.1","spark_pilot_norest","9154","4","14","Female","","","","","","","","749","<p> Remember, when you see a picture of the place, use the up and down keys to <b>find an animal</b>.</p>
            <p> When you encounter an animal, you should use the left and right keys to <b>select a treasure chest</b>.</p>
            <p> Don't forget to look out for the robber! </p>","","instructions","","","","","","","","","","","",""
"revaluation","301","1294642","0.0-5.0-2.1-0.50","spark_pilot_norest","9154","4","14","Female","","false","","","","","","[1466,722]","./assets/img/canyon/memory/38.jpg","[""ArrowUp"",""ArrowRight""]","value training","canyon","10","{""ArrowUp,ArrowLeft"":23,""ArrowUp,ArrowRight"":10,""ArrowDown,ArrowLeft"":8,""ArrowDown,ArrowRight"":30}","false","ArrowUp,ArrowRight","false","original","2","0","","",""
"html-keyboard-response","302","1295144","0.0-5.0-2.1-1.50","spark_pilot_norest","9154","4","14","Female","","","","","","","","null","<div style=""font-size:60px;"">+</div>","null","fixation","","","","","","","","","1","","",""
"revaluation","303","1301149","0.0-5.0-2.1-0.51","spark_pilot_norest","9154","4","14","Female","","false","","","","","","[1071,1110]","./assets/img/canyon/memory/33.jpg","[""ArrowUp"",""ArrowLeft""]","value training","canyon","23","{""ArrowUp,ArrowLeft"":23,""ArrowUp,ArrowRight"":10,""ArrowDown,ArrowLeft"":8,""ArrowDown,ArrowRight"":30}","false","ArrowUp,ArrowLeft","false","original","2","2","","",""
"html-keyboard-response","304","1301651","0.0-5.0-2.1-1.51","spark_pilot_norest","9154","4","14","Female","","","","","","","","null","<div style=""font-size:60px;"">+</div>","null","fixation","","","","","","","","","3","","",""
"revaluation","305","1305655","0.0-5.0-2.1-0.52","spark_pilot_norest","9154","4","14","Female","","false","","","","","","[1490.9999999997672]","./assets/img/canyon/catch/0.jpg","[""spaceBar""]","value training","canyon","0","{""ArrowUp,ArrowLeft"":23,""ArrowUp,ArrowRight"":10,""ArrowDown,ArrowLeft"":8,""ArrowDown,ArrowRight"":30}","true","spaceBar","true","original","2","4","","",""
"html-keyboard-response","306","1306157","0.0-5.0-2.1-1.52","spark_pilot_norest","9154","4","14","Female","","","","","","","","null","<div style=""font-size:60px;"">+</div>","null","fixation","","","","","","","","","5","","",""
"revaluation","307","1312162","0.0-5.0-2.1-0.53","spark_pilot_norest","9154","4","14","Female","","false","","","","","","[962,545]","./assets/img/canyon/memory/3.jpg","[""ArrowDown"",""ArrowLeft""]","value training","canyon","8","{""ArrowUp,ArrowLeft"":23,""ArrowUp,ArrowRight"":10,""ArrowDown,ArrowLeft"":8,""ArrowDown,ArrowRight"":30}","false","ArrowDown,ArrowLeft","false","original","2","6","","",""
"html-keyboard-response","308","1312665","0.0-5.0-2.1-1.53","spark_pilot_norest","9154","4","14","Female","","","","","","","","null","<div style=""font-size:60px;"">+</div>","null","fixation","","","","","","","","","7","","",""
"revaluation","309","1318670","0.0-5.0-2.1-0.54","spark_pilot_norest","9154","4","14","Female","","false","","","","","","[526,405]","./assets/img/canyon/memory/11.jpg","[""ArrowDown"",""ArrowRight""]","value training","canyon","30","{""ArrowUp,ArrowLeft"":23,""ArrowUp,ArrowRight"":10,""ArrowDown,ArrowLeft"":8,""ArrowDown,ArrowRight"":30}","true","ArrowDown,ArrowRight","false","original","2","8","","",""
"html-keyboard-response","310","1319173","0.0-5.0-2.1-1.54","spark_pilot_norest","9154","4","14","Female","","","","","","","","null","<div style=""font-size:60px;"">+</div>","null","fixation","","","","","","","","","9","","",""
"revaluation","311","1325178","0.0-5.0-2.1-0.55","spark_pilot_norest","9154","4","14","Female","","false","","","","","","[730,562]","./assets/img/canyon/memory/33.jpg","[""ArrowUp"",""ArrowRight""]","value training","canyon","10","{""ArrowUp,ArrowLeft"":23,""ArrowUp,ArrowRight"":10,""ArrowDown,ArrowLeft"":8,""ArrowDown,ArrowRight"":30}","false","ArrowUp,ArrowRight","false","original","2","10","","",""
"html-keyboard-response","312","1325680","0.0-5.0-2.1-1.55","spark_pilot_norest","9154","4","14","Female","","","","","","","","null","<div style=""font-size:60px;"">+</div>","null","fixation","","","","","","","","","11","","",""
"revaluation","313","1331685","0.0-5.0-2.1-0.56","spark_pilot_norest","9154","4","14","Female","","false","","","","","","[535,485.99999999976717]","./assets/img/canyon/memory/13.jpg","[""ArrowUp"",""ArrowLeft""]","value training","canyon","23","{""ArrowUp,ArrowLeft"":23,""ArrowUp,ArrowRight"":10,""ArrowDown,ArrowLeft"":8,""ArrowDown,ArrowRight"":30}","false","ArrowUp,ArrowLeft","false","original","2","12","","",""
"html-keyboard-response","314","1332188","0.0-5.0-2.1-1.56","spark_pilot_norest","9154","4","14","Female","","","","","","","","null","<div style=""font-size:60px;"">+</div>","null","fixation","","","","","","","","","13","","",""
