"trial_type","trial_index","time_elapsed","internal_node_id","task_version","subject_id","assigned_condition","age","gender","success","timeout","failed_images","failed_audio","failed_video","browser_interaction","rt","stimulus","response","task_part","environment","score","rewardMap","correct","fullState","isCatch","condition","order","trial_num","key_press","ground_truth","bonus"
"pavlovia","0","1809","0.0-0.0","spark_pilot_norest","8636","5","14","Male","","","","","","","","","","","","","","","","","","","","","",""
"preload","1","12082","0.0-1.0","spark_pilot_norest","8636","5","14","Male","true","false","[]","[]","[]","[{""event"":""fullscreenenter"",""trial"":2,""time"":18768},{""event"":""blur"",""trial"":185,""time"":803256},{""event"":""focus"",""trial"":186,""time"":806804}]","","","","","","","","","","","","","","","",""
"fullscreen","2","19622","0.0-2.0","spark_pilot_norest","8636","5","14","Male","true","","","","","","","","","","","","","","","","","","","","",""
"audio-button-response","3","23709","0.0-3.0-0.0-0.0","spark_pilot_norest","8636","5","14","Male","","","","","","","3587","./assets/audio/audiotest/turtle.mp3","2","audio_test","","","","","","","","","","","",""
"learning-instructions","4","33539","0.0-3.0-1.0-0.0","spark_pilot_norest","8636","5","14","Male","","","","","","","2721.4000000059605","<p> Welcome! Please remember to stay in fullscreen mode and don't click away from the experiment. </p>","","instructions","","","","","","","","","","","",""
"learning-instructions","5","44967","0.0-3.0-1.0-0.1","spark_pilot_norest","8636","5","14","Male","","","","","","","2911.4000000059605","<p> Today you will be playing a game to earn treasure. </p>
            <p> At the end of the experiment, you will earn a bonus based on how much treasure you find. </p>
            <img src='./assets/img/instructions/treasure.jpg' class='instructions-image'>","","instructions","","","","","","","","","","","",""
"learning-instructions","6","53986","0.0-3.0-1.0-0.2","spark_pilot_norest","8636","5","14","Male","","","","","","","662.5","<p> Animals have hidden treasure in treasure chests. </p>
            <p> You need to first find an animal and then choose which of their treasure chests to search. </p>
            <img src='./assets/img/space/animals/cat.jpg' class='instructions-image'>","","instructions","","","","","","","","","","","",""
"learning-instructions","7","67869","0.0-3.0-1.0-0.3","spark_pilot_norest","8636","5","14","Male","","","","","","","607.0999999940395","<p> In each round, you will search for treasure in a different place. In the real game, there will be two rounds. </p>
            <p> You will begin with a separate, practice round where you will search for treasure in outer space. </p>
            <img src='./assets/img/space/0.jpg' class='instructions-image'>","","instructions","","","","","","","","","","","",""
"learning-instructions","8","80182","0.0-3.0-1.0-0.4","spark_pilot_norest","8636","5","14","Male","","","","","","","764.3000000119209","<p> On every turn, you will see a picture of the place that you are in, but the specific image may be different each time. </p>
            <p> For example, both of these images mean you are in outer space. </p>
            <img src='./assets/img/instructions/outerspace.jpg' class='instructions-image'>","","instructions","","","","","","","","","","","",""
"learning-instructions","9","88601","0.0-3.0-1.0-0.5","spark_pilot_norest","8636","5","14","Male","","","","","","","486.59999999403954","<p> You need to decide which direction to travel in. </p>
            <p> You can choose between going <b>up or down</b> by using the arrow keys. </p>
            <img src='./assets/img/instructions/updown.jpg' class='instructions-image'>","","instructions","","","","","","","","","","","",""
"learning-instructions","10","97965","0.0-3.0-1.0-0.6","spark_pilot_norest","8636","5","14","Male","","","","","","","440.60000002384186","<p> You will have <b>2 seconds</b> to make your choice. </p>
            <p> If you do not make a choice within 2 seconds, you will not find an animal or earn treasure. </p>
            <img src='./assets/img/instructions/2seconds.jpg' class='instructions-image'>","","instructions","","","","","","","","","","","",""
"learning-instructions","11","105550","0.0-3.0-1.0-0.7","spark_pilot_norest","8636","5","14","Male","","","","","","","455.80000001192093","<p> Let’s try practicing that now! </p>
            <p> When you see a picture of the place you are in, press the <b>up</b> key to travel up. </p>
            <img src='./assets/img/instructions/pressUp.jpg' class='instructions-image'>","","instructions","","","","","","","","","","","",""
"revaluation","12","109611","0.0-3.0-2.0-0.0","spark_pilot_norest","8636","5","14","Male","","false","","","","","[649]","./assets/img/space/0.jpg","[""ArrowUp""]","first stage practice","space","0","null","null","ArrowUp","false","","","","","",""
"html-keyboard-response","13","110115","0.0-3.0-2.0-1.0","spark_pilot_norest","8636","5","14","Male","","","","","","","null","<div style=""font-size:60px;"">+</div>","null","fixation","","","","","","","","","","","",""
"revaluation","14","114133","0.0-3.0-2.0-0.1","spark_pilot_norest","8636","5","14","Male","","false","","","","","[1184.5]","./assets/img/space/1.jpg","[""ArrowUp""]","first stage practice","space","0","null","null","ArrowUp","false","","","","","",""
"html-keyboard-response","15","114643","0.0-3.0-2.0-1.1","spark_pilot_norest","8636","5","14","Male","","","","","","","null","<div style=""font-size:60px;"">+</div>","null","fixation","","","","","","","","","","","",""
"revaluation","16","118650","0.0-3.0-2.0-0.2","spark_pilot_norest","8636","5","14","Male","","false","","","","","[1072.7999999821186]","./assets/img/space/2.jpg","[""ArrowUp""]","first stage practice","space","0","null","null","ArrowUp","false","","","","","",""
"html-keyboard-response","17","119154","0.0-3.0-2.0-1.2","spark_pilot_norest","8636","5","14","Male","","","","","","","null","<div style=""font-size:60px;"">+</div>","null","fixation","","","","","","","","","","","",""
"learning-instructions","18","125287","0.0-3.0-3.0-0.0","spark_pilot_norest","8636","5","14","Male","","","","","","","1424.4000000059605","<p> Great job! Now try pressing the <b>down</b> key to travel down. </p>
            <img src='./assets/img/instructions/pressDown.jpg' class='instructions-image'>","","instructions","","","","","","","","","","","",""
"revaluation","19","129301","0.0-3.0-4.0-0.0","spark_pilot_norest","8636","5","14","Male","","false","","","","","[389.5]","./assets/img/space/3.jpg","[""ArrowDown""]","first stage practice","space","0","null","null","ArrowDown","false","","","","","",""
"html-keyboard-response","20","129810","0.0-3.0-4.0-1.0","spark_pilot_norest","8636","5","14","Male","","","","","","","null","<div style=""font-size:60px;"">+</div>","null","fixation","","","","","","","","","","","",""
"revaluation","21","133829","0.0-3.0-4.0-0.1","spark_pilot_norest","8636","5","14","Male","","false","","","","","[434]","./assets/img/space/4.jpg","[""ArrowDown""]","first stage practice","space","0","null","null","ArrowDown","false","","","","","",""
"html-keyboard-response","22","134340","0.0-3.0-4.0-1.1","spark_pilot_norest","8636","5","14","Male","","","","","","","null","<div style=""font-size:60px;"">+</div>","null","fixation","","","","","","","","","","","",""
"revaluation","23","138357","0.0-3.0-4.0-0.2","spark_pilot_norest","8636","5","14","Male","","false","","","","","[232.40000000596046]","./assets/img/space/5.jpg","[""ArrowDown""]","first stage practice","space","0","null","null","ArrowDown","false","","","","","",""
"html-keyboard-response","24","138868","0.0-3.0-4.0-1.2","spark_pilot_norest","8636","5","14","Male","","","","","","","null","<div style=""font-size:60px;"">+</div>","null","fixation","","","","","","","","","","","",""
"learning-instructions","25","150391","0.0-3.0-5.0-0.0","spark_pilot_norest","8636","5","14","Male","","","","","","","1543.9000000059605","<p> The animals don’t move, so the animal in the upper part of a place will stay in the upper part of a place, and the animal in the lower part of a place will stay in the lower part of a place. </p>","","instructions","","","","","","","","","","","",""
"learning-instructions","26","159928","0.0-3.0-5.0-0.1","spark_pilot_norest","8636","5","14","Male","","","","","","","346.5","<p> Each animal has two treasure chests for you to choose from. </p>
            <p> The amount of treasure in each chest can range from <b> 0 to 40 pieces.</b></p>","","instructions","","","","","","","","","","","",""
"learning-instructions","27","171645","0.0-3.0-5.0-0.2","spark_pilot_norest","8636","5","14","Male","","","","","","","430.2999999821186","<p> You should decide which chest to search for treasure by using the <b>left</b> and <b>right</b> arrow keys. </p>
            <p><b> Pay attention to which animal is on the screen, as the animals have different treasure chests. </b></p>
            <img src='./assets/img/instructions/leftright.jpg' class='instructions-image'>","","instructions","","","","","","","","","","","",""
"learning-instructions","28","178242","0.0-3.0-5.0-0.3","spark_pilot_norest","8636","5","14","Male","","","","","","","125.09999999403954","<p> Let’s try practicing that now. </p>
            <p> When you see an animal, choose which chest to search for treasure. </p>
            <img src='./assets/img/instructions/chooseChest.jpg' class='instructions-image'>","","instructions","","","","","","","","","","","",""
"revaluation","29","182257","0.0-3.0-6.0-0.0","spark_pilot_norest","8636","5","14","Male","","false","","","","","[956.2000000178814]","./assets/img/space/animals/rabbit.jpg","[""ArrowRight""]","second stage practice","space","23","{""ArrowUp,ArrowLeft"":3,""ArrowUp,ArrowRight"":36,""ArrowDown,ArrowLeft"":15,""ArrowDown,ArrowRight"":23}","true","ArrowDown,ArrowRight","","","","","","",""
"html-keyboard-response","30","182760","0.0-3.0-6.0-1.0","spark_pilot_norest","8636","5","14","Male","","","","","","","null","<div style=""font-size:60px;"">+</div>","null","fixation","","","","","","","","","","","",""
"revaluation","31","186768","0.0-3.0-6.0-0.1","spark_pilot_norest","8636","5","14","Male","","false","","","","","[1510]","./assets/img/space/animals/cat.jpg","[""ArrowLeft""]","second stage practice","space","3","{""ArrowUp,ArrowLeft"":3,""ArrowUp,ArrowRight"":36,""ArrowDown,ArrowLeft"":15,""ArrowDown,ArrowRight"":23}","false","ArrowUp,ArrowLeft","","","","","","",""
"html-keyboard-response","32","187276","0.0-3.0-6.0-1.1","spark_pilot_norest","8636","5","14","Male","","","","","","","null","<div style=""font-size:60px;"">+</div>","null","fixation","","","","","","","","","","","",""
"revaluation","33","191295","0.0-3.0-6.0-0.2","spark_pilot_norest","8636","5","14","Male","","false","","","","","[490.2000000178814]","./assets/img/space/animals/rabbit.jpg","[""ArrowRight""]","second stage practice","space","23","{""ArrowUp,ArrowLeft"":3,""ArrowUp,ArrowRight"":36,""ArrowDown,ArrowLeft"":15,""ArrowDown,ArrowRight"":23}","true","ArrowDown,ArrowRight","","","","","","",""
"html-keyboard-response","34","191805","0.0-3.0-6.0-1.2","spark_pilot_norest","8636","5","14","Male","","","","","","","null","<div style=""font-size:60px;"">+</div>","null","fixation","","","","","","","","","","","",""
"revaluation","35","195823","0.0-3.0-6.0-0.3","spark_pilot_norest","8636","5","14","Male","","false","","","","","[497.19999998807907]","./assets/img/space/animals/cat.jpg","[""ArrowRight""]","second stage practice","space","36","{""ArrowUp,ArrowLeft"":3,""ArrowUp,ArrowRight"":36,""ArrowDown,ArrowLeft"":15,""ArrowDown,ArrowRight"":23}","true","ArrowUp,ArrowRight","","","","","","",""
"html-keyboard-response","36","196324","0.0-3.0-6.0-1.3","spark_pilot_norest","8636","5","14","Male","","","","","","","null","<div style=""font-size:60px;"">+</div>","null","fixation","","","","","","","","","","","",""
"learning-instructions","37","213906","0.0-3.0-7.0-0.0","spark_pilot_norest","8636","5","14","Male","","","","","","","610","<p> Great job. Now let’s try putting it together. </p>
            <p> On each turn, you will first see a picture to remind you of the place you are in, and you need to choose whether to go up or down. </p>
            <p> Then you will see an animal and choose which of its chests to search for treasure. </p>","","instructions","","","","","","","","","","","",""
"learning-instructions","38","222852","0.0-3.0-7.0-0.1","spark_pilot_norest","8636","5","14","Male","","","","","","","638.5","<p> When you choose whether to go up or down, try to go to the animal with the chest with the most treasure. </p>
            <p> Try practicing that now! </p>","","instructions","","","","","","","","","","","",""
"revaluation","39","228877","0.0-3.0-8.0-0.0","spark_pilot_norest","8636","5","14","Male","","false","","","","","[1228,455.90000000596046]","./assets/img/space/6.jpg","[""ArrowUp"",""ArrowLeft""]","full practice","space","3","{""ArrowUp,ArrowLeft"":3,""ArrowUp,ArrowRight"":36,""ArrowDown,ArrowLeft"":15,""ArrowDown,ArrowRight"":23}","false","ArrowUp,ArrowLeft","false","","","","","",""
"html-keyboard-response","40","229384","0.0-3.0-8.0-1.0","spark_pilot_norest","8636","5","14","Male","","","","","","","null","<div style=""font-size:60px;"">+</div>","null","fixation","","","","","","","","","","","",""
"revaluation","41","235406","0.0-3.0-8.0-0.1","spark_pilot_norest","8636","5","14","Male","","false","","","","","[647.3000000119209,562.1999999880791]","./assets/img/space/7.jpg","[""ArrowDown"",""ArrowRight""]","full practice","space","23","{""ArrowUp,ArrowLeft"":3,""ArrowUp,ArrowRight"":36,""ArrowDown,ArrowLeft"":15,""ArrowDown,ArrowRight"":23}","false","ArrowDown,ArrowRight","false","","","","","",""
"html-keyboard-response","42","235910","0.0-3.0-8.0-1.1","spark_pilot_norest","8636","5","14","Male","","","","","","","null","<div style=""font-size:60px;"">+</div>","null","fixation","","","","","","","","","","","",""
"revaluation","43","241933","0.0-3.0-8.0-0.2","spark_pilot_norest","8636","5","14","Male","","false","","","","","[938.5,1035.7000000178814]","./assets/img/space/8.jpg","[""ArrowDown"",""ArrowRight""]","full practice","space","23","{""ArrowUp,ArrowLeft"":3,""ArrowUp,ArrowRight"":36,""ArrowDown,ArrowLeft"":15,""ArrowDown,ArrowRight"":23}","false","ArrowDown,ArrowRight","false","","","","","",""
"html-keyboard-response","44","242438","0.0-3.0-8.0-1.2","spark_pilot_norest","8636","5","14","Male","","","","","","","null","<div style=""font-size:60px;"">+</div>","null","fixation","","","","","","","","","","","",""
"revaluation","45","248462","0.0-3.0-8.0-0.3","spark_pilot_norest","8636","5","14","Male","","false","","","","","[794.4000000059605,1115.199999988079]","./assets/img/space/9.jpg","[""ArrowUp"",""ArrowRight""]","full practice","space","36","{""ArrowUp,ArrowLeft"":3,""ArrowUp,ArrowRight"":36,""ArrowDown,ArrowLeft"":15,""ArrowDown,ArrowRight"":23}","true","ArrowUp,ArrowRight","false","","","","","",""
"html-keyboard-response","46","248969","0.0-3.0-8.0-1.3","spark_pilot_norest","8636","5","14","Male","","","","","","","null","<div style=""font-size:60px;"">+</div>","null","fixation","","","","","","","","","","","",""
"revaluation","47","254990","0.0-3.0-8.0-0.4","spark_pilot_norest","8636","5","14","Male","","false","","","","","[367.40000000596046,608.5999999940395]","./assets/img/space/10.jpg","[""ArrowDown"",""ArrowLeft""]","full practice","space","15","{""ArrowUp,ArrowLeft"":3,""ArrowUp,ArrowRight"":36,""ArrowDown,ArrowLeft"":15,""ArrowDown,ArrowRight"":23}","false","ArrowDown,ArrowLeft","false","","","","","",""
"html-keyboard-response","48","255494","0.0-3.0-8.0-1.4","spark_pilot_norest","8636","5","14","Male","","","","","","","null","<div style=""font-size:60px;"">+</div>","null","fixation","","","","","","","","","","","",""
"learning-instructions","49","267149","0.0-3.0-9.0-0.0","spark_pilot_norest","8636","5","14","Male","","","","","","","1205.7999999821186","<p> One last thing: sometimes, you will see a robber. The robber can be anywhere in the picture. </p>
            <p> If you do not stop them, you will lose treasure. </p>
            <img src='./assets/img/instructions/robber.jpg' class='instructions-image'>","","instructions","","","","","","","","","","","",""
"learning-instructions","50","274773","0.0-3.0-9.0-0.1","spark_pilot_norest","8636","5","14","Male","","","","","","","371.80000001192093","<p> If you see the robber, you should <b>press the space bar</b> rather than using the arrow keys. </p>
            <p> Try practicing that now! </p>","","instructions","","","","","","","","","","","",""
"revaluation","51","278782","0.0-3.0-10.0-0.0","spark_pilot_norest","8636","5","14","Male","","false","","","","","[1124.0999999940395]","./assets/img/space/catch/0.jpg","[""spaceBar""]","catch practice","space","0","{""ArrowUp,ArrowLeft"":3,""ArrowUp,ArrowRight"":36,""ArrowDown,ArrowLeft"":15,""ArrowDown,ArrowRight"":23}","true","spaceBar","true","","","","","",""
"html-keyboard-response","52","279291","0.0-3.0-10.0-1.0","spark_pilot_norest","8636","5","14","Male","","","","","","","null","<div style=""font-size:60px;"">+</div>","null","fixation","","","","","","","","","","","",""
"revaluation","53","283306","0.0-3.0-10.0-0.1","spark_pilot_norest","8636","5","14","Male","","false","","","","","[790.3000000119209]","./assets/img/space/catch/1.jpg","[""spaceBar""]","catch practice","space","0","{""ArrowUp,ArrowLeft"":3,""ArrowUp,ArrowRight"":36,""ArrowDown,ArrowLeft"":15,""ArrowDown,ArrowRight"":23}","true","spaceBar","true","","","","","",""
"html-keyboard-response","54","283817","0.0-3.0-10.0-1.1","spark_pilot_norest","8636","5","14","Male","","","","","","","null","<div style=""font-size:60px;"">+</div>","null","fixation","","","","","","","","","","","",""
"revaluation","55","287834","0.0-3.0-10.0-0.2","spark_pilot_norest","8636","5","14","Male","","false","","","","","[848.2999999821186]","./assets/img/space/catch/2.jpg","[""spaceBar""]","catch practice","space","0","{""ArrowUp,ArrowLeft"":3,""ArrowUp,ArrowRight"":36,""ArrowDown,ArrowLeft"":15,""ArrowDown,ArrowRight"":23}","true","spaceBar","true","","","","","",""
"html-keyboard-response","56","288345","0.0-3.0-10.0-1.2","spark_pilot_norest","8636","5","14","Male","","","","","","","null","<div style=""font-size:60px;"">+</div>","null","fixation","","","","","","","","","","","",""
"learning-instructions","57","294748","0.0-3.0-11.0-0.0-0.0","spark_pilot_norest","8636","5","14","Male","","","","","","","1102.300000011921","<p> Now, you will practice a shortened version of the game to get a sense of how it all fits together. </p>","","instructions","","","","","","","","","","","",""
"learning-instructions","58","298481","0.0-3.0-11.0-0.0-0.1","spark_pilot_norest","8636","5","14","Male","","","","","","","504.90000000596046","<p>This time you are searching for treasure in outer space.</p>","","instructions","","","","","","","","","","","",""
"learning-instructions","59","314180","0.0-3.0-11.0-1.0-0.0","spark_pilot_norest","8636","5","14","Male","","","","","","","698.7000000178814","<p> Remember, when you see a picture of the place, use the up and down keys to <b>find an animal</b>.</p>
            <p> When you encounter an animal, you should use the left and right keys to <b>select a treasure chest</b>.</p>
            <p> Don't forget to look out for the robber! </p>","","instructions","","","","","","","","","","","",""
"revaluation","60","318195","0.0-3.0-11.0-2.0-0.0","spark_pilot_norest","8636","5","14","Male","","true","","","","","[]","./assets/img/space/11.jpg","[]","practice block","space","-5","{""ArrowUp,ArrowLeft"":3,""ArrowUp,ArrowRight"":36,""ArrowDown,ArrowLeft"":15,""ArrowDown,ArrowRight"":23}","false","","false","","","","","",""
"html-keyboard-response","61","318706","0.0-3.0-11.0-2.0-1.0","spark_pilot_norest","8636","5","14","Male","","","","","","","null","<div style=""font-size:60px;"">+</div>","null","fixation","","","","","","","","","","","",""
"revaluation","62","324732","0.0-3.0-11.0-2.0-0.1","spark_pilot_norest","8636","5","14","Male","","false","","","","","[432.30000001192093,664.8999999761581]","./assets/img/space/12.jpg","[""ArrowDown"",""ArrowRight""]","practice block","space","23","{""ArrowUp,ArrowLeft"":3,""ArrowUp,ArrowRight"":36,""ArrowDown,ArrowLeft"":15,""ArrowDown,ArrowRight"":23}","false","ArrowDown,ArrowRight","false","","","","","",""
"html-keyboard-response","63","325243","0.0-3.0-11.0-2.0-1.1","spark_pilot_norest","8636","5","14","Male","","","","","","","null","<div style=""font-size:60px;"">+</div>","null","fixation","","","","","","","","","","","",""
"revaluation","64","331268","0.0-3.0-11.0-2.0-0.2","spark_pilot_norest","8636","5","14","Male","","false","","","","","[1183.7999999821186,448.90000000596046]","./assets/img/space/13.jpg","[""ArrowUp"",""ArrowRight""]","practice block","space","36","{""ArrowUp,ArrowLeft"":3,""ArrowUp,ArrowRight"":36,""ArrowDown,ArrowLeft"":15,""ArrowDown,ArrowRight"":23}","true","ArrowUp,ArrowRight","false","","","","","",""
"html-keyboard-response","65","331776","0.0-3.0-11.0-2.0-1.2","spark_pilot_norest","8636","5","14","Male","","","","","","","null","<div style=""font-size:60px;"">+</div>","null","fixation","","","","","","","","","","","",""
"revaluation","66","337805","0.0-3.0-11.0-2.0-0.3","spark_pilot_norest","8636","5","14","Male","","false","","","","","[1010.1999999880791,784.5]","./assets/img/space/14.jpg","[""ArrowDown"",""ArrowRight""]","practice block","space","23","{""ArrowUp,ArrowLeft"":3,""ArrowUp,ArrowRight"":36,""ArrowDown,ArrowLeft"":15,""ArrowDown,ArrowRight"":23}","false","ArrowDown,ArrowRight","false","","","","","",""
"html-keyboard-response","67","338313","0.0-3.0-11.0-2.0-1.3","spark_pilot_norest","8636","5","14","Male","","","","","","","null","<div style=""font-size:60px;"">+</div>","null","fixation","","","","","","","","","","","",""
"revaluation","68","344337","0.0-3.0-11.0-2.0-0.4","spark_pilot_norest","8636","5","14","Male","","false","","","","","[858.3000000119209,375.7999999821186]","./assets/img/space/11.jpg","[""ArrowUp"",""ArrowRight""]","practice block","space","36","{""ArrowUp,ArrowLeft"":3,""ArrowUp,ArrowRight"":36,""ArrowDown,ArrowLeft"":15,""ArrowDown,ArrowRight"":23}","true","ArrowUp,ArrowRight","false","","","","","",""
"html-keyboard-response","69","344842","0.0-3.0-11.0-2.0-1.4","spark_pilot_norest","8636","5","14","Male","","","","","","","null","<div style=""font-size:60px;"">+</div>","null","fixation","","","","","","","","","","","",""
"revaluation","70","350868","0.0-3.0-11.0-2.0-0.5","spark_pilot_norest","8636","5","14","Male","","false","","","","","[1057,889.6999999880791]","./assets/img/space/12.jpg","[""ArrowUp"",""ArrowRight""]","practice block","space","36","{""ArrowUp,ArrowLeft"":3,""ArrowUp,ArrowRight"":36,""ArrowDown,ArrowLeft"":15,""ArrowDown,ArrowRight"":23}","true","ArrowUp,ArrowRight","false","","","","","",""
"html-keyboard-response","71","351379","0.0-3.0-11.0-2.0-1.5","spark_pilot_norest","8636","5","14","Male","","","","","","","null","<div style=""font-size:60px;"">+</div>","null","fixation","","","","","","","","","","","",""
"revaluation","72","357405","0.0-3.0-11.0-2.0-0.6","spark_pilot_norest","8636","5","14","Male","","false","","","","","[769.0999999940395,481.40000000596046]","./assets/img/space/13.jpg","[""ArrowDown"",""ArrowRight""]","practice block","space","23","{""ArrowUp,ArrowLeft"":3,""ArrowUp,ArrowRight"":36,""ArrowDown,ArrowLeft"":15,""ArrowDown,ArrowRight"":23}","false","ArrowDown,ArrowRight","false","","","","","",""
"html-keyboard-response","73","357915","0.0-3.0-11.0-2.0-1.6","spark_pilot_norest","8636","5","14","Male","","","","","","","null","<div style=""font-size:60px;"">+</div>","null","fixation","","","","","","","","","","","",""
"revaluation","74","363942","0.0-3.0-11.0-2.0-0.7","spark_pilot_norest","8636","5","14","Male","","false","","","","","[816.1000000238419,480.7000000178814]","./assets/img/space/14.jpg","[""ArrowUp"",""ArrowRight""]","practice block","space","36","{""ArrowUp,ArrowLeft"":3,""ArrowUp,ArrowRight"":36,""ArrowDown,ArrowLeft"":15,""ArrowDown,ArrowRight"":23}","true","ArrowUp,ArrowRight","false","","","","","",""
"html-keyboard-response","75","364452","0.0-3.0-11.0-2.0-1.7","spark_pilot_norest","8636","5","14","Male","","","","","","","null","<div style=""font-size:60px;"">+</div>","null","fixation","","","","","","","","","","","",""
"revaluation","76","368469","0.0-3.0-11.0-2.0-0.8","spark_pilot_norest","8636","5","14","Male","","false","","","","","[887.6000000238419]","./assets/img/space/catch/3.jpg","[""spaceBar""]","practice block","space","0","{""ArrowUp,ArrowLeft"":3,""ArrowUp,ArrowRight"":36,""ArrowDown,ArrowLeft"":15,""ArrowDown,ArrowRight"":23}","true","spaceBar","true","","","","","",""
"html-keyboard-response","77","368980","0.0-3.0-11.0-2.0-1.8","spark_pilot_norest","8636","5","14","Male","","","","","","","null","<div style=""font-size:60px;"">+</div>","null","fixation","","","","","","","","","","","",""
"learning-instructions","78","384003","0.0-3.0-11.0-3.0-0.0","spark_pilot_norest","8636","5","14","Male","","","","","","","1986.0999999940395","<p> Now, you will travel with a friend who will choose whether you go up or down first. </p>
            <p> On these turns, you will just see the animal that they found. You will still get to choose which chest to search for treasure.</p>","","instructions","","","","","","","","","","","",""
"revaluation","79","388020","0.0-3.0-11.0-4.0-0.0","spark_pilot_norest","8636","5","14","Male","","false","","","","","[1249.0999999940395]","./assets/img/space/animals/rabbit.jpg","[""ArrowRight""]","practice block","space","23","{""ArrowUp,ArrowLeft"":3,""ArrowUp,ArrowRight"":36,""ArrowDown,ArrowLeft"":15,""ArrowDown,ArrowRight"":23}","true","ArrowDown,ArrowRight","","","","","","",""
"html-keyboard-response","80","388522","0.0-3.0-11.0-4.0-1.0","spark_pilot_norest","8636","5","14","Male","","","","","","","null","<div style=""font-size:60px;"">+</div>","null","fixation","","","","","","","","","","","",""
"revaluation","81","392542","0.0-3.0-11.0-4.0-0.1","spark_pilot_norest","8636","5","14","Male","","false","","","","","[410.30000001192093]","./assets/img/space/animals/rabbit.jpg","[""ArrowRight""]","practice block","space","23","{""ArrowUp,ArrowLeft"":3,""ArrowUp,ArrowRight"":36,""ArrowDown,ArrowLeft"":15,""ArrowDown,ArrowRight"":23}","true","ArrowDown,ArrowRight","","","","","","",""
"html-keyboard-response","82","393050","0.0-3.0-11.0-4.0-1.1","spark_pilot_norest","8636","5","14","Male","","","","","","","null","<div style=""font-size:60px;"">+</div>","null","fixation","","","","","","","","","","","",""
"revaluation","83","397070","0.0-3.0-11.0-4.0-0.2","spark_pilot_norest","8636","5","14","Male","","false","","","","","[402.40000000596046]","./assets/img/space/animals/cat.jpg","[""ArrowRight""]","practice block","space","36","{""ArrowUp,ArrowLeft"":3,""ArrowUp,ArrowRight"":36,""ArrowDown,ArrowLeft"":15,""ArrowDown,ArrowRight"":23}","true","ArrowUp,ArrowRight","","","","","","",""
"html-keyboard-response","84","397581","0.0-3.0-11.0-4.0-1.2","spark_pilot_norest","8636","5","14","Male","","","","","","","null","<div style=""font-size:60px;"">+</div>","null","fixation","","","","","","","","","","","",""
"revaluation","85","401598","0.0-3.0-11.0-4.0-0.3","spark_pilot_norest","8636","5","14","Male","","false","","","","","[568.1999999880791]","./assets/img/space/animals/cat.jpg","[""ArrowRight""]","practice block","space","36","{""ArrowUp,ArrowLeft"":3,""ArrowUp,ArrowRight"":36,""ArrowDown,ArrowLeft"":15,""ArrowDown,ArrowRight"":23}","true","ArrowUp,ArrowRight","","","","","","",""
"html-keyboard-response","86","402109","0.0-3.0-11.0-4.0-1.3","spark_pilot_norest","8636","5","14","Male","","","","","","","null","<div style=""font-size:60px;"">+</div>","null","fixation","","","","","","","","","","","",""
"learning-instructions","87","410300","0.0-3.0-11.0-5.0-0.0","spark_pilot_norest","8636","5","14","Male","","","","","","","null","<p> You have almost finished this part of the game! </p>
            <p> We are going to ask you to make a few more choices. </p>","","instructions","","","","","","","","","","","",""
"learning-instructions","88","426466","0.0-3.0-11.0-5.0-0.1","spark_pilot_norest","8636","5","14","Male","","","","","","","null","<p> First, you need to decide whether to go up or down. When you see each picture, use the arrow keys to make your choice. </p>
            <p><b>You will not see which animal you found, but try to get to the one that will give you the most treasure.</b></p>","","instructions","","","","","","","","","","","",""
"html-keyboard-response","89","427476","0.0-3.0-11.0-6.0-0.0","spark_pilot_norest","8636","5","14","Male","","","","","","","null","<div style=""font-size:100px;color:red;"">Starting in...</div>","null","","","","","","","","","","","","",""
"html-keyboard-response","90","428487","0.0-3.0-11.0-6.0-1.0","spark_pilot_norest","8636","5","14","Male","","","","","","","null","<div style=""font-size:200px;color:red;"">3</div>","null","","","","","","","","","","","","",""
"html-keyboard-response","91","429492","0.0-3.0-11.0-6.0-2.0","spark_pilot_norest","8636","5","14","Male","","","","","","","null","<div style=""font-size:200px;color:red;"">2</div>","null","","","","","","","","","","","","",""
"html-keyboard-response","92","430502","0.0-3.0-11.0-6.0-3.0","spark_pilot_norest","8636","5","14","Male","","","","","","","null","<div style=""font-size:200px;color:red;"">1</div>","null","","","","","","","","","","","","",""
"revaluation","93","431271","0.0-3.0-11.0-7.0","spark_pilot_norest","8636","5","14","Male","","false","","","","","[767.6999999880791]","./assets/img/space/15.jpg","[""ArrowUp""]","practice block","space","0","{""ArrowUp,ArrowLeft"":3,""ArrowUp,ArrowRight"":36,""ArrowDown,ArrowLeft"":15,""ArrowDown,ArrowRight"":23}","true","ArrowUp","false","","","","","",""
"html-keyboard-response","94","431779","0.0-3.0-11.0-8.0","spark_pilot_norest","8636","5","14","Male","","","","","","","null","<div style=""font-size:60px;"">+</div>","null","fixation","","","","","","","","","","","",""
"learning-instructions","95","445275","0.0-3.0-11.0-9.0-0.0","spark_pilot_norest","8636","5","14","Male","","","","","","","null","<p> Now you will see the animals again and can search their chests for treasure. </p>
            <p> This time, you will not see how much treasure you earned, but you will earn more bonus money for making better choices. </p>","","instructions","","","","","","","","","","","",""
"html-keyboard-response","96","446280","0.0-3.0-11.0-10.0-0.0","spark_pilot_norest","8636","5","14","Male","","","","","","","null","<div style=""font-size:100px;color:red;"">Starting in...</div>","null","","","","","","","","","","","","",""
"html-keyboard-response","97","447284","0.0-3.0-11.0-10.0-1.0","spark_pilot_norest","8636","5","14","Male","","","","","","","null","<div style=""font-size:200px;color:red;"">3</div>","null","","","","","","","","","","","","",""
"html-keyboard-response","98","448292","0.0-3.0-11.0-10.0-2.0","spark_pilot_norest","8636","5","14","Male","","","","","","","null","<div style=""font-size:200px;color:red;"">2</div>","null","","","","","","","","","","","","",""
"html-keyboard-response","99","449299","0.0-3.0-11.0-10.0-3.0","spark_pilot_norest","8636","5","14","Male","","","","","","","null","<div style=""font-size:200px;color:red;"">1</div>","null","","","","","","","","","","","","",""
"revaluation","100","449952","0.0-3.0-11.0-11.0-0.0","spark_pilot_norest","8636","5","14","Male","","false","","","","","[651.1000000238419]","./assets/img/space/animals/cat.jpg","[""ArrowRight""]","practice block","space","0","{""ArrowUp,ArrowLeft"":3,""ArrowUp,ArrowRight"":36,""ArrowDown,ArrowLeft"":15,""ArrowDown,ArrowRight"":23}","true","ArrowUp,ArrowRight","","","","","","",""
"html-keyboard-response","101","450460","0.0-3.0-11.0-11.0-1.0","spark_pilot_norest","8636","5","14","Male","","","","","","","null","<div style=""font-size:60px;"">+</div>","null","fixation","","","","","","","","","","","",""
"revaluation","102","451080","0.0-3.0-11.0-11.0-0.1","spark_pilot_norest","8636","5","14","Male","","false","","","","","[618.4000000059605]","./assets/img/space/animals/rabbit.jpg","[""ArrowRight""]","practice block","space","0","{""ArrowUp,ArrowLeft"":3,""ArrowUp,ArrowRight"":36,""ArrowDown,ArrowLeft"":15,""ArrowDown,ArrowRight"":23}","true","ArrowDown,ArrowRight","","","","","","",""
"html-keyboard-response","103","451588","0.0-3.0-11.0-11.0-1.1","spark_pilot_norest","8636","5","14","Male","","","","","","","null","<div style=""font-size:60px;"">+</div>","null","fixation","","","","","","","","","","","",""
"learning-instructions","104","456942","0.0-3.0-12.0-0.0","spark_pilot_norest","8636","5","14","Male","","","","","","","711.1999999880791","<p> Before you start, we're going to ask you a few questions about how the game works. </p>","","instructions","","","","","","","","","","","",""
"comp-q","105","463969","0.0-3.0-13.0-0.0-0.0","spark_pilot_norest","8636","5","14","Male","","","","","","","1391.4000000059605","<p> <b> True or False? </b> </p>
            <p> There can be 50 pieces of treasure in a given animal's chest. </p>","1","comp_question","","","","true","","","","","","","",""
"comp-q","106","473461","0.0-3.0-13.0-0.0-1.0","spark_pilot_norest","8636","5","14","Male","","","","","","","2799","<p> <b> That's right! </b> The amount of treasure in each chest can range from 0 to 40 pieces. </p>","0","comp_answer","","","","","","","","","","","",""
"comp-q","107","481759","0.0-3.0-13.0-0.1-0.1","spark_pilot_norest","8636","5","14","Male","","","","","","","1118.199999988079","<p> <b> True or False? </b> </p><p> In this game, all animals have the same amount of treasure in their left and right chests. </p>","1","comp_question","","","","true","","","","","","","",""
"comp-q","108","489049","0.0-3.0-13.0-0.1-1.1","spark_pilot_norest","8636","5","14","Male","","","","","","","2033.300000011921","<p> <b> That's right! </b> Animals have different amounts of treasure in their treasure chests. </p>","0","comp_answer","","","","","","","","","","","",""
"comp-q","109","496007","0.0-3.0-13.0-0.2-0.2","spark_pilot_norest","8636","5","14","Male","","","","","","","1055.800000011921","<p> <b> True or False? </b> </p><p> The same animal will always be there if you go up in the same place. </p>","0","comp_question","","","","true","","","","","","","",""
"comp-q","110","503809","0.0-3.0-13.0-0.2-1.2","spark_pilot_norest","8636","5","14","Male","","","","","","","1328.800000011921","<p> <b> That's right! </b> One animal lives in the upper part and one lives in the lower part of every place. </p>","0","comp_answer","","","","","","","","","","","",""
"comp-q","111","509990","0.0-3.0-13.0-0.3-0.3","spark_pilot_norest","8636","5","14","Male","","","","","","","613.4000000059605","<p> <b> True or False? </b> </p><p> If you see a different picture, it means you are in a new place. </p>","0","comp_question","","","","false","","","","","","","",""
"comp-q","112","522282","0.0-3.0-13.0-0.3-1.3","spark_pilot_norest","8636","5","14","Male","","","","","","","1050.800000011921","<p> <b>Incorrect.</b> Lots of different images may show the same place. For example,  you may see three different images that all remind you that you are in outer space. </p>","0","comp_answer","","","","","","","","","","","",""
"comp-q","113","530194","0.0-3.0-13.0-0.4-0.4","spark_pilot_norest","8636","5","14","Male","","","","","","","2408.5","<p> <b> True or False? </b> </p><p> If you see a different picture, it means you are in a new place. </p>","1","comp_question","","","","true","","","","","","","",""
"comp-q","114","543402","0.0-3.0-13.0-0.4-1.4","spark_pilot_norest","8636","5","14","Male","","","","","","","1859","<p> <b> That's right! </b> Lots of different images may show the same place. For example,  you may see three different images that all remind you that you are in outer space. </p>","0","comp_answer","","","","","","","","","","","",""
"learning-instructions","115","555195","0.0-3.0-14.0-0.0","spark_pilot_norest","8636","5","14","Male","","","","","","","1797.1000000238419","<p> Good job. Remember to do your best because the amount of treasure you earn will be converted into bonus money. </p>
            <p> It’s time to start the real game! </p>","","instructions","","","","","","","","","","","",""
"learning-instructions","116","559420","0.0-4.0-0.0-0.0","spark_pilot_norest","8636","5","14","Male","","","","","","","1436.7000000178814","<p> This time you are searching for treasure in the <b>canyon</b>.</p>","","instructions","","","","","","","","","","","",""
"learning-instructions","117","582382","0.0-4.0-0.0-0.1","spark_pilot_norest","8636","5","14","Male","","","","","","","5456.5999999940395","<p><b>New</b> animals with <b>new</b> treasure chests live here. You need to explore to discover where the animal with the best treasure chest is.</p>
                    <p> Like before, once you figure out which animal has the chest with the most treasure, you should try to get to that animal and select that chest! </p>","","instructions","","","","","","","","","","","",""
"learning-instructions","118","598406","0.0-4.0-1.0-0.0","spark_pilot_norest","8636","5","14","Male","","","","","","","1289.7000000178814","<p> Remember, when you see a picture of the place, use the up and down keys to <b>find an animal</b>.</p>
            <p> When you encounter an animal, you should use the left and right keys to <b>select a treasure chest</b>.</p>
            <p> Don't forget to look out for the robber! </p>","","instructions","","","","","","","","","","","",""
"revaluation","119","604425","0.0-4.0-2.0-0.0","spark_pilot_norest","8636","5","14","Male","","false","","","","","[1445.2999999821186,875.8000000119209]","./assets/img/canyon/memory/24.jpg","[""ArrowUp"",""ArrowRight""]","value training","canyon","10","{""ArrowUp,ArrowLeft"":26,""ArrowUp,ArrowRight"":10,""ArrowDown,ArrowLeft"":5,""ArrowDown,ArrowRight"":17}","false","ArrowUp,ArrowRight","false","original","1","0","","",""
"html-keyboard-response","120","604930","0.0-4.0-2.0-1.0","spark_pilot_norest","8636","5","14","Male","","","","","","","null","<div style=""font-size:60px;"">+</div>","null","fixation","","","","","","","","","1","","",""
"revaluation","121","610955","0.0-4.0-2.0-0.1","spark_pilot_norest","8636","5","14","Male","","false","","","","","[817.5999999940395,602.5999999940395]","./assets/img/canyon/memory/35.jpg","[""ArrowUp"",""ArrowLeft""]","value training","canyon","26","{""ArrowUp,ArrowLeft"":26,""ArrowUp,ArrowRight"":10,""ArrowDown,ArrowLeft"":5,""ArrowDown,ArrowRight"":17}","true","ArrowUp,ArrowLeft","false","original","1","2","","",""
"html-keyboard-response","122","611460","0.0-4.0-2.0-1.1","spark_pilot_norest","8636","5","14","Male","","","","","","","null","<div style=""font-size:60px;"">+</div>","null","fixation","","","","","","","","","3","","",""
"revaluation","123","617480","0.0-4.0-2.0-0.2","spark_pilot_norest","8636","5","14","Male","","false","","","","","[415.40000000596046,959.8000000119209]","./assets/img/canyon/memory/2.jpg","[""ArrowDown"",""ArrowRight""]","value training","canyon","17","{""ArrowUp,ArrowLeft"":26,""ArrowUp,ArrowRight"":10,""ArrowDown,ArrowLeft"":5,""ArrowDown,ArrowRight"":17}","false","ArrowDown,ArrowRight","false","original","1","4","","",""
"html-keyboard-response","124","617985","0.0-4.0-2.0-1.2","spark_pilot_norest","8636","5","14","Male","","","","","","","null","<div style=""font-size:60px;"">+</div>","null","fixation","","","","","","","","","5","","",""
"revaluation","125","624011","0.0-4.0-2.0-0.3","spark_pilot_norest","8636","5","14","Male","","false","","","","","[450.2000000178814,571.5]","./assets/img/canyon/memory/27.jpg","[""ArrowUp"",""ArrowLeft""]","value training","canyon","26","{""ArrowUp,ArrowLeft"":26,""ArrowUp,ArrowRight"":10,""ArrowDown,ArrowLeft"":5,""ArrowDown,ArrowRight"":17}","true","ArrowUp,ArrowLeft","false","original","1","6","","",""
"html-keyboard-response","126","624516","0.0-4.0-2.0-1.3","spark_pilot_norest","8636","5","14","Male","","","","","","","null","<div style=""font-size:60px;"">+</div>","null","fixation","","","","","","","","","7","","",""
"revaluation","127","630538","0.0-4.0-2.0-0.4","spark_pilot_norest","8636","5","14","Male","","false","","","","","[407.59999999403954,1168.300000011921]","./assets/img/canyon/memory/18.jpg","[""ArrowDown"",""ArrowLeft""]","value training","canyon","5","{""ArrowUp,ArrowLeft"":26,""ArrowUp,ArrowRight"":10,""ArrowDown,ArrowLeft"":5,""ArrowDown,ArrowRight"":17}","false","ArrowDown,ArrowLeft","false","original","1","8","","",""
"html-keyboard-response","128","631043","0.0-4.0-2.0-1.4","spark_pilot_norest","8636","5","14","Male","","","","","","","null","<div style=""font-size:60px;"">+</div>","null","fixation","","","","","","","","","9","","",""
"revaluation","129","637068","0.0-4.0-2.0-0.5","spark_pilot_norest","8636","5","14","Male","","false","","","","","[481.5,474.10000002384186]","./assets/img/canyon/memory/29.jpg","[""ArrowUp"",""ArrowRight""]","value training","canyon","10","{""ArrowUp,ArrowLeft"":26,""ArrowUp,ArrowRight"":10,""ArrowDown,ArrowLeft"":5,""ArrowDown,ArrowRight"":17}","false","ArrowUp,ArrowRight","false","original","1","10","","",""
"html-keyboard-response","130","637579","0.0-4.0-2.0-1.5","spark_pilot_norest","8636","5","14","Male","","","","","","","null","<div style=""font-size:60px;"">+</div>","null","fixation","","","","","","","","","11","","",""
"revaluation","131","643605","0.0-4.0-2.0-0.6","spark_pilot_norest","8636","5","14","Male","","false","","","","","[641.0999999940395,1529.9000000059605]","./assets/img/canyon/memory/37.jpg","[""ArrowUp"",""ArrowLeft""]","value training","canyon","26","{""ArrowUp,ArrowLeft"":26,""ArrowUp,ArrowRight"":10,""ArrowDown,ArrowLeft"":5,""ArrowDown,ArrowRight"":17}","true","ArrowUp,ArrowLeft","false","original","1","12","","",""
"html-keyboard-response","132","644116","0.0-4.0-2.0-1.6","spark_pilot_norest","8636","5","14","Male","","","","","","","null","<div style=""font-size:60px;"">+</div>","null","fixation","","","","","","","","","13","","",""
"revaluation","133","650142","0.0-4.0-2.0-0.7","spark_pilot_norest","8636","5","14","Male","","false","","","","","[1160.2999999821186,1241.4000000059605]","./assets/img/canyon/memory/24.jpg","[""ArrowDown"",""ArrowRight""]","value training","canyon","17","{""ArrowUp,ArrowLeft"":26,""ArrowUp,ArrowRight"":10,""ArrowDown,ArrowLeft"":5,""ArrowDown,ArrowRight"":17}","false","ArrowDown,ArrowRight","false","original","1","14","","",""
"html-keyboard-response","134","650652","0.0-4.0-2.0-1.7","spark_pilot_norest","8636","5","14","Male","","","","","","","null","<div style=""font-size:60px;"">+</div>","null","fixation","","","","","","","","","15","","",""
"revaluation","135","654670","0.0-4.0-2.0-0.8","spark_pilot_norest","8636","5","14","Male","","false","","","","","[1312.1000000238419]","./assets/img/canyon/catch/1.jpg","[""ArrowDown""]","value training","canyon","-10","{""ArrowUp,ArrowLeft"":26,""ArrowUp,ArrowRight"":10,""ArrowDown,ArrowLeft"":5,""ArrowDown,ArrowRight"":17}","false","ArrowDown","true","original","1","16","","",""
"html-keyboard-response","136","655180","0.0-4.0-2.0-1.8","spark_pilot_norest","8636","5","14","Male","","","","","","","null","<div style=""font-size:60px;"">+</div>","null","fixation","","","","","","","","","17","","",""
"revaluation","137","661206","0.0-4.0-2.0-0.9","spark_pilot_norest","8636","5","14","Male","","false","","","","","[776.2000000178814,641.0999999940395]","./assets/img/canyon/memory/13.jpg","[""ArrowUp"",""ArrowRight""]","value training","canyon","10","{""ArrowUp,ArrowLeft"":26,""ArrowUp,ArrowRight"":10,""ArrowDown,ArrowLeft"":5,""ArrowDown,ArrowRight"":17}","false","ArrowUp,ArrowRight","false","original","1","18","","",""
"html-keyboard-response","138","661717","0.0-4.0-2.0-1.9","spark_pilot_norest","8636","5","14","Male","","","","","","","null","<div style=""font-size:60px;"">+</div>","null","fixation","","","","","","","","","19","","",""
"revaluation","139","667734","0.0-4.0-2.0-0.10","spark_pilot_norest","8636","5","14","Male","","false","","","","","[583.8000000119209,192.09999999403954]","./assets/img/canyon/memory/16.jpg","[""ArrowDown"",""ArrowRight""]","value training","canyon","17","{""ArrowUp,ArrowLeft"":26,""ArrowUp,ArrowRight"":10,""ArrowDown,ArrowLeft"":5,""ArrowDown,ArrowRight"":17}","false","ArrowDown,ArrowRight","false","original","1","20","","",""
"html-keyboard-response","140","668242","0.0-4.0-2.0-1.10","spark_pilot_norest","8636","5","14","Male","","","","","","","null","<div style=""font-size:60px;"">+</div>","null","fixation","","","","","","","","","21","","",""
"revaluation","141","674268","0.0-4.0-2.0-0.11","spark_pilot_norest","8636","5","14","Male","","false","","","","","[538.5,443.30000001192093]","./assets/img/canyon/memory/35.jpg","[""ArrowUp"",""ArrowRight""]","value training","canyon","10","{""ArrowUp,ArrowLeft"":26,""ArrowUp,ArrowRight"":10,""ArrowDown,ArrowLeft"":5,""ArrowDown,ArrowRight"":17}","false","ArrowUp,ArrowRight","false","original","1","22","","",""
"html-keyboard-response","142","674773","0.0-4.0-2.0-1.11","spark_pilot_norest","8636","5","14","Male","","","","","","","null","<div style=""font-size:60px;"">+</div>","null","fixation","","","","","","","","","23","","",""
"revaluation","143","680799","0.0-4.0-2.0-0.12","spark_pilot_norest","8636","5","14","Male","","false","","","","","[1328.2000000178814,1232.9000000059605]","./assets/img/canyon/memory/28.jpg","[""ArrowUp"",""ArrowLeft""]","value training","canyon","26","{""ArrowUp,ArrowLeft"":26,""ArrowUp,ArrowRight"":10,""ArrowDown,ArrowLeft"":5,""ArrowDown,ArrowRight"":17}","true","ArrowUp,ArrowLeft","false","original","1","24","","",""
"html-keyboard-response","144","681309","0.0-4.0-2.0-1.12","spark_pilot_norest","8636","5","14","Male","","","","","","","null","<div style=""font-size:60px;"">+</div>","null","fixation","","","","","","","","","25","","",""
"revaluation","145","685327","0.0-4.0-2.0-0.13","spark_pilot_norest","8636","5","14","Male","","false","","","","","[976.0999999940395]","./assets/img/canyon/catch/7.jpg","[""spaceBar""]","value training","canyon","0","{""ArrowUp,ArrowLeft"":26,""ArrowUp,ArrowRight"":10,""ArrowDown,ArrowLeft"":5,""ArrowDown,ArrowRight"":17}","true","spaceBar","true","original","1","26","","",""
"html-keyboard-response","146","685837","0.0-4.0-2.0-1.13","spark_pilot_norest","8636","5","14","Male","","","","","","","null","<div style=""font-size:60px;"">+</div>","null","fixation","","","","","","","","","27","","",""
"revaluation","147","691863","0.0-4.0-2.0-0.14","spark_pilot_norest","8636","5","14","Male","","false","","","","","[1072.199999988079,1280.699999988079]","./assets/img/canyon/memory/15.jpg","[""ArrowUp"",""ArrowRight""]","value training","canyon","10","{""ArrowUp,ArrowLeft"":26,""ArrowUp,ArrowRight"":10,""ArrowDown,ArrowLeft"":5,""ArrowDown,ArrowRight"":17}","false","ArrowUp,ArrowRight","false","original","1","28","","",""
"html-keyboard-response","148","692374","0.0-4.0-2.0-1.14","spark_pilot_norest","8636","5","14","Male","","","","","","","null","<div style=""font-size:60px;"">+</div>","null","fixation","","","","","","","","","29","","",""
"revaluation","149","698388","0.0-4.0-2.0-0.15","spark_pilot_norest","8636","5","14","Male","","false","","","","","[951.5,1993.699999988079]","./assets/img/canyon/memory/40.jpg","[""ArrowDown"",""ArrowRight""]","value training","canyon","17","{""ArrowUp,ArrowLeft"":26,""ArrowUp,ArrowRight"":10,""ArrowDown,ArrowLeft"":5,""ArrowDown,ArrowRight"":17}","false","ArrowDown,ArrowRight","false","original","1","30","","",""
"html-keyboard-response","150","698893","0.0-4.0-2.0-1.15","spark_pilot_norest","8636","5","14","Male","","","","","","","null","<div style=""font-size:60px;"">+</div>","null","fixation","","","","","","","","","31","","",""
"revaluation","151","704919","0.0-4.0-2.0-0.16","spark_pilot_norest","8636","5","14","Male","","false","","","","","[1273,1111.5]","./assets/img/canyon/memory/11.jpg","[""ArrowDown"",""ArrowLeft""]","value training","canyon","5","{""ArrowUp,ArrowLeft"":26,""ArrowUp,ArrowRight"":10,""ArrowDown,ArrowLeft"":5,""ArrowDown,ArrowRight"":17}","false","ArrowDown,ArrowLeft","false","original","1","32","","",""
"html-keyboard-response","152","705430","0.0-4.0-2.0-1.16","spark_pilot_norest","8636","5","14","Male","","","","","","","null","<div style=""font-size:60px;"">+</div>","null","fixation","","","","","","","","","33","","",""
"revaluation","153","711456","0.0-4.0-2.0-0.17","spark_pilot_norest","8636","5","14","Male","","false","","","","","[912.3000000119209,1953.5]","./assets/img/canyon/memory/33.jpg","[""ArrowDown"",""ArrowRight""]","value training","canyon","17","{""ArrowUp,ArrowLeft"":26,""ArrowUp,ArrowRight"":10,""ArrowDown,ArrowLeft"":5,""ArrowDown,ArrowRight"":17}","false","ArrowDown,ArrowRight","false","original","1","34","","",""
"html-keyboard-response","154","711966","0.0-4.0-2.0-1.17","spark_pilot_norest","8636","5","14","Male","","","","","","","null","<div style=""font-size:60px;"">+</div>","null","fixation","","","","","","","","","35","","",""
"revaluation","155","717992","0.0-4.0-2.0-0.18","spark_pilot_norest","8636","5","14","Male","","false","","","","","[968,1400.5]","./assets/img/canyon/memory/18.jpg","[""ArrowDown"",""ArrowLeft""]","value training","canyon","5","{""ArrowUp,ArrowLeft"":26,""ArrowUp,ArrowRight"":10,""ArrowDown,ArrowLeft"":5,""ArrowDown,ArrowRight"":17}","false","ArrowDown,ArrowLeft","false","original","1","36","","",""
"html-keyboard-response","156","718503","0.0-4.0-2.0-1.18","spark_pilot_norest","8636","5","14","Male","","","","","","","null","<div style=""font-size:60px;"">+</div>","null","fixation","","","","","","","","","37","","",""
"revaluation","157","722520","0.0-4.0-2.0-0.19","spark_pilot_norest","8636","5","14","Male","","true","","","","","[]","./assets/img/canyon/memory/37.jpg","[]","value training","canyon","-5","{""ArrowUp,ArrowLeft"":26,""ArrowUp,ArrowRight"":10,""ArrowDown,ArrowLeft"":5,""ArrowDown,ArrowRight"":17}","false","","false","original","1","38","","",""
"html-keyboard-response","158","723031","0.0-4.0-2.0-1.19","spark_pilot_norest","8636","5","14","Male","","","","","","","null","<div style=""font-size:60px;"">+</div>","null","fixation","","","","","","","","","39","","",""
"revaluation","159","729057","0.0-4.0-2.0-0.20","spark_pilot_norest","8636","5","14","Male","","false","","","","","[919.5999999940395,1280.0999999940395]","./assets/img/canyon/memory/11.jpg","[""ArrowUp"",""ArrowRight""]","value training","canyon","10","{""ArrowUp,ArrowLeft"":26,""ArrowUp,ArrowRight"":10,""ArrowDown,ArrowLeft"":5,""ArrowDown,ArrowRight"":17}","false","ArrowUp,ArrowRight","false","original","1","40","","",""
"html-keyboard-response","160","729568","0.0-4.0-2.0-1.20","spark_pilot_norest","8636","5","14","Male","","","","","","","null","<div style=""font-size:60px;"">+</div>","null","fixation","","","","","","","","","41","","",""
"revaluation","161","735591","0.0-4.0-2.0-0.21","spark_pilot_norest","8636","5","14","Male","","false","","","","","[863.2000000178814,711.8000000119209]","./assets/img/canyon/memory/3.jpg","[""ArrowUp"",""ArrowRight""]","value training","canyon","10","{""ArrowUp,ArrowLeft"":26,""ArrowUp,ArrowRight"":10,""ArrowDown,ArrowLeft"":5,""ArrowDown,ArrowRight"":17}","false","ArrowUp,ArrowRight","false","original","1","42","","",""
"html-keyboard-response","162","736104","0.0-4.0-2.0-1.21","spark_pilot_norest","8636","5","14","Male","","","","","","","null","<div style=""font-size:60px;"">+</div>","null","fixation","","","","","","","","","43","","",""
"revaluation","163","740116","0.0-4.0-2.0-0.22","spark_pilot_norest","8636","5","14","Male","","false","","","","","[422.7000000178814]","./assets/img/canyon/catch/0.jpg","[""ArrowUp""]","value training","canyon","-10","{""ArrowUp,ArrowLeft"":26,""ArrowUp,ArrowRight"":10,""ArrowDown,ArrowLeft"":5,""ArrowDown,ArrowRight"":17}","false","ArrowUp","true","original","1","44","","",""
"html-keyboard-response","164","740620","0.0-4.0-2.0-1.22","spark_pilot_norest","8636","5","14","Male","","","","","","","null","<div style=""font-size:60px;"">+</div>","null","fixation","","","","","","","","","45","","",""
"revaluation","165","746645","0.0-4.0-2.0-0.23","spark_pilot_norest","8636","5","14","Male","","false","","","","","[954.9000000059605,1236.0999999940395]","./assets/img/canyon/memory/14.jpg","[""ArrowUp"",""ArrowRight""]","value training","canyon","10","{""ArrowUp,ArrowLeft"":26,""ArrowUp,ArrowRight"":10,""ArrowDown,ArrowLeft"":5,""ArrowDown,ArrowRight"":17}","false","ArrowUp,ArrowRight","false","original","1","46","","",""
"html-keyboard-response","166","747150","0.0-4.0-2.0-1.23","spark_pilot_norest","8636","5","14","Male","","","","","","","null","<div style=""font-size:60px;"">+</div>","null","fixation","","","","","","","","","47","","",""
"revaluation","167","751168","0.0-4.0-2.0-0.24","spark_pilot_norest","8636","5","14","Male","","false","","","","","[584.1999999880791]","./assets/img/canyon/catch/3.jpg","[""ArrowUp""]","value training","canyon","-10","{""ArrowUp,ArrowLeft"":26,""ArrowUp,ArrowRight"":10,""ArrowDown,ArrowLeft"":5,""ArrowDown,ArrowRight"":17}","false","ArrowUp","true","original","1","48","","",""
"html-keyboard-response","168","751678","0.0-4.0-2.0-1.24","spark_pilot_norest","8636","5","14","Male","","","","","","","null","<div style=""font-size:60px;"">+</div>","null","fixation","","","","","","","","","49","","",""
"revaluation","169","757705","0.0-4.0-2.0-0.25","spark_pilot_norest","8636","5","14","Male","","true","","","","","[1192.2000000178814]","./assets/img/canyon/memory/3.jpg","[""ArrowUp""]","value training","canyon","-5","{""ArrowUp,ArrowLeft"":26,""ArrowUp,ArrowRight"":10,""ArrowDown,ArrowLeft"":5,""ArrowDown,ArrowRight"":17}","false","ArrowUp","false","original","1","50","","",""
"html-keyboard-response","170","758215","0.0-4.0-2.0-1.25","spark_pilot_norest","8636","5","14","Male","","","","","","","null","<div style=""font-size:60px;"">+</div>","null","fixation","","","","","","","","","51","","",""
"revaluation","171","764242","0.0-4.0-2.0-0.26","spark_pilot_norest","8636","5","14","Male","","false","","","","","[599.7999999821186,552]","./assets/img/canyon/memory/26.jpg","[""ArrowUp"",""ArrowRight""]","value training","canyon","10","{""ArrowUp,ArrowLeft"":26,""ArrowUp,ArrowRight"":10,""ArrowDown,ArrowLeft"":5,""ArrowDown,ArrowRight"":17}","false","ArrowUp,ArrowRight","false","original","1","52","","",""
"html-keyboard-response","172","764753","0.0-4.0-2.0-1.26","spark_pilot_norest","8636","5","14","Male","","","","","","","null","<div style=""font-size:60px;"">+</div>","null","fixation","","","","","","","","","53","","",""
"revaluation","173","770773","0.0-4.0-2.0-0.27","spark_pilot_norest","8636","5","14","Male","","false","","","","","[903.2999999821186,1463.699999988079]","./assets/img/canyon/memory/28.jpg","[""ArrowUp"",""ArrowRight""]","value training","canyon","10","{""ArrowUp,ArrowLeft"":26,""ArrowUp,ArrowRight"":10,""ArrowDown,ArrowLeft"":5,""ArrowDown,ArrowRight"":17}","false","ArrowUp,ArrowRight","false","original","1","54","","",""
"html-keyboard-response","174","771278","0.0-4.0-2.0-1.27","spark_pilot_norest","8636","5","14","Male","","","","","","","null","<div style=""font-size:60px;"">+</div>","null","fixation","","","","","","","","","55","","",""
"revaluation","175","777303","0.0-4.0-2.0-0.28","spark_pilot_norest","8636","5","14","Male","","false","","","","","[818.4000000059605,923.0999999940395]","./assets/img/canyon/memory/13.jpg","[""ArrowUp"",""ArrowRight""]","value training","canyon","10","{""ArrowUp,ArrowLeft"":26,""ArrowUp,ArrowRight"":10,""ArrowDown,ArrowLeft"":5,""ArrowDown,ArrowRight"":17}","false","ArrowUp,ArrowRight","false","original","1","56","","",""
"html-keyboard-response","176","777808","0.0-4.0-2.0-1.28","spark_pilot_norest","8636","5","14","Male","","","","","","","null","<div style=""font-size:60px;"">+</div>","null","fixation","","","","","","","","","57","","",""
"revaluation","177","783834","0.0-4.0-2.0-0.29","spark_pilot_norest","8636","5","14","Male","","false","","","","","[1056.4000000059605,760.4000000059605]","./assets/img/canyon/memory/17.jpg","[""ArrowUp"",""ArrowLeft""]","value training","canyon","26","{""ArrowUp,ArrowLeft"":26,""ArrowUp,ArrowRight"":10,""ArrowDown,ArrowLeft"":5,""ArrowDown,ArrowRight"":17}","true","ArrowUp,ArrowLeft","false","original","1","58","","",""
"html-keyboard-response","178","784345","0.0-4.0-2.0-1.29","spark_pilot_norest","8636","5","14","Male","","","","","","","null","<div style=""font-size:60px;"">+</div>","null","fixation","","","","","","","","","59","","",""
"revaluation","179","790365","0.0-4.0-2.0-0.30","spark_pilot_norest","8636","5","14","Male","","false","","","","","[607.0999999940395,688]","./assets/img/canyon/memory/2.jpg","[""ArrowUp"",""ArrowRight""]","value training","canyon","10","{""ArrowUp,ArrowLeft"":26,""ArrowUp,ArrowRight"":10,""ArrowDown,ArrowLeft"":5,""ArrowDown,ArrowRight"":17}","false","ArrowUp,ArrowRight","false","original","1","60","","",""
"html-keyboard-response","180","790870","0.0-4.0-2.0-1.30","spark_pilot_norest","8636","5","14","Male","","","","","","","null","<div style=""font-size:60px;"">+</div>","null","fixation","","","","","","","","","61","","",""
"revaluation","181","796896","0.0-4.0-2.0-0.31","spark_pilot_norest","8636","5","14","Male","","false","","","","","[729.2000000178814,945.6999999880791]","./assets/img/canyon/memory/16.jpg","[""ArrowUp"",""ArrowLeft""]","value training","canyon","26","{""ArrowUp,ArrowLeft"":26,""ArrowUp,ArrowRight"":10,""ArrowDown,ArrowLeft"":5,""ArrowDown,ArrowRight"":17}","true","ArrowUp,ArrowLeft","false","original","1","62","","",""
"html-keyboard-response","182","797401","0.0-4.0-2.0-1.31","spark_pilot_norest","8636","5","14","Male","","","","","","","null","<div style=""font-size:60px;"">+</div>","null","fixation","","","","","","","","","63","","",""
"revaluation","183","801418","0.0-4.0-2.0-0.32","spark_pilot_norest","8636","5","14","Male","","false","","","","","[639.5999999940395]","./assets/img/canyon/catch/4.jpg","[""spaceBar""]","value training","canyon","0","{""ArrowUp,ArrowLeft"":26,""ArrowUp,ArrowRight"":10,""ArrowDown,ArrowLeft"":5,""ArrowDown,ArrowRight"":17}","true","spaceBar","true","original","1","64","","",""
"html-keyboard-response","184","801929","0.0-4.0-2.0-1.32","spark_pilot_norest","8636","5","14","Male","","","","","","[{""event"":""fullscreenenter"",""trial"":2,""time"":18768},{""event"":""blur"",""trial"":185,""time"":803256},{""event"":""focus"",""trial"":186,""time"":806804}]","null","<div style=""font-size:60px;"">+</div>","null","fixation","","","","","","","","","65","","",""
"revaluation","185","806801","0.0-4.0-2.0-0.33","spark_pilot_norest","8636","5","14","Male","","true","","","","[{""event"":""fullscreenenter"",""trial"":2,""time"":18768},{""event"":""blur"",""trial"":185,""time"":803256},{""event"":""focus"",""trial"":186,""time"":806804}]","[]","./assets/img/canyon/memory/27.jpg","[]","value training","canyon","-5","{""ArrowUp,ArrowLeft"":26,""ArrowUp,ArrowRight"":10,""ArrowDown,ArrowLeft"":5,""ArrowDown,ArrowRight"":17}","false","","false","original","1","66","","",""
"html-keyboard-response","186","807302","0.0-4.0-2.0-1.33","spark_pilot_norest","8636","5","14","Male","","","","","","","null","<div style=""font-size:60px;"">+</div>","null","fixation","","","","","","","","","67","","",""
"revaluation","187","813331","0.0-4.0-2.0-0.34","spark_pilot_norest","8636","5","14","Male","","false","","","","","[954.9000000059605,1296.800000011921]","./assets/img/canyon/memory/29.jpg","[""ArrowUp"",""ArrowRight""]","value training","canyon","10","{""ArrowUp,ArrowLeft"":26,""ArrowUp,ArrowRight"":10,""ArrowDown,ArrowLeft"":5,""ArrowDown,ArrowRight"":17}","false","ArrowUp,ArrowRight","false","original","1","68","","",""
"html-keyboard-response","188","813842","0.0-4.0-2.0-1.34","spark_pilot_norest","8636","5","14","Male","","","","","","","null","<div style=""font-size:60px;"">+</div>","null","fixation","","","","","","","","","69","","",""
"revaluation","189","819867","0.0-4.0-2.0-0.35","spark_pilot_norest","8636","5","14","Male","","false","","","","","[615.8999999761581,760.6999999880791]","./assets/img/canyon/memory/17.jpg","[""ArrowUp"",""ArrowLeft""]","value training","canyon","26","{""ArrowUp,ArrowLeft"":26,""ArrowUp,ArrowRight"":10,""ArrowDown,ArrowLeft"":5,""ArrowDown,ArrowRight"":17}","true","ArrowUp,ArrowLeft","false","original","1","70","","",""
"html-keyboard-response","190","820377","0.0-4.0-2.0-1.35","spark_pilot_norest","8636","5","14","Male","","","","","","","null","<div style=""font-size:60px;"">+</div>","null","fixation","","","","","","","","","71","","",""
"revaluation","191","826404","0.0-4.0-2.0-0.36","spark_pilot_norest","8636","5","14","Male","","false","","","","","[840,904.3000000119209]","./assets/img/canyon/memory/40.jpg","[""ArrowUp"",""ArrowLeft""]","value training","canyon","26","{""ArrowUp,ArrowLeft"":26,""ArrowUp,ArrowRight"":10,""ArrowDown,ArrowLeft"":5,""ArrowDown,ArrowRight"":17}","true","ArrowUp,ArrowLeft","false","original","1","72","","",""
"html-keyboard-response","192","826914","0.0-4.0-2.0-1.36","spark_pilot_norest","8636","5","14","Male","","","","","","","null","<div style=""font-size:60px;"">+</div>","null","fixation","","","","","","","","","73","","",""
"revaluation","193","832939","0.0-4.0-2.0-0.37","spark_pilot_norest","8636","5","14","Male","","false","","","","","[704.2999999821186,687.7999999821186]","./assets/img/canyon/memory/31.jpg","[""ArrowUp"",""ArrowLeft""]","value training","canyon","26","{""ArrowUp,ArrowLeft"":26,""ArrowUp,ArrowRight"":10,""ArrowDown,ArrowLeft"":5,""ArrowDown,ArrowRight"":17}","true","ArrowUp,ArrowLeft","false","original","1","74","","",""
"html-keyboard-response","194","833451","0.0-4.0-2.0-1.37","spark_pilot_norest","8636","5","14","Male","","","","","","","null","<div style=""font-size:60px;"">+</div>","null","fixation","","","","","","","","","75","","",""
"revaluation","195","839471","0.0-4.0-2.0-0.38","spark_pilot_norest","8636","5","14","Male","","false","","","","","[1039.2999999821186,1503.5]","./assets/img/canyon/memory/8.jpg","[""ArrowUp"",""ArrowLeft""]","value training","canyon","26","{""ArrowUp,ArrowLeft"":26,""ArrowUp,ArrowRight"":10,""ArrowDown,ArrowLeft"":5,""ArrowDown,ArrowRight"":17}","true","ArrowUp,ArrowLeft","false","original","1","76","","",""
"html-keyboard-response","196","839976","0.0-4.0-2.0-1.38","spark_pilot_norest","8636","5","14","Male","","","","","","","null","<div style=""font-size:60px;"">+</div>","null","fixation","","","","","","","","","77","","",""
"revaluation","197","846001","0.0-4.0-2.0-0.39","spark_pilot_norest","8636","5","14","Male","","false","","","","","[953.7999999821186,1715.5]","./assets/img/canyon/memory/31.jpg","[""ArrowUp"",""ArrowLeft""]","value training","canyon","26","{""ArrowUp,ArrowLeft"":26,""ArrowUp,ArrowRight"":10,""ArrowDown,ArrowLeft"":5,""ArrowDown,ArrowRight"":17}","true","ArrowUp,ArrowLeft","false","original","1","78","","",""
"html-keyboard-response","198","846507","0.0-4.0-2.0-1.39","spark_pilot_norest","8636","5","14","Male","","","","","","","null","<div style=""font-size:60px;"">+</div>","null","fixation","","","","","","","","","79","","",""
"revaluation","199","850524","0.0-4.0-2.0-0.40","spark_pilot_norest","8636","5","14","Male","","false","","","","","[1926.7000000178814]","./assets/img/canyon/catch/5.jpg","[""spaceBar""]","value training","canyon","0","{""ArrowUp,ArrowLeft"":26,""ArrowUp,ArrowRight"":10,""ArrowDown,ArrowLeft"":5,""ArrowDown,ArrowRight"":17}","true","spaceBar","true","original","1","80","","",""
"html-keyboard-response","200","851035","0.0-4.0-2.0-1.40","spark_pilot_norest","8636","5","14","Male","","","","","","","null","<div style=""font-size:60px;"">+</div>","null","fixation","","","","","","","","","81","","",""
"revaluation","201","857056","0.0-4.0-2.0-0.41","spark_pilot_norest","8636","5","14","Male","","false","","","","","[535.3000000119209,912.4000000059605]","./assets/img/canyon/memory/8.jpg","[""ArrowUp"",""ArrowLeft""]","value training","canyon","26","{""ArrowUp,ArrowLeft"":26,""ArrowUp,ArrowRight"":10,""ArrowDown,ArrowLeft"":5,""ArrowDown,ArrowRight"":17}","true","ArrowUp,ArrowLeft","false","original","1","82","","",""
"html-keyboard-response","202","857560","0.0-4.0-2.0-1.41","spark_pilot_norest","8636","5","14","Male","","","","","","","null","<div style=""font-size:60px;"">+</div>","null","fixation","","","","","","","","","83","","",""
"revaluation","203","863586","0.0-4.0-2.0-0.42","spark_pilot_norest","8636","5","14","Male","","false","","","","","[994.8000000119209,1435.9000000059605]","./assets/img/canyon/memory/33.jpg","[""ArrowUp"",""ArrowLeft""]","value training","canyon","26","{""ArrowUp,ArrowLeft"":26,""ArrowUp,ArrowRight"":10,""ArrowDown,ArrowLeft"":5,""ArrowDown,ArrowRight"":17}","true","ArrowUp,ArrowLeft","false","original","1","84","","",""
"html-keyboard-response","204","864091","0.0-4.0-2.0-1.42","spark_pilot_norest","8636","5","14","Male","","","","","","","null","<div style=""font-size:60px;"">+</div>","null","fixation","","","","","","","","","85","","",""
"revaluation","205","870112","0.0-4.0-2.0-0.43","spark_pilot_norest","8636","5","14","Male","","false","","","","","[703.8000000119209,1056.5999999940395]","./assets/img/canyon/memory/6.jpg","[""ArrowUp"",""ArrowLeft""]","value training","canyon","26","{""ArrowUp,ArrowLeft"":26,""ArrowUp,ArrowRight"":10,""ArrowDown,ArrowLeft"":5,""ArrowDown,ArrowRight"":17}","true","ArrowUp,ArrowLeft","false","original","1","86","","",""
"html-keyboard-response","206","870616","0.0-4.0-2.0-1.43","spark_pilot_norest","8636","5","14","Male","","","","","","","null","<div style=""font-size:60px;"">+</div>","null","fixation","","","","","","","","","87","","",""
"revaluation","207","874633","0.0-4.0-2.0-0.44","spark_pilot_norest","8636","5","14","Male","","false","","","","","[787.5]","./assets/img/canyon/catch/2.jpg","[""ArrowUp""]","value training","canyon","-10","{""ArrowUp,ArrowLeft"":26,""ArrowUp,ArrowRight"":10,""ArrowDown,ArrowLeft"":5,""ArrowDown,ArrowRight"":17}","false","ArrowUp","true","original","1","88","","",""
"html-keyboard-response","208","875137","0.0-4.0-2.0-1.44","spark_pilot_norest","8636","5","14","Male","","","","","","","null","<div style=""font-size:60px;"">+</div>","null","fixation","","","","","","","","","89","","",""
"revaluation","209","881163","0.0-4.0-2.0-0.45","spark_pilot_norest","8636","5","14","Male","","false","","","","","[802.5,978]","./assets/img/canyon/memory/14.jpg","[""ArrowUp"",""ArrowLeft""]","value training","canyon","26","{""ArrowUp,ArrowLeft"":26,""ArrowUp,ArrowRight"":10,""ArrowDown,ArrowLeft"":5,""ArrowDown,ArrowRight"":17}","true","ArrowUp,ArrowLeft","false","original","1","90","","",""
"html-keyboard-response","210","881668","0.0-4.0-2.0-1.45","spark_pilot_norest","8636","5","14","Male","","","","","","","null","<div style=""font-size:60px;"">+</div>","null","fixation","","","","","","","","","91","","",""
"revaluation","211","887689","0.0-4.0-2.0-0.46","spark_pilot_norest","8636","5","14","Male","","false","","","","","[919.0999999940395,1352.800000011921]","./assets/img/canyon/memory/26.jpg","[""ArrowUp"",""ArrowLeft""]","value training","canyon","26","{""ArrowUp,ArrowLeft"":26,""ArrowUp,ArrowRight"":10,""ArrowDown,ArrowLeft"":5,""ArrowDown,ArrowRight"":17}","true","ArrowUp,ArrowLeft","false","original","1","92","","",""
"html-keyboard-response","212","888194","0.0-4.0-2.0-1.46","spark_pilot_norest","8636","5","14","Male","","","","","","","null","<div style=""font-size:60px;"">+</div>","null","fixation","","","","","","","","","93","","",""
"revaluation","213","892211","0.0-4.0-2.0-0.47","spark_pilot_norest","8636","5","14","Male","","false","","","","","[697.5999999940395]","./assets/img/canyon/catch/6.jpg","[""spaceBar""]","value training","canyon","0","{""ArrowUp,ArrowLeft"":26,""ArrowUp,ArrowRight"":10,""ArrowDown,ArrowLeft"":5,""ArrowDown,ArrowRight"":17}","true","spaceBar","true","original","1","94","","",""
"html-keyboard-response","214","892716","0.0-4.0-2.0-1.47","spark_pilot_norest","8636","5","14","Male","","","","","","","null","<div style=""font-size:60px;"">+</div>","null","fixation","","","","","","","","","95","","",""
"revaluation","215","898742","0.0-4.0-2.0-0.48","spark_pilot_norest","8636","5","14","Male","","false","","","","","[767.9000000059605,1315.7999999821186]","./assets/img/canyon/memory/6.jpg","[""ArrowUp"",""ArrowLeft""]","value training","canyon","26","{""ArrowUp,ArrowLeft"":26,""ArrowUp,ArrowRight"":10,""ArrowDown,ArrowLeft"":5,""ArrowDown,ArrowRight"":17}","true","ArrowUp,ArrowLeft","false","original","1","96","","",""
"html-keyboard-response","216","899253","0.0-4.0-2.0-1.48","spark_pilot_norest","8636","5","14","Male","","","","","","","null","<div style=""font-size:60px;"">+</div>","null","fixation","","","","","","","","","97","","",""
"revaluation","217","905273","0.0-4.0-2.0-0.49","spark_pilot_norest","8636","5","14","Male","","false","","","","","[1080.0999999940395,536.0999999940395]","./assets/img/canyon/memory/15.jpg","[""ArrowUp"",""ArrowLeft""]","value training","canyon","26","{""ArrowUp,ArrowLeft"":26,""ArrowUp,ArrowRight"":10,""ArrowDown,ArrowLeft"":5,""ArrowDown,ArrowRight"":17}","true","ArrowUp,ArrowLeft","false","original","1","98","","",""
"html-keyboard-response","218","905778","0.0-4.0-2.0-1.49","spark_pilot_norest","8636","5","14","Male","","","","","","","null","<div style=""font-size:60px;"">+</div>","null","fixation","","","","","","","","","99","","",""
"learning-instructions","219","922202","0.0-4.0-3.0-0.0","spark_pilot_norest","8636","5","14","Male","","","","","","","3222.5","<p> Now, you will travel with a friend who will choose whether you go up or down first. </p>
            <p> On these turns, you will just see the animal that they found. You will still get to choose which chest to search for treasure.</p>","","instructions","","","","","","","","","","","",""
"revaluation","220","926219","0.0-4.0-4.0-0.0","spark_pilot_norest","8636","5","14","Male","","false","","","","","[970.4000000059605]","./assets/img/canyon/animals/giraffe.jpg","[""ArrowLeft""]","revaluation","canyon","26","{""ArrowUp,ArrowLeft"":26,""ArrowUp,ArrowRight"":10,""ArrowDown,ArrowLeft"":5,""ArrowDown,ArrowRight"":17}","true","ArrowUp,ArrowLeft","","original","1","0","","",""
"html-keyboard-response","221","926723","0.0-4.0-4.0-1.0","spark_pilot_norest","8636","5","14","Male","","","","","","","null","<div style=""font-size:60px;"">+</div>","null","fixation","","","","","","","","","1","","",""
"revaluation","222","930741","0.0-4.0-4.0-0.1","spark_pilot_norest","8636","5","14","Male","","false","","","","","[744.8000000119209]","./assets/img/canyon/animals/lion.jpg","[""ArrowRight""]","revaluation","canyon","17","{""ArrowUp,ArrowLeft"":26,""ArrowUp,ArrowRight"":10,""ArrowDown,ArrowLeft"":5,""ArrowDown,ArrowRight"":17}","true","ArrowDown,ArrowRight","","original","1","2","","",""
"html-keyboard-response","223","931246","0.0-4.0-4.0-1.1","spark_pilot_norest","8636","5","14","Male","","","","","","","null","<div style=""font-size:60px;"">+</div>","null","fixation","","","","","","","","","3","","",""
"revaluation","224","935263","0.0-4.0-4.0-0.2","spark_pilot_norest","8636","5","14","Male","","false","","","","","[567.3000000119209]","./assets/img/canyon/animals/lion.jpg","[""ArrowLeft""]","revaluation","canyon","5","{""ArrowUp,ArrowLeft"":26,""ArrowUp,ArrowRight"":10,""ArrowDown,ArrowLeft"":5,""ArrowDown,ArrowRight"":17}","false","ArrowDown,ArrowLeft","","original","1","4","","",""
"html-keyboard-response","225","935771","0.0-4.0-4.0-1.2","spark_pilot_norest","8636","5","14","Male","","","","","","","null","<div style=""font-size:60px;"">+</div>","null","fixation","","","","","","","","","5","","",""
"revaluation","226","939791","0.0-4.0-4.0-0.3","spark_pilot_norest","8636","5","14","Male","","false","","","","","[697.8000000119209]","./assets/img/canyon/animals/giraffe.jpg","[""ArrowLeft""]","revaluation","canyon","26","{""ArrowUp,ArrowLeft"":26,""ArrowUp,ArrowRight"":10,""ArrowDown,ArrowLeft"":5,""ArrowDown,ArrowRight"":17}","true","ArrowUp,ArrowLeft","","original","1","6","","",""
"html-keyboard-response","227","940302","0.0-4.0-4.0-1.3","spark_pilot_norest","8636","5","14","Male","","","","","","","null","<div style=""font-size:60px;"">+</div>","null","fixation","","","","","","","","","7","","",""
"revaluation","228","944319","0.0-4.0-4.0-0.4","spark_pilot_norest","8636","5","14","Male","","false","","","","","[1022.9000000059605]","./assets/img/canyon/animals/giraffe.jpg","[""ArrowRight""]","revaluation","canyon","10","{""ArrowUp,ArrowLeft"":26,""ArrowUp,ArrowRight"":10,""ArrowDown,ArrowLeft"":5,""ArrowDown,ArrowRight"":17}","false","ArrowUp,ArrowRight","","original","1","8","","",""
"html-keyboard-response","229","944830","0.0-4.0-4.0-1.4","spark_pilot_norest","8636","5","14","Male","","","","","","","null","<div style=""font-size:60px;"">+</div>","null","fixation","","","","","","","","","9","","",""
"revaluation","230","948847","0.0-4.0-4.0-0.5","spark_pilot_norest","8636","5","14","Male","","false","","","","","[703.6999999880791]","./assets/img/canyon/animals/lion.jpg","[""ArrowLeft""]","revaluation","canyon","5","{""ArrowUp,ArrowLeft"":26,""ArrowUp,ArrowRight"":10,""ArrowDown,ArrowLeft"":5,""ArrowDown,ArrowRight"":17}","false","ArrowDown,ArrowLeft","","original","1","10","","",""
"html-keyboard-response","231","949359","0.0-4.0-4.0-1.5","spark_pilot_norest","8636","5","14","Male","","","","","","","null","<div style=""font-size:60px;"">+</div>","null","fixation","","","","","","","","","11","","",""
"revaluation","232","953371","0.0-4.0-4.0-0.6","spark_pilot_norest","8636","5","14","Male","","false","","","","","[1158.199999988079]","./assets/img/canyon/animals/giraffe.jpg","[""ArrowLeft""]","revaluation","canyon","26","{""ArrowUp,ArrowLeft"":26,""ArrowUp,ArrowRight"":10,""ArrowDown,ArrowLeft"":5,""ArrowDown,ArrowRight"":17}","true","ArrowUp,ArrowLeft","","original","1","12","","",""
"html-keyboard-response","233","953876","0.0-4.0-4.0-1.6","spark_pilot_norest","8636","5","14","Male","","","","","","","null","<div style=""font-size:60px;"">+</div>","null","fixation","","","","","","","","","13","","",""
"revaluation","234","957893","0.0-4.0-4.0-0.7","spark_pilot_norest","8636","5","14","Male","","false","","","","","[673.3999999761581]","./assets/img/canyon/animals/lion.jpg","[""ArrowRight""]","revaluation","canyon","17","{""ArrowUp,ArrowLeft"":26,""ArrowUp,ArrowRight"":10,""ArrowDown,ArrowLeft"":5,""ArrowDown,ArrowRight"":17}","true","ArrowDown,ArrowRight","","original","1","14","","",""
"html-keyboard-response","235","958398","0.0-4.0-4.0-1.7","spark_pilot_norest","8636","5","14","Male","","","","","","","null","<div style=""font-size:60px;"">+</div>","null","fixation","","","","","","","","","15","","",""
"revaluation","236","962415","0.0-4.0-4.0-0.8","spark_pilot_norest","8636","5","14","Male","","false","","","","","[592.0999999940395]","./assets/img/canyon/animals/lion.jpg","[""ArrowLeft""]","revaluation","canyon","5","{""ArrowUp,ArrowLeft"":26,""ArrowUp,ArrowRight"":10,""ArrowDown,ArrowLeft"":5,""ArrowDown,ArrowRight"":17}","false","ArrowDown,ArrowLeft","","original","1","16","","",""
"html-keyboard-response","237","962926","0.0-4.0-4.0-1.8","spark_pilot_norest","8636","5","14","Male","","","","","","","null","<div style=""font-size:60px;"">+</div>","null","fixation","","","","","","","","","17","","",""
"revaluation","238","966943","0.0-4.0-4.0-0.9","spark_pilot_norest","8636","5","14","Male","","false","","","","","[1311.9000000059605]","./assets/img/canyon/animals/giraffe.jpg","[""ArrowLeft""]","revaluation","canyon","26","{""ArrowUp,ArrowLeft"":26,""ArrowUp,ArrowRight"":10,""ArrowDown,ArrowLeft"":5,""ArrowDown,ArrowRight"":17}","true","ArrowUp,ArrowLeft","","original","1","18","","",""
"html-keyboard-response","239","967453","0.0-4.0-4.0-1.9","spark_pilot_norest","8636","5","14","Male","","","","","","","null","<div style=""font-size:60px;"">+</div>","null","fixation","","","","","","","","","19","","",""
"revaluation","240","971471","0.0-4.0-4.0-0.10","spark_pilot_norest","8636","5","14","Male","","false","","","","","[969]","./assets/img/canyon/animals/giraffe.jpg","[""ArrowLeft""]","revaluation","canyon","26","{""ArrowUp,ArrowLeft"":26,""ArrowUp,ArrowRight"":10,""ArrowDown,ArrowLeft"":5,""ArrowDown,ArrowRight"":17}","true","ArrowUp,ArrowLeft","","original","1","20","","",""
"html-keyboard-response","241","971981","0.0-4.0-4.0-1.10","spark_pilot_norest","8636","5","14","Male","","","","","","","null","<div style=""font-size:60px;"">+</div>","null","fixation","","","","","","","","","21","","",""
"revaluation","242","975991","0.0-4.0-4.0-0.11","spark_pilot_norest","8636","5","14","Male","","false","","","","","[41.400000005960464]","./assets/img/canyon/animals/lion.jpg","[""ArrowRight""]","revaluation","canyon","17","{""ArrowUp,ArrowLeft"":26,""ArrowUp,ArrowRight"":10,""ArrowDown,ArrowLeft"":5,""ArrowDown,ArrowRight"":17}","true","ArrowDown,ArrowRight","","original","1","22","","",""
"html-keyboard-response","243","976500","0.0-4.0-4.0-1.11","spark_pilot_norest","8636","5","14","Male","","","","","","","null","<div style=""font-size:60px;"">+</div>","null","fixation","","","","","","","","","23","","",""
"revaluation","244","980516","0.0-4.0-4.0-0.12","spark_pilot_norest","8636","5","14","Male","","false","","","","","[2.4000000059604645]","./assets/img/canyon/animals/lion.jpg","[""ArrowLeft""]","revaluation","canyon","5","{""ArrowUp,ArrowLeft"":26,""ArrowUp,ArrowRight"":10,""ArrowDown,ArrowLeft"":5,""ArrowDown,ArrowRight"":17}","false","ArrowDown,ArrowLeft","","original","1","24","","",""
"html-keyboard-response","245","981021","0.0-4.0-4.0-1.12","spark_pilot_norest","8636","5","14","Male","","","","","","","null","<div style=""font-size:60px;"">+</div>","null","fixation","","","","","","","","","25","","",""
"revaluation","246","985038","0.0-4.0-4.0-0.13","spark_pilot_norest","8636","5","14","Male","","false","","","","","[1218]","./assets/img/canyon/animals/giraffe.jpg","[""ArrowLeft""]","revaluation","canyon","26","{""ArrowUp,ArrowLeft"":26,""ArrowUp,ArrowRight"":10,""ArrowDown,ArrowLeft"":5,""ArrowDown,ArrowRight"":17}","true","ArrowUp,ArrowLeft","","original","1","26","","",""
"html-keyboard-response","247","985543","0.0-4.0-4.0-1.13","spark_pilot_norest","8636","5","14","Male","","","","","","","null","<div style=""font-size:60px;"">+</div>","null","fixation","","","","","","","","","27","","",""
"revaluation","248","989560","0.0-4.0-4.0-0.14","spark_pilot_norest","8636","5","14","Male","","false","","","","","[1158.8999999761581]","./assets/img/canyon/animals/giraffe.jpg","[""ArrowLeft""]","revaluation","canyon","26","{""ArrowUp,ArrowLeft"":26,""ArrowUp,ArrowRight"":10,""ArrowDown,ArrowLeft"":5,""ArrowDown,ArrowRight"":17}","true","ArrowUp,ArrowLeft","","original","1","28","","",""
"html-keyboard-response","249","990071","0.0-4.0-4.0-1.14","spark_pilot_norest","8636","5","14","Male","","","","","","","null","<div style=""font-size:60px;"">+</div>","null","fixation","","","","","","","","","29","","",""
"revaluation","250","994088","0.0-4.0-4.0-0.15","spark_pilot_norest","8636","5","14","Male","","false","","","","","[935.7999999821186]","./assets/img/canyon/animals/giraffe.jpg","[""ArrowLeft""]","revaluation","canyon","26","{""ArrowUp,ArrowLeft"":26,""ArrowUp,ArrowRight"":10,""ArrowDown,ArrowLeft"":5,""ArrowDown,ArrowRight"":17}","true","ArrowUp,ArrowLeft","","original","1","30","","",""
"html-keyboard-response","251","994599","0.0-4.0-4.0-1.15","spark_pilot_norest","8636","5","14","Male","","","","","","","null","<div style=""font-size:60px;"">+</div>","null","fixation","","","","","","","","","31","","",""
"revaluation","252","998616","0.0-4.0-4.0-0.16","spark_pilot_norest","8636","5","14","Male","","false","","","","","[1008.0999999940395]","./assets/img/canyon/animals/lion.jpg","[""ArrowRight""]","revaluation","canyon","17","{""ArrowUp,ArrowLeft"":26,""ArrowUp,ArrowRight"":10,""ArrowDown,ArrowLeft"":5,""ArrowDown,ArrowRight"":17}","true","ArrowDown,ArrowRight","","original","1","32","","",""
"html-keyboard-response","253","999126","0.0-4.0-4.0-1.16","spark_pilot_norest","8636","5","14","Male","","","","","","","null","<div style=""font-size:60px;"">+</div>","null","fixation","","","","","","","","","33","","",""
"revaluation","254","1003144","0.0-4.0-4.0-0.17","spark_pilot_norest","8636","5","14","Male","","false","","","","","[808.9000000059605]","./assets/img/canyon/animals/lion.jpg","[""ArrowLeft""]","revaluation","canyon","5","{""ArrowUp,ArrowLeft"":26,""ArrowUp,ArrowRight"":10,""ArrowDown,ArrowLeft"":5,""ArrowDown,ArrowRight"":17}","false","ArrowDown,ArrowLeft","","original","1","34","","",""
"html-keyboard-response","255","1003655","0.0-4.0-4.0-1.17","spark_pilot_norest","8636","5","14","Male","","","","","","","null","<div style=""font-size:60px;"">+</div>","null","fixation","","","","","","","","","35","","",""
"learning-instructions","256","1012086","0.0-4.0-5.0-0.0","spark_pilot_norest","8636","5","14","Male","","","","","","","null","<p> You have almost finished this part of the game! </p>
            <p> We are going to ask you to make a few more choices. </p>","","instructions","","","","","","","","","","","",""
"learning-instructions","257","1028061","0.0-4.0-5.0-0.1","spark_pilot_norest","8636","5","14","Male","","","","","","","null","<p> First, you need to decide whether to go up or down. When you see each picture, use the arrow keys to make your choice. </p>
            <p><b>You will not see which animal you found, but try to get to the one that will give you the most treasure.</b></p>","","instructions","","","","","","","","","","","",""
"html-keyboard-response","258","1029072","0.0-4.0-6.0-0.0","spark_pilot_norest","8636","5","14","Male","","","","","","","null","<div style=""font-size:100px;color:red;"">Starting in...</div>","null","","","","","","","","","","","","",""
"html-keyboard-response","259","1030078","0.0-4.0-6.0-1.0","spark_pilot_norest","8636","5","14","Male","","","","","","","null","<div style=""font-size:200px;color:red;"">3</div>","null","","","","","","","","","","","","",""
"html-keyboard-response","260","1031086","0.0-4.0-6.0-2.0","spark_pilot_norest","8636","5","14","Male","","","","","","","null","<div style=""font-size:200px;color:red;"">2</div>","null","","","","","","","","","","","","",""
"html-keyboard-response","261","1032093","0.0-4.0-6.0-3.0","spark_pilot_norest","8636","5","14","Male","","","","","","","null","<div style=""font-size:200px;color:red;"">1</div>","null","","","","","","","","","","","","",""
"revaluation","262","1033018","0.0-4.0-7.0-0.0","spark_pilot_norest","8636","5","14","Male","","false","","","","","[922.4000000059605]","./assets/img/canyon/test/0.jpg","[""ArrowUp""]","first stage test","canyon","0","{""ArrowUp,ArrowLeft"":26,""ArrowUp,ArrowRight"":10,""ArrowDown,ArrowLeft"":5,""ArrowDown,ArrowRight"":17}","true","ArrowUp","false","original","1","","","",""
"html-keyboard-response","263","1033526","0.0-4.0-7.0-1.0","spark_pilot_norest","8636","5","14","Male","","","","","","","null","<div style=""font-size:60px;"">+</div>","null","fixation","","","","","","","","","","","",""
"revaluation","264","1034073","0.0-4.0-7.0-0.1","spark_pilot_norest","8636","5","14","Male","","false","","","","","[545.5]","./assets/img/canyon/test/2.jpg","[""ArrowUp""]","first stage test","canyon","0","{""ArrowUp,ArrowLeft"":26,""ArrowUp,ArrowRight"":10,""ArrowDown,ArrowLeft"":5,""ArrowDown,ArrowRight"":17}","true","ArrowUp","false","original","1","","","",""
"html-keyboard-response","265","1034581","0.0-4.0-7.0-1.1","spark_pilot_norest","8636","5","14","Male","","","","","","","null","<div style=""font-size:60px;"">+</div>","null","fixation","","","","","","","","","","","",""
"revaluation","266","1034898","0.0-4.0-7.0-0.2","spark_pilot_norest","8636","5","14","Male","","false","","","","","[315.30000001192093]","./assets/img/canyon/test/1.jpg","[""ArrowUp""]","first stage test","canyon","0","{""ArrowUp,ArrowLeft"":26,""ArrowUp,ArrowRight"":10,""ArrowDown,ArrowLeft"":5,""ArrowDown,ArrowRight"":17}","true","ArrowUp","false","original","1","","","",""
"html-keyboard-response","267","1035405","0.0-4.0-7.0-1.2","spark_pilot_norest","8636","5","14","Male","","","","","","","null","<div style=""font-size:60px;"">+</div>","null","fixation","","","","","","","","","","","",""
"revaluation","268","1035714","0.0-4.0-7.0-0.3","spark_pilot_norest","8636","5","14","Male","","false","","","","","[307]","./assets/img/canyon/test/3.jpg","[""ArrowUp""]","first stage test","canyon","0","{""ArrowUp,ArrowLeft"":26,""ArrowUp,ArrowRight"":10,""ArrowDown,ArrowLeft"":5,""ArrowDown,ArrowRight"":17}","true","ArrowUp","false","original","1","","","",""
"html-keyboard-response","269","1036224","0.0-4.0-7.0-1.3","spark_pilot_norest","8636","5","14","Male","","","","","","","null","<div style=""font-size:60px;"">+</div>","null","fixation","","","","","","","","","","","",""
"learning-instructions","270","1049571","0.0-4.0-8.0-0.0","spark_pilot_norest","8636","5","14","Male","","","","","","","null","<p> Now you will see the animals again and can search their chests for treasure. </p>
            <p> This time, you will not see how much treasure you earned, but you will earn more bonus money for making better choices. </p>","","instructions","","","","","","","","","","","",""
"html-keyboard-response","271","1050574","0.0-4.0-9.0-0.0","spark_pilot_norest","8636","5","14","Male","","","","","","","null","<div style=""font-size:100px;color:red;"">Starting in...</div>","null","","","","","","","","","","","","",""
"html-keyboard-response","272","1051582","0.0-4.0-9.0-1.0","spark_pilot_norest","8636","5","14","Male","","","","","","","null","<div style=""font-size:200px;color:red;"">3</div>","null","","","","","","","","","","","","",""
"html-keyboard-response","273","1052590","0.0-4.0-9.0-2.0","spark_pilot_norest","8636","5","14","Male","","","","","","","null","<div style=""font-size:200px;color:red;"">2</div>","null","","","","","","","","","","","","",""
"html-keyboard-response","274","1053598","0.0-4.0-9.0-3.0","spark_pilot_norest","8636","5","14","Male","","","","","","","null","<div style=""font-size:200px;color:red;"">1</div>","null","","","","","","","","","","","","",""
"revaluation","275","1054138","0.0-4.0-10.0-0.0","spark_pilot_norest","8636","5","14","Male","","false","","","","","[538.5]","./assets/img/canyon/animals/giraffe.jpg","[""ArrowRight""]","second stage test","canyon","0","{""ArrowUp,ArrowLeft"":26,""ArrowUp,ArrowRight"":10,""ArrowDown,ArrowLeft"":5,""ArrowDown,ArrowRight"":17}","false","ArrowUp,ArrowRight","","original","1","","","",""
"html-keyboard-response","276","1054649","0.0-4.0-10.0-1.0","spark_pilot_norest","8636","5","14","Male","","","","","","","null","<div style=""font-size:60px;"">+</div>","null","fixation","","","","","","","","","","","",""
"revaluation","277","1055018","0.0-4.0-10.0-0.1","spark_pilot_norest","8636","5","14","Male","","false","","","","","[367.09999999403954]","./assets/img/canyon/animals/giraffe.jpg","[""ArrowRight""]","second stage test","canyon","0","{""ArrowUp,ArrowLeft"":26,""ArrowUp,ArrowRight"":10,""ArrowDown,ArrowLeft"":5,""ArrowDown,ArrowRight"":17}","false","ArrowUp,ArrowRight","","original","1","","","",""
"html-keyboard-response","278","1055526","0.0-4.0-10.0-1.1","spark_pilot_norest","8636","5","14","Male","","","","","","","null","<div style=""font-size:60px;"">+</div>","null","fixation","","","","","","","","","","","",""
"revaluation","279","1055866","0.0-4.0-10.0-0.2","spark_pilot_norest","8636","5","14","Male","","false","","","","","[338.69999998807907]","./assets/img/canyon/animals/giraffe.jpg","[""ArrowRight""]","second stage test","canyon","0","{""ArrowUp,ArrowLeft"":26,""ArrowUp,ArrowRight"":10,""ArrowDown,ArrowLeft"":5,""ArrowDown,ArrowRight"":17}","false","ArrowUp,ArrowRight","","original","1","","","",""
"html-keyboard-response","280","1056373","0.0-4.0-10.0-1.2","spark_pilot_norest","8636","5","14","Male","","","","","","","null","<div style=""font-size:60px;"">+</div>","null","fixation","","","","","","","","","","","",""
"revaluation","281","1056706","0.0-4.0-10.0-0.3","spark_pilot_norest","8636","5","14","Male","","false","","","","","[331.2000000178814]","./assets/img/canyon/animals/giraffe.jpg","[""ArrowRight""]","second stage test","canyon","0","{""ArrowUp,ArrowLeft"":26,""ArrowUp,ArrowRight"":10,""ArrowDown,ArrowLeft"":5,""ArrowDown,ArrowRight"":17}","false","ArrowUp,ArrowRight","","original","1","","","",""
"html-keyboard-response","282","1057215","0.0-4.0-10.0-1.3","spark_pilot_norest","8636","5","14","Male","","","","","","","null","<div style=""font-size:60px;"">+</div>","null","fixation","","","","","","","","","","","",""
"revaluation","283","1057730","0.0-4.0-10.0-0.4","spark_pilot_norest","8636","5","14","Male","","false","","","","","[513.0999999940395]","./assets/img/canyon/animals/lion.jpg","[""ArrowLeft""]","second stage test","canyon","0","{""ArrowUp,ArrowLeft"":26,""ArrowUp,ArrowRight"":10,""ArrowDown,ArrowLeft"":5,""ArrowDown,ArrowRight"":17}","false","ArrowDown,ArrowLeft","","original","1","","","",""
"html-keyboard-response","284","1058242","0.0-4.0-10.0-1.4","spark_pilot_norest","8636","5","14","Male","","","","","","","null","<div style=""font-size:60px;"">+</div>","null","fixation","","","","","","","","","","","",""
"revaluation","285","1058626","0.0-4.0-10.0-0.5","spark_pilot_norest","8636","5","14","Male","","false","","","","","[382.40000000596046]","./assets/img/canyon/animals/lion.jpg","[""ArrowLeft""]","second stage test","canyon","0","{""ArrowUp,ArrowLeft"":26,""ArrowUp,ArrowRight"":10,""ArrowDown,ArrowLeft"":5,""ArrowDown,ArrowRight"":17}","false","ArrowDown,ArrowLeft","","original","1","","","",""
"html-keyboard-response","286","1059137","0.0-4.0-10.0-1.5","spark_pilot_norest","8636","5","14","Male","","","","","","","null","<div style=""font-size:60px;"">+</div>","null","fixation","","","","","","","","","","","",""
"revaluation","287","1059194","0.0-4.0-10.0-0.6","spark_pilot_norest","8636","5","14","Male","","false","","","","","[55.39999997615814]","./assets/img/canyon/animals/lion.jpg","[""ArrowLeft""]","second stage test","canyon","0","{""ArrowUp,ArrowLeft"":26,""ArrowUp,ArrowRight"":10,""ArrowDown,ArrowLeft"":5,""ArrowDown,ArrowRight"":17}","false","ArrowDown,ArrowLeft","","original","1","","","",""
"html-keyboard-response","288","1059705","0.0-4.0-10.0-1.6","spark_pilot_norest","8636","5","14","Male","","","","","","","null","<div style=""font-size:60px;"">+</div>","null","fixation","","","","","","","","","","","",""
"revaluation","289","1060258","0.0-4.0-10.0-0.7","spark_pilot_norest","8636","5","14","Male","","false","","","","","[551.2000000178814]","./assets/img/canyon/animals/lion.jpg","[""ArrowRight""]","second stage test","canyon","0","{""ArrowUp,ArrowLeft"":26,""ArrowUp,ArrowRight"":10,""ArrowDown,ArrowLeft"":5,""ArrowDown,ArrowRight"":17}","true","ArrowDown,ArrowRight","","original","1","","","",""
"html-keyboard-response","290","1060768","0.0-4.0-10.0-1.7","spark_pilot_norest","8636","5","14","Male","","","","","","","null","<div style=""font-size:60px;"">+</div>","null","fixation","","","","","","","","","","","",""
"learning-instructions","291","1065449","0.0-4.0-0.1-0.2","spark_pilot_norest","8636","5","14","Male","","","","","","","1917.2999999821186","<p> This time you are searching for treasure in the <b>ocean</b>.</p>","","instructions","","","","","","","","","","","",""
"learning-instructions","292","1083107","0.0-4.0-0.1-0.3","spark_pilot_norest","8636","5","14","Male","","","","","","","407.19999998807907","<p><b>New</b> animals with <b>new</b> treasure chests live here. You need to explore to discover where the animal with the best treasure chest is.</p>
                    <p> Like before, once you figure out which animal has the chest with the most treasure, you should try to get to that animal and select that chest! </p>","","instructions","","","","","","","","","","","",""
"learning-instructions","293","1098543","0.0-4.0-1.1-0.1","spark_pilot_norest","8636","5","14","Male","","","","","","","703","<p> Remember, when you see a picture of the place, use the up and down keys to <b>find an animal</b>.</p>
            <p> When you encounter an animal, you should use the left and right keys to <b>select a treasure chest</b>.</p>
            <p> Don't forget to look out for the robber! </p>","","instructions","","","","","","","","","","","",""
"revaluation","294","1104568","0.0-4.0-2.1-0.50","spark_pilot_norest","8636","5","14","Male","","false","","","","","[811.5999999940395,860.6000000238419]","./assets/img/ocean/memory/18.jpg","[""ArrowUp"",""ArrowRight""]","value training","ocean","10","{""ArrowUp,ArrowLeft"":23,""ArrowUp,ArrowRight"":10,""ArrowDown,ArrowLeft"":8,""ArrowDown,ArrowRight"":30}","false","ArrowUp,ArrowRight","false","revaluation","2","0","","",""
"html-keyboard-response","295","1105073","0.0-4.0-2.1-1.50","spark_pilot_norest","8636","5","14","Male","","","","","","","null","<div style=""font-size:60px;"">+</div>","null","fixation","","","","","","","","","1","","",""
"revaluation","296","1111099","0.0-4.0-2.1-0.51","spark_pilot_norest","8636","5","14","Male","","false","","","","","[985.5,737.5999999940395]","./assets/img/ocean/memory/15.jpg","[""ArrowDown"",""ArrowRight""]","value training","ocean","30","{""ArrowUp,ArrowLeft"":23,""ArrowUp,ArrowRight"":10,""ArrowDown,ArrowLeft"":8,""ArrowDown,ArrowRight"":30}","true","ArrowDown,ArrowRight","false","revaluation","2","2","","",""
"html-keyboard-response","297","1111609","0.0-4.0-2.1-1.51","spark_pilot_norest","8636","5","14","Male","","","","","","","null","<div style=""font-size:60px;"">+</div>","null","fixation","","","","","","","","","3","","",""
"revaluation","298","1115627","0.0-4.0-2.1-0.52","spark_pilot_norest","8636","5","14","Male","","false","","","","","[801]","./assets/img/ocean/catch/0.jpg","[""ArrowUp""]","value training","ocean","-10","{""ArrowUp,ArrowLeft"":23,""ArrowUp,ArrowRight"":10,""ArrowDown,ArrowLeft"":8,""ArrowDown,ArrowRight"":30}","false","ArrowUp","true","revaluation","2","4","","",""
"html-keyboard-response","299","1116137","0.0-4.0-2.1-1.52","spark_pilot_norest","8636","5","14","Male","","","","","","","null","<div style=""font-size:60px;"">+</div>","null","fixation","","","","","","","","","5","","",""
"revaluation","300","1122163","0.0-4.0-2.1-0.53","spark_pilot_norest","8636","5","14","Male","","false","","","","","[704.6999999880791,529.4000000059605]","./assets/img/ocean/memory/26.jpg","[""ArrowUp"",""ArrowLeft""]","value training","ocean","23","{""ArrowUp,ArrowLeft"":23,""ArrowUp,ArrowRight"":10,""ArrowDown,ArrowLeft"":8,""ArrowDown,ArrowRight"":30}","false","ArrowUp,ArrowLeft","false","revaluation","2","6","","",""
"html-keyboard-response","301","1122672","0.0-4.0-2.1-1.53","spark_pilot_norest","8636","5","14","Male","","","","","","","null","<div style=""font-size:60px;"">+</div>","null","fixation","","","","","","","","","7","","",""
"revaluation","302","1128695","0.0-4.0-2.1-0.54","spark_pilot_norest","8636","5","14","Male","","false","","","","","[706.5,769.5]","./assets/img/ocean/memory/8.jpg","[""ArrowDown"",""ArrowRight""]","value training","ocean","30","{""ArrowUp,ArrowLeft"":23,""ArrowUp,ArrowRight"":10,""ArrowDown,ArrowLeft"":8,""ArrowDown,ArrowRight"":30}","true","ArrowDown,ArrowRight","false","revaluation","2","8","","",""
"html-keyboard-response","303","1129200","0.0-4.0-2.1-1.54","spark_pilot_norest","8636","5","14","Male","","","","","","","null","<div style=""font-size:60px;"">+</div>","null","fixation","","","","","","","","","9","","",""
"revaluation","304","1135226","0.0-4.0-2.1-0.55","spark_pilot_norest","8636","5","14","Male","","false","","","","","[1242.699999988079,1571.300000011921]","./assets/img/ocean/memory/31.jpg","[""ArrowDown"",""ArrowRight""]","value training","ocean","30","{""ArrowUp,ArrowLeft"":23,""ArrowUp,ArrowRight"":10,""ArrowDown,ArrowLeft"":8,""ArrowDown,ArrowRight"":30}","true","ArrowDown,ArrowRight","false","revaluation","2","10","","",""
"html-keyboard-response","305","1135731","0.0-4.0-2.1-1.55","spark_pilot_norest","8636","5","14","Male","","","","","","","null","<div style=""font-size:60px;"">+</div>","null","fixation","","","","","","","","","11","","",""
"revaluation","306","1141757","0.0-4.0-2.1-0.56","spark_pilot_norest","8636","5","14","Male","","false","","","","","[824.3000000119209,1000.3999999761581]","./assets/img/ocean/memory/26.jpg","[""ArrowUp"",""ArrowLeft""]","value training","ocean","23","{""ArrowUp,ArrowLeft"":23,""ArrowUp,ArrowRight"":10,""ArrowDown,ArrowLeft"":8,""ArrowDown,ArrowRight"":30}","false","ArrowUp,ArrowLeft","false","revaluation","2","12","","",""
"html-keyboard-response","307","1142268","0.0-4.0-2.1-1.56","spark_pilot_norest","8636","5","14","Male","","","","","","","null","<div style=""font-size:60px;"">+</div>","null","fixation","","","","","","","","","13","","",""
"revaluation","308","1148288","0.0-4.0-2.1-0.57","spark_pilot_norest","8636","5","14","Male","","false","","","","","[735.5999999940395,792.1000000238419]","./assets/img/ocean/memory/31.jpg","[""ArrowDown"",""ArrowRight""]","value training","ocean","30","{""ArrowUp,ArrowLeft"":23,""ArrowUp,ArrowRight"":10,""ArrowDown,ArrowLeft"":8,""ArrowDown,ArrowRight"":30}","true","ArrowDown,ArrowRight","false","revaluation","2","14","","",""
"html-keyboard-response","309","1148793","0.0-4.0-2.1-1.57","spark_pilot_norest","8636","5","14","Male","","","","","","","null","<div style=""font-size:60px;"">+</div>","null","fixation","","","","","","","","","15","","",""
"revaluation","310","1154819","0.0-4.0-2.1-0.58","spark_pilot_norest","8636","5","14","Male","","false","","","","","[1002.5999999940395,947.5999999940395]","./assets/img/ocean/memory/13.jpg","[""ArrowDown"",""ArrowLeft""]","value training","ocean","8","{""ArrowUp,ArrowLeft"":23,""ArrowUp,ArrowRight"":10,""ArrowDown,ArrowLeft"":8,""ArrowDown,ArrowRight"":30}","false","ArrowDown,ArrowLeft","false","revaluation","2","16","","",""
"html-keyboard-response","311","1155324","0.0-4.0-2.1-1.58","spark_pilot_norest","8636","5","14","Male","","","","","","","null","<div style=""font-size:60px;"">+</div>","null","fixation","","","","","","","","","17","","",""
"revaluation","312","1161350","0.0-4.0-2.1-0.59","spark_pilot_norest","8636","5","14","Male","","false","","","","","[872.3000000119209,928.2000000178814]","./assets/img/ocean/memory/3.jpg","[""ArrowDown"",""ArrowRight""]","value training","ocean","30","{""ArrowUp,ArrowLeft"":23,""ArrowUp,ArrowRight"":10,""ArrowDown,ArrowLeft"":8,""ArrowDown,ArrowRight"":30}","true","ArrowDown,ArrowRight","false","revaluation","2","18","","",""
