"trial_type","trial_index","time_elapsed","internal_node_id","task_version","subject_id","assigned_condition","age","gender","browser_interaction","success","timeout","failed_images","failed_audio","failed_video","rt","stimulus","response","task_part","environment","score","rewardMap","correct","fullState","isCatch","condition","order","trial_num","key_press","ground_truth","bonus"
"pavlovia","0","3430","0.0-0.0","spark_pilot_norest","8391","4","12","Male","[{""event"":""blur"",""trial"":1,""time"":26046},{""event"":""focus"",""trial"":2,""time"":31945},{""event"":""fullscreenenter"",""trial"":2,""time"":34915},{""event"":""blur"",""trial"":11,""time"":128127},{""event"":""focus"",""trial"":11,""time"":128411},{""event"":""blur"",""trial"":113,""time"":580566},{""event"":""focus"",""trial"":114,""time"":588863}]","","","","","","","","","","","","","","","","","","","","",""
"preload","1","27210","0.0-1.0","spark_pilot_norest","8391","4","12","Male","[{""event"":""blur"",""trial"":1,""time"":26046},{""event"":""focus"",""trial"":2,""time"":31945},{""event"":""fullscreenenter"",""trial"":2,""time"":34915},{""event"":""blur"",""trial"":11,""time"":128127},{""event"":""focus"",""trial"":11,""time"":128411},{""event"":""blur"",""trial"":113,""time"":580566},{""event"":""focus"",""trial"":114,""time"":588863}]","true","false","[]","[]","[]","","","","","","","","","","","","","","","",""
"fullscreen","2","35522","0.0-2.0","spark_pilot_norest","8391","4","12","Male","","true","","","","","","","","","","","","","","","","","","","",""
"audio-button-response","3","38480","0.0-3.0-0.0-0.0","spark_pilot_norest","8391","4","12","Male","","","","","","","2142","./assets/audio/audiotest/turtle.mp3","2","audio_test","","","","","","","","","","","",""
"learning-instructions","4","47898","0.0-3.0-1.0-0.0","spark_pilot_norest","8391","4","12","Male","","","","","","","2338","<p> Welcome! Please remember to stay in fullscreen mode and don't click away from the experiment. </p>","","instructions","","","","","","","","","","","",""
"learning-instructions","5","59050","0.0-3.0-1.0-0.1","spark_pilot_norest","8391","4","12","Male","","","","","","","2126","<p> Today you will be playing a game to earn treasure. </p>
            <p> At the end of the experiment, you will earn a bonus based on how much treasure you find. </p>
            <img src='./assets/img/instructions/treasure.jpg' class='instructions-image'>","","instructions","","","","","","","","","","","",""
"learning-instructions","6","71022","0.0-3.0-1.0-0.2","spark_pilot_norest","8391","4","12","Male","","","","","","","3211","<p> Animals have hidden treasure in treasure chests. </p>
            <p> You need to first find an animal and then choose which of their treasure chests to search. </p>
            <img src='./assets/img/space/animals/cat.jpg' class='instructions-image'>","","instructions","","","","","","","","","","","",""
"learning-instructions","7","87885","0.0-3.0-1.0-0.3","spark_pilot_norest","8391","4","12","Male","","","","","","","3269","<p> In each round, you will search for treasure in a different place. In the real game, there will be two rounds. </p>
            <p> You will begin with a separate, practice round where you will search for treasure in outer space. </p>
            <img src='./assets/img/space/0.jpg' class='instructions-image'>","","instructions","","","","","","","","","","","",""
"learning-instructions","8","101606","0.0-3.0-1.0-0.4","spark_pilot_norest","8391","4","12","Male","","","","","","","2016","<p> On every turn, you will see a picture of the place that you are in, but the specific image may be different each time. </p>
            <p> For example, both of these images mean you are in outer space. </p>
            <img src='./assets/img/instructions/outerspace.jpg' class='instructions-image'>","","instructions","","","","","","","","","","","",""
"learning-instructions","9","111042","0.0-3.0-1.0-0.5","spark_pilot_norest","8391","4","12","Male","","","","","","","1450","<p> You need to decide which direction to travel in. </p>
            <p> You can choose between going <b>up or down</b> by using the arrow keys. </p>
            <img src='./assets/img/instructions/updown.jpg' class='instructions-image'>","","instructions","","","","","","","","","","","",""
"learning-instructions","10","121822","0.0-3.0-1.0-0.6","spark_pilot_norest","8391","4","12","Male","[{""event"":""blur"",""trial"":1,""time"":26046},{""event"":""focus"",""trial"":2,""time"":31945},{""event"":""fullscreenenter"",""trial"":2,""time"":34915},{""event"":""blur"",""trial"":11,""time"":128127},{""event"":""focus"",""trial"":11,""time"":128411},{""event"":""blur"",""trial"":113,""time"":580566},{""event"":""focus"",""trial"":114,""time"":588863}]","","","","","","1821","<p> You will have <b>2 seconds</b> to make your choice. </p>
            <p> If you do not make a choice within 2 seconds, you will not find an animal or earn treasure. </p>
            <img src='./assets/img/instructions/2seconds.jpg' class='instructions-image'>","","instructions","","","","","","","","","","","",""
"learning-instructions","11","133316","0.0-3.0-1.0-0.7","spark_pilot_norest","8391","4","12","Male","","","","","","","4267","<p> Let’s try practicing that now! </p>
            <p> When you see a picture of the place you are in, press the <b>up</b> key to travel up. </p>
            <img src='./assets/img/instructions/pressUp.jpg' class='instructions-image'>","","instructions","","","","","","","","","","","",""
"revaluation","12","137371","0.0-3.0-2.0-0.0","spark_pilot_norest","8391","4","12","Male","","","false","","","","[875]","./assets/img/space/0.jpg","[""ArrowUp""]","first stage practice","space","0","null","null","ArrowUp","false","","","","","",""
"html-keyboard-response","13","137878","0.0-3.0-2.0-1.0","spark_pilot_norest","8391","4","12","Male","","","","","","","null","<div style=""font-size:60px;"">+</div>","null","fixation","","","","","","","","","","","",""
"revaluation","14","141901","0.0-3.0-2.0-0.1","spark_pilot_norest","8391","4","12","Male","","","false","","","","[1407]","./assets/img/space/1.jpg","[""ArrowUp""]","first stage practice","space","0","null","null","ArrowUp","false","","","","","",""
"html-keyboard-response","15","142409","0.0-3.0-2.0-1.1","spark_pilot_norest","8391","4","12","Male","","","","","","","null","<div style=""font-size:60px;"">+</div>","null","fixation","","","","","","","","","","","",""
"revaluation","16","146442","0.0-3.0-2.0-0.2","spark_pilot_norest","8391","4","12","Male","","","false","","","","[538]","./assets/img/space/2.jpg","[""ArrowUp""]","first stage practice","space","0","null","null","ArrowUp","false","","","","","",""
"html-keyboard-response","17","146944","0.0-3.0-2.0-1.2","spark_pilot_norest","8391","4","12","Male","","","","","","","null","<div style=""font-size:60px;"">+</div>","null","fixation","","","","","","","","","","","",""
"learning-instructions","18","153781","0.0-3.0-3.0-0.0","spark_pilot_norest","8391","4","12","Male","","","","","","","2052","<p> Great job! Now try pressing the <b>down</b> key to travel down. </p>
            <img src='./assets/img/instructions/pressDown.jpg' class='instructions-image'>","","instructions","","","","","","","","","","","",""
"revaluation","19","157826","0.0-3.0-4.0-0.0","spark_pilot_norest","8391","4","12","Male","","","false","","","","[858]","./assets/img/space/3.jpg","[""ArrowDown""]","first stage practice","space","0","null","null","ArrowDown","false","","","","","",""
"html-keyboard-response","20","158328","0.0-3.0-4.0-1.0","spark_pilot_norest","8391","4","12","Male","","","","","","","null","<div style=""font-size:60px;"">+</div>","null","fixation","","","","","","","","","","","",""
"revaluation","21","162370","0.0-3.0-4.0-0.1","spark_pilot_norest","8391","4","12","Male","","","false","","","","[446]","./assets/img/space/4.jpg","[""ArrowDown""]","first stage practice","space","0","null","null","ArrowDown","false","","","","","",""
"html-keyboard-response","22","162877","0.0-3.0-4.0-1.1","spark_pilot_norest","8391","4","12","Male","","","","","","","null","<div style=""font-size:60px;"">+</div>","null","fixation","","","","","","","","","","","",""
"revaluation","23","166919","0.0-3.0-4.0-0.2","spark_pilot_norest","8391","4","12","Male","","","false","","","","[338]","./assets/img/space/5.jpg","[""ArrowDown""]","first stage practice","space","0","null","null","ArrowDown","false","","","","","",""
"html-keyboard-response","24","167439","0.0-3.0-4.0-1.2","spark_pilot_norest","8391","4","12","Male","","","","","","","null","<div style=""font-size:60px;"">+</div>","null","fixation","","","","","","","","","","","",""
"learning-instructions","25","179931","0.0-3.0-5.0-0.0","spark_pilot_norest","8391","4","12","Male","","","","","","","2469","<p> The animals don’t move, so the animal in the upper part of a place will stay in the upper part of a place, and the animal in the lower part of a place will stay in the lower part of a place. </p>","","instructions","","","","","","","","","","","",""
"learning-instructions","26","190741","0.0-3.0-5.0-0.1","spark_pilot_norest","8391","4","12","Male","","","","","","","1521","<p> Each animal has two treasure chests for you to choose from. </p>
            <p> The amount of treasure in each chest can range from <b> 0 to 40 pieces.</b></p>","","instructions","","","","","","","","","","","",""
"learning-instructions","27","203692","0.0-3.0-5.0-0.2","spark_pilot_norest","8391","4","12","Male","","","","","","","1572","<p> You should decide which chest to search for treasure by using the <b>left</b> and <b>right</b> arrow keys. </p>
            <p><b> Pay attention to which animal is on the screen, as the animals have different treasure chests. </b></p>
            <img src='./assets/img/instructions/leftright.jpg' class='instructions-image'>","","instructions","","","","","","","","","","","",""
"learning-instructions","28","215022","0.0-3.0-5.0-0.3","spark_pilot_norest","8391","4","12","Male","","","","","","","4821","<p> Let’s try practicing that now. </p>
            <p> When you see an animal, choose which chest to search for treasure. </p>
            <img src='./assets/img/instructions/chooseChest.jpg' class='instructions-image'>","","instructions","","","","","","","","","","","",""
"revaluation","29","219050","0.0-3.0-6.0-0.0","spark_pilot_norest","8391","4","12","Male","","","false","","","","[884]","./assets/img/space/animals/rabbit.jpg","[""ArrowRight""]","second stage practice","space","23","{""ArrowUp,ArrowLeft"":3,""ArrowUp,ArrowRight"":36,""ArrowDown,ArrowLeft"":15,""ArrowDown,ArrowRight"":23}","true","ArrowDown,ArrowRight","","","","","","",""
"html-keyboard-response","30","219570","0.0-3.0-6.0-1.0","spark_pilot_norest","8391","4","12","Male","","","","","","","null","<div style=""font-size:60px;"">+</div>","null","fixation","","","","","","","","","","","",""
"revaluation","31","223610","0.0-3.0-6.0-0.1","spark_pilot_norest","8391","4","12","Male","","","false","","","","[477]","./assets/img/space/animals/cat.jpg","[""ArrowLeft""]","second stage practice","space","3","{""ArrowUp,ArrowLeft"":3,""ArrowUp,ArrowRight"":36,""ArrowDown,ArrowLeft"":15,""ArrowDown,ArrowRight"":23}","false","ArrowUp,ArrowLeft","","","","","","",""
"html-keyboard-response","32","224129","0.0-3.0-6.0-1.1","spark_pilot_norest","8391","4","12","Male","","","","","","","null","<div style=""font-size:60px;"">+</div>","null","fixation","","","","","","","","","","","",""
"revaluation","33","228160","0.0-3.0-6.0-0.2","spark_pilot_norest","8391","4","12","Male","","","false","","","","[310]","./assets/img/space/animals/cat.jpg","[""ArrowRight""]","second stage practice","space","36","{""ArrowUp,ArrowLeft"":3,""ArrowUp,ArrowRight"":36,""ArrowDown,ArrowLeft"":15,""ArrowDown,ArrowRight"":23}","true","ArrowUp,ArrowRight","","","","","","",""
"html-keyboard-response","34","228679","0.0-3.0-6.0-1.2","spark_pilot_norest","8391","4","12","Male","","","","","","","null","<div style=""font-size:60px;"">+</div>","null","fixation","","","","","","","","","","","",""
"revaluation","35","232719","0.0-3.0-6.0-0.3","spark_pilot_norest","8391","4","12","Male","","","false","","","","[294]","./assets/img/space/animals/rabbit.jpg","[""ArrowRight""]","second stage practice","space","23","{""ArrowUp,ArrowLeft"":3,""ArrowUp,ArrowRight"":36,""ArrowDown,ArrowLeft"":15,""ArrowDown,ArrowRight"":23}","true","ArrowDown,ArrowRight","","","","","","",""
"html-keyboard-response","36","233239","0.0-3.0-6.0-1.3","spark_pilot_norest","8391","4","12","Male","","","","","","","null","<div style=""font-size:60px;"">+</div>","null","fixation","","","","","","","","","","","",""
"learning-instructions","37","253208","0.0-3.0-7.0-0.0","spark_pilot_norest","8391","4","12","Male","","","","","","","2879","<p> Great job. Now let’s try putting it together. </p>
            <p> On each turn, you will first see a picture to remind you of the place you are in, and you need to choose whether to go up or down. </p>
            <p> Then you will see an animal and choose which of its chests to search for treasure. </p>","","instructions","","","","","","","","","","","",""
"learning-instructions","38","263682","0.0-3.0-7.0-0.1","spark_pilot_norest","8391","4","12","Male","","","","","","","2032","<p> When you choose whether to go up or down, try to go to the animal with the chest with the most treasure. </p>
            <p> Try practicing that now! </p>","","instructions","","","","","","","","","","","",""
"revaluation","39","269721","0.0-3.0-8.0-0.0","spark_pilot_norest","8391","4","12","Male","","","false","","","","[1029,644]","./assets/img/space/6.jpg","[""ArrowDown"",""ArrowRight""]","full practice","space","23","{""ArrowUp,ArrowLeft"":3,""ArrowUp,ArrowRight"":36,""ArrowDown,ArrowLeft"":15,""ArrowDown,ArrowRight"":23}","false","ArrowDown,ArrowRight","false","","","","","",""
"html-keyboard-response","40","270240","0.0-3.0-8.0-1.0","spark_pilot_norest","8391","4","12","Male","","","","","","","null","<div style=""font-size:60px;"">+</div>","null","fixation","","","","","","","","","","","",""
"revaluation","41","276279","0.0-3.0-8.0-0.1","spark_pilot_norest","8391","4","12","Male","","","false","","","","[542,591]","./assets/img/space/7.jpg","[""ArrowUp"",""ArrowLeft""]","full practice","space","3","{""ArrowUp,ArrowLeft"":3,""ArrowUp,ArrowRight"":36,""ArrowDown,ArrowLeft"":15,""ArrowDown,ArrowRight"":23}","false","ArrowUp,ArrowLeft","false","","","","","",""
"html-keyboard-response","42","276789","0.0-3.0-8.0-1.1","spark_pilot_norest","8391","4","12","Male","","","","","","","null","<div style=""font-size:60px;"">+</div>","null","fixation","","","","","","","","","","","",""
"revaluation","43","282820","0.0-3.0-8.0-0.2","spark_pilot_norest","8391","4","12","Male","","","false","","","","[405,357]","./assets/img/space/8.jpg","[""ArrowUp"",""ArrowRight""]","full practice","space","36","{""ArrowUp,ArrowLeft"":3,""ArrowUp,ArrowRight"":36,""ArrowDown,ArrowLeft"":15,""ArrowDown,ArrowRight"":23}","true","ArrowUp,ArrowRight","false","","","","","",""
"html-keyboard-response","44","283339","0.0-3.0-8.0-1.2","spark_pilot_norest","8391","4","12","Male","","","","","","","null","<div style=""font-size:60px;"">+</div>","null","fixation","","","","","","","","","","","",""
"revaluation","45","289380","0.0-3.0-8.0-0.3","spark_pilot_norest","8391","4","12","Male","","","false","","","","[370,447]","./assets/img/space/9.jpg","[""ArrowUp"",""ArrowRight""]","full practice","space","36","{""ArrowUp,ArrowLeft"":3,""ArrowUp,ArrowRight"":36,""ArrowDown,ArrowLeft"":15,""ArrowDown,ArrowRight"":23}","true","ArrowUp,ArrowRight","false","","","","","",""
"html-keyboard-response","46","289899","0.0-3.0-8.0-1.3","spark_pilot_norest","8391","4","12","Male","","","","","","","null","<div style=""font-size:60px;"">+</div>","null","fixation","","","","","","","","","","","",""
"revaluation","47","295950","0.0-3.0-8.0-0.4","spark_pilot_norest","8391","4","12","Male","","","false","","","","[308,478]","./assets/img/space/10.jpg","[""ArrowUp"",""ArrowRight""]","full practice","space","36","{""ArrowUp,ArrowLeft"":3,""ArrowUp,ArrowRight"":36,""ArrowDown,ArrowLeft"":15,""ArrowDown,ArrowRight"":23}","true","ArrowUp,ArrowRight","false","","","","","",""
"html-keyboard-response","48","296459","0.0-3.0-8.0-1.4","spark_pilot_norest","8391","4","12","Male","","","","","","","null","<div style=""font-size:60px;"">+</div>","null","fixation","","","","","","","","","","","",""
"learning-instructions","49","308582","0.0-3.0-9.0-0.0","spark_pilot_norest","8391","4","12","Male","","","","","","","1611","<p> One last thing: sometimes, you will see a robber. The robber can be anywhere in the picture. </p>
            <p> If you do not stop them, you will lose treasure. </p>
            <img src='./assets/img/instructions/robber.jpg' class='instructions-image'>","","instructions","","","","","","","","","","","",""
"learning-instructions","50","317342","0.0-3.0-9.0-0.1","spark_pilot_norest","8391","4","12","Male","","","","","","","1461","<p> If you see the robber, you should <b>press the space bar</b> rather than using the arrow keys. </p>
            <p> Try practicing that now! </p>","","instructions","","","","","","","","","","","",""
"revaluation","51","321350","0.0-3.0-10.0-0.0","spark_pilot_norest","8391","4","12","Male","","","true","","","","[]","./assets/img/space/catch/0.jpg","[]","catch practice","space","-5","{""ArrowUp,ArrowLeft"":3,""ArrowUp,ArrowRight"":36,""ArrowDown,ArrowLeft"":15,""ArrowDown,ArrowRight"":23}","false","","true","","","","","",""
"html-keyboard-response","52","321869","0.0-3.0-10.0-1.0","spark_pilot_norest","8391","4","12","Male","","","","","","","null","<div style=""font-size:60px;"">+</div>","null","fixation","","","","","","","","","","","",""
"revaluation","53","325911","0.0-3.0-10.0-0.1","spark_pilot_norest","8391","4","12","Male","","","false","","","","[985]","./assets/img/space/catch/1.jpg","[""spaceBar""]","catch practice","space","0","{""ArrowUp,ArrowLeft"":3,""ArrowUp,ArrowRight"":36,""ArrowDown,ArrowLeft"":15,""ArrowDown,ArrowRight"":23}","true","spaceBar","true","","","","","",""
"html-keyboard-response","54","326419","0.0-3.0-10.0-1.1","spark_pilot_norest","8391","4","12","Male","","","","","","","null","<div style=""font-size:60px;"">+</div>","null","fixation","","","","","","","","","","","",""
"revaluation","55","330451","0.0-3.0-10.0-0.2","spark_pilot_norest","8391","4","12","Male","","","false","","","","[610]","./assets/img/space/catch/2.jpg","[""spaceBar""]","catch practice","space","0","{""ArrowUp,ArrowLeft"":3,""ArrowUp,ArrowRight"":36,""ArrowDown,ArrowLeft"":15,""ArrowDown,ArrowRight"":23}","true","spaceBar","true","","","","","",""
"html-keyboard-response","56","330970","0.0-3.0-10.0-1.2","spark_pilot_norest","8391","4","12","Male","","","","","","","null","<div style=""font-size:60px;"">+</div>","null","fixation","","","","","","","","","","","",""
"learning-instructions","57","339692","0.0-3.0-11.0-0.0-0.0","spark_pilot_norest","8391","4","12","Male","","","","","","","3401","<p> Now, you will practice a shortened version of the game to get a sense of how it all fits together. </p>","","instructions","","","","","","","","","","","",""
"learning-instructions","58","345041","0.0-3.0-11.0-0.0-0.1","spark_pilot_norest","8391","4","12","Male","","","","","","","2081","<p>This time you are searching for treasure in outer space.</p>","","instructions","","","","","","","","","","","",""
"learning-instructions","59","361592","0.0-3.0-11.0-1.0-0.0","spark_pilot_norest","8391","4","12","Male","","","","","","","1543","<p> Remember, when you see a picture of the place, use the up and down keys to <b>find an animal</b>.</p>
            <p> When you encounter an animal, you should use the left and right keys to <b>select a treasure chest</b>.</p>
            <p> Don't forget to look out for the robber! </p>","","instructions","","","","","","","","","","","",""
"revaluation","60","367630","0.0-3.0-11.0-2.0-0.0","spark_pilot_norest","8391","4","12","Male","","","false","","","","[1481,682]","./assets/img/space/11.jpg","[""ArrowUp"",""ArrowRight""]","practice block","space","36","{""ArrowUp,ArrowLeft"":3,""ArrowUp,ArrowRight"":36,""ArrowDown,ArrowLeft"":15,""ArrowDown,ArrowRight"":23}","true","ArrowUp,ArrowRight","false","","","","","",""
"html-keyboard-response","61","368149","0.0-3.0-11.0-2.0-1.0","spark_pilot_norest","8391","4","12","Male","","","","","","","null","<div style=""font-size:60px;"">+</div>","null","fixation","","","","","","","","","","","",""
"revaluation","62","374181","0.0-3.0-11.0-2.0-0.1","spark_pilot_norest","8391","4","12","Male","","","false","","","","[799,393]","./assets/img/space/12.jpg","[""ArrowUp"",""ArrowRight""]","practice block","space","36","{""ArrowUp,ArrowLeft"":3,""ArrowUp,ArrowRight"":36,""ArrowDown,ArrowLeft"":15,""ArrowDown,ArrowRight"":23}","true","ArrowUp,ArrowRight","false","","","","","",""
"html-keyboard-response","63","374689","0.0-3.0-11.0-2.0-1.1","spark_pilot_norest","8391","4","12","Male","","","","","","","null","<div style=""font-size:60px;"">+</div>","null","fixation","","","","","","","","","","","",""
"revaluation","64","380725","0.0-3.0-11.0-2.0-0.2","spark_pilot_norest","8391","4","12","Male","","","false","","","","[709,564]","./assets/img/space/13.jpg","[""ArrowUp"",""ArrowRight""]","practice block","space","36","{""ArrowUp,ArrowLeft"":3,""ArrowUp,ArrowRight"":36,""ArrowDown,ArrowLeft"":15,""ArrowDown,ArrowRight"":23}","true","ArrowUp,ArrowRight","false","","","","","",""
"html-keyboard-response","65","381239","0.0-3.0-11.0-2.0-1.2","spark_pilot_norest","8391","4","12","Male","","","","","","","null","<div style=""font-size:60px;"">+</div>","null","fixation","","","","","","","","","","","",""
"revaluation","66","387270","0.0-3.0-11.0-2.0-0.3","spark_pilot_norest","8391","4","12","Male","","","false","","","","[751,349]","./assets/img/space/14.jpg","[""ArrowUp"",""ArrowRight""]","practice block","space","36","{""ArrowUp,ArrowLeft"":3,""ArrowUp,ArrowRight"":36,""ArrowDown,ArrowLeft"":15,""ArrowDown,ArrowRight"":23}","true","ArrowUp,ArrowRight","false","","","","","",""
"html-keyboard-response","67","387788","0.0-3.0-11.0-2.0-1.3","spark_pilot_norest","8391","4","12","Male","","","","","","","null","<div style=""font-size:60px;"">+</div>","null","fixation","","","","","","","","","","","",""
"revaluation","68","393840","0.0-3.0-11.0-2.0-0.4","spark_pilot_norest","8391","4","12","Male","","","false","","","","[702,683]","./assets/img/space/11.jpg","[""ArrowUp"",""ArrowRight""]","practice block","space","36","{""ArrowUp,ArrowLeft"":3,""ArrowUp,ArrowRight"":36,""ArrowDown,ArrowLeft"":15,""ArrowDown,ArrowRight"":23}","true","ArrowUp,ArrowRight","false","","","","","",""
"html-keyboard-response","69","394359","0.0-3.0-11.0-2.0-1.4","spark_pilot_norest","8391","4","12","Male","","","","","","","null","<div style=""font-size:60px;"">+</div>","null","fixation","","","","","","","","","","","",""
"revaluation","70","400400","0.0-3.0-11.0-2.0-0.5","spark_pilot_norest","8391","4","12","Male","","","false","","","","[526,676]","./assets/img/space/12.jpg","[""ArrowUp"",""ArrowRight""]","practice block","space","36","{""ArrowUp,ArrowLeft"":3,""ArrowUp,ArrowRight"":36,""ArrowDown,ArrowLeft"":15,""ArrowDown,ArrowRight"":23}","true","ArrowUp,ArrowRight","false","","","","","",""
"html-keyboard-response","71","400920","0.0-3.0-11.0-2.0-1.5","spark_pilot_norest","8391","4","12","Male","","","","","","","null","<div style=""font-size:60px;"">+</div>","null","fixation","","","","","","","","","","","",""
"revaluation","72","406940","0.0-3.0-11.0-2.0-0.6","spark_pilot_norest","8391","4","12","Male","","","false","","","","[467,413]","./assets/img/space/13.jpg","[""ArrowUp"",""ArrowRight""]","practice block","space","36","{""ArrowUp,ArrowLeft"":3,""ArrowUp,ArrowRight"":36,""ArrowDown,ArrowLeft"":15,""ArrowDown,ArrowRight"":23}","true","ArrowUp,ArrowRight","false","","","","","",""
"html-keyboard-response","73","407458","0.0-3.0-11.0-2.0-1.6","spark_pilot_norest","8391","4","12","Male","","","","","","","null","<div style=""font-size:60px;"">+</div>","null","fixation","","","","","","","","","","","",""
"revaluation","74","413491","0.0-3.0-11.0-2.0-0.7","spark_pilot_norest","8391","4","12","Male","","","false","","","","[422,703]","./assets/img/space/14.jpg","[""ArrowUp"",""ArrowRight""]","practice block","space","36","{""ArrowUp,ArrowLeft"":3,""ArrowUp,ArrowRight"":36,""ArrowDown,ArrowLeft"":15,""ArrowDown,ArrowRight"":23}","true","ArrowUp,ArrowRight","false","","","","","",""
"html-keyboard-response","75","414009","0.0-3.0-11.0-2.0-1.7","spark_pilot_norest","8391","4","12","Male","","","","","","","null","<div style=""font-size:60px;"">+</div>","null","fixation","","","","","","","","","","","",""
"revaluation","76","418039","0.0-3.0-11.0-2.0-0.8","spark_pilot_norest","8391","4","12","Male","","","false","","","","[684]","./assets/img/space/catch/3.jpg","[""spaceBar""]","practice block","space","0","{""ArrowUp,ArrowLeft"":3,""ArrowUp,ArrowRight"":36,""ArrowDown,ArrowLeft"":15,""ArrowDown,ArrowRight"":23}","true","spaceBar","true","","","","","",""
"html-keyboard-response","77","418549","0.0-3.0-11.0-2.0-1.8","spark_pilot_norest","8391","4","12","Male","","","","","","","null","<div style=""font-size:60px;"">+</div>","null","fixation","","","","","","","","","","","",""
"learning-instructions","78","434632","0.0-3.0-11.0-3.0-0.0","spark_pilot_norest","8391","4","12","Male","","","","","","","2942","<p> Now, you will travel with a friend who will choose whether you go up or down first. </p>
            <p> On these turns, you will just see the animal that they found. You will still get to choose which chest to search for treasure.</p>","","instructions","","","","","","","","","","","",""
"revaluation","79","438659","0.0-3.0-11.0-4.0-0.0","spark_pilot_norest","8391","4","12","Male","","","false","","","","[1336]","./assets/img/space/animals/cat.jpg","[""ArrowRight""]","practice block","space","36","{""ArrowUp,ArrowLeft"":3,""ArrowUp,ArrowRight"":36,""ArrowDown,ArrowLeft"":15,""ArrowDown,ArrowRight"":23}","true","ArrowUp,ArrowRight","","","","","","",""
"html-keyboard-response","80","439312","0.0-3.0-11.0-4.0-1.0","spark_pilot_norest","8391","4","12","Male","","","","","","","null","<div style=""font-size:60px;"">+</div>","null","fixation","","","","","","","","","","","",""
"revaluation","81","443379","0.0-3.0-11.0-4.0-0.1","spark_pilot_norest","8391","4","12","Male","","","false","","","","[1012]","./assets/img/space/animals/rabbit.jpg","[""ArrowRight""]","practice block","space","23","{""ArrowUp,ArrowLeft"":3,""ArrowUp,ArrowRight"":36,""ArrowDown,ArrowLeft"":15,""ArrowDown,ArrowRight"":23}","true","ArrowDown,ArrowRight","","","","","","",""
"html-keyboard-response","82","443893","0.0-3.0-11.0-4.0-1.1","spark_pilot_norest","8391","4","12","Male","","","","","","","null","<div style=""font-size:60px;"">+</div>","null","fixation","","","","","","","","","","","",""
"revaluation","83","447929","0.0-3.0-11.0-4.0-0.2","spark_pilot_norest","8391","4","12","Male","","","false","","","","[376]","./assets/img/space/animals/rabbit.jpg","[""ArrowRight""]","practice block","space","23","{""ArrowUp,ArrowLeft"":3,""ArrowUp,ArrowRight"":36,""ArrowDown,ArrowLeft"":15,""ArrowDown,ArrowRight"":23}","true","ArrowDown,ArrowRight","","","","","","",""
"html-keyboard-response","84","448450","0.0-3.0-11.0-4.0-1.2","spark_pilot_norest","8391","4","12","Male","","","","","","","null","<div style=""font-size:60px;"">+</div>","null","fixation","","","","","","","","","","","",""
"revaluation","85","452470","0.0-3.0-11.0-4.0-0.3","spark_pilot_norest","8391","4","12","Male","","","false","","","","[394]","./assets/img/space/animals/cat.jpg","[""ArrowRight""]","practice block","space","36","{""ArrowUp,ArrowLeft"":3,""ArrowUp,ArrowRight"":36,""ArrowDown,ArrowLeft"":15,""ArrowDown,ArrowRight"":23}","true","ArrowUp,ArrowRight","","","","","","",""
"html-keyboard-response","86","452989","0.0-3.0-11.0-4.0-1.3","spark_pilot_norest","8391","4","12","Male","","","","","","","null","<div style=""font-size:60px;"">+</div>","null","fixation","","","","","","","","","","","",""
"learning-instructions","87","461259","0.0-3.0-11.0-5.0-0.0","spark_pilot_norest","8391","4","12","Male","","","","","","","null","<p> You have almost finished this part of the game! </p>
            <p> We are going to ask you to make a few more choices. </p>","","instructions","","","","","","","","","","","",""
"learning-instructions","88","477518","0.0-3.0-11.0-5.0-0.1","spark_pilot_norest","8391","4","12","Male","","","","","","","null","<p> First, you need to decide whether to go up or down. When you see each picture, use the arrow keys to make your choice. </p>
            <p><b>You will not see which animal you found, but try to get to the one that will give you the most treasure.</b></p>","","instructions","","","","","","","","","","","",""
"html-keyboard-response","89","478528","0.0-3.0-11.0-6.0-0.0","spark_pilot_norest","8391","4","12","Male","","","","","","","null","<div style=""font-size:100px;color:red;"">Starting in...</div>","null","","","","","","","","","","","","",""
"html-keyboard-response","90","479540","0.0-3.0-11.0-6.0-1.0","spark_pilot_norest","8391","4","12","Male","","","","","","","null","<div style=""font-size:200px;color:red;"">3</div>","null","","","","","","","","","","","","",""
"html-keyboard-response","91","480559","0.0-3.0-11.0-6.0-2.0","spark_pilot_norest","8391","4","12","Male","","","","","","","null","<div style=""font-size:200px;color:red;"">2</div>","null","","","","","","","","","","","","",""
"html-keyboard-response","92","481569","0.0-3.0-11.0-6.0-3.0","spark_pilot_norest","8391","4","12","Male","","","","","","","null","<div style=""font-size:200px;color:red;"">1</div>","null","","","","","","","","","","","","",""
"revaluation","93","482266","0.0-3.0-11.0-7.0","spark_pilot_norest","8391","4","12","Male","","","false","","","","[693]","./assets/img/space/15.jpg","[""ArrowUp""]","practice block","space","0","{""ArrowUp,ArrowLeft"":3,""ArrowUp,ArrowRight"":36,""ArrowDown,ArrowLeft"":15,""ArrowDown,ArrowRight"":23}","true","ArrowUp","false","","","","","",""
"html-keyboard-response","94","482769","0.0-3.0-11.0-8.0","spark_pilot_norest","8391","4","12","Male","","","","","","","null","<div style=""font-size:60px;"">+</div>","null","fixation","","","","","","","","","","","",""
"learning-instructions","95","496379","0.0-3.0-11.0-9.0-0.0","spark_pilot_norest","8391","4","12","Male","","","","","","","null","<p> Now you will see the animals again and can search their chests for treasure. </p>
            <p> This time, you will not see how much treasure you earned, but you will earn more bonus money for making better choices. </p>","","instructions","","","","","","","","","","","",""
"html-keyboard-response","96","497389","0.0-3.0-11.0-10.0-0.0","spark_pilot_norest","8391","4","12","Male","","","","","","","null","<div style=""font-size:100px;color:red;"">Starting in...</div>","null","","","","","","","","","","","","",""
"html-keyboard-response","97","498409","0.0-3.0-11.0-10.0-1.0","spark_pilot_norest","8391","4","12","Male","","","","","","","null","<div style=""font-size:200px;color:red;"">3</div>","null","","","","","","","","","","","","",""
"html-keyboard-response","98","499429","0.0-3.0-11.0-10.0-2.0","spark_pilot_norest","8391","4","12","Male","","","","","","","null","<div style=""font-size:200px;color:red;"">2</div>","null","","","","","","","","","","","","",""
"html-keyboard-response","99","500450","0.0-3.0-11.0-10.0-3.0","spark_pilot_norest","8391","4","12","Male","","","","","","","null","<div style=""font-size:200px;color:red;"">1</div>","null","","","","","","","","","","","","",""
"revaluation","100","500876","0.0-3.0-11.0-11.0-0.0","spark_pilot_norest","8391","4","12","Male","","","false","","","","[422]","./assets/img/space/animals/cat.jpg","[""ArrowRight""]","practice block","space","0","{""ArrowUp,ArrowLeft"":3,""ArrowUp,ArrowRight"":36,""ArrowDown,ArrowLeft"":15,""ArrowDown,ArrowRight"":23}","true","ArrowUp,ArrowRight","","","","","","",""
"html-keyboard-response","101","501389","0.0-3.0-11.0-11.0-1.0","spark_pilot_norest","8391","4","12","Male","","","","","","","null","<div style=""font-size:60px;"">+</div>","null","fixation","","","","","","","","","","","",""
"revaluation","102","501881","0.0-3.0-11.0-11.0-0.1","spark_pilot_norest","8391","4","12","Male","","","false","","","","[490]","./assets/img/space/animals/rabbit.jpg","[""ArrowRight""]","practice block","space","0","{""ArrowUp,ArrowLeft"":3,""ArrowUp,ArrowRight"":36,""ArrowDown,ArrowLeft"":15,""ArrowDown,ArrowRight"":23}","true","ArrowDown,ArrowRight","","","","","","",""
"html-keyboard-response","103","502399","0.0-3.0-11.0-11.0-1.1","spark_pilot_norest","8391","4","12","Male","","","","","","","null","<div style=""font-size:60px;"">+</div>","null","fixation","","","","","","","","","","","",""
"learning-instructions","104","509270","0.0-3.0-12.0-0.0","spark_pilot_norest","8391","4","12","Male","","","","","","","2181","<p> Before you start, we're going to ask you a few questions about how the game works. </p>","","instructions","","","","","","","","","","","",""
"comp-q","105","516722","0.0-3.0-13.0-0.0-0.0","spark_pilot_norest","8391","4","12","Male","","","","","","","1761","<p> <b> True or False? </b> </p>
            <p> There can be 50 pieces of treasure in a given animal's chest. </p>","1","comp_question","","","","true","","","","","","","",""
"comp-q","106","526312","0.0-3.0-13.0-0.0-1.0","spark_pilot_norest","8391","4","12","Male","","","","","","","2801","<p> <b> That's right! </b> The amount of treasure in each chest can range from 0 to 40 pieces. </p>","0","comp_answer","","","","","","","","","","","",""
"comp-q","107","535102","0.0-3.0-13.0-0.1-0.1","spark_pilot_norest","8391","4","12","Male","","","","","","","1531","<p> <b> True or False? </b> </p><p> In this game, all animals have the same amount of treasure in their left and right chests. </p>","1","comp_question","","","","true","","","","","","","",""
"comp-q","108","542201","0.0-3.0-13.0-0.1-1.1","spark_pilot_norest","8391","4","12","Male","","","","","","","1751","<p> <b> That's right! </b> Animals have different amounts of treasure in their treasure chests. </p>","0","comp_answer","","","","","","","","","","","",""
"comp-q","109","550231","0.0-3.0-13.0-0.2-0.2","spark_pilot_norest","8391","4","12","Male","","","","","","","2071","<p> <b> True or False? </b> </p><p> The same animal will always be there if you go up in the same place. </p>","1","comp_question","","","","false","","","","","","","",""
"comp-q","110","558453","0.0-3.0-13.0-0.2-1.2","spark_pilot_norest","8391","4","12","Male","","","","","","","1792","<p> <b>Incorrect.</b> One animal lives in the upper part and one lives in the lower part of every place. </p>","0","comp_answer","","","","","","","","","","","",""
"comp-q","111","565601","0.0-3.0-13.0-0.3-0.3","spark_pilot_norest","8391","4","12","Male","","","","","","","1312","<p> <b> True or False? </b> </p><p> The same animal will always be there if you go up in the same place. </p>","1","comp_question","","","","false","","","","","","","",""
"comp-q","112","573462","0.0-3.0-13.0-0.3-1.3","spark_pilot_norest","8391","4","12","Male","[{""event"":""blur"",""trial"":1,""time"":26046},{""event"":""focus"",""trial"":2,""time"":31945},{""event"":""fullscreenenter"",""trial"":2,""time"":34915},{""event"":""blur"",""trial"":11,""time"":128127},{""event"":""focus"",""trial"":11,""time"":128411},{""event"":""blur"",""trial"":113,""time"":580566},{""event"":""focus"",""trial"":114,""time"":588863}]","","","","","","1571","<p> <b>Incorrect.</b> One animal lives in the upper part and one lives in the lower part of every place. </p>","0","comp_answer","","","","","","","","","","","",""
"comp-q","113","580763","0.0-3.0-13.0-0.4-0.4","spark_pilot_norest","8391","4","12","Male","[{""event"":""blur"",""trial"":1,""time"":26046},{""event"":""focus"",""trial"":2,""time"":31945},{""event"":""fullscreenenter"",""trial"":2,""time"":34915},{""event"":""blur"",""trial"":11,""time"":128127},{""event"":""focus"",""trial"":11,""time"":128411},{""event"":""blur"",""trial"":113,""time"":580566},{""event"":""focus"",""trial"":114,""time"":588863}]","","","","","","1475","<p> <b> True or False? </b> </p><p> The same animal will always be there if you go up in the same place. </p>","0","comp_question","","","","true","","","","","","","",""
"comp-q","114","589070","0.0-3.0-13.0-0.4-1.4","spark_pilot_norest","8391","4","12","Male","","","","","","","1621","<p> <b> That's right! </b> One animal lives in the upper part and one lives in the lower part of every place. </p>","0","comp_answer","","","","","","","","","","","",""
"comp-q","115","596271","0.0-3.0-13.0-0.5-0.5","spark_pilot_norest","8391","4","12","Male","","","","","","","1571","<p> <b> True or False? </b> </p><p> If you see a different picture, it means you are in a new place. </p>","1","comp_question","","","","true","","","","","","","",""
"comp-q","116","609623","0.0-3.0-13.0-0.5-1.5","spark_pilot_norest","8391","4","12","Male","","","","","","","1813","<p> <b> That's right! </b> Lots of different images may show the same place. For example,  you may see three different images that all remind you that you are in outer space. </p>","0","comp_answer","","","","","","","","","","","",""
"learning-instructions","117","622111","0.0-3.0-14.0-0.0","spark_pilot_norest","8391","4","12","Male","","","","","","","1891","<p> Good job. Remember to do your best because the amount of treasure you earn will be converted into bonus money. </p>
            <p> It’s time to start the real game! </p>","","instructions","","","","","","","","","","","",""
"learning-instructions","118","626562","0.0-4.0-0.0-0.0","spark_pilot_norest","8391","4","12","Male","","","","","","","1673","<p> This time you are searching for treasure in the <b>ocean</b>.</p>","","instructions","","","","","","","","","","","",""
"learning-instructions","119","645601","0.0-4.0-0.0-0.1","spark_pilot_norest","8391","4","12","Male","","","","","","","1441","<p><b>New</b> animals with <b>new</b> treasure chests live here. You need to explore to discover where the animal with the best treasure chest is.</p>
                    <p> Like before, once you figure out which animal has the chest with the most treasure, you should try to get to that animal and select that chest! </p>","","instructions","","","","","","","","","","","",""
"learning-instructions","120","664262","0.0-4.0-1.0-0.0","spark_pilot_norest","8391","4","12","Male","","","","","","","3921","<p> Remember, when you see a picture of the place, use the up and down keys to <b>find an animal</b>.</p>
            <p> When you encounter an animal, you should use the left and right keys to <b>select a treasure chest</b>.</p>
            <p> Don't forget to look out for the robber! </p>","","instructions","","","","","","","","","","","",""
"revaluation","121","670310","0.0-4.0-2.0-0.0","spark_pilot_norest","8391","4","12","Male","","","false","","","","[1245,918]","./assets/img/ocean/memory/18.jpg","[""ArrowUp"",""ArrowRight""]","value training","ocean","10","{""ArrowUp,ArrowLeft"":26,""ArrowUp,ArrowRight"":10,""ArrowDown,ArrowLeft"":5,""ArrowDown,ArrowRight"":17}","false","ArrowUp,ArrowRight","false","revaluation","1","0","","",""
"html-keyboard-response","122","670828","0.0-4.0-2.0-1.0","spark_pilot_norest","8391","4","12","Male","","","","","","","null","<div style=""font-size:60px;"">+</div>","null","fixation","","","","","","","","","1","","",""
"revaluation","123","676869","0.0-4.0-2.0-0.1","spark_pilot_norest","8391","4","12","Male","","","false","","","","[430,450]","./assets/img/ocean/memory/25.jpg","[""ArrowUp"",""ArrowRight""]","value training","ocean","10","{""ArrowUp,ArrowLeft"":26,""ArrowUp,ArrowRight"":10,""ArrowDown,ArrowLeft"":5,""ArrowDown,ArrowRight"":17}","false","ArrowUp,ArrowRight","false","revaluation","1","2","","",""
"html-keyboard-response","124","677388","0.0-4.0-2.0-1.1","spark_pilot_norest","8391","4","12","Male","","","","","","","null","<div style=""font-size:60px;"">+</div>","null","fixation","","","","","","","","","3","","",""
"revaluation","125","683410","0.0-4.0-2.0-0.2","spark_pilot_norest","8391","4","12","Male","","","false","","","","[439,469]","./assets/img/ocean/memory/30.jpg","[""ArrowUp"",""ArrowLeft""]","value training","ocean","26","{""ArrowUp,ArrowLeft"":26,""ArrowUp,ArrowRight"":10,""ArrowDown,ArrowLeft"":5,""ArrowDown,ArrowRight"":17}","true","ArrowUp,ArrowLeft","false","revaluation","1","4","","",""
"html-keyboard-response","126","683929","0.0-4.0-2.0-1.2","spark_pilot_norest","8391","4","12","Male","","","","","","","null","<div style=""font-size:60px;"">+</div>","null","fixation","","","","","","","","","5","","",""
"revaluation","127","687960","0.0-4.0-2.0-0.3","spark_pilot_norest","8391","4","12","Male","","","false","","","","[840]","./assets/img/ocean/catch/6.jpg","[""spaceBar""]","value training","ocean","0","{""ArrowUp,ArrowLeft"":26,""ArrowUp,ArrowRight"":10,""ArrowDown,ArrowLeft"":5,""ArrowDown,ArrowRight"":17}","true","spaceBar","true","revaluation","1","6","","",""
"html-keyboard-response","128","688479","0.0-4.0-2.0-1.3","spark_pilot_norest","8391","4","12","Male","","","","","","","null","<div style=""font-size:60px;"">+</div>","null","fixation","","","","","","","","","7","","",""
"revaluation","129","694500","0.0-4.0-2.0-0.4","spark_pilot_norest","8391","4","12","Male","","","false","","","","[752,511]","./assets/img/ocean/memory/6.jpg","[""ArrowDown"",""ArrowLeft""]","value training","ocean","5","{""ArrowUp,ArrowLeft"":26,""ArrowUp,ArrowRight"":10,""ArrowDown,ArrowLeft"":5,""ArrowDown,ArrowRight"":17}","false","ArrowDown,ArrowLeft","false","revaluation","1","8","","",""
"html-keyboard-response","130","695019","0.0-4.0-2.0-1.4","spark_pilot_norest","8391","4","12","Male","","","","","","","null","<div style=""font-size:60px;"">+</div>","null","fixation","","","","","","","","","9","","",""
"revaluation","131","701060","0.0-4.0-2.0-0.5","spark_pilot_norest","8391","4","12","Male","","","false","","","","[327,432]","./assets/img/ocean/memory/7.jpg","[""ArrowUp"",""ArrowRight""]","value training","ocean","10","{""ArrowUp,ArrowLeft"":26,""ArrowUp,ArrowRight"":10,""ArrowDown,ArrowLeft"":5,""ArrowDown,ArrowRight"":17}","false","ArrowUp,ArrowRight","false","revaluation","1","10","","",""
"html-keyboard-response","132","701579","0.0-4.0-2.0-1.5","spark_pilot_norest","8391","4","12","Male","","","","","","","null","<div style=""font-size:60px;"">+</div>","null","fixation","","","","","","","","","11","","",""
"revaluation","133","707629","0.0-4.0-2.0-0.6","spark_pilot_norest","8391","4","12","Male","","","false","","","","[432,386]","./assets/img/ocean/memory/13.jpg","[""ArrowUp"",""ArrowLeft""]","value training","ocean","26","{""ArrowUp,ArrowLeft"":26,""ArrowUp,ArrowRight"":10,""ArrowDown,ArrowLeft"":5,""ArrowDown,ArrowRight"":17}","true","ArrowUp,ArrowLeft","false","revaluation","1","12","","",""
"html-keyboard-response","134","708149","0.0-4.0-2.0-1.6","spark_pilot_norest","8391","4","12","Male","","","","","","","null","<div style=""font-size:60px;"">+</div>","null","fixation","","","","","","","","","13","","",""
"revaluation","135","714159","0.0-4.0-2.0-0.7","spark_pilot_norest","8391","4","12","Male","","","false","","","","[745,378]","./assets/img/ocean/memory/16.jpg","[""ArrowUp"",""ArrowLeft""]","value training","ocean","26","{""ArrowUp,ArrowLeft"":26,""ArrowUp,ArrowRight"":10,""ArrowDown,ArrowLeft"":5,""ArrowDown,ArrowRight"":17}","true","ArrowUp,ArrowLeft","false","revaluation","1","14","","",""
"html-keyboard-response","136","714679","0.0-4.0-2.0-1.7","spark_pilot_norest","8391","4","12","Male","","","","","","","null","<div style=""font-size:60px;"">+</div>","null","fixation","","","","","","","","","15","","",""
"revaluation","137","718689","0.0-4.0-2.0-0.8","spark_pilot_norest","8391","4","12","Male","","","false","","","","[840]","./assets/img/ocean/catch/2.jpg","[""spaceBar""]","value training","ocean","0","{""ArrowUp,ArrowLeft"":26,""ArrowUp,ArrowRight"":10,""ArrowDown,ArrowLeft"":5,""ArrowDown,ArrowRight"":17}","true","spaceBar","true","revaluation","1","16","","",""
"html-keyboard-response","138","719199","0.0-4.0-2.0-1.8","spark_pilot_norest","8391","4","12","Male","","","","","","","null","<div style=""font-size:60px;"">+</div>","null","fixation","","","","","","","","","17","","",""
"revaluation","139","725250","0.0-4.0-2.0-0.9","spark_pilot_norest","8391","4","12","Male","","","false","","","","[372,556]","./assets/img/ocean/memory/28.jpg","[""ArrowUp"",""ArrowLeft""]","value training","ocean","26","{""ArrowUp,ArrowLeft"":26,""ArrowUp,ArrowRight"":10,""ArrowDown,ArrowLeft"":5,""ArrowDown,ArrowRight"":17}","true","ArrowUp,ArrowLeft","false","revaluation","1","18","","",""
"html-keyboard-response","140","725759","0.0-4.0-2.0-1.9","spark_pilot_norest","8391","4","12","Male","","","","","","","null","<div style=""font-size:60px;"">+</div>","null","fixation","","","","","","","","","19","","",""
"revaluation","141","731789","0.0-4.0-2.0-0.10","spark_pilot_norest","8391","4","12","Male","","","false","","","","[471,432]","./assets/img/ocean/memory/5.jpg","[""ArrowUp"",""ArrowLeft""]","value training","ocean","26","{""ArrowUp,ArrowLeft"":26,""ArrowUp,ArrowRight"":10,""ArrowDown,ArrowLeft"":5,""ArrowDown,ArrowRight"":17}","true","ArrowUp,ArrowLeft","false","revaluation","1","20","","",""
"html-keyboard-response","142","732299","0.0-4.0-2.0-1.10","spark_pilot_norest","8391","4","12","Male","","","","","","","null","<div style=""font-size:60px;"">+</div>","null","fixation","","","","","","","","","21","","",""
"revaluation","143","738350","0.0-4.0-2.0-0.11","spark_pilot_norest","8391","4","12","Male","","","false","","","","[1280,537]","./assets/img/ocean/memory/24.jpg","[""ArrowUp"",""ArrowLeft""]","value training","ocean","26","{""ArrowUp,ArrowLeft"":26,""ArrowUp,ArrowRight"":10,""ArrowDown,ArrowLeft"":5,""ArrowDown,ArrowRight"":17}","true","ArrowUp,ArrowLeft","false","revaluation","1","22","","",""
"html-keyboard-response","144","738860","0.0-4.0-2.0-1.11","spark_pilot_norest","8391","4","12","Male","","","","","","","null","<div style=""font-size:60px;"">+</div>","null","fixation","","","","","","","","","23","","",""
"revaluation","145","742899","0.0-4.0-2.0-0.12","spark_pilot_norest","8391","4","12","Male","","","false","","","","[613]","./assets/img/ocean/catch/0.jpg","[""ArrowUp""]","value training","ocean","-10","{""ArrowUp,ArrowLeft"":26,""ArrowUp,ArrowRight"":10,""ArrowDown,ArrowLeft"":5,""ArrowDown,ArrowRight"":17}","false","ArrowUp","true","revaluation","1","24","","",""
"html-keyboard-response","146","743418","0.0-4.0-2.0-1.12","spark_pilot_norest","8391","4","12","Male","","","","","","","null","<div style=""font-size:60px;"">+</div>","null","fixation","","","","","","","","","25","","",""
"revaluation","147","749450","0.0-4.0-2.0-0.13","spark_pilot_norest","8391","4","12","Male","","","false","","","","[609,705]","./assets/img/ocean/memory/4.jpg","[""ArrowUp"",""ArrowLeft""]","value training","ocean","26","{""ArrowUp,ArrowLeft"":26,""ArrowUp,ArrowRight"":10,""ArrowDown,ArrowLeft"":5,""ArrowDown,ArrowRight"":17}","true","ArrowUp,ArrowLeft","false","revaluation","1","26","","",""
"html-keyboard-response","148","749969","0.0-4.0-2.0-1.13","spark_pilot_norest","8391","4","12","Male","","","","","","","null","<div style=""font-size:60px;"">+</div>","null","fixation","","","","","","","","","27","","",""
"revaluation","149","756010","0.0-4.0-2.0-0.14","spark_pilot_norest","8391","4","12","Male","","","false","","","","[836,566]","./assets/img/ocean/memory/29.jpg","[""ArrowUp"",""ArrowLeft""]","value training","ocean","26","{""ArrowUp,ArrowLeft"":26,""ArrowUp,ArrowRight"":10,""ArrowDown,ArrowLeft"":5,""ArrowDown,ArrowRight"":17}","true","ArrowUp,ArrowLeft","false","revaluation","1","28","","",""
"html-keyboard-response","150","756528","0.0-4.0-2.0-1.14","spark_pilot_norest","8391","4","12","Male","","","","","","","null","<div style=""font-size:60px;"">+</div>","null","fixation","","","","","","","","","29","","",""
"revaluation","151","762581","0.0-4.0-2.0-0.15","spark_pilot_norest","8391","4","12","Male","","","false","","","","[564,678]","./assets/img/ocean/memory/14.jpg","[""ArrowUp"",""ArrowLeft""]","value training","ocean","26","{""ArrowUp,ArrowLeft"":26,""ArrowUp,ArrowRight"":10,""ArrowDown,ArrowLeft"":5,""ArrowDown,ArrowRight"":17}","true","ArrowUp,ArrowLeft","false","revaluation","1","30","","",""
"html-keyboard-response","152","763099","0.0-4.0-2.0-1.15","spark_pilot_norest","8391","4","12","Male","","","","","","","null","<div style=""font-size:60px;"">+</div>","null","fixation","","","","","","","","","31","","",""
"revaluation","153","769121","0.0-4.0-2.0-0.16","spark_pilot_norest","8391","4","12","Male","","","false","","","","[890,826]","./assets/img/ocean/memory/27.jpg","[""ArrowUp"",""ArrowLeft""]","value training","ocean","26","{""ArrowUp,ArrowLeft"":26,""ArrowUp,ArrowRight"":10,""ArrowDown,ArrowLeft"":5,""ArrowDown,ArrowRight"":17}","true","ArrowUp,ArrowLeft","false","revaluation","1","32","","",""
"html-keyboard-response","154","769639","0.0-4.0-2.0-1.16","spark_pilot_norest","8391","4","12","Male","","","","","","","null","<div style=""font-size:60px;"">+</div>","null","fixation","","","","","","","","","33","","",""
"revaluation","155","775669","0.0-4.0-2.0-0.17","spark_pilot_norest","8391","4","12","Male","","","false","","","","[612,609]","./assets/img/ocean/memory/15.jpg","[""ArrowUp"",""ArrowLeft""]","value training","ocean","26","{""ArrowUp,ArrowLeft"":26,""ArrowUp,ArrowRight"":10,""ArrowDown,ArrowLeft"":5,""ArrowDown,ArrowRight"":17}","true","ArrowUp,ArrowLeft","false","revaluation","1","34","","",""
"html-keyboard-response","156","776178","0.0-4.0-2.0-1.17","spark_pilot_norest","8391","4","12","Male","","","","","","","null","<div style=""font-size:60px;"">+</div>","null","fixation","","","","","","","","","35","","",""
"revaluation","157","782230","0.0-4.0-2.0-0.18","spark_pilot_norest","8391","4","12","Male","","","false","","","","[517,943]","./assets/img/ocean/memory/26.jpg","[""ArrowUp"",""ArrowLeft""]","value training","ocean","26","{""ArrowUp,ArrowLeft"":26,""ArrowUp,ArrowRight"":10,""ArrowDown,ArrowLeft"":5,""ArrowDown,ArrowRight"":17}","true","ArrowUp,ArrowLeft","false","revaluation","1","36","","",""
"html-keyboard-response","158","782749","0.0-4.0-2.0-1.18","spark_pilot_norest","8391","4","12","Male","","","","","","","null","<div style=""font-size:60px;"">+</div>","null","fixation","","","","","","","","","37","","",""
"revaluation","159","786780","0.0-4.0-2.0-0.19","spark_pilot_norest","8391","4","12","Male","","","false","","","","[819]","./assets/img/ocean/catch/7.jpg","[""spaceBar""]","value training","ocean","0","{""ArrowUp,ArrowLeft"":26,""ArrowUp,ArrowRight"":10,""ArrowDown,ArrowLeft"":5,""ArrowDown,ArrowRight"":17}","true","spaceBar","true","revaluation","1","38","","",""
"html-keyboard-response","160","787300","0.0-4.0-2.0-1.19","spark_pilot_norest","8391","4","12","Male","","","","","","","null","<div style=""font-size:60px;"">+</div>","null","fixation","","","","","","","","","39","","",""
"revaluation","161","793340","0.0-4.0-2.0-0.20","spark_pilot_norest","8391","4","12","Male","","","false","","","","[672,504]","./assets/img/ocean/memory/17.jpg","[""ArrowUp"",""ArrowLeft""]","value training","ocean","26","{""ArrowUp,ArrowLeft"":26,""ArrowUp,ArrowRight"":10,""ArrowDown,ArrowLeft"":5,""ArrowDown,ArrowRight"":17}","true","ArrowUp,ArrowLeft","false","revaluation","1","40","","",""
"html-keyboard-response","162","793859","0.0-4.0-2.0-1.20","spark_pilot_norest","8391","4","12","Male","","","","","","","null","<div style=""font-size:60px;"">+</div>","null","fixation","","","","","","","","","41","","",""
"revaluation","163","797890","0.0-4.0-2.0-0.21","spark_pilot_norest","8391","4","12","Male","","","false","","","","[768]","./assets/img/ocean/catch/1.jpg","[""spaceBar""]","value training","ocean","0","{""ArrowUp,ArrowLeft"":26,""ArrowUp,ArrowRight"":10,""ArrowDown,ArrowLeft"":5,""ArrowDown,ArrowRight"":17}","true","spaceBar","true","revaluation","1","42","","",""
"html-keyboard-response","164","798410","0.0-4.0-2.0-1.21","spark_pilot_norest","8391","4","12","Male","","","","","","","null","<div style=""font-size:60px;"">+</div>","null","fixation","","","","","","","","","43","","",""
"revaluation","165","802440","0.0-4.0-2.0-0.22","spark_pilot_norest","8391","4","12","Male","","","false","","","","[499]","./assets/img/ocean/catch/3.jpg","[""ArrowUp""]","value training","ocean","-10","{""ArrowUp,ArrowLeft"":26,""ArrowUp,ArrowRight"":10,""ArrowDown,ArrowLeft"":5,""ArrowDown,ArrowRight"":17}","false","ArrowUp","true","revaluation","1","44","","",""
"html-keyboard-response","166","802959","0.0-4.0-2.0-1.22","spark_pilot_norest","8391","4","12","Male","","","","","","","null","<div style=""font-size:60px;"">+</div>","null","fixation","","","","","","","","","45","","",""
"revaluation","167","806990","0.0-4.0-2.0-0.23","spark_pilot_norest","8391","4","12","Male","","","false","","","","[781]","./assets/img/ocean/catch/5.jpg","[""spaceBar""]","value training","ocean","0","{""ArrowUp,ArrowLeft"":26,""ArrowUp,ArrowRight"":10,""ArrowDown,ArrowLeft"":5,""ArrowDown,ArrowRight"":17}","true","spaceBar","true","revaluation","1","46","","",""
"html-keyboard-response","168","807509","0.0-4.0-2.0-1.23","spark_pilot_norest","8391","4","12","Male","","","","","","","null","<div style=""font-size:60px;"">+</div>","null","fixation","","","","","","","","","47","","",""
"revaluation","169","813539","0.0-4.0-2.0-0.24","spark_pilot_norest","8391","4","12","Male","","","false","","","","[836,370]","./assets/img/ocean/memory/17.jpg","[""ArrowUp"",""ArrowLeft""]","value training","ocean","26","{""ArrowUp,ArrowLeft"":26,""ArrowUp,ArrowRight"":10,""ArrowDown,ArrowLeft"":5,""ArrowDown,ArrowRight"":17}","true","ArrowUp,ArrowLeft","false","revaluation","1","48","","",""
"html-keyboard-response","170","814059","0.0-4.0-2.0-1.24","spark_pilot_norest","8391","4","12","Male","","","","","","","null","<div style=""font-size:60px;"">+</div>","null","fixation","","","","","","","","","49","","",""
"revaluation","171","820100","0.0-4.0-2.0-0.25","spark_pilot_norest","8391","4","12","Male","","","false","","","","[755,805]","./assets/img/ocean/memory/15.jpg","[""ArrowUp"",""ArrowLeft""]","value training","ocean","26","{""ArrowUp,ArrowLeft"":26,""ArrowUp,ArrowRight"":10,""ArrowDown,ArrowLeft"":5,""ArrowDown,ArrowRight"":17}","true","ArrowUp,ArrowLeft","false","revaluation","1","50","","",""
"html-keyboard-response","172","820619","0.0-4.0-2.0-1.25","spark_pilot_norest","8391","4","12","Male","","","","","","","null","<div style=""font-size:60px;"">+</div>","null","fixation","","","","","","","","","51","","",""
"revaluation","173","826650","0.0-4.0-2.0-0.26","spark_pilot_norest","8391","4","12","Male","","","false","","","","[655,690]","./assets/img/ocean/memory/11.jpg","[""ArrowUp"",""ArrowLeft""]","value training","ocean","26","{""ArrowUp,ArrowLeft"":26,""ArrowUp,ArrowRight"":10,""ArrowDown,ArrowLeft"":5,""ArrowDown,ArrowRight"":17}","true","ArrowUp,ArrowLeft","false","revaluation","1","52","","",""
"html-keyboard-response","174","827169","0.0-4.0-2.0-1.26","spark_pilot_norest","8391","4","12","Male","","","","","","","null","<div style=""font-size:60px;"">+</div>","null","fixation","","","","","","","","","53","","",""
"revaluation","175","833210","0.0-4.0-2.0-0.27","spark_pilot_norest","8391","4","12","Male","","","false","","","","[418,508]","./assets/img/ocean/memory/9.jpg","[""ArrowUp"",""ArrowLeft""]","value training","ocean","26","{""ArrowUp,ArrowLeft"":26,""ArrowUp,ArrowRight"":10,""ArrowDown,ArrowLeft"":5,""ArrowDown,ArrowRight"":17}","true","ArrowUp,ArrowLeft","false","revaluation","1","54","","",""
"html-keyboard-response","176","833729","0.0-4.0-2.0-1.27","spark_pilot_norest","8391","4","12","Male","","","","","","","null","<div style=""font-size:60px;"">+</div>","null","fixation","","","","","","","","","55","","",""
"revaluation","177","839780","0.0-4.0-2.0-0.28","spark_pilot_norest","8391","4","12","Male","","","false","","","","[556,885]","./assets/img/ocean/memory/9.jpg","[""ArrowUp"",""ArrowLeft""]","value training","ocean","26","{""ArrowUp,ArrowLeft"":26,""ArrowUp,ArrowRight"":10,""ArrowDown,ArrowLeft"":5,""ArrowDown,ArrowRight"":17}","true","ArrowUp,ArrowLeft","false","revaluation","1","56","","",""
"html-keyboard-response","178","840299","0.0-4.0-2.0-1.28","spark_pilot_norest","8391","4","12","Male","","","","","","","null","<div style=""font-size:60px;"">+</div>","null","fixation","","","","","","","","","57","","",""
"revaluation","179","846330","0.0-4.0-2.0-0.29","spark_pilot_norest","8391","4","12","Male","","","false","","","","[548,433]","./assets/img/ocean/memory/16.jpg","[""ArrowUp"",""ArrowLeft""]","value training","ocean","26","{""ArrowUp,ArrowLeft"":26,""ArrowUp,ArrowRight"":10,""ArrowDown,ArrowLeft"":5,""ArrowDown,ArrowRight"":17}","true","ArrowUp,ArrowLeft","false","revaluation","1","58","","",""
"html-keyboard-response","180","846849","0.0-4.0-2.0-1.29","spark_pilot_norest","8391","4","12","Male","","","","","","","null","<div style=""font-size:60px;"">+</div>","null","fixation","","","","","","","","","59","","",""
"revaluation","181","850870","0.0-4.0-2.0-0.30","spark_pilot_norest","8391","4","12","Male","","","false","","","","[727]","./assets/img/ocean/catch/4.jpg","[""spaceBar""]","value training","ocean","0","{""ArrowUp,ArrowLeft"":26,""ArrowUp,ArrowRight"":10,""ArrowDown,ArrowLeft"":5,""ArrowDown,ArrowRight"":17}","true","spaceBar","true","revaluation","1","60","","",""
"html-keyboard-response","182","851390","0.0-4.0-2.0-1.30","spark_pilot_norest","8391","4","12","Male","","","","","","","null","<div style=""font-size:60px;"">+</div>","null","fixation","","","","","","","","","61","","",""
"revaluation","183","857441","0.0-4.0-2.0-0.31","spark_pilot_norest","8391","4","12","Male","","","false","","","","[495,465]","./assets/img/ocean/memory/13.jpg","[""ArrowUp"",""ArrowLeft""]","value training","ocean","26","{""ArrowUp,ArrowLeft"":26,""ArrowUp,ArrowRight"":10,""ArrowDown,ArrowLeft"":5,""ArrowDown,ArrowRight"":17}","true","ArrowUp,ArrowLeft","false","revaluation","1","62","","",""
"html-keyboard-response","184","857948","0.0-4.0-2.0-1.31","spark_pilot_norest","8391","4","12","Male","","","","","","","null","<div style=""font-size:60px;"">+</div>","null","fixation","","","","","","","","","63","","",""
"revaluation","185","863990","0.0-4.0-2.0-0.32","spark_pilot_norest","8391","4","12","Male","","","false","","","","[706,564]","./assets/img/ocean/memory/10.jpg","[""ArrowUp"",""ArrowLeft""]","value training","ocean","26","{""ArrowUp,ArrowLeft"":26,""ArrowUp,ArrowRight"":10,""ArrowDown,ArrowLeft"":5,""ArrowDown,ArrowRight"":17}","true","ArrowUp,ArrowLeft","false","revaluation","1","64","","",""
"html-keyboard-response","186","864510","0.0-4.0-2.0-1.32","spark_pilot_norest","8391","4","12","Male","","","","","","","null","<div style=""font-size:60px;"">+</div>","null","fixation","","","","","","","","","65","","",""
"revaluation","187","870560","0.0-4.0-2.0-0.33","spark_pilot_norest","8391","4","12","Male","","","false","","","","[543,538]","./assets/img/ocean/memory/29.jpg","[""ArrowUp"",""ArrowLeft""]","value training","ocean","26","{""ArrowUp,ArrowLeft"":26,""ArrowUp,ArrowRight"":10,""ArrowDown,ArrowLeft"":5,""ArrowDown,ArrowRight"":17}","true","ArrowUp,ArrowLeft","false","revaluation","1","66","","",""
"html-keyboard-response","188","871079","0.0-4.0-2.0-1.33","spark_pilot_norest","8391","4","12","Male","","","","","","","null","<div style=""font-size:60px;"">+</div>","null","fixation","","","","","","","","","67","","",""
"revaluation","189","877118","0.0-4.0-2.0-0.34","spark_pilot_norest","8391","4","12","Male","","","false","","","","[578,684]","./assets/img/ocean/memory/14.jpg","[""ArrowUp"",""ArrowLeft""]","value training","ocean","26","{""ArrowUp,ArrowLeft"":26,""ArrowUp,ArrowRight"":10,""ArrowDown,ArrowLeft"":5,""ArrowDown,ArrowRight"":17}","true","ArrowUp,ArrowLeft","false","revaluation","1","68","","",""
"html-keyboard-response","190","877619","0.0-4.0-2.0-1.34","spark_pilot_norest","8391","4","12","Male","","","","","","","null","<div style=""font-size:60px;"">+</div>","null","fixation","","","","","","","","","69","","",""
"revaluation","191","883680","0.0-4.0-2.0-0.35","spark_pilot_norest","8391","4","12","Male","","","false","","","","[466,539]","./assets/img/ocean/memory/5.jpg","[""ArrowUp"",""ArrowLeft""]","value training","ocean","26","{""ArrowUp,ArrowLeft"":26,""ArrowUp,ArrowRight"":10,""ArrowDown,ArrowLeft"":5,""ArrowDown,ArrowRight"":17}","true","ArrowUp,ArrowLeft","false","revaluation","1","70","","",""
"html-keyboard-response","192","884199","0.0-4.0-2.0-1.35","spark_pilot_norest","8391","4","12","Male","","","","","","","null","<div style=""font-size:60px;"">+</div>","null","fixation","","","","","","","","","71","","",""
"revaluation","193","890245","0.0-4.0-2.0-0.36","spark_pilot_norest","8391","4","12","Male","","","false","","","","[604,508]","./assets/img/ocean/memory/26.jpg","[""ArrowUp"",""ArrowLeft""]","value training","ocean","26","{""ArrowUp,ArrowLeft"":26,""ArrowUp,ArrowRight"":10,""ArrowDown,ArrowLeft"":5,""ArrowDown,ArrowRight"":17}","true","ArrowUp,ArrowLeft","false","revaluation","1","72","","",""
"html-keyboard-response","194","890760","0.0-4.0-2.0-1.36","spark_pilot_norest","8391","4","12","Male","","","","","","","null","<div style=""font-size:60px;"">+</div>","null","fixation","","","","","","","","","73","","",""
"revaluation","195","896810","0.0-4.0-2.0-0.37","spark_pilot_norest","8391","4","12","Male","","","false","","","","[396,504]","./assets/img/ocean/memory/10.jpg","[""ArrowUp"",""ArrowLeft""]","value training","ocean","26","{""ArrowUp,ArrowLeft"":26,""ArrowUp,ArrowRight"":10,""ArrowDown,ArrowLeft"":5,""ArrowDown,ArrowRight"":17}","true","ArrowUp,ArrowLeft","false","revaluation","1","74","","",""
"html-keyboard-response","196","897329","0.0-4.0-2.0-1.37","spark_pilot_norest","8391","4","12","Male","","","","","","","null","<div style=""font-size:60px;"">+</div>","null","fixation","","","","","","","","","75","","",""
"revaluation","197","903370","0.0-4.0-2.0-0.38","spark_pilot_norest","8391","4","12","Male","","","false","","","","[537,397]","./assets/img/ocean/memory/12.jpg","[""ArrowUp"",""ArrowLeft""]","value training","ocean","26","{""ArrowUp,ArrowLeft"":26,""ArrowUp,ArrowRight"":10,""ArrowDown,ArrowLeft"":5,""ArrowDown,ArrowRight"":17}","true","ArrowUp,ArrowLeft","false","revaluation","1","76","","",""
"html-keyboard-response","198","903890","0.0-4.0-2.0-1.38","spark_pilot_norest","8391","4","12","Male","","","","","","","null","<div style=""font-size:60px;"">+</div>","null","fixation","","","","","","","","","77","","",""
"revaluation","199","909920","0.0-4.0-2.0-0.39","spark_pilot_norest","8391","4","12","Male","","","false","","","","[495,554]","./assets/img/ocean/memory/28.jpg","[""ArrowUp"",""ArrowLeft""]","value training","ocean","26","{""ArrowUp,ArrowLeft"":26,""ArrowUp,ArrowRight"":10,""ArrowDown,ArrowLeft"":5,""ArrowDown,ArrowRight"":17}","true","ArrowUp,ArrowLeft","false","revaluation","1","78","","",""
"html-keyboard-response","200","910439","0.0-4.0-2.0-1.39","spark_pilot_norest","8391","4","12","Male","","","","","","","null","<div style=""font-size:60px;"">+</div>","null","fixation","","","","","","","","","79","","",""
"revaluation","201","916459","0.0-4.0-2.0-0.40","spark_pilot_norest","8391","4","12","Male","","","false","","","","[531,487]","./assets/img/ocean/memory/7.jpg","[""ArrowUp"",""ArrowLeft""]","value training","ocean","26","{""ArrowUp,ArrowLeft"":26,""ArrowUp,ArrowRight"":10,""ArrowDown,ArrowLeft"":5,""ArrowDown,ArrowRight"":17}","true","ArrowUp,ArrowLeft","false","revaluation","1","80","","",""
"html-keyboard-response","202","916979","0.0-4.0-2.0-1.40","spark_pilot_norest","8391","4","12","Male","","","","","","","null","<div style=""font-size:60px;"">+</div>","null","fixation","","","","","","","","","81","","",""
"revaluation","203","923020","0.0-4.0-2.0-0.41","spark_pilot_norest","8391","4","12","Male","","","false","","","","[524,646]","./assets/img/ocean/memory/11.jpg","[""ArrowUp"",""ArrowLeft""]","value training","ocean","26","{""ArrowUp,ArrowLeft"":26,""ArrowUp,ArrowRight"":10,""ArrowDown,ArrowLeft"":5,""ArrowDown,ArrowRight"":17}","true","ArrowUp,ArrowLeft","false","revaluation","1","82","","",""
"html-keyboard-response","204","923539","0.0-4.0-2.0-1.41","spark_pilot_norest","8391","4","12","Male","","","","","","","null","<div style=""font-size:60px;"">+</div>","null","fixation","","","","","","","","","83","","",""
"revaluation","205","929590","0.0-4.0-2.0-0.42","spark_pilot_norest","8391","4","12","Male","","","false","","","","[436,534]","./assets/img/ocean/memory/4.jpg","[""ArrowUp"",""ArrowLeft""]","value training","ocean","26","{""ArrowUp,ArrowLeft"":26,""ArrowUp,ArrowRight"":10,""ArrowDown,ArrowLeft"":5,""ArrowDown,ArrowRight"":17}","true","ArrowUp,ArrowLeft","false","revaluation","1","84","","",""
"html-keyboard-response","206","930099","0.0-4.0-2.0-1.42","spark_pilot_norest","8391","4","12","Male","","","","","","","null","<div style=""font-size:60px;"">+</div>","null","fixation","","","","","","","","","85","","",""
"revaluation","207","936150","0.0-4.0-2.0-0.43","spark_pilot_norest","8391","4","12","Male","","","false","","","","[538,736]","./assets/img/ocean/memory/27.jpg","[""ArrowUp"",""ArrowLeft""]","value training","ocean","26","{""ArrowUp,ArrowLeft"":26,""ArrowUp,ArrowRight"":10,""ArrowDown,ArrowLeft"":5,""ArrowDown,ArrowRight"":17}","true","ArrowUp,ArrowLeft","false","revaluation","1","86","","",""
"html-keyboard-response","208","936665","0.0-4.0-2.0-1.43","spark_pilot_norest","8391","4","12","Male","","","","","","","null","<div style=""font-size:60px;"">+</div>","null","fixation","","","","","","","","","87","","",""
"revaluation","209","942709","0.0-4.0-2.0-0.44","spark_pilot_norest","8391","4","12","Male","","","false","","","","[588,511]","./assets/img/ocean/memory/12.jpg","[""ArrowUp"",""ArrowLeft""]","value training","ocean","26","{""ArrowUp,ArrowLeft"":26,""ArrowUp,ArrowRight"":10,""ArrowDown,ArrowLeft"":5,""ArrowDown,ArrowRight"":17}","true","ArrowUp,ArrowLeft","false","revaluation","1","88","","",""
"html-keyboard-response","210","943219","0.0-4.0-2.0-1.44","spark_pilot_norest","8391","4","12","Male","","","","","","","null","<div style=""font-size:60px;"">+</div>","null","fixation","","","","","","","","","89","","",""
"revaluation","211","949260","0.0-4.0-2.0-0.45","spark_pilot_norest","8391","4","12","Male","","","false","","","","[388,452]","./assets/img/ocean/memory/6.jpg","[""ArrowUp"",""ArrowLeft""]","value training","ocean","26","{""ArrowUp,ArrowLeft"":26,""ArrowUp,ArrowRight"":10,""ArrowDown,ArrowLeft"":5,""ArrowDown,ArrowRight"":17}","true","ArrowUp,ArrowLeft","false","revaluation","1","90","","",""
"html-keyboard-response","212","949769","0.0-4.0-2.0-1.45","spark_pilot_norest","8391","4","12","Male","","","","","","","null","<div style=""font-size:60px;"">+</div>","null","fixation","","","","","","","","","91","","",""
"revaluation","213","955810","0.0-4.0-2.0-0.46","spark_pilot_norest","8391","4","12","Male","","","false","","","","[708,538]","./assets/img/ocean/memory/24.jpg","[""ArrowUp"",""ArrowLeft""]","value training","ocean","26","{""ArrowUp,ArrowLeft"":26,""ArrowUp,ArrowRight"":10,""ArrowDown,ArrowLeft"":5,""ArrowDown,ArrowRight"":17}","true","ArrowUp,ArrowLeft","false","revaluation","1","92","","",""
"html-keyboard-response","214","956329","0.0-4.0-2.0-1.46","spark_pilot_norest","8391","4","12","Male","","","","","","","null","<div style=""font-size:60px;"">+</div>","null","fixation","","","","","","","","","93","","",""
"revaluation","215","962389","0.0-4.0-2.0-0.47","spark_pilot_norest","8391","4","12","Male","","","false","","","","[469,556]","./assets/img/ocean/memory/18.jpg","[""ArrowUp"",""ArrowLeft""]","value training","ocean","26","{""ArrowUp,ArrowLeft"":26,""ArrowUp,ArrowRight"":10,""ArrowDown,ArrowLeft"":5,""ArrowDown,ArrowRight"":17}","true","ArrowUp,ArrowLeft","false","revaluation","1","94","","",""
"html-keyboard-response","216","962909","0.0-4.0-2.0-1.47","spark_pilot_norest","8391","4","12","Male","","","","","","","null","<div style=""font-size:60px;"">+</div>","null","fixation","","","","","","","","","95","","",""
"revaluation","217","968940","0.0-4.0-2.0-0.48","spark_pilot_norest","8391","4","12","Male","","","false","","","","[745,659]","./assets/img/ocean/memory/30.jpg","[""ArrowUp"",""ArrowLeft""]","value training","ocean","26","{""ArrowUp,ArrowLeft"":26,""ArrowUp,ArrowRight"":10,""ArrowDown,ArrowLeft"":5,""ArrowDown,ArrowRight"":17}","true","ArrowUp,ArrowLeft","false","revaluation","1","96","","",""
"html-keyboard-response","218","969459","0.0-4.0-2.0-1.48","spark_pilot_norest","8391","4","12","Male","","","","","","","null","<div style=""font-size:60px;"">+</div>","null","fixation","","","","","","","","","97","","",""
"revaluation","219","975507","0.0-4.0-2.0-0.49","spark_pilot_norest","8391","4","12","Male","","","false","","","","[589,545]","./assets/img/ocean/memory/25.jpg","[""ArrowUp"",""ArrowLeft""]","value training","ocean","26","{""ArrowUp,ArrowLeft"":26,""ArrowUp,ArrowRight"":10,""ArrowDown,ArrowLeft"":5,""ArrowDown,ArrowRight"":17}","true","ArrowUp,ArrowLeft","false","revaluation","1","98","","",""
"html-keyboard-response","220","976009","0.0-4.0-2.0-1.49","spark_pilot_norest","8391","4","12","Male","","","","","","","null","<div style=""font-size:60px;"">+</div>","null","fixation","","","","","","","","","99","","",""
"learning-instructions","221","994690","0.0-4.0-3.0-0.0","spark_pilot_norest","8391","4","12","Male","","","","","","","5790","<p> Now, you will travel with a friend who will choose whether you go up or down first. </p>
            <p> On these turns, you will just see the animal that they found. You will still get to choose which chest to search for treasure.</p>","","instructions","","","","","","","","","","","",""
"revaluation","222","998710","0.0-4.0-4.0-0.0","spark_pilot_norest","8391","4","12","Male","","","false","","","","[1539]","./assets/img/ocean/animals/octopus.jpg","[""ArrowLeft""]","revaluation","ocean","8","{""ArrowUp,ArrowLeft"":2,""ArrowUp,ArrowRight"":11,""ArrowDown,ArrowLeft"":8,""ArrowDown,ArrowRight"":27}","false","ArrowDown,ArrowLeft","","revaluation","1","0","","",""
"html-keyboard-response","223","999229","0.0-4.0-4.0-1.0","spark_pilot_norest","8391","4","12","Male","","","","","","","null","<div style=""font-size:60px;"">+</div>","null","fixation","","","","","","","","","1","","",""
"revaluation","224","1003250","0.0-4.0-4.0-0.1","spark_pilot_norest","8391","4","12","Male","","","false","","","","[350]","./assets/img/ocean/animals/octopus.jpg","[""ArrowRight""]","revaluation","ocean","27","{""ArrowUp,ArrowLeft"":2,""ArrowUp,ArrowRight"":11,""ArrowDown,ArrowLeft"":8,""ArrowDown,ArrowRight"":27}","true","ArrowDown,ArrowRight","","revaluation","1","2","","",""
"html-keyboard-response","225","1003769","0.0-4.0-4.0-1.1","spark_pilot_norest","8391","4","12","Male","","","","","","","null","<div style=""font-size:60px;"">+</div>","null","fixation","","","","","","","","","3","","",""
"revaluation","226","1007799","0.0-4.0-4.0-0.2","spark_pilot_norest","8391","4","12","Male","","","false","","","","[351]","./assets/img/ocean/animals/seahorse.jpg","[""ArrowRight""]","revaluation","ocean","11","{""ArrowUp,ArrowLeft"":2,""ArrowUp,ArrowRight"":11,""ArrowDown,ArrowLeft"":8,""ArrowDown,ArrowRight"":27}","true","ArrowUp,ArrowRight","","revaluation","1","4","","",""
"html-keyboard-response","227","1008318","0.0-4.0-4.0-1.2","spark_pilot_norest","8391","4","12","Male","","","","","","","null","<div style=""font-size:60px;"">+</div>","null","fixation","","","","","","","","","5","","",""
"revaluation","228","1012330","0.0-4.0-4.0-0.3","spark_pilot_norest","8391","4","12","Male","","","false","","","","[308]","./assets/img/ocean/animals/octopus.jpg","[""ArrowLeft""]","revaluation","ocean","8","{""ArrowUp,ArrowLeft"":2,""ArrowUp,ArrowRight"":11,""ArrowDown,ArrowLeft"":8,""ArrowDown,ArrowRight"":27}","false","ArrowDown,ArrowLeft","","revaluation","1","6","","",""
"html-keyboard-response","229","1012849","0.0-4.0-4.0-1.3","spark_pilot_norest","8391","4","12","Male","","","","","","","null","<div style=""font-size:60px;"">+</div>","null","fixation","","","","","","","","","7","","",""
"revaluation","230","1016879","0.0-4.0-4.0-0.4","spark_pilot_norest","8391","4","12","Male","","","false","","","","[375]","./assets/img/ocean/animals/octopus.jpg","[""ArrowRight""]","revaluation","ocean","27","{""ArrowUp,ArrowLeft"":2,""ArrowUp,ArrowRight"":11,""ArrowDown,ArrowLeft"":8,""ArrowDown,ArrowRight"":27}","true","ArrowDown,ArrowRight","","revaluation","1","8","","",""
"html-keyboard-response","231","1017399","0.0-4.0-4.0-1.4","spark_pilot_norest","8391","4","12","Male","","","","","","","null","<div style=""font-size:60px;"">+</div>","null","fixation","","","","","","","","","9","","",""
"revaluation","232","1021429","0.0-4.0-4.0-0.5","spark_pilot_norest","8391","4","12","Male","","","false","","","","[382]","./assets/img/ocean/animals/seahorse.jpg","[""ArrowRight""]","revaluation","ocean","11","{""ArrowUp,ArrowLeft"":2,""ArrowUp,ArrowRight"":11,""ArrowDown,ArrowLeft"":8,""ArrowDown,ArrowRight"":27}","true","ArrowUp,ArrowRight","","revaluation","1","10","","",""
"html-keyboard-response","233","1021949","0.0-4.0-4.0-1.5","spark_pilot_norest","8391","4","12","Male","","","","","","","null","<div style=""font-size:60px;"">+</div>","null","fixation","","","","","","","","","11","","",""
"revaluation","234","1025980","0.0-4.0-4.0-0.6","spark_pilot_norest","8391","4","12","Male","","","false","","","","[434]","./assets/img/ocean/animals/seahorse.jpg","[""ArrowLeft""]","revaluation","ocean","2","{""ArrowUp,ArrowLeft"":2,""ArrowUp,ArrowRight"":11,""ArrowDown,ArrowLeft"":8,""ArrowDown,ArrowRight"":27}","false","ArrowUp,ArrowLeft","","revaluation","1","12","","",""
"html-keyboard-response","235","1026499","0.0-4.0-4.0-1.6","spark_pilot_norest","8391","4","12","Male","","","","","","","null","<div style=""font-size:60px;"">+</div>","null","fixation","","","","","","","","","13","","",""
"revaluation","236","1030521","0.0-4.0-4.0-0.7","spark_pilot_norest","8391","4","12","Male","","","false","","","","[344]","./assets/img/ocean/animals/seahorse.jpg","[""ArrowRight""]","revaluation","ocean","11","{""ArrowUp,ArrowLeft"":2,""ArrowUp,ArrowRight"":11,""ArrowDown,ArrowLeft"":8,""ArrowDown,ArrowRight"":27}","true","ArrowUp,ArrowRight","","revaluation","1","14","","",""
"html-keyboard-response","237","1031039","0.0-4.0-4.0-1.7","spark_pilot_norest","8391","4","12","Male","","","","","","","null","<div style=""font-size:60px;"">+</div>","null","fixation","","","","","","","","","15","","",""
"revaluation","238","1035069","0.0-4.0-4.0-0.8","spark_pilot_norest","8391","4","12","Male","","","false","","","","[378]","./assets/img/ocean/animals/octopus.jpg","[""ArrowRight""]","revaluation","ocean","27","{""ArrowUp,ArrowLeft"":2,""ArrowUp,ArrowRight"":11,""ArrowDown,ArrowLeft"":8,""ArrowDown,ArrowRight"":27}","true","ArrowDown,ArrowRight","","revaluation","1","16","","",""
"html-keyboard-response","239","1035589","0.0-4.0-4.0-1.8","spark_pilot_norest","8391","4","12","Male","","","","","","","null","<div style=""font-size:60px;"">+</div>","null","fixation","","","","","","","","","17","","",""
"revaluation","240","1039630","0.0-4.0-4.0-0.9","spark_pilot_norest","8391","4","12","Male","","","false","","","","[381]","./assets/img/ocean/animals/octopus.jpg","[""ArrowRight""]","revaluation","ocean","27","{""ArrowUp,ArrowLeft"":2,""ArrowUp,ArrowRight"":11,""ArrowDown,ArrowLeft"":8,""ArrowDown,ArrowRight"":27}","true","ArrowDown,ArrowRight","","revaluation","1","18","","",""
"html-keyboard-response","241","1040138","0.0-4.0-4.0-1.9","spark_pilot_norest","8391","4","12","Male","","","","","","","null","<div style=""font-size:60px;"">+</div>","null","fixation","","","","","","","","","19","","",""
"revaluation","242","1044150","0.0-4.0-4.0-0.10","spark_pilot_norest","8391","4","12","Male","","","false","","","","[463]","./assets/img/ocean/animals/seahorse.jpg","[""ArrowRight""]","revaluation","ocean","11","{""ArrowUp,ArrowLeft"":2,""ArrowUp,ArrowRight"":11,""ArrowDown,ArrowLeft"":8,""ArrowDown,ArrowRight"":27}","true","ArrowUp,ArrowRight","","revaluation","1","20","","",""
"html-keyboard-response","243","1044668","0.0-4.0-4.0-1.10","spark_pilot_norest","8391","4","12","Male","","","","","","","null","<div style=""font-size:60px;"">+</div>","null","fixation","","","","","","","","","21","","",""
"revaluation","244","1048701","0.0-4.0-4.0-0.11","spark_pilot_norest","8391","4","12","Male","","","false","","","","[339]","./assets/img/ocean/animals/seahorse.jpg","[""ArrowRight""]","revaluation","ocean","11","{""ArrowUp,ArrowLeft"":2,""ArrowUp,ArrowRight"":11,""ArrowDown,ArrowLeft"":8,""ArrowDown,ArrowRight"":27}","true","ArrowUp,ArrowRight","","revaluation","1","22","","",""
"html-keyboard-response","245","1049209","0.0-4.0-4.0-1.11","spark_pilot_norest","8391","4","12","Male","","","","","","","null","<div style=""font-size:60px;"">+</div>","null","fixation","","","","","","","","","23","","",""
"revaluation","246","1053230","0.0-4.0-4.0-0.12","spark_pilot_norest","8391","4","12","Male","","","false","","","","[315]","./assets/img/ocean/animals/octopus.jpg","[""ArrowRight""]","revaluation","ocean","27","{""ArrowUp,ArrowLeft"":2,""ArrowUp,ArrowRight"":11,""ArrowDown,ArrowLeft"":8,""ArrowDown,ArrowRight"":27}","true","ArrowDown,ArrowRight","","revaluation","1","24","","",""
"html-keyboard-response","247","1053744","0.0-4.0-4.0-1.12","spark_pilot_norest","8391","4","12","Male","","","","","","","null","<div style=""font-size:60px;"">+</div>","null","fixation","","","","","","","","","25","","",""
"revaluation","248","1057769","0.0-4.0-4.0-0.13","spark_pilot_norest","8391","4","12","Male","","","false","","","","[345]","./assets/img/ocean/animals/octopus.jpg","[""ArrowRight""]","revaluation","ocean","27","{""ArrowUp,ArrowLeft"":2,""ArrowUp,ArrowRight"":11,""ArrowDown,ArrowLeft"":8,""ArrowDown,ArrowRight"":27}","true","ArrowDown,ArrowRight","","revaluation","1","26","","",""
"html-keyboard-response","249","1058289","0.0-4.0-4.0-1.13","spark_pilot_norest","8391","4","12","Male","","","","","","","null","<div style=""font-size:60px;"">+</div>","null","fixation","","","","","","","","","27","","",""
"revaluation","250","1062321","0.0-4.0-4.0-0.14","spark_pilot_norest","8391","4","12","Male","","","false","","","","[344]","./assets/img/ocean/animals/seahorse.jpg","[""ArrowRight""]","revaluation","ocean","11","{""ArrowUp,ArrowLeft"":2,""ArrowUp,ArrowRight"":11,""ArrowDown,ArrowLeft"":8,""ArrowDown,ArrowRight"":27}","true","ArrowUp,ArrowRight","","revaluation","1","28","","",""
"html-keyboard-response","251","1062829","0.0-4.0-4.0-1.14","spark_pilot_norest","8391","4","12","Male","","","","","","","null","<div style=""font-size:60px;"">+</div>","null","fixation","","","","","","","","","29","","",""
"revaluation","252","1066860","0.0-4.0-4.0-0.15","spark_pilot_norest","8391","4","12","Male","","","false","","","","[348]","./assets/img/ocean/animals/octopus.jpg","[""ArrowRight""]","revaluation","ocean","27","{""ArrowUp,ArrowLeft"":2,""ArrowUp,ArrowRight"":11,""ArrowDown,ArrowLeft"":8,""ArrowDown,ArrowRight"":27}","true","ArrowDown,ArrowRight","","revaluation","1","30","","",""
"html-keyboard-response","253","1067379","0.0-4.0-4.0-1.15","spark_pilot_norest","8391","4","12","Male","","","","","","","null","<div style=""font-size:60px;"">+</div>","null","fixation","","","","","","","","","31","","",""
"revaluation","254","1071400","0.0-4.0-4.0-0.16","spark_pilot_norest","8391","4","12","Male","","","false","","","","[383]","./assets/img/ocean/animals/seahorse.jpg","[""ArrowRight""]","revaluation","ocean","11","{""ArrowUp,ArrowLeft"":2,""ArrowUp,ArrowRight"":11,""ArrowDown,ArrowLeft"":8,""ArrowDown,ArrowRight"":27}","true","ArrowUp,ArrowRight","","revaluation","1","32","","",""
"html-keyboard-response","255","1071919","0.0-4.0-4.0-1.16","spark_pilot_norest","8391","4","12","Male","","","","","","","null","<div style=""font-size:60px;"">+</div>","null","fixation","","","","","","","","","33","","",""
"revaluation","256","1075950","0.0-4.0-4.0-0.17","spark_pilot_norest","8391","4","12","Male","","","false","","","","[409]","./assets/img/ocean/animals/seahorse.jpg","[""ArrowRight""]","revaluation","ocean","11","{""ArrowUp,ArrowLeft"":2,""ArrowUp,ArrowRight"":11,""ArrowDown,ArrowLeft"":8,""ArrowDown,ArrowRight"":27}","true","ArrowUp,ArrowRight","","revaluation","1","34","","",""
"html-keyboard-response","257","1076469","0.0-4.0-4.0-1.17","spark_pilot_norest","8391","4","12","Male","","","","","","","null","<div style=""font-size:60px;"">+</div>","null","fixation","","","","","","","","","35","","",""
"learning-instructions","258","1084599","0.0-4.0-5.0-0.0","spark_pilot_norest","8391","4","12","Male","","","","","","","null","<p> You have almost finished this part of the game! </p>
            <p> We are going to ask you to make a few more choices. </p>","","instructions","","","","","","","","","","","",""
"learning-instructions","259","1100609","0.0-4.0-5.0-0.1","spark_pilot_norest","8391","4","12","Male","","","","","","","null","<p> First, you need to decide whether to go up or down. When you see each picture, use the arrow keys to make your choice. </p>
            <p><b>You will not see which animal you found, but try to get to the one that will give you the most treasure.</b></p>","","instructions","","","","","","","","","","","",""
"html-keyboard-response","260","1101628","0.0-4.0-6.0-0.0","spark_pilot_norest","8391","4","12","Male","","","","","","","null","<div style=""font-size:100px;color:red;"">Starting in...</div>","null","","","","","","","","","","","","",""
"html-keyboard-response","261","1102649","0.0-4.0-6.0-1.0","spark_pilot_norest","8391","4","12","Male","","","","","","","null","<div style=""font-size:200px;color:red;"">3</div>","null","","","","","","","","","","","","",""
"html-keyboard-response","262","1103664","0.0-4.0-6.0-2.0","spark_pilot_norest","8391","4","12","Male","","","","","","","null","<div style=""font-size:200px;color:red;"">2</div>","null","","","","","","","","","","","","",""
"html-keyboard-response","263","1104678","0.0-4.0-6.0-3.0","spark_pilot_norest","8391","4","12","Male","","","","","","","null","<div style=""font-size:200px;color:red;"">1</div>","null","","","","","","","","","","","","",""
"revaluation","264","1105360","0.0-4.0-7.0-0.0","spark_pilot_norest","8391","4","12","Male","","","false","","","","[674]","./assets/img/ocean/test/0.jpg","[""ArrowUp""]","first stage test","ocean","0","{""ArrowUp,ArrowLeft"":2,""ArrowUp,ArrowRight"":11,""ArrowDown,ArrowLeft"":8,""ArrowDown,ArrowRight"":27}","false","ArrowUp","false","revaluation","1","","","",""
"html-keyboard-response","265","1105878","0.0-4.0-7.0-1.0","spark_pilot_norest","8391","4","12","Male","","","","","","","null","<div style=""font-size:60px;"">+</div>","null","fixation","","","","","","","","","","","",""
"revaluation","266","1106499","0.0-4.0-7.0-0.1","spark_pilot_norest","8391","4","12","Male","","","false","","","","[615]","./assets/img/ocean/test/3.jpg","[""ArrowUp""]","first stage test","ocean","0","{""ArrowUp,ArrowLeft"":2,""ArrowUp,ArrowRight"":11,""ArrowDown,ArrowLeft"":8,""ArrowDown,ArrowRight"":27}","false","ArrowUp","false","revaluation","1","","","",""
"html-keyboard-response","267","1107018","0.0-4.0-7.0-1.1","spark_pilot_norest","8391","4","12","Male","","","","","","","null","<div style=""font-size:60px;"">+</div>","null","fixation","","","","","","","","","","","",""
"revaluation","268","1107513","0.0-4.0-7.0-0.2","spark_pilot_norest","8391","4","12","Male","","","false","","","","[491]","./assets/img/ocean/test/1.jpg","[""ArrowUp""]","first stage test","ocean","0","{""ArrowUp,ArrowLeft"":2,""ArrowUp,ArrowRight"":11,""ArrowDown,ArrowLeft"":8,""ArrowDown,ArrowRight"":27}","false","ArrowUp","false","revaluation","1","","","",""
"html-keyboard-response","269","1108029","0.0-4.0-7.0-1.2","spark_pilot_norest","8391","4","12","Male","","","","","","","null","<div style=""font-size:60px;"">+</div>","null","fixation","","","","","","","","","","","",""
"revaluation","270","1108558","0.0-4.0-7.0-0.3","spark_pilot_norest","8391","4","12","Male","","","false","","","","[523]","./assets/img/ocean/test/2.jpg","[""ArrowUp""]","first stage test","ocean","0","{""ArrowUp,ArrowLeft"":2,""ArrowUp,ArrowRight"":11,""ArrowDown,ArrowLeft"":8,""ArrowDown,ArrowRight"":27}","false","ArrowUp","false","revaluation","1","","","",""
"html-keyboard-response","271","1109069","0.0-4.0-7.0-1.3","spark_pilot_norest","8391","4","12","Male","","","","","","","null","<div style=""font-size:60px;"">+</div>","null","fixation","","","","","","","","","","","",""
"learning-instructions","272","1122440","0.0-4.0-8.0-0.0","spark_pilot_norest","8391","4","12","Male","","","","","","","null","<p> Now you will see the animals again and can search their chests for treasure. </p>
            <p> This time, you will not see how much treasure you earned, but you will earn more bonus money for making better choices. </p>","","instructions","","","","","","","","","","","",""
"html-keyboard-response","273","1123449","0.0-4.0-9.0-0.0","spark_pilot_norest","8391","4","12","Male","","","","","","","null","<div style=""font-size:100px;color:red;"">Starting in...</div>","null","","","","","","","","","","","","",""
"html-keyboard-response","274","1124450","0.0-4.0-9.0-1.0","spark_pilot_norest","8391","4","12","Male","","","","","","","null","<div style=""font-size:200px;color:red;"">3</div>","null","","","","","","","","","","","","",""
"html-keyboard-response","275","1125470","0.0-4.0-9.0-2.0","spark_pilot_norest","8391","4","12","Male","","","","","","","null","<div style=""font-size:200px;color:red;"">2</div>","null","","","","","","","","","","","","",""
"html-keyboard-response","276","1126490","0.0-4.0-9.0-3.0","spark_pilot_norest","8391","4","12","Male","","","","","","","null","<div style=""font-size:200px;color:red;"">1</div>","null","","","","","","","","","","","","",""
"revaluation","277","1126855","0.0-4.0-10.0-0.0","spark_pilot_norest","8391","4","12","Male","","","false","","","","[362]","./assets/img/ocean/animals/seahorse.jpg","[""ArrowRight""]","second stage test","ocean","0","{""ArrowUp,ArrowLeft"":2,""ArrowUp,ArrowRight"":11,""ArrowDown,ArrowLeft"":8,""ArrowDown,ArrowRight"":27}","true","ArrowUp,ArrowRight","","revaluation","1","","","",""
"html-keyboard-response","278","1127369","0.0-4.0-10.0-1.0","spark_pilot_norest","8391","4","12","Male","","","","","","","null","<div style=""font-size:60px;"">+</div>","null","fixation","","","","","","","","","","","",""
"revaluation","279","1127783","0.0-4.0-10.0-0.1","spark_pilot_norest","8391","4","12","Male","","","false","","","","[409]","./assets/img/ocean/animals/seahorse.jpg","[""ArrowLeft""]","second stage test","ocean","0","{""ArrowUp,ArrowLeft"":2,""ArrowUp,ArrowRight"":11,""ArrowDown,ArrowLeft"":8,""ArrowDown,ArrowRight"":27}","false","ArrowUp,ArrowLeft","","revaluation","1","","","",""
"html-keyboard-response","280","1128290","0.0-4.0-10.0-1.1","spark_pilot_norest","8391","4","12","Male","","","","","","","null","<div style=""font-size:60px;"">+</div>","null","fixation","","","","","","","","","","","",""
"revaluation","281","1128635","0.0-4.0-10.0-0.2","spark_pilot_norest","8391","4","12","Male","","","false","","","","[340]","./assets/img/ocean/animals/seahorse.jpg","[""ArrowRight""]","second stage test","ocean","0","{""ArrowUp,ArrowLeft"":2,""ArrowUp,ArrowRight"":11,""ArrowDown,ArrowLeft"":8,""ArrowDown,ArrowRight"":27}","true","ArrowUp,ArrowRight","","revaluation","1","","","",""
"html-keyboard-response","282","1129139","0.0-4.0-10.0-1.2","spark_pilot_norest","8391","4","12","Male","","","","","","","null","<div style=""font-size:60px;"">+</div>","null","fixation","","","","","","","","","","","",""
"revaluation","283","1129579","0.0-4.0-10.0-0.3","spark_pilot_norest","8391","4","12","Male","","","false","","","","[434]","./assets/img/ocean/animals/seahorse.jpg","[""ArrowRight""]","second stage test","ocean","0","{""ArrowUp,ArrowLeft"":2,""ArrowUp,ArrowRight"":11,""ArrowDown,ArrowLeft"":8,""ArrowDown,ArrowRight"":27}","true","ArrowUp,ArrowRight","","revaluation","1","","","",""
"html-keyboard-response","284","1130090","0.0-4.0-10.0-1.3","spark_pilot_norest","8391","4","12","Male","","","","","","","null","<div style=""font-size:60px;"">+</div>","null","fixation","","","","","","","","","","","",""
"revaluation","285","1130705","0.0-4.0-10.0-0.4","spark_pilot_norest","8391","4","12","Male","","","false","","","","[610]","./assets/img/ocean/animals/octopus.jpg","[""ArrowLeft""]","second stage test","ocean","0","{""ArrowUp,ArrowLeft"":2,""ArrowUp,ArrowRight"":11,""ArrowDown,ArrowLeft"":8,""ArrowDown,ArrowRight"":27}","false","ArrowDown,ArrowLeft","","revaluation","1","","","",""
"html-keyboard-response","286","1131219","0.0-4.0-10.0-1.4","spark_pilot_norest","8391","4","12","Male","","","","","","","null","<div style=""font-size:60px;"">+</div>","null","fixation","","","","","","","","","","","",""
"revaluation","287","1131734","0.0-4.0-10.0-0.5","spark_pilot_norest","8391","4","12","Male","","","false","","","","[510]","./assets/img/ocean/animals/octopus.jpg","[""ArrowRight""]","second stage test","ocean","0","{""ArrowUp,ArrowLeft"":2,""ArrowUp,ArrowRight"":11,""ArrowDown,ArrowLeft"":8,""ArrowDown,ArrowRight"":27}","true","ArrowDown,ArrowRight","","revaluation","1","","","",""
"html-keyboard-response","288","1132240","0.0-4.0-10.0-1.5","spark_pilot_norest","8391","4","12","Male","","","","","","","null","<div style=""font-size:60px;"">+</div>","null","fixation","","","","","","","","","","","",""
"revaluation","289","1132519","0.0-4.0-10.0-0.6","spark_pilot_norest","8391","4","12","Male","","","false","","","","[273]","./assets/img/ocean/animals/octopus.jpg","[""ArrowRight""]","second stage test","ocean","0","{""ArrowUp,ArrowLeft"":2,""ArrowUp,ArrowRight"":11,""ArrowDown,ArrowLeft"":8,""ArrowDown,ArrowRight"":27}","true","ArrowDown,ArrowRight","","revaluation","1","","","",""
"html-keyboard-response","290","1133029","0.0-4.0-10.0-1.6","spark_pilot_norest","8391","4","12","Male","","","","","","","null","<div style=""font-size:60px;"">+</div>","null","fixation","","","","","","","","","","","",""
"revaluation","291","1133400","0.0-4.0-10.0-0.7","spark_pilot_norest","8391","4","12","Male","","","false","","","","[365]","./assets/img/ocean/animals/octopus.jpg","[""ArrowRight""]","second stage test","ocean","0","{""ArrowUp,ArrowLeft"":2,""ArrowUp,ArrowRight"":11,""ArrowDown,ArrowLeft"":8,""ArrowDown,ArrowRight"":27}","true","ArrowDown,ArrowRight","","revaluation","1","","","",""
"html-keyboard-response","292","1133919","0.0-4.0-10.0-1.7","spark_pilot_norest","8391","4","12","Male","","","","","","","null","<div style=""font-size:60px;"">+</div>","null","fixation","","","","","","","","","","","",""
"learning-instructions","293","1141292","0.0-4.0-0.1-0.2","spark_pilot_norest","8391","4","12","Male","","","","","","","4512","<p> This time you are searching for treasure in the <b>canyon</b>.</p>","","instructions","","","","","","","","","","","",""
"learning-instructions","294","1161011","0.0-4.0-0.1-0.3","spark_pilot_norest","8391","4","12","Male","","","","","","","2451","<p><b>New</b> animals with <b>new</b> treasure chests live here. You need to explore to discover where the animal with the best treasure chest is.</p>
                    <p> Like before, once you figure out which animal has the chest with the most treasure, you should try to get to that animal and select that chest! </p>","","instructions","","","","","","","","","","","",""
"learning-instructions","295","1178292","0.0-4.0-1.1-0.1","spark_pilot_norest","8391","4","12","Male","","","","","","","2541","<p> Remember, when you see a picture of the place, use the up and down keys to <b>find an animal</b>.</p>
            <p> When you encounter an animal, you should use the left and right keys to <b>select a treasure chest</b>.</p>
            <p> Don't forget to look out for the robber! </p>","","instructions","","","","","","","","","","","",""
"revaluation","296","1184339","0.0-4.0-2.1-0.50","spark_pilot_norest","8391","4","12","Male","","","false","","","","[1414,768]","./assets/img/canyon/memory/11.jpg","[""ArrowUp"",""ArrowLeft""]","value training","canyon","23","{""ArrowUp,ArrowLeft"":23,""ArrowUp,ArrowRight"":10,""ArrowDown,ArrowLeft"":8,""ArrowDown,ArrowRight"":30}","false","ArrowUp,ArrowLeft","false","original","2","0","","",""
"html-keyboard-response","297","1184859","0.0-4.0-2.1-1.50","spark_pilot_norest","8391","4","12","Male","","","","","","","null","<div style=""font-size:60px;"">+</div>","null","fixation","","","","","","","","","1","","",""
"revaluation","298","1190900","0.0-4.0-2.1-0.51","spark_pilot_norest","8391","4","12","Male","","","false","","","","[479,683]","./assets/img/canyon/memory/5.jpg","[""ArrowUp"",""ArrowRight""]","value training","canyon","10","{""ArrowUp,ArrowLeft"":23,""ArrowUp,ArrowRight"":10,""ArrowDown,ArrowLeft"":8,""ArrowDown,ArrowRight"":30}","false","ArrowUp,ArrowRight","false","original","2","2","","",""
"html-keyboard-response","299","1191420","0.0-4.0-2.1-1.51","spark_pilot_norest","8391","4","12","Male","","","","","","","null","<div style=""font-size:60px;"">+</div>","null","fixation","","","","","","","","","3","","",""
"revaluation","300","1197469","0.0-4.0-2.1-0.52","spark_pilot_norest","8391","4","12","Male","","","false","","","","[611,769]","./assets/img/canyon/memory/18.jpg","[""ArrowUp"",""ArrowRight""]","value training","canyon","10","{""ArrowUp,ArrowLeft"":23,""ArrowUp,ArrowRight"":10,""ArrowDown,ArrowLeft"":8,""ArrowDown,ArrowRight"":30}","false","ArrowUp,ArrowRight","false","original","2","4","","",""
"html-keyboard-response","301","1197980","0.0-4.0-2.1-1.52","spark_pilot_norest","8391","4","12","Male","","","","","","","null","<div style=""font-size:60px;"">+</div>","null","fixation","","","","","","","","","5","","",""
"revaluation","302","1204010","0.0-4.0-2.1-0.53","spark_pilot_norest","8391","4","12","Male","","","false","","","","[638,486]","./assets/img/canyon/memory/13.jpg","[""ArrowUp"",""ArrowLeft""]","value training","canyon","23","{""ArrowUp,ArrowLeft"":23,""ArrowUp,ArrowRight"":10,""ArrowDown,ArrowLeft"":8,""ArrowDown,ArrowRight"":30}","false","ArrowUp,ArrowLeft","false","original","2","6","","",""
"html-keyboard-response","303","1204528","0.0-4.0-2.1-1.53","spark_pilot_norest","8391","4","12","Male","","","","","","","null","<div style=""font-size:60px;"">+</div>","null","fixation","","","","","","","","","7","","",""
"revaluation","304","1210581","0.0-4.0-2.1-0.54","spark_pilot_norest","8391","4","12","Male","","","false","","","","[438,342]","./assets/img/canyon/memory/9.jpg","[""ArrowUp"",""ArrowLeft""]","value training","canyon","23","{""ArrowUp,ArrowLeft"":23,""ArrowUp,ArrowRight"":10,""ArrowDown,ArrowLeft"":8,""ArrowDown,ArrowRight"":30}","false","ArrowUp,ArrowLeft","false","original","2","8","","",""
"html-keyboard-response","305","1211099","0.0-4.0-2.1-1.54","spark_pilot_norest","8391","4","12","Male","","","","","","","null","<div style=""font-size:60px;"">+</div>","null","fixation","","","","","","","","","9","","",""
"revaluation","306","1217129","0.0-4.0-2.1-0.55","spark_pilot_norest","8391","4","12","Male","","","false","","","","[378,452]","./assets/img/canyon/memory/27.jpg","[""ArrowUp"",""ArrowLeft""]","value training","canyon","23","{""ArrowUp,ArrowLeft"":23,""ArrowUp,ArrowRight"":10,""ArrowDown,ArrowLeft"":8,""ArrowDown,ArrowRight"":30}","false","ArrowUp,ArrowLeft","false","original","2","10","","",""
"html-keyboard-response","307","1217649","0.0-4.0-2.1-1.55","spark_pilot_norest","8391","4","12","Male","","","","","","","null","<div style=""font-size:60px;"">+</div>","null","fixation","","","","","","","","","11","","",""
"revaluation","308","1223690","0.0-4.0-2.1-0.56","spark_pilot_norest","8391","4","12","Male","","","false","","","","[324,368]","./assets/img/canyon/memory/12.jpg","[""ArrowUp"",""ArrowLeft""]","value training","canyon","23","{""ArrowUp,ArrowLeft"":23,""ArrowUp,ArrowRight"":10,""ArrowDown,ArrowLeft"":8,""ArrowDown,ArrowRight"":30}","false","ArrowUp,ArrowLeft","false","original","2","12","","",""
"html-keyboard-response","309","1224209","0.0-4.0-2.1-1.56","spark_pilot_norest","8391","4","12","Male","","","","","","","null","<div style=""font-size:60px;"">+</div>","null","fixation","","","","","","","","","13","","",""
"revaluation","310","1228240","0.0-4.0-2.1-0.57","spark_pilot_norest","8391","4","12","Male","","","false","","","","[602]","./assets/img/canyon/catch/1.jpg","[""ArrowUp""]","value training","canyon","-10","{""ArrowUp,ArrowLeft"":23,""ArrowUp,ArrowRight"":10,""ArrowDown,ArrowLeft"":8,""ArrowDown,ArrowRight"":30}","false","ArrowUp","true","original","2","14","","",""
"html-keyboard-response","311","1228759","0.0-4.0-2.1-1.57","spark_pilot_norest","8391","4","12","Male","","","","","","","null","<div style=""font-size:60px;"">+</div>","null","fixation","","","","","","","","","15","","",""
"revaluation","312","1234780","0.0-4.0-2.1-0.58","spark_pilot_norest","8391","4","12","Male","","","false","","","","[518,692]","./assets/img/canyon/memory/16.jpg","[""ArrowUp"",""ArrowLeft""]","value training","canyon","23","{""ArrowUp,ArrowLeft"":23,""ArrowUp,ArrowRight"":10,""ArrowDown,ArrowLeft"":8,""ArrowDown,ArrowRight"":30}","false","ArrowUp,ArrowLeft","false","original","2","16","","",""
"html-keyboard-response","313","1235299","0.0-4.0-2.1-1.58","spark_pilot_norest","8391","4","12","Male","","","","","","","null","<div style=""font-size:60px;"">+</div>","null","fixation","","","","","","","","","17","","",""
"revaluation","314","1241350","0.0-4.0-2.1-0.59","spark_pilot_norest","8391","4","12","Male","","","false","","","","[647,565]","./assets/img/canyon/memory/6.jpg","[""ArrowUp"",""ArrowLeft""]","value training","canyon","23","{""ArrowUp,ArrowLeft"":23,""ArrowUp,ArrowRight"":10,""ArrowDown,ArrowLeft"":8,""ArrowDown,ArrowRight"":30}","false","ArrowUp,ArrowLeft","false","original","2","18","","",""
"html-keyboard-response","315","1241869","0.0-4.0-2.1-1.59","spark_pilot_norest","8391","4","12","Male","","","","","","","null","<div style=""font-size:60px;"">+</div>","null","fixation","","","","","","","","","19","","",""
"revaluation","316","1247920","0.0-4.0-2.1-0.60","spark_pilot_norest","8391","4","12","Male","","","false","","","","[668,713]","./assets/img/canyon/memory/10.jpg","[""ArrowUp"",""ArrowLeft""]","value training","canyon","23","{""ArrowUp,ArrowLeft"":23,""ArrowUp,ArrowRight"":10,""ArrowDown,ArrowLeft"":8,""ArrowDown,ArrowRight"":30}","false","ArrowUp,ArrowLeft","false","original","2","20","","",""
