"trial_type","trial_index","time_elapsed","internal_node_id","task_version","subject_id","assigned_condition","age","gender","success","timeout","failed_images","failed_audio","failed_video","browser_interaction","rt","stimulus","response","task_part","environment","score","rewardMap","correct","fullState","isCatch","condition","order","trial_num","key_press","ground_truth","bonus"
"pavlovia","0","1333","0.0-0.0","spark_pilot_norest","8200","2","19","Male","","","","","","","","","","","","","","","","","","","","","",""
"preload","1","25436","0.0-1.0","spark_pilot_norest","8200","2","19","Male","true","false","[]","[]","[]","[{""event"":""fullscreenenter"",""trial"":2,""time"":27516}]","","","","","","","","","","","","","","","",""
"fullscreen","2","28507","0.0-2.0","spark_pilot_norest","8200","2","19","Male","true","","","","","","","","","","","","","","","","","","","","",""
"audio-button-response","3","33449","0.0-3.0-0.0-0.0","spark_pilot_norest","8200","2","19","Male","","","","","","","4766","./assets/audio/audiotest/turtle.mp3","0","audio_test","","","","","","","","","","","",""
"audio-button-response","4","38257","0.0-3.0-0.1-0.1","spark_pilot_norest","8200","2","19","Male","","","","","","","3802","./assets/audio/audiotest/turtle.mp3","4","audio_test","","","","","","","","","","","",""
"audio-button-response","5","40556","0.0-3.0-0.2-0.2","spark_pilot_norest","8200","2","19","Male","","","","","","","1295","./assets/audio/audiotest/turtle.mp3","2","audio_test","","","","","","","","","","","",""
"learning-instructions","6","52736","0.0-3.0-1.0-0.0","spark_pilot_norest","8200","2","19","Male","","","","","","","5173.800000011921","<p> Welcome! Please remember to stay in fullscreen mode and don't click away from the experiment. </p>","","instructions","","","","","","","","","","","",""
"learning-instructions","7","65023","0.0-3.0-1.0-0.1","spark_pilot_norest","8200","2","19","Male","","","","","","","2504.9000000059605","<p> Today you will be playing a game to earn treasure. </p>
            <p> At the end of the experiment, you will earn a bonus based on how much treasure you find. </p>
            <img src='./assets/img/instructions/treasure.jpg' class='instructions-image'>","","instructions","","","","","","","","","","","",""
"learning-instructions","8","74375","0.0-3.0-1.0-0.2","spark_pilot_norest","8200","2","19","Male","","","","","","","1026.300000011921","<p> Animals have hidden treasure in treasure chests. </p>
            <p> You need to first find an animal and then choose which of their treasure chests to search. </p>
            <img src='./assets/img/space/animals/cat.jpg' class='instructions-image'>","","instructions","","","","","","","","","","","",""
"learning-instructions","9","88752","0.0-3.0-1.0-0.3","spark_pilot_norest","8200","2","19","Male","","","","","","","1167.4000000059605","<p> In each round, you will search for treasure in a different place. In the real game, there will be two rounds. </p>
            <p> You will begin with a separate, practice round where you will search for treasure in outer space. </p>
            <img src='./assets/img/space/0.jpg' class='instructions-image'>","","instructions","","","","","","","","","","","",""
"learning-instructions","10","101171","0.0-3.0-1.0-0.4","spark_pilot_norest","8200","2","19","Male","","","","","","","954.4000000059605","<p> On every turn, you will see a picture of the place that you are in, but the specific image may be different each time. </p>
            <p> For example, both of these images mean you are in outer space. </p>
            <img src='./assets/img/instructions/outerspace.jpg' class='instructions-image'>","","instructions","","","","","","","","","","","",""
"learning-instructions","11","110325","0.0-3.0-1.0-0.5","spark_pilot_norest","8200","2","19","Male","","","","","","","1275.9000000059605","<p> You need to decide which direction to travel in. </p>
            <p> You can choose between going <b>up or down</b> by using the arrow keys. </p>
            <img src='./assets/img/instructions/updown.jpg' class='instructions-image'>","","instructions","","","","","","","","","","","",""
"learning-instructions","12","119715","0.0-3.0-1.0-0.6","spark_pilot_norest","8200","2","19","Male","","","","","","","535.7000000178814","<p> You will have <b>2 seconds</b> to make your choice. </p>
            <p> If you do not make a choice within 2 seconds, you will not find an animal or earn treasure. </p>
            <img src='./assets/img/instructions/2seconds.jpg' class='instructions-image'>","","instructions","","","","","","","","","","","",""
"learning-instructions","13","128606","0.0-3.0-1.0-0.7","spark_pilot_norest","8200","2","19","Male","","","","","","","1805.9000000059605","<p> Let’s try practicing that now! </p>
            <p> When you see a picture of the place you are in, press the <b>up</b> key to travel up. </p>
            <img src='./assets/img/instructions/pressUp.jpg' class='instructions-image'>","","instructions","","","","","","","","","","","",""
"revaluation","14","132634","0.0-3.0-2.0-0.0","spark_pilot_norest","8200","2","19","Male","","false","","","","","[730.0999999940395]","./assets/img/space/0.jpg","[""ArrowUp""]","first stage practice","space","0","null","null","ArrowUp","false","","","","","",""
"html-keyboard-response","15","133137","0.0-3.0-2.0-1.0","spark_pilot_norest","8200","2","19","Male","","","","","","","null","<div style=""font-size:60px;"">+</div>","null","fixation","","","","","","","","","","","",""
"revaluation","16","137156","0.0-3.0-2.0-0.1","spark_pilot_norest","8200","2","19","Male","","true","","","","","[]","./assets/img/space/1.jpg","[]","first stage practice","space","-5","null","null","","false","","","","","",""
"html-keyboard-response","17","137665","0.0-3.0-2.0-1.1","spark_pilot_norest","8200","2","19","Male","","","","","","","null","<div style=""font-size:60px;"">+</div>","null","fixation","","","","","","","","","","","",""
"revaluation","18","141680","0.0-3.0-2.0-0.2","spark_pilot_norest","8200","2","19","Male","","false","","","","","[511.09999999403954]","./assets/img/space/2.jpg","[""ArrowUp""]","first stage practice","space","0","null","null","ArrowUp","false","","","","","",""
"html-keyboard-response","19","142185","0.0-3.0-2.0-1.2","spark_pilot_norest","8200","2","19","Male","","","","","","","null","<div style=""font-size:60px;"">+</div>","null","fixation","","","","","","","","","","","",""
"learning-instructions","20","147943","0.0-3.0-3.0-0.0","spark_pilot_norest","8200","2","19","Male","","","","","","","1016.5","<p> Great job! Now try pressing the <b>down</b> key to travel down. </p>
            <img src='./assets/img/instructions/pressDown.jpg' class='instructions-image'>","","instructions","","","","","","","","","","","",""
"revaluation","21","151965","0.0-3.0-4.0-0.0","spark_pilot_norest","8200","2","19","Male","","false","","","","","[433]","./assets/img/space/3.jpg","[""ArrowDown""]","first stage practice","space","0","null","null","ArrowDown","false","","","","","",""
"html-keyboard-response","22","152474","0.0-3.0-4.0-1.0","spark_pilot_norest","8200","2","19","Male","","","","","","","null","<div style=""font-size:60px;"">+</div>","null","fixation","","","","","","","","","","","",""
"revaluation","23","156484","0.0-3.0-4.0-0.1","spark_pilot_norest","8200","2","19","Male","","false","","","","","[684.7000000178814]","./assets/img/space/4.jpg","[""ArrowDown""]","first stage practice","space","0","null","null","ArrowDown","false","","","","","",""
"html-keyboard-response","24","156994","0.0-3.0-4.0-1.1","spark_pilot_norest","8200","2","19","Male","","","","","","","null","<div style=""font-size:60px;"">+</div>","null","fixation","","","","","","","","","","","",""
"revaluation","25","161011","0.0-3.0-4.0-0.2","spark_pilot_norest","8200","2","19","Male","","false","","","","","[237.09999999403954]","./assets/img/space/5.jpg","[""ArrowDown""]","first stage practice","space","0","null","null","ArrowDown","false","","","","","",""
"html-keyboard-response","26","161513","0.0-3.0-4.0-1.2","spark_pilot_norest","8200","2","19","Male","","","","","","","null","<div style=""font-size:60px;"">+</div>","null","fixation","","","","","","","","","","","",""
"learning-instructions","27","173105","0.0-3.0-5.0-0.0","spark_pilot_norest","8200","2","19","Male","","","","","","","1691.0999999940395","<p> The animals don’t move, so the animal in the upper part of a place will stay in the upper part of a place, and the animal in the lower part of a place will stay in the lower part of a place. </p>","","instructions","","","","","","","","","","","",""
"learning-instructions","28","182905","0.0-3.0-5.0-0.1","spark_pilot_norest","8200","2","19","Male","","","","","","","625.6999999880791","<p> Each animal has two treasure chests for you to choose from. </p>
            <p> The amount of treasure in each chest can range from <b> 0 to 40 pieces.</b></p>","","instructions","","","","","","","","","","","",""
"learning-instructions","29","195731","0.0-3.0-5.0-0.2","spark_pilot_norest","8200","2","19","Male","","","","","","","1583.9000000059605","<p> You should decide which chest to search for treasure by using the <b>left</b> and <b>right</b> arrow keys. </p>
            <p><b> Pay attention to which animal is on the screen, as the animals have different treasure chests. </b></p>
            <img src='./assets/img/instructions/leftright.jpg' class='instructions-image'>","","instructions","","","","","","","","","","","",""
"learning-instructions","30","202997","0.0-3.0-5.0-0.3","spark_pilot_norest","8200","2","19","Male","","","","","","","863.6999999880791","<p> Let’s try practicing that now. </p>
            <p> When you see an animal, choose which chest to search for treasure. </p>
            <img src='./assets/img/instructions/chooseChest.jpg' class='instructions-image'>","","instructions","","","","","","","","","","","",""
"revaluation","31","207016","0.0-3.0-6.0-0.0","spark_pilot_norest","8200","2","19","Male","","false","","","","","[351.7000000178814]","./assets/img/space/animals/cat.jpg","[""ArrowLeft""]","second stage practice","space","3","{""ArrowUp,ArrowLeft"":3,""ArrowUp,ArrowRight"":36,""ArrowDown,ArrowLeft"":15,""ArrowDown,ArrowRight"":23}","false","ArrowUp,ArrowLeft","","","","","","",""
"html-keyboard-response","32","207518","0.0-3.0-6.0-1.0","spark_pilot_norest","8200","2","19","Male","","","","","","","null","<div style=""font-size:60px;"">+</div>","null","fixation","","","","","","","","","","","",""
"revaluation","33","211533","0.0-3.0-6.0-0.1","spark_pilot_norest","8200","2","19","Male","","false","","","","","[442.5]","./assets/img/space/animals/rabbit.jpg","[""ArrowRight""]","second stage practice","space","23","{""ArrowUp,ArrowLeft"":3,""ArrowUp,ArrowRight"":36,""ArrowDown,ArrowLeft"":15,""ArrowDown,ArrowRight"":23}","true","ArrowDown,ArrowRight","","","","","","",""
"html-keyboard-response","34","212046","0.0-3.0-6.0-1.1","spark_pilot_norest","8200","2","19","Male","","","","","","","null","<div style=""font-size:60px;"">+</div>","null","fixation","","","","","","","","","","","",""
"revaluation","35","216059","0.0-3.0-6.0-0.2","spark_pilot_norest","8200","2","19","Male","","false","","","","","[424.30000001192093]","./assets/img/space/animals/cat.jpg","[""ArrowLeft""]","second stage practice","space","3","{""ArrowUp,ArrowLeft"":3,""ArrowUp,ArrowRight"":36,""ArrowDown,ArrowLeft"":15,""ArrowDown,ArrowRight"":23}","false","ArrowUp,ArrowLeft","","","","","","",""
"html-keyboard-response","36","216562","0.0-3.0-6.0-1.2","spark_pilot_norest","8200","2","19","Male","","","","","","","null","<div style=""font-size:60px;"">+</div>","null","fixation","","","","","","","","","","","",""
"revaluation","37","220580","0.0-3.0-6.0-0.3","spark_pilot_norest","8200","2","19","Male","","false","","","","","[627.8999999761581]","./assets/img/space/animals/rabbit.jpg","[""ArrowRight""]","second stage practice","space","23","{""ArrowUp,ArrowLeft"":3,""ArrowUp,ArrowRight"":36,""ArrowDown,ArrowLeft"":15,""ArrowDown,ArrowRight"":23}","true","ArrowDown,ArrowRight","","","","","","",""
"html-keyboard-response","38","221084","0.0-3.0-6.0-1.3","spark_pilot_norest","8200","2","19","Male","","","","","","","null","<div style=""font-size:60px;"">+</div>","null","fixation","","","","","","","","","","","",""
"learning-instructions","39","240012","0.0-3.0-7.0-0.0","spark_pilot_norest","8200","2","19","Male","","","","","","","2038.8999999761581","<p> Great job. Now let’s try putting it together. </p>
            <p> On each turn, you will first see a picture to remind you of the place you are in, and you need to choose whether to go up or down. </p>
            <p> Then you will see an animal and choose which of its chests to search for treasure. </p>","","instructions","","","","","","","","","","","",""
"learning-instructions","40","249187","0.0-3.0-7.0-0.1","spark_pilot_norest","8200","2","19","Male","","","","","","","880.5","<p> When you choose whether to go up or down, try to go to the animal with the chest with the most treasure. </p>
            <p> Try practicing that now! </p>","","instructions","","","","","","","","","","","",""
"revaluation","41","255212","0.0-3.0-8.0-0.0","spark_pilot_norest","8200","2","19","Male","","false","","","","","[1568.2000000178814,600.7000000178814]","./assets/img/space/6.jpg","[""ArrowDown"",""ArrowLeft""]","full practice","space","15","{""ArrowUp,ArrowLeft"":3,""ArrowUp,ArrowRight"":36,""ArrowDown,ArrowLeft"":15,""ArrowDown,ArrowRight"":23}","false","ArrowDown,ArrowLeft","false","","","","","",""
"html-keyboard-response","42","255717","0.0-3.0-8.0-1.0","spark_pilot_norest","8200","2","19","Male","","","","","","","null","<div style=""font-size:60px;"">+</div>","null","fixation","","","","","","","","","","","",""
"revaluation","43","261742","0.0-3.0-8.0-0.1","spark_pilot_norest","8200","2","19","Male","","false","","","","","[823.5999999940395,290.90000000596046]","./assets/img/space/7.jpg","[""ArrowUp"",""ArrowRight""]","full practice","space","36","{""ArrowUp,ArrowLeft"":3,""ArrowUp,ArrowRight"":36,""ArrowDown,ArrowLeft"":15,""ArrowDown,ArrowRight"":23}","true","ArrowUp,ArrowRight","false","","","","","",""
"html-keyboard-response","44","262254","0.0-3.0-8.0-1.1","spark_pilot_norest","8200","2","19","Male","","","","","","","null","<div style=""font-size:60px;"">+</div>","null","fixation","","","","","","","","","","","",""
"revaluation","45","268279","0.0-3.0-8.0-0.2","spark_pilot_norest","8200","2","19","Male","","false","","","","","[476.19999998807907,523.9000000059605]","./assets/img/space/8.jpg","[""ArrowUp"",""ArrowLeft""]","full practice","space","3","{""ArrowUp,ArrowLeft"":3,""ArrowUp,ArrowRight"":36,""ArrowDown,ArrowLeft"":15,""ArrowDown,ArrowRight"":23}","false","ArrowUp,ArrowLeft","false","","","","","",""
"html-keyboard-response","46","268789","0.0-3.0-8.0-1.2","spark_pilot_norest","8200","2","19","Male","","","","","","","null","<div style=""font-size:60px;"">+</div>","null","fixation","","","","","","","","","","","",""
"revaluation","47","274822","0.0-3.0-8.0-0.3","spark_pilot_norest","8200","2","19","Male","","false","","","","","[1014.7999999821186,550.4000000059605]","./assets/img/space/9.jpg","[""ArrowUp"",""ArrowRight""]","full practice","space","36","{""ArrowUp,ArrowLeft"":3,""ArrowUp,ArrowRight"":36,""ArrowDown,ArrowLeft"":15,""ArrowDown,ArrowRight"":23}","true","ArrowUp,ArrowRight","false","","","","","",""
"html-keyboard-response","48","275332","0.0-3.0-8.0-1.3","spark_pilot_norest","8200","2","19","Male","","","","","","","null","<div style=""font-size:60px;"">+</div>","null","fixation","","","","","","","","","","","",""
"revaluation","49","281358","0.0-3.0-8.0-0.4","spark_pilot_norest","8200","2","19","Male","","false","","","","","[372,290.90000000596046]","./assets/img/space/10.jpg","[""ArrowUp"",""ArrowLeft""]","full practice","space","3","{""ArrowUp,ArrowLeft"":3,""ArrowUp,ArrowRight"":36,""ArrowDown,ArrowLeft"":15,""ArrowDown,ArrowRight"":23}","false","ArrowUp,ArrowLeft","false","","","","","",""
"html-keyboard-response","50","281869","0.0-3.0-8.0-1.4","spark_pilot_norest","8200","2","19","Male","","","","","","","null","<div style=""font-size:60px;"">+</div>","null","fixation","","","","","","","","","","","",""
"learning-instructions","51","294939","0.0-3.0-9.0-0.0","spark_pilot_norest","8200","2","19","Male","","","","","","","2602","<p> One last thing: sometimes, you will see a robber. The robber can be anywhere in the picture. </p>
            <p> If you do not stop them, you will lose treasure. </p>
            <img src='./assets/img/instructions/robber.jpg' class='instructions-image'>","","instructions","","","","","","","","","","","",""
"learning-instructions","52","303840","0.0-3.0-9.0-0.1","spark_pilot_norest","8200","2","19","Male","","","","","","","1692","<p> If you see the robber, you should <b>press the space bar</b> rather than using the arrow keys. </p>
            <p> Try practicing that now! </p>","","instructions","","","","","","","","","","","",""
"revaluation","53","307849","0.0-3.0-10.0-0.0","spark_pilot_norest","8200","2","19","Male","","false","","","","","[894.3000000119209]","./assets/img/space/catch/0.jpg","[""spaceBar""]","catch practice","space","0","{""ArrowUp,ArrowLeft"":3,""ArrowUp,ArrowRight"":36,""ArrowDown,ArrowLeft"":15,""ArrowDown,ArrowRight"":23}","true","spaceBar","true","","","","","",""
"html-keyboard-response","54","308354","0.0-3.0-10.0-1.0","spark_pilot_norest","8200","2","19","Male","","","","","","","null","<div style=""font-size:60px;"">+</div>","null","fixation","","","","","","","","","","","",""
"revaluation","55","312375","0.0-3.0-10.0-0.1","spark_pilot_norest","8200","2","19","Male","","false","","","","","[364.59999999403954]","./assets/img/space/catch/1.jpg","[""spaceBar""]","catch practice","space","0","{""ArrowUp,ArrowLeft"":3,""ArrowUp,ArrowRight"":36,""ArrowDown,ArrowLeft"":15,""ArrowDown,ArrowRight"":23}","true","spaceBar","true","","","","","",""
"html-keyboard-response","56","312885","0.0-3.0-10.0-1.1","spark_pilot_norest","8200","2","19","Male","","","","","","","null","<div style=""font-size:60px;"">+</div>","null","fixation","","","","","","","","","","","",""
"revaluation","57","316903","0.0-3.0-10.0-0.2","spark_pilot_norest","8200","2","19","Male","","false","","","","","[325.5]","./assets/img/space/catch/2.jpg","[""spaceBar""]","catch practice","space","0","{""ArrowUp,ArrowLeft"":3,""ArrowUp,ArrowRight"":36,""ArrowDown,ArrowLeft"":15,""ArrowDown,ArrowRight"":23}","true","spaceBar","true","","","","","",""
"html-keyboard-response","58","317413","0.0-3.0-10.0-1.2","spark_pilot_norest","8200","2","19","Male","","","","","","","null","<div style=""font-size:60px;"">+</div>","null","fixation","","","","","","","","","","","",""
"learning-instructions","59","323891","0.0-3.0-11.0-0.0-0.0","spark_pilot_norest","8200","2","19","Male","","","","","","","1223.5999999940395","<p> Now, you will practice a shortened version of the game to get a sense of how it all fits together. </p>","","instructions","","","","","","","","","","","",""
"learning-instructions","60","328186","0.0-3.0-11.0-0.0-0.1","spark_pilot_norest","8200","2","19","Male","","","","","","","1087.2000000178814","<p>This time you are searching for treasure in outer space.</p>","","instructions","","","","","","","","","","","",""
"learning-instructions","61","344076","0.0-3.0-11.0-1.0-0.0","spark_pilot_norest","8200","2","19","Male","","","","","","","1044.300000011921","<p> Remember, when you see a picture of the place, use the up and down keys to <b>find an animal</b>.</p>
            <p> When you encounter an animal, you should use the left and right keys to <b>select a treasure chest</b>.</p>
            <p> Don't forget to look out for the robber! </p>","","instructions","","","","","","","","","","","",""
"revaluation","62","350102","0.0-3.0-11.0-2.0-0.0","spark_pilot_norest","8200","2","19","Male","","false","","","","","[1084.800000011921,590.0999999940395]","./assets/img/space/11.jpg","[""ArrowUp"",""ArrowLeft""]","practice block","space","3","{""ArrowUp,ArrowLeft"":3,""ArrowUp,ArrowRight"":36,""ArrowDown,ArrowLeft"":15,""ArrowDown,ArrowRight"":23}","false","ArrowUp,ArrowLeft","false","","","","","",""
"html-keyboard-response","63","350606","0.0-3.0-11.0-2.0-1.0","spark_pilot_norest","8200","2","19","Male","","","","","","","null","<div style=""font-size:60px;"">+</div>","null","fixation","","","","","","","","","","","",""
"revaluation","64","356628","0.0-3.0-11.0-2.0-0.1","spark_pilot_norest","8200","2","19","Male","","false","","","","","[667.2000000178814,391.30000001192093]","./assets/img/space/12.jpg","[""ArrowDown"",""ArrowRight""]","practice block","space","23","{""ArrowUp,ArrowLeft"":3,""ArrowUp,ArrowRight"":36,""ArrowDown,ArrowLeft"":15,""ArrowDown,ArrowRight"":23}","false","ArrowDown,ArrowRight","false","","","","","",""
"html-keyboard-response","65","357133","0.0-3.0-11.0-2.0-1.1","spark_pilot_norest","8200","2","19","Male","","","","","","","null","<div style=""font-size:60px;"">+</div>","null","fixation","","","","","","","","","","","",""
"revaluation","66","363157","0.0-3.0-11.0-2.0-0.2","spark_pilot_norest","8200","2","19","Male","","false","","","","","[1307.2000000178814,666]","./assets/img/space/13.jpg","[""ArrowUp"",""ArrowLeft""]","practice block","space","3","{""ArrowUp,ArrowLeft"":3,""ArrowUp,ArrowRight"":36,""ArrowDown,ArrowLeft"":15,""ArrowDown,ArrowRight"":23}","false","ArrowUp,ArrowLeft","false","","","","","",""
"html-keyboard-response","67","363662","0.0-3.0-11.0-2.0-1.2","spark_pilot_norest","8200","2","19","Male","","","","","","","null","<div style=""font-size:60px;"">+</div>","null","fixation","","","","","","","","","","","",""
"revaluation","68","369687","0.0-3.0-11.0-2.0-0.3","spark_pilot_norest","8200","2","19","Male","","false","","","","","[1237.4000000059605,292.59999999403954]","./assets/img/space/14.jpg","[""ArrowDown"",""ArrowRight""]","practice block","space","23","{""ArrowUp,ArrowLeft"":3,""ArrowUp,ArrowRight"":36,""ArrowDown,ArrowLeft"":15,""ArrowDown,ArrowRight"":23}","false","ArrowDown,ArrowRight","false","","","","","",""
"html-keyboard-response","69","370199","0.0-3.0-11.0-2.0-1.3","spark_pilot_norest","8200","2","19","Male","","","","","","","null","<div style=""font-size:60px;"">+</div>","null","fixation","","","","","","","","","","","",""
"revaluation","70","376222","0.0-3.0-11.0-2.0-0.4","spark_pilot_norest","8200","2","19","Male","","false","","","","","[971.3000000119209,928.0999999940395]","./assets/img/space/11.jpg","[""ArrowUp"",""ArrowRight""]","practice block","space","36","{""ArrowUp,ArrowLeft"":3,""ArrowUp,ArrowRight"":36,""ArrowDown,ArrowLeft"":15,""ArrowDown,ArrowRight"":23}","true","ArrowUp,ArrowRight","false","","","","","",""
"html-keyboard-response","71","376726","0.0-3.0-11.0-2.0-1.4","spark_pilot_norest","8200","2","19","Male","","","","","","","null","<div style=""font-size:60px;"">+</div>","null","fixation","","","","","","","","","","","",""
"revaluation","72","382752","0.0-3.0-11.0-2.0-0.5","spark_pilot_norest","8200","2","19","Male","","false","","","","","[477.60000002384186,458.2000000178814]","./assets/img/space/12.jpg","[""ArrowUp"",""ArrowRight""]","practice block","space","36","{""ArrowUp,ArrowLeft"":3,""ArrowUp,ArrowRight"":36,""ArrowDown,ArrowLeft"":15,""ArrowDown,ArrowRight"":23}","true","ArrowUp,ArrowRight","false","","","","","",""
"html-keyboard-response","73","383262","0.0-3.0-11.0-2.0-1.5","spark_pilot_norest","8200","2","19","Male","","","","","","","null","<div style=""font-size:60px;"">+</div>","null","fixation","","","","","","","","","","","",""
"revaluation","74","389289","0.0-3.0-11.0-2.0-0.6","spark_pilot_norest","8200","2","19","Male","","false","","","","","[1010.1999999880791,592.3999999761581]","./assets/img/space/13.jpg","[""ArrowUp"",""ArrowRight""]","practice block","space","36","{""ArrowUp,ArrowLeft"":3,""ArrowUp,ArrowRight"":36,""ArrowDown,ArrowLeft"":15,""ArrowDown,ArrowRight"":23}","true","ArrowUp,ArrowRight","false","","","","","",""
"html-keyboard-response","75","389800","0.0-3.0-11.0-2.0-1.6","spark_pilot_norest","8200","2","19","Male","","","","","","","null","<div style=""font-size:60px;"">+</div>","null","fixation","","","","","","","","","","","",""
"revaluation","76","395825","0.0-3.0-11.0-2.0-0.7","spark_pilot_norest","8200","2","19","Male","","false","","","","","[1232.199999988079,317.30000001192093]","./assets/img/space/14.jpg","[""ArrowDown"",""ArrowRight""]","practice block","space","23","{""ArrowUp,ArrowLeft"":3,""ArrowUp,ArrowRight"":36,""ArrowDown,ArrowLeft"":15,""ArrowDown,ArrowRight"":23}","false","ArrowDown,ArrowRight","false","","","","","",""
"html-keyboard-response","77","396336","0.0-3.0-11.0-2.0-1.7","spark_pilot_norest","8200","2","19","Male","","","","","","","null","<div style=""font-size:60px;"">+</div>","null","fixation","","","","","","","","","","","",""
"revaluation","78","400353","0.0-3.0-11.0-2.0-0.8","spark_pilot_norest","8200","2","19","Male","","false","","","","","[749.1000000238419]","./assets/img/space/catch/3.jpg","[""spaceBar""]","practice block","space","0","{""ArrowUp,ArrowLeft"":3,""ArrowUp,ArrowRight"":36,""ArrowDown,ArrowLeft"":15,""ArrowDown,ArrowRight"":23}","true","spaceBar","true","","","","","",""
"html-keyboard-response","79","400864","0.0-3.0-11.0-2.0-1.8","spark_pilot_norest","8200","2","19","Male","","","","","","","null","<div style=""font-size:60px;"">+</div>","null","fixation","","","","","","","","","","","",""
"learning-instructions","80","418693","0.0-3.0-11.0-3.0-0.0","spark_pilot_norest","8200","2","19","Male","","","","","","","4604.4000000059605","<p> Now, you will travel with a friend who will choose whether you go up or down first. </p>
            <p> On these turns, you will just see the animal that they found. You will still get to choose which chest to search for treasure.</p>","","instructions","","","","","","","","","","","",""
"revaluation","81","422711","0.0-3.0-11.0-4.0-0.0","spark_pilot_norest","8200","2","19","Male","","false","","","","","[1025]","./assets/img/space/animals/cat.jpg","[""ArrowRight""]","practice block","space","36","{""ArrowUp,ArrowLeft"":3,""ArrowUp,ArrowRight"":36,""ArrowDown,ArrowLeft"":15,""ArrowDown,ArrowRight"":23}","true","ArrowUp,ArrowRight","","","","","","",""
"html-keyboard-response","82","423216","0.0-3.0-11.0-4.0-1.0","spark_pilot_norest","8200","2","19","Male","","","","","","","null","<div style=""font-size:60px;"">+</div>","null","fixation","","","","","","","","","","","",""
"revaluation","83","427229","0.0-3.0-11.0-4.0-0.1","spark_pilot_norest","8200","2","19","Male","","false","","","","","[377.10000002384186]","./assets/img/space/animals/cat.jpg","[""ArrowRight""]","practice block","space","36","{""ArrowUp,ArrowLeft"":3,""ArrowUp,ArrowRight"":36,""ArrowDown,ArrowLeft"":15,""ArrowDown,ArrowRight"":23}","true","ArrowUp,ArrowRight","","","","","","",""
"html-keyboard-response","84","427733","0.0-3.0-11.0-4.0-1.1","spark_pilot_norest","8200","2","19","Male","","","","","","","null","<div style=""font-size:60px;"">+</div>","null","fixation","","","","","","","","","","","",""
"revaluation","85","431753","0.0-3.0-11.0-4.0-0.2","spark_pilot_norest","8200","2","19","Male","","false","","","","","[329.90000000596046]","./assets/img/space/animals/rabbit.jpg","[""ArrowRight""]","practice block","space","23","{""ArrowUp,ArrowLeft"":3,""ArrowUp,ArrowRight"":36,""ArrowDown,ArrowLeft"":15,""ArrowDown,ArrowRight"":23}","true","ArrowDown,ArrowRight","","","","","","",""
"html-keyboard-response","86","432261","0.0-3.0-11.0-4.0-1.2","spark_pilot_norest","8200","2","19","Male","","","","","","","null","<div style=""font-size:60px;"">+</div>","null","fixation","","","","","","","","","","","",""
"revaluation","87","436278","0.0-3.0-11.0-4.0-0.3","spark_pilot_norest","8200","2","19","Male","","false","","","","","[296]","./assets/img/space/animals/rabbit.jpg","[""ArrowRight""]","practice block","space","23","{""ArrowUp,ArrowLeft"":3,""ArrowUp,ArrowRight"":36,""ArrowDown,ArrowLeft"":15,""ArrowDown,ArrowRight"":23}","true","ArrowDown,ArrowRight","","","","","","",""
"html-keyboard-response","88","436783","0.0-3.0-11.0-4.0-1.3","spark_pilot_norest","8200","2","19","Male","","","","","","","null","<div style=""font-size:60px;"">+</div>","null","fixation","","","","","","","","","","","",""
"learning-instructions","89","444933","0.0-3.0-11.0-5.0-0.0","spark_pilot_norest","8200","2","19","Male","","","","","","","null","<p> You have almost finished this part of the game! </p>
            <p> We are going to ask you to make a few more choices. </p>","","instructions","","","","","","","","","","","",""
"learning-instructions","90","461007","0.0-3.0-11.0-5.0-0.1","spark_pilot_norest","8200","2","19","Male","","","","","","","null","<p> First, you need to decide whether to go up or down. When you see each picture, use the arrow keys to make your choice. </p>
            <p><b>You will not see which animal you found, but try to get to the one that will give you the most treasure.</b></p>","","instructions","","","","","","","","","","","",""
"html-keyboard-response","91","462016","0.0-3.0-11.0-6.0-0.0","spark_pilot_norest","8200","2","19","Male","","","","","","","null","<div style=""font-size:100px;color:red;"">Starting in...</div>","null","","","","","","","","","","","","",""
"html-keyboard-response","92","463023","0.0-3.0-11.0-6.0-1.0","spark_pilot_norest","8200","2","19","Male","","","","","","","null","<div style=""font-size:200px;color:red;"">3</div>","null","","","","","","","","","","","","",""
"html-keyboard-response","93","464032","0.0-3.0-11.0-6.0-2.0","spark_pilot_norest","8200","2","19","Male","","","","","","","null","<div style=""font-size:200px;color:red;"">2</div>","null","","","","","","","","","","","","",""
"html-keyboard-response","94","465038","0.0-3.0-11.0-6.0-3.0","spark_pilot_norest","8200","2","19","Male","","","","","","","null","<div style=""font-size:200px;color:red;"">1</div>","null","","","","","","","","","","","","",""
"revaluation","95","465598","0.0-3.0-11.0-7.0","spark_pilot_norest","8200","2","19","Male","","false","","","","","[557.6999999880791]","./assets/img/space/15.jpg","[""ArrowUp""]","practice block","space","0","{""ArrowUp,ArrowLeft"":3,""ArrowUp,ArrowRight"":36,""ArrowDown,ArrowLeft"":15,""ArrowDown,ArrowRight"":23}","true","ArrowUp","false","","","","","",""
"html-keyboard-response","96","466104","0.0-3.0-11.0-8.0","spark_pilot_norest","8200","2","19","Male","","","","","","","null","<div style=""font-size:60px;"">+</div>","null","fixation","","","","","","","","","","","",""
"learning-instructions","97","479542","0.0-3.0-11.0-9.0-0.0","spark_pilot_norest","8200","2","19","Male","","","","","","","null","<p> Now you will see the animals again and can search their chests for treasure. </p>
            <p> This time, you will not see how much treasure you earned, but you will earn more bonus money for making better choices. </p>","","instructions","","","","","","","","","","","",""
"html-keyboard-response","98","480554","0.0-3.0-11.0-10.0-0.0","spark_pilot_norest","8200","2","19","Male","","","","","","","null","<div style=""font-size:100px;color:red;"">Starting in...</div>","null","","","","","","","","","","","","",""
"html-keyboard-response","99","481562","0.0-3.0-11.0-10.0-1.0","spark_pilot_norest","8200","2","19","Male","","","","","","","null","<div style=""font-size:200px;color:red;"">3</div>","null","","","","","","","","","","","","",""
"html-keyboard-response","100","482568","0.0-3.0-11.0-10.0-2.0","spark_pilot_norest","8200","2","19","Male","","","","","","","null","<div style=""font-size:200px;color:red;"">2</div>","null","","","","","","","","","","","","",""
"html-keyboard-response","101","483577","0.0-3.0-11.0-10.0-3.0","spark_pilot_norest","8200","2","19","Male","","","","","","","null","<div style=""font-size:200px;color:red;"">1</div>","null","","","","","","","","","","","","",""
"revaluation","102","483851","0.0-3.0-11.0-11.0-0.0","spark_pilot_norest","8200","2","19","Male","","false","","","","","[271.80000001192093]","./assets/img/space/animals/cat.jpg","[""ArrowRight""]","practice block","space","0","{""ArrowUp,ArrowLeft"":3,""ArrowUp,ArrowRight"":36,""ArrowDown,ArrowLeft"":15,""ArrowDown,ArrowRight"":23}","true","ArrowUp,ArrowRight","","","","","","",""
"html-keyboard-response","103","484361","0.0-3.0-11.0-11.0-1.0","spark_pilot_norest","8200","2","19","Male","","","","","","","null","<div style=""font-size:60px;"">+</div>","null","fixation","","","","","","","","","","","",""
"revaluation","104","484919","0.0-3.0-11.0-11.0-0.1","spark_pilot_norest","8200","2","19","Male","","false","","","","","[556.1999999880791]","./assets/img/space/animals/rabbit.jpg","[""ArrowRight""]","practice block","space","0","{""ArrowUp,ArrowLeft"":3,""ArrowUp,ArrowRight"":36,""ArrowDown,ArrowLeft"":15,""ArrowDown,ArrowRight"":23}","true","ArrowDown,ArrowRight","","","","","","",""
"html-keyboard-response","105","485424","0.0-3.0-11.0-11.0-1.1","spark_pilot_norest","8200","2","19","Male","","","","","","","null","<div style=""font-size:60px;"">+</div>","null","fixation","","","","","","","","","","","",""
"learning-instructions","106","491136","0.0-3.0-12.0-0.0","spark_pilot_norest","8200","2","19","Male","","","","","","","1105.5","<p> Before you start, we're going to ask you a few questions about how the game works. </p>","","instructions","","","","","","","","","","","",""
"comp-q","107","498111","0.0-3.0-13.0-0.0-0.0","spark_pilot_norest","8200","2","19","Male","","","","","","","1362","<p> <b> True or False? </b> </p>
            <p> There can be 50 pieces of treasure in a given animal's chest. </p>","1","comp_question","","","","true","","","","","","","",""
"comp-q","108","505692","0.0-3.0-13.0-0.0-1.0","spark_pilot_norest","8200","2","19","Male","","","","","","","892.3999999761581","<p> <b> That's right! </b> The amount of treasure in each chest can range from 0 to 40 pieces. </p>","0","comp_answer","","","","","","","","","","","",""
"comp-q","109","513616","0.0-3.0-13.0-0.1-0.1","spark_pilot_norest","8200","2","19","Male","","","","","","","772.3999999761581","<p> <b> True or False? </b> </p><p> In this game, all animals have the same amount of treasure in their left and right chests. </p>","1","comp_question","","","","true","","","","","","","",""
"comp-q","110","520149","0.0-3.0-13.0-0.1-1.1","spark_pilot_norest","8200","2","19","Male","","","","","","","1275.9000000059605","<p> <b> That's right! </b> Animals have different amounts of treasure in their treasure chests. </p>","0","comp_answer","","","","","","","","","","","",""
"comp-q","111","527243","0.0-3.0-13.0-0.2-0.2","spark_pilot_norest","8200","2","19","Male","","","","","","","1217.5","<p> <b> True or False? </b> </p><p> The same animal will always be there if you go up in the same place. </p>","1","comp_question","","","","false","","","","","","","",""
"comp-q","112","534317","0.0-3.0-13.0-0.2-1.2","spark_pilot_norest","8200","2","19","Male","","","","","","","732.8000000119209","<p> <b>Incorrect.</b> One animal lives in the upper part and one lives in the lower part of every place. </p>","0","comp_answer","","","","","","","","","","","",""
"comp-q","113","541368","0.0-3.0-13.0-0.3-0.3","spark_pilot_norest","8200","2","19","Male","","","","","","","1234.1000000238419","<p> <b> True or False? </b> </p><p> The same animal will always be there if you go up in the same place. </p>","0","comp_question","","","","true","","","","","","","",""
"comp-q","114","549142","0.0-3.0-13.0-0.3-1.3","spark_pilot_norest","8200","2","19","Male","","","","","","","1298.6000000238419","<p> <b> That's right! </b> One animal lives in the upper part and one lives in the lower part of every place. </p>","0","comp_answer","","","","","","","","","","","",""
"comp-q","115","556777","0.0-3.0-13.0-0.4-0.4","spark_pilot_norest","8200","2","19","Male","","","","","","","2076.7999999821186","<p> <b> True or False? </b> </p><p> If you see a different picture, it means you are in a new place. </p>","0","comp_question","","","","false","","","","","","","",""
"comp-q","116","569559","0.0-3.0-13.0-0.4-1.4","spark_pilot_norest","8200","2","19","Male","","","","","","","1635.3999999761581","<p> <b>Incorrect.</b> Lots of different images may show the same place. For example,  you may see three different images that all remind you that you are in outer space. </p>","0","comp_answer","","","","","","","","","","","",""
"comp-q","117","580438","0.0-3.0-13.0-0.5-0.5","spark_pilot_norest","8200","2","19","Male","","","","","","","5379.299999982119","<p> <b> True or False? </b> </p><p> If you see a different picture, it means you are in a new place. </p>","1","comp_question","","","","true","","","","","","","",""
"comp-q","118","596002","0.0-3.0-13.0-0.5-1.5","spark_pilot_norest","8200","2","19","Male","","","","","","","4286.199999988079","<p> <b> That's right! </b> Lots of different images may show the same place. For example,  you may see three different images that all remind you that you are in outer space. </p>","0","comp_answer","","","","","","","","","","","",""
"learning-instructions","119","607486","0.0-3.0-14.0-0.0","spark_pilot_norest","8200","2","19","Male","","","","","","","1586.7000000178814","<p> Good job. Remember to do your best because the amount of treasure you earn will be converted into bonus money. </p>
            <p> It’s time to start the real game! </p>","","instructions","","","","","","","","","","","",""
"learning-instructions","120","613013","0.0-4.0-0.0-0.0","spark_pilot_norest","8200","2","19","Male","","","","","","","2804.5999999940395","<p> This time you are searching for treasure in the <b>ocean</b>.</p>","","instructions","","","","","","","","","","","",""
"learning-instructions","121","633664","0.0-4.0-0.0-0.1","spark_pilot_norest","8200","2","19","Male","","","","","","","3247.699999988079","<p><b>New</b> animals with <b>new</b> treasure chests live here. You need to explore to discover where the animal with the best treasure chest is.</p>
                    <p> Like before, once you figure out which animal has the chest with the most treasure, you should try to get to that animal and select that chest! </p>","","instructions","","","","","","","","","","","",""
"learning-instructions","122","651189","0.0-4.0-1.0-0.0","spark_pilot_norest","8200","2","19","Male","","","","","","","2794.9000000059605","<p> Remember, when you see a picture of the place, use the up and down keys to <b>find an animal</b>.</p>
            <p> When you encounter an animal, you should use the left and right keys to <b>select a treasure chest</b>.</p>
            <p> Don't forget to look out for the robber! </p>","","instructions","","","","","","","","","","","",""
"revaluation","123","657208","0.0-4.0-2.0-0.0","spark_pilot_norest","8200","2","19","Male","","false","","","","","[923.4000000059605,419.69999998807907]","./assets/img/ocean/memory/35.jpg","[""ArrowUp"",""ArrowRight""]","value training","ocean","10","{""ArrowUp,ArrowLeft"":23,""ArrowUp,ArrowRight"":10,""ArrowDown,ArrowLeft"":8,""ArrowDown,ArrowRight"":30}","false","ArrowUp,ArrowRight","false","revaluation","1","0","","",""
"html-keyboard-response","124","657723","0.0-4.0-2.0-1.0","spark_pilot_norest","8200","2","19","Male","","","","","","","null","<div style=""font-size:60px;"">+</div>","null","fixation","","","","","","","","","1","","",""
"revaluation","125","663745","0.0-4.0-2.0-0.1","spark_pilot_norest","8200","2","19","Male","","false","","","","","[1809.4000000059605,521.3000000119209]","./assets/img/ocean/memory/38.jpg","[""ArrowDown"",""ArrowRight""]","value training","ocean","30","{""ArrowUp,ArrowLeft"":23,""ArrowUp,ArrowRight"":10,""ArrowDown,ArrowLeft"":8,""ArrowDown,ArrowRight"":30}","true","ArrowDown,ArrowRight","false","revaluation","1","2","","",""
"html-keyboard-response","126","664249","0.0-4.0-2.0-1.1","spark_pilot_norest","8200","2","19","Male","","","","","","","null","<div style=""font-size:60px;"">+</div>","null","fixation","","","","","","","","","3","","",""
"revaluation","127","668265","0.0-4.0-2.0-0.2","spark_pilot_norest","8200","2","19","Male","","false","","","","","[522.8000000119209]","./assets/img/ocean/catch/7.jpg","[""ArrowUp""]","value training","ocean","-10","{""ArrowUp,ArrowLeft"":23,""ArrowUp,ArrowRight"":10,""ArrowDown,ArrowLeft"":8,""ArrowDown,ArrowRight"":30}","false","ArrowUp","true","revaluation","1","4","","",""
"html-keyboard-response","128","668771","0.0-4.0-2.0-1.2","spark_pilot_norest","8200","2","19","Male","","","","","","","null","<div style=""font-size:60px;"">+</div>","null","fixation","","","","","","","","","5","","",""
"revaluation","129","674798","0.0-4.0-2.0-0.3","spark_pilot_norest","8200","2","19","Male","","false","","","","","[841.1999999880791,649.0999999940395]","./assets/img/ocean/memory/29.jpg","[""ArrowUp"",""ArrowLeft""]","value training","ocean","23","{""ArrowUp,ArrowLeft"":23,""ArrowUp,ArrowRight"":10,""ArrowDown,ArrowLeft"":8,""ArrowDown,ArrowRight"":30}","false","ArrowUp,ArrowLeft","false","revaluation","1","6","","",""
"html-keyboard-response","130","675307","0.0-4.0-2.0-1.3","spark_pilot_norest","8200","2","19","Male","","","","","","","null","<div style=""font-size:60px;"">+</div>","null","fixation","","","","","","","","","7","","",""
"revaluation","131","681330","0.0-4.0-2.0-0.4","spark_pilot_norest","8200","2","19","Male","","false","","","","","[1149.300000011921,557]","./assets/img/ocean/memory/0.jpg","[""ArrowUp"",""ArrowRight""]","value training","ocean","10","{""ArrowUp,ArrowLeft"":23,""ArrowUp,ArrowRight"":10,""ArrowDown,ArrowLeft"":8,""ArrowDown,ArrowRight"":30}","false","ArrowUp,ArrowRight","false","revaluation","1","8","","",""
"html-keyboard-response","132","681832","0.0-4.0-2.0-1.4","spark_pilot_norest","8200","2","19","Male","","","","","","","null","<div style=""font-size:60px;"">+</div>","null","fixation","","","","","","","","","9","","",""
"revaluation","133","687860","0.0-4.0-2.0-0.5","spark_pilot_norest","8200","2","19","Male","","false","","","","","[604.5999999940395,1.300000011920929]","./assets/img/ocean/memory/1.jpg","[""ArrowUp"",""ArrowRight""]","value training","ocean","10","{""ArrowUp,ArrowLeft"":23,""ArrowUp,ArrowRight"":10,""ArrowDown,ArrowLeft"":8,""ArrowDown,ArrowRight"":30}","false","ArrowUp,ArrowRight","false","revaluation","1","10","","",""
"html-keyboard-response","134","688369","0.0-4.0-2.0-1.5","spark_pilot_norest","8200","2","19","Male","","","","","","","null","<div style=""font-size:60px;"">+</div>","null","fixation","","","","","","","","","11","","",""
"revaluation","135","692386","0.0-4.0-2.0-0.6","spark_pilot_norest","8200","2","19","Male","","false","","","","","[442.19999998807907]","./assets/img/ocean/catch/0.jpg","[""spaceBar""]","value training","ocean","0","{""ArrowUp,ArrowLeft"":23,""ArrowUp,ArrowRight"":10,""ArrowDown,ArrowLeft"":8,""ArrowDown,ArrowRight"":30}","true","spaceBar","true","revaluation","1","12","","",""
"html-keyboard-response","136","692890","0.0-4.0-2.0-1.6","spark_pilot_norest","8200","2","19","Male","","","","","","","null","<div style=""font-size:60px;"">+</div>","null","fixation","","","","","","","","","13","","",""
"revaluation","137","698916","0.0-4.0-2.0-0.7","spark_pilot_norest","8200","2","19","Male","","false","","","","","[772.5999999940395,345.80000001192093]","./assets/img/ocean/memory/22.jpg","[""ArrowDown"",""ArrowRight""]","value training","ocean","30","{""ArrowUp,ArrowLeft"":23,""ArrowUp,ArrowRight"":10,""ArrowDown,ArrowLeft"":8,""ArrowDown,ArrowRight"":30}","true","ArrowDown,ArrowRight","false","revaluation","1","14","","",""
"html-keyboard-response","138","699428","0.0-4.0-2.0-1.7","spark_pilot_norest","8200","2","19","Male","","","","","","","null","<div style=""font-size:60px;"">+</div>","null","fixation","","","","","","","","","15","","",""
"revaluation","139","705453","0.0-4.0-2.0-0.8","spark_pilot_norest","8200","2","19","Male","","false","","","","","[486.69999998807907,284.5]","./assets/img/ocean/memory/38.jpg","[""ArrowDown"",""ArrowRight""]","value training","ocean","30","{""ArrowUp,ArrowLeft"":23,""ArrowUp,ArrowRight"":10,""ArrowDown,ArrowLeft"":8,""ArrowDown,ArrowRight"":30}","true","ArrowDown,ArrowRight","false","revaluation","1","16","","",""
"html-keyboard-response","140","705964","0.0-4.0-2.0-1.8","spark_pilot_norest","8200","2","19","Male","","","","","","","null","<div style=""font-size:60px;"">+</div>","null","fixation","","","","","","","","","17","","",""
"revaluation","141","711985","0.0-4.0-2.0-0.9","spark_pilot_norest","8200","2","19","Male","","false","","","","","[889.7999999821186,347.40000000596046]","./assets/img/ocean/memory/34.jpg","[""ArrowDown"",""ArrowRight""]","value training","ocean","30","{""ArrowUp,ArrowLeft"":23,""ArrowUp,ArrowRight"":10,""ArrowDown,ArrowLeft"":8,""ArrowDown,ArrowRight"":30}","true","ArrowDown,ArrowRight","false","revaluation","1","18","","",""
"html-keyboard-response","142","712490","0.0-4.0-2.0-1.9","spark_pilot_norest","8200","2","19","Male","","","","","","","null","<div style=""font-size:60px;"">+</div>","null","fixation","","","","","","","","","19","","",""
"revaluation","143","718515","0.0-4.0-2.0-0.10","spark_pilot_norest","8200","2","19","Male","","false","","","","","[853.1000000238419,249.40000000596046]","./assets/img/ocean/memory/40.jpg","[""ArrowDown"",""ArrowRight""]","value training","ocean","30","{""ArrowUp,ArrowLeft"":23,""ArrowUp,ArrowRight"":10,""ArrowDown,ArrowLeft"":8,""ArrowDown,ArrowRight"":30}","true","ArrowDown,ArrowRight","false","revaluation","1","20","","",""
"html-keyboard-response","144","719019","0.0-4.0-2.0-1.10","spark_pilot_norest","8200","2","19","Male","","","","","","","null","<div style=""font-size:60px;"">+</div>","null","fixation","","","","","","","","","21","","",""
"revaluation","145","725046","0.0-4.0-2.0-0.11","spark_pilot_norest","8200","2","19","Male","","false","","","","","[406.5,699.0999999940395]","./assets/img/ocean/memory/22.jpg","[""ArrowDown"",""ArrowRight""]","value training","ocean","30","{""ArrowUp,ArrowLeft"":23,""ArrowUp,ArrowRight"":10,""ArrowDown,ArrowLeft"":8,""ArrowDown,ArrowRight"":30}","true","ArrowDown,ArrowRight","false","revaluation","1","22","","",""
"html-keyboard-response","146","725555","0.0-4.0-2.0-1.11","spark_pilot_norest","8200","2","19","Male","","","","","","","null","<div style=""font-size:60px;"">+</div>","null","fixation","","","","","","","","","23","","",""
"revaluation","147","731581","0.0-4.0-2.0-0.12","spark_pilot_norest","8200","2","19","Male","","false","","","","","[935.7999999821186,418.7999999821186]","./assets/img/ocean/memory/13.jpg","[""ArrowDown"",""ArrowRight""]","value training","ocean","30","{""ArrowUp,ArrowLeft"":23,""ArrowUp,ArrowRight"":10,""ArrowDown,ArrowLeft"":8,""ArrowDown,ArrowRight"":30}","true","ArrowDown,ArrowRight","false","revaluation","1","24","","",""
"html-keyboard-response","148","732093","0.0-4.0-2.0-1.12","spark_pilot_norest","8200","2","19","Male","","","","","","","null","<div style=""font-size:60px;"">+</div>","null","fixation","","","","","","","","","25","","",""
"revaluation","149","736111","0.0-4.0-2.0-0.13","spark_pilot_norest","8200","2","19","Male","","false","","","","","[413.09999999403954]","./assets/img/ocean/catch/6.jpg","[""spaceBar""]","value training","ocean","0","{""ArrowUp,ArrowLeft"":23,""ArrowUp,ArrowRight"":10,""ArrowDown,ArrowLeft"":8,""ArrowDown,ArrowRight"":30}","true","spaceBar","true","revaluation","1","26","","",""
"html-keyboard-response","150","736621","0.0-4.0-2.0-1.13","spark_pilot_norest","8200","2","19","Male","","","","","","","null","<div style=""font-size:60px;"">+</div>","null","fixation","","","","","","","","","27","","",""
"revaluation","151","740635","0.0-4.0-2.0-0.14","spark_pilot_norest","8200","2","19","Male","","true","","","","","[]","./assets/img/ocean/memory/0.jpg","[]","value training","ocean","-5","{""ArrowUp,ArrowLeft"":23,""ArrowUp,ArrowRight"":10,""ArrowDown,ArrowLeft"":8,""ArrowDown,ArrowRight"":30}","false","","false","revaluation","1","28","","",""
"html-keyboard-response","152","741137","0.0-4.0-2.0-1.14","spark_pilot_norest","8200","2","19","Male","","","","","","","null","<div style=""font-size:60px;"">+</div>","null","fixation","","","","","","","","","29","","",""
"revaluation","153","747163","0.0-4.0-2.0-0.15","spark_pilot_norest","8200","2","19","Male","","false","","","","","[505.60000002384186,243.39999997615814]","./assets/img/ocean/memory/23.jpg","[""ArrowDown"",""ArrowRight""]","value training","ocean","30","{""ArrowUp,ArrowLeft"":23,""ArrowUp,ArrowRight"":10,""ArrowDown,ArrowLeft"":8,""ArrowDown,ArrowRight"":30}","true","ArrowDown,ArrowRight","false","revaluation","1","30","","",""
"html-keyboard-response","154","747668","0.0-4.0-2.0-1.15","spark_pilot_norest","8200","2","19","Male","","","","","","","null","<div style=""font-size:60px;"">+</div>","null","fixation","","","","","","","","","31","","",""
"revaluation","155","753693","0.0-4.0-2.0-0.16","spark_pilot_norest","8200","2","19","Male","","false","","","","","[409.10000002384186,178.2000000178814]","./assets/img/ocean/memory/12.jpg","[""ArrowDown"",""ArrowRight""]","value training","ocean","30","{""ArrowUp,ArrowLeft"":23,""ArrowUp,ArrowRight"":10,""ArrowDown,ArrowLeft"":8,""ArrowDown,ArrowRight"":30}","true","ArrowDown,ArrowRight","false","revaluation","1","32","","",""
"html-keyboard-response","156","754203","0.0-4.0-2.0-1.16","spark_pilot_norest","8200","2","19","Male","","","","","","","null","<div style=""font-size:60px;"">+</div>","null","fixation","","","","","","","","","33","","",""
"revaluation","157","760229","0.0-4.0-2.0-0.17","spark_pilot_norest","8200","2","19","Male","","false","","","","","[254,287.59999999403954]","./assets/img/ocean/memory/1.jpg","[""ArrowDown"",""ArrowRight""]","value training","ocean","30","{""ArrowUp,ArrowLeft"":23,""ArrowUp,ArrowRight"":10,""ArrowDown,ArrowLeft"":8,""ArrowDown,ArrowRight"":30}","true","ArrowDown,ArrowRight","false","revaluation","1","34","","",""
"html-keyboard-response","158","760741","0.0-4.0-2.0-1.17","spark_pilot_norest","8200","2","19","Male","","","","","","","null","<div style=""font-size:60px;"">+</div>","null","fixation","","","","","","","","","35","","",""
"revaluation","159","764758","0.0-4.0-2.0-0.18","spark_pilot_norest","8200","2","19","Male","","false","","","","","[691.5]","./assets/img/ocean/catch/4.jpg","[""spaceBar""]","value training","ocean","0","{""ArrowUp,ArrowLeft"":23,""ArrowUp,ArrowRight"":10,""ArrowDown,ArrowLeft"":8,""ArrowDown,ArrowRight"":30}","true","spaceBar","true","revaluation","1","36","","",""
"html-keyboard-response","160","765269","0.0-4.0-2.0-1.18","spark_pilot_norest","8200","2","19","Male","","","","","","","null","<div style=""font-size:60px;"">+</div>","null","fixation","","","","","","","","","37","","",""
"revaluation","161","771291","0.0-4.0-2.0-0.19","spark_pilot_norest","8200","2","19","Male","","false","","","","","[1279.2999999821186,734.9000000059605]","./assets/img/ocean/memory/23.jpg","[""ArrowDown"",""ArrowRight""]","value training","ocean","30","{""ArrowUp,ArrowLeft"":23,""ArrowUp,ArrowRight"":10,""ArrowDown,ArrowLeft"":8,""ArrowDown,ArrowRight"":30}","true","ArrowDown,ArrowRight","false","revaluation","1","38","","",""
"html-keyboard-response","162","771794","0.0-4.0-2.0-1.19","spark_pilot_norest","8200","2","19","Male","","","","","","","null","<div style=""font-size:60px;"">+</div>","null","fixation","","","","","","","","","39","","",""
"revaluation","163","775810","0.0-4.0-2.0-0.20","spark_pilot_norest","8200","2","19","Male","","false","","","","","[771]","./assets/img/ocean/catch/2.jpg","[""ArrowDown""]","value training","ocean","-10","{""ArrowUp,ArrowLeft"":23,""ArrowUp,ArrowRight"":10,""ArrowDown,ArrowLeft"":8,""ArrowDown,ArrowRight"":30}","false","ArrowDown","true","revaluation","1","40","","",""
"html-keyboard-response","164","776315","0.0-4.0-2.0-1.20","spark_pilot_norest","8200","2","19","Male","","","","","","","null","<div style=""font-size:60px;"">+</div>","null","fixation","","","","","","","","","41","","",""
"revaluation","165","780333","0.0-4.0-2.0-0.21","spark_pilot_norest","8200","2","19","Male","","false","","","","","[673.0999999940395]","./assets/img/ocean/catch/3.jpg","[""spaceBar""]","value training","ocean","0","{""ArrowUp,ArrowLeft"":23,""ArrowUp,ArrowRight"":10,""ArrowDown,ArrowLeft"":8,""ArrowDown,ArrowRight"":30}","true","spaceBar","true","revaluation","1","42","","",""
"html-keyboard-response","166","780843","0.0-4.0-2.0-1.21","spark_pilot_norest","8200","2","19","Male","","","","","","","null","<div style=""font-size:60px;"">+</div>","null","fixation","","","","","","","","","43","","",""
"revaluation","167","786870","0.0-4.0-2.0-0.22","spark_pilot_norest","8200","2","19","Male","","false","","","","","[1008.3000000119209,331.5]","./assets/img/ocean/memory/3.jpg","[""ArrowDown"",""ArrowRight""]","value training","ocean","30","{""ArrowUp,ArrowLeft"":23,""ArrowUp,ArrowRight"":10,""ArrowDown,ArrowLeft"":8,""ArrowDown,ArrowRight"":30}","true","ArrowDown,ArrowRight","false","revaluation","1","44","","",""
"html-keyboard-response","168","787379","0.0-4.0-2.0-1.22","spark_pilot_norest","8200","2","19","Male","","","","","","","null","<div style=""font-size:60px;"">+</div>","null","fixation","","","","","","","","","45","","",""
"revaluation","169","793406","0.0-4.0-2.0-0.23","spark_pilot_norest","8200","2","19","Male","","false","","","","","[1195.1000000238419,709]","./assets/img/ocean/memory/19.jpg","[""ArrowDown"",""ArrowRight""]","value training","ocean","30","{""ArrowUp,ArrowLeft"":23,""ArrowUp,ArrowRight"":10,""ArrowDown,ArrowLeft"":8,""ArrowDown,ArrowRight"":30}","true","ArrowDown,ArrowRight","false","revaluation","1","46","","",""
"html-keyboard-response","170","793917","0.0-4.0-2.0-1.23","spark_pilot_norest","8200","2","19","Male","","","","","","","null","<div style=""font-size:60px;"">+</div>","null","fixation","","","","","","","","","47","","",""
"revaluation","171","799943","0.0-4.0-2.0-0.24","spark_pilot_norest","8200","2","19","Male","","false","","","","","[670.0999999940395,224.5]","./assets/img/ocean/memory/34.jpg","[""ArrowDown"",""ArrowRight""]","value training","ocean","30","{""ArrowUp,ArrowLeft"":23,""ArrowUp,ArrowRight"":10,""ArrowDown,ArrowLeft"":8,""ArrowDown,ArrowRight"":30}","true","ArrowDown,ArrowRight","false","revaluation","1","48","","",""
"html-keyboard-response","172","800453","0.0-4.0-2.0-1.24","spark_pilot_norest","8200","2","19","Male","","","","","","","null","<div style=""font-size:60px;"">+</div>","null","fixation","","","","","","","","","49","","",""
"revaluation","173","806479","0.0-4.0-2.0-0.25","spark_pilot_norest","8200","2","19","Male","","false","","","","","[673.2999999821186,452.59999999403954]","./assets/img/ocean/memory/27.jpg","[""ArrowDown"",""ArrowRight""]","value training","ocean","30","{""ArrowUp,ArrowLeft"":23,""ArrowUp,ArrowRight"":10,""ArrowDown,ArrowLeft"":8,""ArrowDown,ArrowRight"":30}","true","ArrowDown,ArrowRight","false","revaluation","1","50","","",""
"html-keyboard-response","174","806990","0.0-4.0-2.0-1.25","spark_pilot_norest","8200","2","19","Male","","","","","","","null","<div style=""font-size:60px;"">+</div>","null","fixation","","","","","","","","","51","","",""
"revaluation","175","813010","0.0-4.0-2.0-0.26","spark_pilot_norest","8200","2","19","Male","","false","","","","","[525.0999999940395,335.2000000178814]","./assets/img/ocean/memory/29.jpg","[""ArrowDown"",""ArrowLeft""]","value training","ocean","8","{""ArrowUp,ArrowLeft"":23,""ArrowUp,ArrowRight"":10,""ArrowDown,ArrowLeft"":8,""ArrowDown,ArrowRight"":30}","false","ArrowDown,ArrowLeft","false","revaluation","1","52","","",""
"html-keyboard-response","176","813515","0.0-4.0-2.0-1.26","spark_pilot_norest","8200","2","19","Male","","","","","","","null","<div style=""font-size:60px;"">+</div>","null","fixation","","","","","","","","","53","","",""
"revaluation","177","819539","0.0-4.0-2.0-0.27","spark_pilot_norest","8200","2","19","Male","","false","","","","","[783.9000000059605,544]","./assets/img/ocean/memory/10.jpg","[""ArrowDown"",""ArrowRight""]","value training","ocean","30","{""ArrowUp,ArrowLeft"":23,""ArrowUp,ArrowRight"":10,""ArrowDown,ArrowLeft"":8,""ArrowDown,ArrowRight"":30}","true","ArrowDown,ArrowRight","false","revaluation","1","54","","",""
"html-keyboard-response","178","820045","0.0-4.0-2.0-1.27","spark_pilot_norest","8200","2","19","Male","","","","","","","null","<div style=""font-size:60px;"">+</div>","null","fixation","","","","","","","","","55","","",""
"revaluation","179","826068","0.0-4.0-2.0-0.28","spark_pilot_norest","8200","2","19","Male","","false","","","","","[445.10000002384186,208.90000000596046]","./assets/img/ocean/memory/41.jpg","[""ArrowDown"",""ArrowRight""]","value training","ocean","30","{""ArrowUp,ArrowLeft"":23,""ArrowUp,ArrowRight"":10,""ArrowDown,ArrowLeft"":8,""ArrowDown,ArrowRight"":30}","true","ArrowDown,ArrowRight","false","revaluation","1","56","","",""
"html-keyboard-response","180","826571","0.0-4.0-2.0-1.28","spark_pilot_norest","8200","2","19","Male","","","","","","","null","<div style=""font-size:60px;"">+</div>","null","fixation","","","","","","","","","57","","",""
"revaluation","181","832596","0.0-4.0-2.0-0.29","spark_pilot_norest","8200","2","19","Male","","false","","","","","[507.90000000596046,1214]","./assets/img/ocean/memory/40.jpg","[""ArrowDown"",""ArrowRight""]","value training","ocean","30","{""ArrowUp,ArrowLeft"":23,""ArrowUp,ArrowRight"":10,""ArrowDown,ArrowLeft"":8,""ArrowDown,ArrowRight"":30}","true","ArrowDown,ArrowRight","false","revaluation","1","58","","",""
"html-keyboard-response","182","833101","0.0-4.0-2.0-1.29","spark_pilot_norest","8200","2","19","Male","","","","","","","null","<div style=""font-size:60px;"">+</div>","null","fixation","","","","","","","","","59","","",""
"revaluation","183","839127","0.0-4.0-2.0-0.30","spark_pilot_norest","8200","2","19","Male","","false","","","","","[63,234]","./assets/img/ocean/memory/30.jpg","[""ArrowDown"",""ArrowRight""]","value training","ocean","30","{""ArrowUp,ArrowLeft"":23,""ArrowUp,ArrowRight"":10,""ArrowDown,ArrowLeft"":8,""ArrowDown,ArrowRight"":30}","true","ArrowDown,ArrowRight","false","revaluation","1","60","","",""
"html-keyboard-response","184","839637","0.0-4.0-2.0-1.30","spark_pilot_norest","8200","2","19","Male","","","","","","","null","<div style=""font-size:60px;"">+</div>","null","fixation","","","","","","","","","61","","",""
"revaluation","185","845662","0.0-4.0-2.0-0.31","spark_pilot_norest","8200","2","19","Male","","false","","","","","[773.4000000059605,406.40000000596046]","./assets/img/ocean/memory/4.jpg","[""ArrowDown"",""ArrowRight""]","value training","ocean","30","{""ArrowUp,ArrowLeft"":23,""ArrowUp,ArrowRight"":10,""ArrowDown,ArrowLeft"":8,""ArrowDown,ArrowRight"":30}","true","ArrowDown,ArrowRight","false","revaluation","1","62","","",""
"html-keyboard-response","186","846173","0.0-4.0-2.0-1.31","spark_pilot_norest","8200","2","19","Male","","","","","","","null","<div style=""font-size:60px;"">+</div>","null","fixation","","","","","","","","","63","","",""
"revaluation","187","852196","0.0-4.0-2.0-0.32","spark_pilot_norest","8200","2","19","Male","","false","","","","","[518.5,344.60000002384186]","./assets/img/ocean/memory/41.jpg","[""ArrowDown"",""ArrowRight""]","value training","ocean","30","{""ArrowUp,ArrowLeft"":23,""ArrowUp,ArrowRight"":10,""ArrowDown,ArrowLeft"":8,""ArrowDown,ArrowRight"":30}","true","ArrowDown,ArrowRight","false","revaluation","1","64","","",""
"html-keyboard-response","188","852699","0.0-4.0-2.0-1.32","spark_pilot_norest","8200","2","19","Male","","","","","","","null","<div style=""font-size:60px;"">+</div>","null","fixation","","","","","","","","","65","","",""
"revaluation","189","858724","0.0-4.0-2.0-0.33","spark_pilot_norest","8200","2","19","Male","","false","","","","","[522.2999999821186,539.2999999821186]","./assets/img/ocean/memory/27.jpg","[""ArrowDown"",""ArrowRight""]","value training","ocean","30","{""ArrowUp,ArrowLeft"":23,""ArrowUp,ArrowRight"":10,""ArrowDown,ArrowLeft"":8,""ArrowDown,ArrowRight"":30}","true","ArrowDown,ArrowRight","false","revaluation","1","66","","",""
"html-keyboard-response","190","859230","0.0-4.0-2.0-1.33","spark_pilot_norest","8200","2","19","Male","","","","","","","null","<div style=""font-size:60px;"">+</div>","null","fixation","","","","","","","","","67","","",""
"revaluation","191","865256","0.0-4.0-2.0-0.34","spark_pilot_norest","8200","2","19","Male","","false","","","","","[549.5999999940395,533.5]","./assets/img/ocean/memory/8.jpg","[""ArrowDown"",""ArrowRight""]","value training","ocean","30","{""ArrowUp,ArrowLeft"":23,""ArrowUp,ArrowRight"":10,""ArrowDown,ArrowLeft"":8,""ArrowDown,ArrowRight"":30}","true","ArrowDown,ArrowRight","false","revaluation","1","68","","",""
"html-keyboard-response","192","865766","0.0-4.0-2.0-1.34","spark_pilot_norest","8200","2","19","Male","","","","","","","null","<div style=""font-size:60px;"">+</div>","null","fixation","","","","","","","","","69","","",""
"revaluation","193","871792","0.0-4.0-2.0-0.35","spark_pilot_norest","8200","2","19","Male","","false","","","","","[542.8000000119209,348.19999998807907]","./assets/img/ocean/memory/11.jpg","[""ArrowDown"",""ArrowRight""]","value training","ocean","30","{""ArrowUp,ArrowLeft"":23,""ArrowUp,ArrowRight"":10,""ArrowDown,ArrowLeft"":8,""ArrowDown,ArrowRight"":30}","true","ArrowDown,ArrowRight","false","revaluation","1","70","","",""
"html-keyboard-response","194","872303","0.0-4.0-2.0-1.35","spark_pilot_norest","8200","2","19","Male","","","","","","","null","<div style=""font-size:60px;"">+</div>","null","fixation","","","","","","","","","71","","",""
"revaluation","195","878323","0.0-4.0-2.0-0.36","spark_pilot_norest","8200","2","19","Male","","false","","","","","[952.7999999821186,472.69999998807907]","./assets/img/ocean/memory/7.jpg","[""ArrowDown"",""ArrowRight""]","value training","ocean","30","{""ArrowUp,ArrowLeft"":23,""ArrowUp,ArrowRight"":10,""ArrowDown,ArrowLeft"":8,""ArrowDown,ArrowRight"":30}","true","ArrowDown,ArrowRight","false","revaluation","1","72","","",""
"html-keyboard-response","196","878827","0.0-4.0-2.0-1.36","spark_pilot_norest","8200","2","19","Male","","","","","","","null","<div style=""font-size:60px;"">+</div>","null","fixation","","","","","","","","","73","","",""
"revaluation","197","884853","0.0-4.0-2.0-0.37","spark_pilot_norest","8200","2","19","Male","","false","","","","","[436.69999998807907,842.8000000119209]","./assets/img/ocean/memory/3.jpg","[""ArrowDown"",""ArrowRight""]","value training","ocean","30","{""ArrowUp,ArrowLeft"":23,""ArrowUp,ArrowRight"":10,""ArrowDown,ArrowLeft"":8,""ArrowDown,ArrowRight"":30}","true","ArrowDown,ArrowRight","false","revaluation","1","74","","",""
"html-keyboard-response","198","885358","0.0-4.0-2.0-1.37","spark_pilot_norest","8200","2","19","Male","","","","","","","null","<div style=""font-size:60px;"">+</div>","null","fixation","","","","","","","","","75","","",""
"revaluation","199","891384","0.0-4.0-2.0-0.38","spark_pilot_norest","8200","2","19","Male","","false","","","","","[594.2000000178814,349.59999999403954]","./assets/img/ocean/memory/4.jpg","[""ArrowDown"",""ArrowRight""]","value training","ocean","30","{""ArrowUp,ArrowLeft"":23,""ArrowUp,ArrowRight"":10,""ArrowDown,ArrowLeft"":8,""ArrowDown,ArrowRight"":30}","true","ArrowDown,ArrowRight","false","revaluation","1","76","","",""
"html-keyboard-response","200","891894","0.0-4.0-2.0-1.38","spark_pilot_norest","8200","2","19","Male","","","","","","","null","<div style=""font-size:60px;"">+</div>","null","fixation","","","","","","","","","77","","",""
"revaluation","201","897917","0.0-4.0-2.0-0.39","spark_pilot_norest","8200","2","19","Male","","false","","","","","[1235.9000000059605,258.30000001192093]","./assets/img/ocean/memory/30.jpg","[""ArrowDown"",""ArrowRight""]","value training","ocean","30","{""ArrowUp,ArrowLeft"":23,""ArrowUp,ArrowRight"":10,""ArrowDown,ArrowLeft"":8,""ArrowDown,ArrowRight"":30}","true","ArrowDown,ArrowRight","false","revaluation","1","78","","",""
"html-keyboard-response","202","898419","0.0-4.0-2.0-1.39","spark_pilot_norest","8200","2","19","Male","","","","","","","null","<div style=""font-size:60px;"">+</div>","null","fixation","","","","","","","","","79","","",""
"revaluation","203","904445","0.0-4.0-2.0-0.40","spark_pilot_norest","8200","2","19","Male","","false","","","","","[704.7000000178814,254.69999998807907]","./assets/img/ocean/memory/8.jpg","[""ArrowDown"",""ArrowRight""]","value training","ocean","30","{""ArrowUp,ArrowLeft"":23,""ArrowUp,ArrowRight"":10,""ArrowDown,ArrowLeft"":8,""ArrowDown,ArrowRight"":30}","true","ArrowDown,ArrowRight","false","revaluation","1","80","","",""
"html-keyboard-response","204","904949","0.0-4.0-2.0-1.40","spark_pilot_norest","8200","2","19","Male","","","","","","","null","<div style=""font-size:60px;"">+</div>","null","fixation","","","","","","","","","81","","",""
"revaluation","205","910975","0.0-4.0-2.0-0.41","spark_pilot_norest","8200","2","19","Male","","false","","","","","[855.1000000238419,463]","./assets/img/ocean/memory/13.jpg","[""ArrowDown"",""ArrowRight""]","value training","ocean","30","{""ArrowUp,ArrowLeft"":23,""ArrowUp,ArrowRight"":10,""ArrowDown,ArrowLeft"":8,""ArrowDown,ArrowRight"":30}","true","ArrowDown,ArrowRight","false","revaluation","1","82","","",""
"html-keyboard-response","206","911486","0.0-4.0-2.0-1.41","spark_pilot_norest","8200","2","19","Male","","","","","","","null","<div style=""font-size:60px;"">+</div>","null","fixation","","","","","","","","","83","","",""
"revaluation","207","917508","0.0-4.0-2.0-0.42","spark_pilot_norest","8200","2","19","Male","","false","","","","","[612.2999999821186,305.2999999821186]","./assets/img/ocean/memory/19.jpg","[""ArrowDown"",""ArrowRight""]","value training","ocean","30","{""ArrowUp,ArrowLeft"":23,""ArrowUp,ArrowRight"":10,""ArrowDown,ArrowLeft"":8,""ArrowDown,ArrowRight"":30}","true","ArrowDown,ArrowRight","false","revaluation","1","84","","",""
"html-keyboard-response","208","918011","0.0-4.0-2.0-1.42","spark_pilot_norest","8200","2","19","Male","","","","","","","null","<div style=""font-size:60px;"">+</div>","null","fixation","","","","","","","","","85","","",""
"revaluation","209","924037","0.0-4.0-2.0-0.43","spark_pilot_norest","8200","2","19","Male","","false","","","","","[563.5,285.59999999403954]","./assets/img/ocean/memory/12.jpg","[""ArrowDown"",""ArrowRight""]","value training","ocean","30","{""ArrowUp,ArrowLeft"":23,""ArrowUp,ArrowRight"":10,""ArrowDown,ArrowLeft"":8,""ArrowDown,ArrowRight"":30}","true","ArrowDown,ArrowRight","false","revaluation","1","86","","",""
"html-keyboard-response","210","924542","0.0-4.0-2.0-1.43","spark_pilot_norest","8200","2","19","Male","","","","","","","null","<div style=""font-size:60px;"">+</div>","null","fixation","","","","","","","","","87","","",""
"revaluation","211","930568","0.0-4.0-2.0-0.44","spark_pilot_norest","8200","2","19","Male","","false","","","","","[443.40000000596046,22.5]","./assets/img/ocean/memory/10.jpg","[""ArrowDown"",""ArrowRight""]","value training","ocean","30","{""ArrowUp,ArrowLeft"":23,""ArrowUp,ArrowRight"":10,""ArrowDown,ArrowLeft"":8,""ArrowDown,ArrowRight"":30}","true","ArrowDown,ArrowRight","false","revaluation","1","88","","",""
"html-keyboard-response","212","931079","0.0-4.0-2.0-1.44","spark_pilot_norest","8200","2","19","Male","","","","","","","null","<div style=""font-size:60px;"">+</div>","null","fixation","","","","","","","","","89","","",""
"revaluation","213","937100","0.0-4.0-2.0-0.45","spark_pilot_norest","8200","2","19","Male","","false","","","","","[599.5999999940395,384.60000002384186]","./assets/img/ocean/memory/11.jpg","[""ArrowDown"",""ArrowRight""]","value training","ocean","30","{""ArrowUp,ArrowLeft"":23,""ArrowUp,ArrowRight"":10,""ArrowDown,ArrowLeft"":8,""ArrowDown,ArrowRight"":30}","true","ArrowDown,ArrowRight","false","revaluation","1","90","","",""
"html-keyboard-response","214","937604","0.0-4.0-2.0-1.45","spark_pilot_norest","8200","2","19","Male","","","","","","","null","<div style=""font-size:60px;"">+</div>","null","fixation","","","","","","","","","91","","",""
"revaluation","215","941620","0.0-4.0-2.0-0.46","spark_pilot_norest","8200","2","19","Male","","false","","","","","[484.90000000596046]","./assets/img/ocean/catch/5.jpg","[""ArrowDown""]","value training","ocean","-10","{""ArrowUp,ArrowLeft"":23,""ArrowUp,ArrowRight"":10,""ArrowDown,ArrowLeft"":8,""ArrowDown,ArrowRight"":30}","false","ArrowDown","true","revaluation","1","92","","",""
"html-keyboard-response","216","942125","0.0-4.0-2.0-1.46","spark_pilot_norest","8200","2","19","Male","","","","","","","null","<div style=""font-size:60px;"">+</div>","null","fixation","","","","","","","","","93","","",""
"revaluation","217","948152","0.0-4.0-2.0-0.47","spark_pilot_norest","8200","2","19","Male","","false","","","","","[1483.4000000059605,503.90000000596046]","./assets/img/ocean/memory/7.jpg","[""ArrowDown"",""ArrowRight""]","value training","ocean","30","{""ArrowUp,ArrowLeft"":23,""ArrowUp,ArrowRight"":10,""ArrowDown,ArrowLeft"":8,""ArrowDown,ArrowRight"":30}","true","ArrowDown,ArrowRight","false","revaluation","1","94","","",""
"html-keyboard-response","218","948663","0.0-4.0-2.0-1.47","spark_pilot_norest","8200","2","19","Male","","","","","","","null","<div style=""font-size:60px;"">+</div>","null","fixation","","","","","","","","","95","","",""
"revaluation","219","952680","0.0-4.0-2.0-0.48","spark_pilot_norest","8200","2","19","Male","","false","","","","","[574.5999999940395]","./assets/img/ocean/catch/1.jpg","[""spaceBar""]","value training","ocean","0","{""ArrowUp,ArrowLeft"":23,""ArrowUp,ArrowRight"":10,""ArrowDown,ArrowLeft"":8,""ArrowDown,ArrowRight"":30}","true","spaceBar","true","revaluation","1","96","","",""
"html-keyboard-response","220","953190","0.0-4.0-2.0-1.48","spark_pilot_norest","8200","2","19","Male","","","","","","","null","<div style=""font-size:60px;"">+</div>","null","fixation","","","","","","","","","97","","",""
"revaluation","221","959215","0.0-4.0-2.0-0.49","spark_pilot_norest","8200","2","19","Male","","false","","","","","[507.2999999821186,720.5999999940395]","./assets/img/ocean/memory/35.jpg","[""ArrowDown"",""ArrowRight""]","value training","ocean","30","{""ArrowUp,ArrowLeft"":23,""ArrowUp,ArrowRight"":10,""ArrowDown,ArrowLeft"":8,""ArrowDown,ArrowRight"":30}","true","ArrowDown,ArrowRight","false","revaluation","1","98","","",""
"html-keyboard-response","222","959727","0.0-4.0-2.0-1.49","spark_pilot_norest","8200","2","19","Male","","","","","","","null","<div style=""font-size:60px;"">+</div>","null","fixation","","","","","","","","","99","","",""
"learning-instructions","223","975117","0.0-4.0-3.0-0.0","spark_pilot_norest","8200","2","19","Male","","","","","","","2309.5999999940395","<p> Now, you will travel with a friend who will choose whether you go up or down first. </p>
            <p> On these turns, you will just see the animal that they found. You will still get to choose which chest to search for treasure.</p>","","instructions","","","","","","","","","","","",""
"revaluation","224","979133","0.0-4.0-4.0-0.0","spark_pilot_norest","8200","2","19","Male","","false","","","","","[550.3999999761581]","./assets/img/ocean/animals/seahorse.jpg","[""ArrowRight""]","revaluation","ocean","7","{""ArrowUp,ArrowLeft"":27,""ArrowUp,ArrowRight"":15,""ArrowDown,ArrowLeft"":21,""ArrowDown,ArrowRight"":7}","false","ArrowDown,ArrowRight","","revaluation","1","0","","",""
"html-keyboard-response","225","979645","0.0-4.0-4.0-1.0","spark_pilot_norest","8200","2","19","Male","","","","","","","null","<div style=""font-size:60px;"">+</div>","null","fixation","","","","","","","","","1","","",""
"revaluation","226","983663","0.0-4.0-4.0-0.1","spark_pilot_norest","8200","2","19","Male","","false","","","","","[593.5999999940395]","./assets/img/ocean/animals/octopus.jpg","[""ArrowLeft""]","revaluation","ocean","27","{""ArrowUp,ArrowLeft"":27,""ArrowUp,ArrowRight"":15,""ArrowDown,ArrowLeft"":21,""ArrowDown,ArrowRight"":7}","true","ArrowUp,ArrowLeft","","revaluation","1","2","","",""
"html-keyboard-response","227","984176","0.0-4.0-4.0-1.1","spark_pilot_norest","8200","2","19","Male","","","","","","","null","<div style=""font-size:60px;"">+</div>","null","fixation","","","","","","","","","3","","",""
"revaluation","228","988190","0.0-4.0-4.0-0.2","spark_pilot_norest","8200","2","19","Male","","false","","","","","[528.2999999821186]","./assets/img/ocean/animals/octopus.jpg","[""ArrowLeft""]","revaluation","ocean","27","{""ArrowUp,ArrowLeft"":27,""ArrowUp,ArrowRight"":15,""ArrowDown,ArrowLeft"":21,""ArrowDown,ArrowRight"":7}","true","ArrowUp,ArrowLeft","","revaluation","1","4","","",""
"html-keyboard-response","229","988694","0.0-4.0-4.0-1.2","spark_pilot_norest","8200","2","19","Male","","","","","","","null","<div style=""font-size:60px;"">+</div>","null","fixation","","","","","","","","","5","","",""
"revaluation","230","992712","0.0-4.0-4.0-0.3","spark_pilot_norest","8200","2","19","Male","","false","","","","","[478.19999998807907]","./assets/img/ocean/animals/octopus.jpg","[""ArrowLeft""]","revaluation","ocean","27","{""ArrowUp,ArrowLeft"":27,""ArrowUp,ArrowRight"":15,""ArrowDown,ArrowLeft"":21,""ArrowDown,ArrowRight"":7}","true","ArrowUp,ArrowLeft","","revaluation","1","6","","",""
"html-keyboard-response","231","993223","0.0-4.0-4.0-1.3","spark_pilot_norest","8200","2","19","Male","","","","","","","null","<div style=""font-size:60px;"">+</div>","null","fixation","","","","","","","","","7","","",""
"revaluation","232","997240","0.0-4.0-4.0-0.4","spark_pilot_norest","8200","2","19","Male","","false","","","","","[460.5]","./assets/img/ocean/animals/seahorse.jpg","[""ArrowLeft""]","revaluation","ocean","21","{""ArrowUp,ArrowLeft"":27,""ArrowUp,ArrowRight"":15,""ArrowDown,ArrowLeft"":21,""ArrowDown,ArrowRight"":7}","true","ArrowDown,ArrowLeft","","revaluation","1","8","","",""
"html-keyboard-response","233","997749","0.0-4.0-4.0-1.4","spark_pilot_norest","8200","2","19","Male","","","","","","","null","<div style=""font-size:60px;"">+</div>","null","fixation","","","","","","","","","9","","",""
"revaluation","234","1001766","0.0-4.0-4.0-0.5","spark_pilot_norest","8200","2","19","Male","","false","","","","","[574.2999999821186]","./assets/img/ocean/animals/seahorse.jpg","[""ArrowLeft""]","revaluation","ocean","21","{""ArrowUp,ArrowLeft"":27,""ArrowUp,ArrowRight"":15,""ArrowDown,ArrowLeft"":21,""ArrowDown,ArrowRight"":7}","true","ArrowDown,ArrowLeft","","revaluation","1","10","","",""
"html-keyboard-response","235","1002272","0.0-4.0-4.0-1.5","spark_pilot_norest","8200","2","19","Male","","","","","","","null","<div style=""font-size:60px;"">+</div>","null","fixation","","","","","","","","","11","","",""
"revaluation","236","1006286","0.0-4.0-4.0-0.6","spark_pilot_norest","8200","2","19","Male","","false","","","","","[978.2000000178814]","./assets/img/ocean/animals/octopus.jpg","[""ArrowLeft""]","revaluation","ocean","27","{""ArrowUp,ArrowLeft"":27,""ArrowUp,ArrowRight"":15,""ArrowDown,ArrowLeft"":21,""ArrowDown,ArrowRight"":7}","true","ArrowUp,ArrowLeft","","revaluation","1","12","","",""
"html-keyboard-response","237","1006792","0.0-4.0-4.0-1.6","spark_pilot_norest","8200","2","19","Male","","","","","","","null","<div style=""font-size:60px;"">+</div>","null","fixation","","","","","","","","","13","","",""
"revaluation","238","1010809","0.0-4.0-4.0-0.7","spark_pilot_norest","8200","2","19","Male","","false","","","","","[445.40000000596046]","./assets/img/ocean/animals/seahorse.jpg","[""ArrowLeft""]","revaluation","ocean","21","{""ArrowUp,ArrowLeft"":27,""ArrowUp,ArrowRight"":15,""ArrowDown,ArrowLeft"":21,""ArrowDown,ArrowRight"":7}","true","ArrowDown,ArrowLeft","","revaluation","1","14","","",""
"html-keyboard-response","239","1011319","0.0-4.0-4.0-1.7","spark_pilot_norest","8200","2","19","Male","","","","","","","null","<div style=""font-size:60px;"">+</div>","null","fixation","","","","","","","","","15","","",""
"revaluation","240","1015338","0.0-4.0-4.0-0.8","spark_pilot_norest","8200","2","19","Male","","false","","","","","[348.09999999403954]","./assets/img/ocean/animals/octopus.jpg","[""ArrowLeft""]","revaluation","ocean","27","{""ArrowUp,ArrowLeft"":27,""ArrowUp,ArrowRight"":15,""ArrowDown,ArrowLeft"":21,""ArrowDown,ArrowRight"":7}","true","ArrowUp,ArrowLeft","","revaluation","1","16","","",""
"html-keyboard-response","241","1015847","0.0-4.0-4.0-1.8","spark_pilot_norest","8200","2","19","Male","","","","","","","null","<div style=""font-size:60px;"">+</div>","null","fixation","","","","","","","","","17","","",""
"revaluation","242","1019864","0.0-4.0-4.0-0.9","spark_pilot_norest","8200","2","19","Male","","false","","","","","[152.5]","./assets/img/ocean/animals/octopus.jpg","[""ArrowLeft""]","revaluation","ocean","27","{""ArrowUp,ArrowLeft"":27,""ArrowUp,ArrowRight"":15,""ArrowDown,ArrowLeft"":21,""ArrowDown,ArrowRight"":7}","true","ArrowUp,ArrowLeft","","revaluation","1","18","","",""
"html-keyboard-response","243","1020375","0.0-4.0-4.0-1.9","spark_pilot_norest","8200","2","19","Male","","","","","","","null","<div style=""font-size:60px;"">+</div>","null","fixation","","","","","","","","","19","","",""
"revaluation","244","1024393","0.0-4.0-4.0-0.10","spark_pilot_norest","8200","2","19","Male","","false","","","","","[561.6999999880791]","./assets/img/ocean/animals/octopus.jpg","[""ArrowLeft""]","revaluation","ocean","27","{""ArrowUp,ArrowLeft"":27,""ArrowUp,ArrowRight"":15,""ArrowDown,ArrowLeft"":21,""ArrowDown,ArrowRight"":7}","true","ArrowUp,ArrowLeft","","revaluation","1","20","","",""
"html-keyboard-response","245","1024903","0.0-4.0-4.0-1.10","spark_pilot_norest","8200","2","19","Male","","","","","","","null","<div style=""font-size:60px;"">+</div>","null","fixation","","","","","","","","","21","","",""
"revaluation","246","1028921","0.0-4.0-4.0-0.11","spark_pilot_norest","8200","2","19","Male","","false","","","","","[26.900000005960464]","./assets/img/ocean/animals/seahorse.jpg","[""ArrowLeft""]","revaluation","ocean","21","{""ArrowUp,ArrowLeft"":27,""ArrowUp,ArrowRight"":15,""ArrowDown,ArrowLeft"":21,""ArrowDown,ArrowRight"":7}","true","ArrowDown,ArrowLeft","","revaluation","1","22","","",""
"html-keyboard-response","247","1029431","0.0-4.0-4.0-1.11","spark_pilot_norest","8200","2","19","Male","","","","","","","null","<div style=""font-size:60px;"">+</div>","null","fixation","","","","","","","","","23","","",""
"revaluation","248","1033449","0.0-4.0-4.0-0.12","spark_pilot_norest","8200","2","19","Male","","false","","","","","[36]","./assets/img/ocean/animals/seahorse.jpg","[""ArrowLeft""]","revaluation","ocean","21","{""ArrowUp,ArrowLeft"":27,""ArrowUp,ArrowRight"":15,""ArrowDown,ArrowLeft"":21,""ArrowDown,ArrowRight"":7}","true","ArrowDown,ArrowLeft","","revaluation","1","24","","",""
"html-keyboard-response","249","1033959","0.0-4.0-4.0-1.12","spark_pilot_norest","8200","2","19","Male","","","","","","","null","<div style=""font-size:60px;"">+</div>","null","fixation","","","","","","","","","25","","",""
"revaluation","250","1037977","0.0-4.0-4.0-0.13","spark_pilot_norest","8200","2","19","Male","","false","","","","","[476.2999999821186]","./assets/img/ocean/animals/octopus.jpg","[""ArrowLeft""]","revaluation","ocean","27","{""ArrowUp,ArrowLeft"":27,""ArrowUp,ArrowRight"":15,""ArrowDown,ArrowLeft"":21,""ArrowDown,ArrowRight"":7}","true","ArrowUp,ArrowLeft","","revaluation","1","26","","",""
"html-keyboard-response","251","1038487","0.0-4.0-4.0-1.13","spark_pilot_norest","8200","2","19","Male","","","","","","","null","<div style=""font-size:60px;"">+</div>","null","fixation","","","","","","","","","27","","",""
"revaluation","252","1042505","0.0-4.0-4.0-0.14","spark_pilot_norest","8200","2","19","Male","","false","","","","","[422]","./assets/img/ocean/animals/seahorse.jpg","[""ArrowLeft""]","revaluation","ocean","21","{""ArrowUp,ArrowLeft"":27,""ArrowUp,ArrowRight"":15,""ArrowDown,ArrowLeft"":21,""ArrowDown,ArrowRight"":7}","true","ArrowDown,ArrowLeft","","revaluation","1","28","","",""
"html-keyboard-response","253","1043006","0.0-4.0-4.0-1.14","spark_pilot_norest","8200","2","19","Male","","","","","","","null","<div style=""font-size:60px;"">+</div>","null","fixation","","","","","","","","","29","","",""
"revaluation","254","1047023","0.0-4.0-4.0-0.15","spark_pilot_norest","8200","2","19","Male","","false","","","","","[339.2999999821186]","./assets/img/ocean/animals/seahorse.jpg","[""ArrowLeft""]","revaluation","ocean","21","{""ArrowUp,ArrowLeft"":27,""ArrowUp,ArrowRight"":15,""ArrowDown,ArrowLeft"":21,""ArrowDown,ArrowRight"":7}","true","ArrowDown,ArrowLeft","","revaluation","1","30","","",""
"html-keyboard-response","255","1047529","0.0-4.0-4.0-1.15","spark_pilot_norest","8200","2","19","Male","","","","","","","null","<div style=""font-size:60px;"">+</div>","null","fixation","","","","","","","","","31","","",""
"revaluation","256","1051546","0.0-4.0-4.0-0.16","spark_pilot_norest","8200","2","19","Male","","false","","","","","[364]","./assets/img/ocean/animals/octopus.jpg","[""ArrowLeft""]","revaluation","ocean","27","{""ArrowUp,ArrowLeft"":27,""ArrowUp,ArrowRight"":15,""ArrowDown,ArrowLeft"":21,""ArrowDown,ArrowRight"":7}","true","ArrowUp,ArrowLeft","","revaluation","1","32","","",""
"html-keyboard-response","257","1052055","0.0-4.0-4.0-1.16","spark_pilot_norest","8200","2","19","Male","","","","","","","null","<div style=""font-size:60px;"">+</div>","null","fixation","","","","","","","","","33","","",""
"revaluation","258","1056074","0.0-4.0-4.0-0.17","spark_pilot_norest","8200","2","19","Male","","false","","","","","[361.2999999821186]","./assets/img/ocean/animals/seahorse.jpg","[""ArrowLeft""]","revaluation","ocean","21","{""ArrowUp,ArrowLeft"":27,""ArrowUp,ArrowRight"":15,""ArrowDown,ArrowLeft"":21,""ArrowDown,ArrowRight"":7}","true","ArrowDown,ArrowLeft","","revaluation","1","34","","",""
"html-keyboard-response","259","1056584","0.0-4.0-4.0-1.17","spark_pilot_norest","8200","2","19","Male","","","","","","","null","<div style=""font-size:60px;"">+</div>","null","fixation","","","","","","","","","35","","",""
"learning-instructions","260","1064880","0.0-4.0-5.0-0.0","spark_pilot_norest","8200","2","19","Male","","","","","","","null","<p> You have almost finished this part of the game! </p>
            <p> We are going to ask you to make a few more choices. </p>","","instructions","","","","","","","","","","","",""
"learning-instructions","261","1080855","0.0-4.0-5.0-0.1","spark_pilot_norest","8200","2","19","Male","","","","","","","null","<p> First, you need to decide whether to go up or down. When you see each picture, use the arrow keys to make your choice. </p>
            <p><b>You will not see which animal you found, but try to get to the one that will give you the most treasure.</b></p>","","instructions","","","","","","","","","","","",""
"html-keyboard-response","262","1081865","0.0-4.0-6.0-0.0","spark_pilot_norest","8200","2","19","Male","","","","","","","null","<div style=""font-size:100px;color:red;"">Starting in...</div>","null","","","","","","","","","","","","",""
"html-keyboard-response","263","1082870","0.0-4.0-6.0-1.0","spark_pilot_norest","8200","2","19","Male","","","","","","","null","<div style=""font-size:200px;color:red;"">3</div>","null","","","","","","","","","","","","",""
"html-keyboard-response","264","1083879","0.0-4.0-6.0-2.0","spark_pilot_norest","8200","2","19","Male","","","","","","","null","<div style=""font-size:200px;color:red;"">2</div>","null","","","","","","","","","","","","",""
"html-keyboard-response","265","1084890","0.0-4.0-6.0-3.0","spark_pilot_norest","8200","2","19","Male","","","","","","","null","<div style=""font-size:200px;color:red;"">1</div>","null","","","","","","","","","","","","",""
"revaluation","266","1085161","0.0-4.0-7.0-0.0","spark_pilot_norest","8200","2","19","Male","","false","","","","","[268.7999999821186]","./assets/img/ocean/test/3.jpg","[""ArrowDown""]","first stage test","ocean","0","{""ArrowUp,ArrowLeft"":27,""ArrowUp,ArrowRight"":15,""ArrowDown,ArrowLeft"":21,""ArrowDown,ArrowRight"":7}","false","ArrowDown","false","revaluation","1","","","",""
"html-keyboard-response","267","1085665","0.0-4.0-7.0-1.0","spark_pilot_norest","8200","2","19","Male","","","","","","","null","<div style=""font-size:60px;"">+</div>","null","fixation","","","","","","","","","","","",""
"revaluation","268","1086407","0.0-4.0-7.0-0.1","spark_pilot_norest","8200","2","19","Male","","false","","","","","[739]","./assets/img/ocean/test/0.jpg","[""ArrowUp""]","first stage test","ocean","0","{""ArrowUp,ArrowLeft"":27,""ArrowUp,ArrowRight"":15,""ArrowDown,ArrowLeft"":21,""ArrowDown,ArrowRight"":7}","true","ArrowUp","false","revaluation","1","","","",""
"html-keyboard-response","269","1086909","0.0-4.0-7.0-1.1","spark_pilot_norest","8200","2","19","Male","","","","","","","null","<div style=""font-size:60px;"">+</div>","null","fixation","","","","","","","","","","","",""
"revaluation","270","1087392","0.0-4.0-7.0-0.2","spark_pilot_norest","8200","2","19","Male","","false","","","","","[480.30000001192093]","./assets/img/ocean/test/2.jpg","[""ArrowUp""]","first stage test","ocean","0","{""ArrowUp,ArrowLeft"":27,""ArrowUp,ArrowRight"":15,""ArrowDown,ArrowLeft"":21,""ArrowDown,ArrowRight"":7}","true","ArrowUp","false","revaluation","1","","","",""
"html-keyboard-response","271","1087897","0.0-4.0-7.0-1.2","spark_pilot_norest","8200","2","19","Male","","","","","","","null","<div style=""font-size:60px;"">+</div>","null","fixation","","","","","","","","","","","",""
"revaluation","272","1088512","0.0-4.0-7.0-0.3","spark_pilot_norest","8200","2","19","Male","","false","","","","","[612.5999999940395]","./assets/img/ocean/test/1.jpg","[""ArrowDown""]","first stage test","ocean","0","{""ArrowUp,ArrowLeft"":27,""ArrowUp,ArrowRight"":15,""ArrowDown,ArrowLeft"":21,""ArrowDown,ArrowRight"":7}","false","ArrowDown","false","revaluation","1","","","",""
"html-keyboard-response","273","1089015","0.0-4.0-7.0-1.3","spark_pilot_norest","8200","2","19","Male","","","","","","","null","<div style=""font-size:60px;"">+</div>","null","fixation","","","","","","","","","","","",""
"learning-instructions","274","1102369","0.0-4.0-8.0-0.0","spark_pilot_norest","8200","2","19","Male","","","","","","","null","<p> Now you will see the animals again and can search their chests for treasure. </p>
            <p> This time, you will not see how much treasure you earned, but you will earn more bonus money for making better choices. </p>","","instructions","","","","","","","","","","","",""
"html-keyboard-response","275","1103375","0.0-4.0-9.0-0.0","spark_pilot_norest","8200","2","19","Male","","","","","","","null","<div style=""font-size:100px;color:red;"">Starting in...</div>","null","","","","","","","","","","","","",""
"html-keyboard-response","276","1104383","0.0-4.0-9.0-1.0","spark_pilot_norest","8200","2","19","Male","","","","","","","null","<div style=""font-size:200px;color:red;"">3</div>","null","","","","","","","","","","","","",""
"html-keyboard-response","277","1105394","0.0-4.0-9.0-2.0","spark_pilot_norest","8200","2","19","Male","","","","","","","null","<div style=""font-size:200px;color:red;"">2</div>","null","","","","","","","","","","","","",""
"html-keyboard-response","278","1106401","0.0-4.0-9.0-3.0","spark_pilot_norest","8200","2","19","Male","","","","","","","null","<div style=""font-size:200px;color:red;"">1</div>","null","","","","","","","","","","","","",""
"revaluation","279","1106900","0.0-4.0-10.0-0.0","spark_pilot_norest","8200","2","19","Male","","false","","","","","[497.19999998807907]","./assets/img/ocean/animals/octopus.jpg","[""ArrowLeft""]","second stage test","ocean","0","{""ArrowUp,ArrowLeft"":27,""ArrowUp,ArrowRight"":15,""ArrowDown,ArrowLeft"":21,""ArrowDown,ArrowRight"":7}","true","ArrowUp,ArrowLeft","","revaluation","1","","","",""
"html-keyboard-response","280","1107408","0.0-4.0-10.0-1.0","spark_pilot_norest","8200","2","19","Male","","","","","","","null","<div style=""font-size:60px;"">+</div>","null","fixation","","","","","","","","","","","",""
"revaluation","281","1108701","0.0-4.0-10.0-0.1","spark_pilot_norest","8200","2","19","Male","","false","","","","","[1290.5999999940395]","./assets/img/ocean/animals/octopus.jpg","[""ArrowLeft""]","second stage test","ocean","0","{""ArrowUp,ArrowLeft"":27,""ArrowUp,ArrowRight"":15,""ArrowDown,ArrowLeft"":21,""ArrowDown,ArrowRight"":7}","true","ArrowUp,ArrowLeft","","revaluation","1","","","",""
"html-keyboard-response","282","1109207","0.0-4.0-10.0-1.1","spark_pilot_norest","8200","2","19","Male","","","","","","","null","<div style=""font-size:60px;"">+</div>","null","fixation","","","","","","","","","","","",""
"revaluation","283","1109769","0.0-4.0-10.0-0.2","spark_pilot_norest","8200","2","19","Male","","false","","","","","[559.0999999940395]","./assets/img/ocean/animals/octopus.jpg","[""ArrowLeft""]","second stage test","ocean","0","{""ArrowUp,ArrowLeft"":27,""ArrowUp,ArrowRight"":15,""ArrowDown,ArrowLeft"":21,""ArrowDown,ArrowRight"":7}","true","ArrowUp,ArrowLeft","","revaluation","1","","","",""
"html-keyboard-response","284","1110270","0.0-4.0-10.0-1.2","spark_pilot_norest","8200","2","19","Male","","","","","","","null","<div style=""font-size:60px;"">+</div>","null","fixation","","","","","","","","","","","",""
"revaluation","285","1110637","0.0-4.0-10.0-0.3","spark_pilot_norest","8200","2","19","Male","","false","","","","","[364.30000001192093]","./assets/img/ocean/animals/octopus.jpg","[""ArrowRight""]","second stage test","ocean","0","{""ArrowUp,ArrowLeft"":27,""ArrowUp,ArrowRight"":15,""ArrowDown,ArrowLeft"":21,""ArrowDown,ArrowRight"":7}","false","ArrowUp,ArrowRight","","revaluation","1","","","",""
"html-keyboard-response","286","1111145","0.0-4.0-10.0-1.3","spark_pilot_norest","8200","2","19","Male","","","","","","","null","<div style=""font-size:60px;"">+</div>","null","fixation","","","","","","","","","","","",""
"revaluation","287","1111526","0.0-4.0-10.0-0.4","spark_pilot_norest","8200","2","19","Male","","false","","","","","[377.40000000596046]","./assets/img/ocean/animals/seahorse.jpg","[""ArrowLeft""]","second stage test","ocean","0","{""ArrowUp,ArrowLeft"":27,""ArrowUp,ArrowRight"":15,""ArrowDown,ArrowLeft"":21,""ArrowDown,ArrowRight"":7}","true","ArrowDown,ArrowLeft","","revaluation","1","","","",""
"html-keyboard-response","288","1112034","0.0-4.0-10.0-1.4","spark_pilot_norest","8200","2","19","Male","","","","","","","null","<div style=""font-size:60px;"">+</div>","null","fixation","","","","","","","","","","","",""
"revaluation","289","1112307","0.0-4.0-10.0-0.5","spark_pilot_norest","8200","2","19","Male","","false","","","","","[270.10000002384186]","./assets/img/ocean/animals/seahorse.jpg","[""ArrowRight""]","second stage test","ocean","0","{""ArrowUp,ArrowLeft"":27,""ArrowUp,ArrowRight"":15,""ArrowDown,ArrowLeft"":21,""ArrowDown,ArrowRight"":7}","false","ArrowDown,ArrowRight","","revaluation","1","","","",""
"html-keyboard-response","290","1112819","0.0-4.0-10.0-1.5","spark_pilot_norest","8200","2","19","Male","","","","","","","null","<div style=""font-size:60px;"">+</div>","null","fixation","","","","","","","","","","","",""
"revaluation","291","1113214","0.0-4.0-10.0-0.6","spark_pilot_norest","8200","2","19","Male","","false","","","","","[392.39999997615814]","./assets/img/ocean/animals/seahorse.jpg","[""ArrowLeft""]","second stage test","ocean","0","{""ArrowUp,ArrowLeft"":27,""ArrowUp,ArrowRight"":15,""ArrowDown,ArrowLeft"":21,""ArrowDown,ArrowRight"":7}","true","ArrowDown,ArrowLeft","","revaluation","1","","","",""
"html-keyboard-response","292","1113719","0.0-4.0-10.0-1.6","spark_pilot_norest","8200","2","19","Male","","","","","","","null","<div style=""font-size:60px;"">+</div>","null","fixation","","","","","","","","","","","",""
"revaluation","293","1114092","0.0-4.0-10.0-0.7","spark_pilot_norest","8200","2","19","Male","","false","","","","","[370.19999998807907]","./assets/img/ocean/animals/seahorse.jpg","[""ArrowLeft""]","second stage test","ocean","0","{""ArrowUp,ArrowLeft"":27,""ArrowUp,ArrowRight"":15,""ArrowDown,ArrowLeft"":21,""ArrowDown,ArrowRight"":7}","true","ArrowDown,ArrowLeft","","revaluation","1","","","",""
"html-keyboard-response","294","1114599","0.0-4.0-10.0-1.7","spark_pilot_norest","8200","2","19","Male","","","","","","","null","<div style=""font-size:60px;"">+</div>","null","fixation","","","","","","","","","","","",""
"learning-instructions","295","1118639","0.0-4.0-0.1-0.2","spark_pilot_norest","8200","2","19","Male","","","","","","","1255.300000011921","<p> This time you are searching for treasure in the <b>canyon</b>.</p>","","instructions","","","","","","","","","","","",""
"learning-instructions","296","1138947","0.0-4.0-0.1-0.3","spark_pilot_norest","8200","2","19","Male","","","","","","","3052.800000011921","<p><b>New</b> animals with <b>new</b> treasure chests live here. You need to explore to discover where the animal with the best treasure chest is.</p>
                    <p> Like before, once you figure out which animal has the chest with the most treasure, you should try to get to that animal and select that chest! </p>","","instructions","","","","","","","","","","","",""
"learning-instructions","297","1154680","0.0-4.0-1.1-0.1","spark_pilot_norest","8200","2","19","Male","","","","","","","999.2999999821186","<p> Remember, when you see a picture of the place, use the up and down keys to <b>find an animal</b>.</p>
            <p> When you encounter an animal, you should use the left and right keys to <b>select a treasure chest</b>.</p>
            <p> Don't forget to look out for the robber! </p>","","instructions","","","","","","","","","","","",""
"revaluation","298","1160703","0.0-4.0-2.1-0.50","spark_pilot_norest","8200","2","19","Male","","false","","","","","[523.1999999880791,392.89999997615814]","./assets/img/canyon/memory/1.jpg","[""ArrowUp"",""ArrowRight""]","value training","canyon","10","{""ArrowUp,ArrowLeft"":26,""ArrowUp,ArrowRight"":10,""ArrowDown,ArrowLeft"":5,""ArrowDown,ArrowRight"":17}","false","ArrowUp,ArrowRight","false","original","2","0","","",""
"html-keyboard-response","299","1161209","0.0-4.0-2.1-1.50","spark_pilot_norest","8200","2","19","Male","","","","","","","null","<div style=""font-size:60px;"">+</div>","null","fixation","","","","","","","","","1","","",""
"revaluation","300","1167234","0.0-4.0-2.1-0.51","spark_pilot_norest","8200","2","19","Male","","false","","","","","[952,364]","./assets/img/canyon/memory/7.jpg","[""ArrowDown"",""ArrowLeft""]","value training","canyon","5","{""ArrowUp,ArrowLeft"":26,""ArrowUp,ArrowRight"":10,""ArrowDown,ArrowLeft"":5,""ArrowDown,ArrowRight"":17}","false","ArrowDown,ArrowLeft","false","original","2","2","","",""
"html-keyboard-response","301","1167746","0.0-4.0-2.1-1.51","spark_pilot_norest","8200","2","19","Male","","","","","","","null","<div style=""font-size:60px;"">+</div>","null","fixation","","","","","","","","","3","","",""
"revaluation","302","1173772","0.0-4.0-2.1-0.52","spark_pilot_norest","8200","2","19","Male","","false","","","","","[506,311]","./assets/img/canyon/memory/0.jpg","[""ArrowUp"",""ArrowLeft""]","value training","canyon","26","{""ArrowUp,ArrowLeft"":26,""ArrowUp,ArrowRight"":10,""ArrowDown,ArrowLeft"":5,""ArrowDown,ArrowRight"":17}","true","ArrowUp,ArrowLeft","false","original","2","4","","",""
"html-keyboard-response","303","1174281","0.0-4.0-2.1-1.52","spark_pilot_norest","8200","2","19","Male","","","","","","","null","<div style=""font-size:60px;"">+</div>","null","fixation","","","","","","","","","5","","",""
"revaluation","304","1180308","0.0-4.0-2.1-0.53","spark_pilot_norest","8200","2","19","Male","","false","","","","","[422.19999998807907,288]","./assets/img/canyon/memory/19.jpg","[""ArrowDown"",""ArrowRight""]","value training","canyon","17","{""ArrowUp,ArrowLeft"":26,""ArrowUp,ArrowRight"":10,""ArrowDown,ArrowLeft"":5,""ArrowDown,ArrowRight"":17}","false","ArrowDown,ArrowRight","false","original","2","6","","",""
"html-keyboard-response","305","1180819","0.0-4.0-2.1-1.53","spark_pilot_norest","8200","2","19","Male","","","","","","","null","<div style=""font-size:60px;"">+</div>","null","fixation","","","","","","","","","7","","",""
"revaluation","306","1184836","0.0-4.0-2.1-0.54","spark_pilot_norest","8200","2","19","Male","","false","","","","","[500.80000001192093]","./assets/img/canyon/catch/4.jpg","[""spaceBar""]","value training","canyon","0","{""ArrowUp,ArrowLeft"":26,""ArrowUp,ArrowRight"":10,""ArrowDown,ArrowLeft"":5,""ArrowDown,ArrowRight"":17}","true","spaceBar","true","original","2","8","","",""
"html-keyboard-response","307","1185347","0.0-4.0-2.1-1.54","spark_pilot_norest","8200","2","19","Male","","","","","","","null","<div style=""font-size:60px;"">+</div>","null","fixation","","","","","","","","","9","","",""
"revaluation","308","1191368","0.0-4.0-2.1-0.55","spark_pilot_norest","8200","2","19","Male","","false","","","","","[906.6999999880791,339.39999997615814]","./assets/img/canyon/memory/29.jpg","[""ArrowUp"",""ArrowLeft""]","value training","canyon","26","{""ArrowUp,ArrowLeft"":26,""ArrowUp,ArrowRight"":10,""ArrowDown,ArrowLeft"":5,""ArrowDown,ArrowRight"":17}","true","ArrowUp,ArrowLeft","false","original","2","10","","",""
"html-keyboard-response","309","1191874","0.0-4.0-2.1-1.55","spark_pilot_norest","8200","2","19","Male","","","","","","","null","<div style=""font-size:60px;"">+</div>","null","fixation","","","","","","","","","11","","",""
"revaluation","310","1197900","0.0-4.0-2.1-0.56","spark_pilot_norest","8200","2","19","Male","","false","","","","","[631.9000000059605,291.30000001192093]","./assets/img/canyon/memory/22.jpg","[""ArrowUp"",""ArrowLeft""]","value training","canyon","26","{""ArrowUp,ArrowLeft"":26,""ArrowUp,ArrowRight"":10,""ArrowDown,ArrowLeft"":5,""ArrowDown,ArrowRight"":17}","true","ArrowUp,ArrowLeft","false","original","2","12","","",""
"html-keyboard-response","311","1198409","0.0-4.0-2.1-1.56","spark_pilot_norest","8200","2","19","Male","","","","","","","null","<div style=""font-size:60px;"">+</div>","null","fixation","","","","","","","","","13","","",""
"revaluation","312","1204436","0.0-4.0-2.1-0.57","spark_pilot_norest","8200","2","19","Male","","false","","","","","[429,426.90000000596046]","./assets/img/canyon/memory/13.jpg","[""ArrowUp"",""ArrowLeft""]","value training","canyon","26","{""ArrowUp,ArrowLeft"":26,""ArrowUp,ArrowRight"":10,""ArrowDown,ArrowLeft"":5,""ArrowDown,ArrowRight"":17}","true","ArrowUp,ArrowLeft","false","original","2","14","","",""
"html-keyboard-response","313","1204946","0.0-4.0-2.1-1.57","spark_pilot_norest","8200","2","19","Male","","","","","","","null","<div style=""font-size:60px;"">+</div>","null","fixation","","","","","","","","","15","","",""
