"trial_type","trial_index","time_elapsed","internal_node_id","task_version","subject_id","assigned_condition","age","gender","success","timeout","failed_images","failed_audio","failed_video","browser_interaction","rt","stimulus","response","task_part","environment","score","rewardMap","correct","fullState","isCatch","condition","order","trial_num","key_press","ground_truth","bonus"
"pavlovia","0","1806","0.0-0.0","spark_pilot_norest","8716","1","21","Female","","","","","","","","","","","","","","","","","","","","","",""
"preload","1","60034","0.0-1.0","spark_pilot_norest","8716","1","21","Female","true","false","[]","[]","[]","[{""event"":""fullscreenenter"",""trial"":2,""time"":69641}]","","","","","","","","","","","","","","","",""
"fullscreen","2","70634","0.0-2.0","spark_pilot_norest","8716","1","21","Female","true","","","","","","","","","","","","","","","","","","","","",""
"audio-button-response","3","72448","0.0-3.0-0.0-0.0","spark_pilot_norest","8716","1","21","Female","","","","","","","1195","./assets/audio/audiotest/turtle.mp3","2","audio_test","","","","","","","","","","","",""
"learning-instructions","4","81229","0.0-3.0-1.0-0.0","spark_pilot_norest","8716","1","21","Female","","","","","","","1799.5999999940395","<p> Welcome! Please remember to stay in fullscreen mode and don't click away from the experiment. </p>","","instructions","","","","","","","","","","","",""
"learning-instructions","5","90842","0.0-3.0-1.0-0.1","spark_pilot_norest","8716","1","21","Female","","","","","","","1201.6000000089407","<p> Today you will be playing a game to earn treasure. </p>
            <p> At the end of the experiment, you will earn a bonus based on how much treasure you find. </p>
            <img src='./assets/img/instructions/treasure.jpg' class='instructions-image'>","","instructions","","","","","","","","","","","",""
"learning-instructions","6","100310","0.0-3.0-1.0-0.2","spark_pilot_norest","8716","1","21","Female","","","","","","","1208.0999999940395","<p> Animals have hidden treasure in treasure chests. </p>
            <p> You need to first find an animal and then choose which of their treasure chests to search. </p>
            <img src='./assets/img/space/animals/cat.jpg' class='instructions-image'>","","instructions","","","","","","","","","","","",""
"learning-instructions","7","114858","0.0-3.0-1.0-0.3","spark_pilot_norest","8716","1","21","Female","","","","","","","1399","<p> In each round, you will search for treasure in a different place. In the real game, there will be two rounds. </p>
            <p> You will begin with a separate, practice round where you will search for treasure in outer space. </p>
            <img src='./assets/img/space/0.jpg' class='instructions-image'>","","instructions","","","","","","","","","","","",""
"learning-instructions","8","126840","0.0-3.0-1.0-0.4","spark_pilot_norest","8716","1","21","Female","","","","","","","570.7999999970198","<p> On every turn, you will see a picture of the place that you are in, but the specific image may be different each time. </p>
            <p> For example, both of these images mean you are in outer space. </p>
            <img src='./assets/img/instructions/outerspace.jpg' class='instructions-image'>","","instructions","","","","","","","","","","","",""
"learning-instructions","9","135385","0.0-3.0-1.0-0.5","spark_pilot_norest","8716","1","21","Female","","","","","","","720.5","<p> You need to decide which direction to travel in. </p>
            <p> You can choose between going <b>up or down</b> by using the arrow keys. </p>
            <img src='./assets/img/instructions/updown.jpg' class='instructions-image'>","","instructions","","","","","","","","","","","",""
"learning-instructions","10","144681","0.0-3.0-1.0-0.6","spark_pilot_norest","8716","1","21","Female","","","","","","","485.79999999701977","<p> You will have <b>2 seconds</b> to make your choice. </p>
            <p> If you do not make a choice within 2 seconds, you will not find an animal or earn treasure. </p>
            <img src='./assets/img/instructions/2seconds.jpg' class='instructions-image'>","","instructions","","","","","","","","","","","",""
"learning-instructions","11","152775","0.0-3.0-1.0-0.7","spark_pilot_norest","8716","1","21","Female","","","","","","","1060.0999999940395","<p> Let’s try practicing that now! </p>
            <p> When you see a picture of the place you are in, press the <b>up</b> key to travel up. </p>
            <img src='./assets/img/instructions/pressUp.jpg' class='instructions-image'>","","instructions","","","","","","","","","","","",""
"revaluation","12","156801","0.0-3.0-2.0-0.0","spark_pilot_norest","8716","1","21","Female","","false","","","","","[1020.8999999910593]","./assets/img/space/0.jpg","[""ArrowUp""]","first stage practice","space","0","null","null","ArrowUp","false","","","","","",""
"html-keyboard-response","13","157311","0.0-3.0-2.0-1.0","spark_pilot_norest","8716","1","21","Female","","","","","","","null","<div style=""font-size:60px;"">+</div>","null","fixation","","","","","","","","","","","",""
"revaluation","14","161330","0.0-3.0-2.0-0.1","spark_pilot_norest","8716","1","21","Female","","false","","","","","[1001.5999999940395]","./assets/img/space/1.jpg","[""ArrowUp""]","first stage practice","space","0","null","null","ArrowUp","false","","","","","",""
"html-keyboard-response","15","161839","0.0-3.0-2.0-1.1","spark_pilot_norest","8716","1","21","Female","","","","","","","null","<div style=""font-size:60px;"">+</div>","null","fixation","","","","","","","","","","","",""
"revaluation","16","165855","0.0-3.0-2.0-0.2","spark_pilot_norest","8716","1","21","Female","","false","","","","","[700.2999999970198]","./assets/img/space/2.jpg","[""ArrowUp""]","first stage practice","space","0","null","null","ArrowUp","false","","","","","",""
"html-keyboard-response","17","166359","0.0-3.0-2.0-1.2","spark_pilot_norest","8716","1","21","Female","","","","","","","null","<div style=""font-size:60px;"">+</div>","null","fixation","","","","","","","","","","","",""
"learning-instructions","18","172050","0.0-3.0-3.0-0.0","spark_pilot_norest","8716","1","21","Female","","","","","","","990.9000000059605","<p> Great job! Now try pressing the <b>down</b> key to travel down. </p>
            <img src='./assets/img/instructions/pressDown.jpg' class='instructions-image'>","","instructions","","","","","","","","","","","",""
"revaluation","19","176067","0.0-3.0-4.0-0.0","spark_pilot_norest","8716","1","21","Female","","false","","","","","[494.3999999910593]","./assets/img/space/3.jpg","[""ArrowDown""]","first stage practice","space","0","null","null","ArrowDown","false","","","","","",""
"html-keyboard-response","20","176579","0.0-3.0-4.0-1.0","spark_pilot_norest","8716","1","21","Female","","","","","","","null","<div style=""font-size:60px;"">+</div>","null","fixation","","","","","","","","","","","",""
"revaluation","21","180603","0.0-3.0-4.0-0.1","spark_pilot_norest","8716","1","21","Female","","false","","","","","[508.09999999403954]","./assets/img/space/4.jpg","[""ArrowDown""]","first stage practice","space","0","null","null","ArrowDown","false","","","","","",""
"html-keyboard-response","22","181115","0.0-3.0-4.0-1.1","spark_pilot_norest","8716","1","21","Female","","","","","","","null","<div style=""font-size:60px;"">+</div>","null","fixation","","","","","","","","","","","",""
"revaluation","23","185135","0.0-3.0-4.0-0.2","spark_pilot_norest","8716","1","21","Female","","false","","","","","[734.8000000119209]","./assets/img/space/5.jpg","[""ArrowDown""]","first stage practice","space","0","null","null","ArrowDown","false","","","","","",""
"html-keyboard-response","24","185643","0.0-3.0-4.0-1.2","spark_pilot_norest","8716","1","21","Female","","","","","","","null","<div style=""font-size:60px;"">+</div>","null","fixation","","","","","","","","","","","",""
"learning-instructions","25","196382","0.0-3.0-5.0-0.0","spark_pilot_norest","8716","1","21","Female","","","","","","","887.2000000029802","<p> The animals don’t move, so the animal in the upper part of a place will stay in the upper part of a place, and the animal in the lower part of a place will stay in the lower part of a place. </p>","","instructions","","","","","","","","","","","",""
"learning-instructions","26","206111","0.0-3.0-5.0-0.1","spark_pilot_norest","8716","1","21","Female","","","","","","","600","<p> Each animal has two treasure chests for you to choose from. </p>
            <p> The amount of treasure in each chest can range from <b> 0 to 40 pieces.</b></p>","","instructions","","","","","","","","","","","",""
"learning-instructions","27","218531","0.0-3.0-5.0-0.2","spark_pilot_norest","8716","1","21","Female","","","","","","","1237.7000000029802","<p> You should decide which chest to search for treasure by using the <b>left</b> and <b>right</b> arrow keys. </p>
            <p><b> Pay attention to which animal is on the screen, as the animals have different treasure chests. </b></p>
            <img src='./assets/img/instructions/leftright.jpg' class='instructions-image'>","","instructions","","","","","","","","","","","",""
"learning-instructions","28","225829","0.0-3.0-5.0-0.3","spark_pilot_norest","8716","1","21","Female","","","","","","","936.5","<p> Let’s try practicing that now. </p>
            <p> When you see an animal, choose which chest to search for treasure. </p>
            <img src='./assets/img/instructions/chooseChest.jpg' class='instructions-image'>","","instructions","","","","","","","","","","","",""
"revaluation","29","229851","0.0-3.0-6.0-0.0","spark_pilot_norest","8716","1","21","Female","","false","","","","","[607.2999999970198]","./assets/img/space/animals/cat.jpg","[""ArrowLeft""]","second stage practice","space","3","{""ArrowUp,ArrowLeft"":3,""ArrowUp,ArrowRight"":36,""ArrowDown,ArrowLeft"":15,""ArrowDown,ArrowRight"":23}","false","ArrowUp,ArrowLeft","","","","","","",""
"html-keyboard-response","30","230358","0.0-3.0-6.0-1.0","spark_pilot_norest","8716","1","21","Female","","","","","","","null","<div style=""font-size:60px;"">+</div>","null","fixation","","","","","","","","","","","",""
"revaluation","31","234374","0.0-3.0-6.0-0.1","spark_pilot_norest","8716","1","21","Female","","false","","","","","[818.4000000059605]","./assets/img/space/animals/rabbit.jpg","[""ArrowRight""]","second stage practice","space","23","{""ArrowUp,ArrowLeft"":3,""ArrowUp,ArrowRight"":36,""ArrowDown,ArrowLeft"":15,""ArrowDown,ArrowRight"":23}","true","ArrowDown,ArrowRight","","","","","","",""
"html-keyboard-response","32","234878","0.0-3.0-6.0-1.1","spark_pilot_norest","8716","1","21","Female","","","","","","","null","<div style=""font-size:60px;"">+</div>","null","fixation","","","","","","","","","","","",""
"revaluation","33","238898","0.0-3.0-6.0-0.2","spark_pilot_norest","8716","1","21","Female","","false","","","","","[278.30000001192093]","./assets/img/space/animals/rabbit.jpg","[""ArrowRight""]","second stage practice","space","23","{""ArrowUp,ArrowLeft"":3,""ArrowUp,ArrowRight"":36,""ArrowDown,ArrowLeft"":15,""ArrowDown,ArrowRight"":23}","true","ArrowDown,ArrowRight","","","","","","",""
"html-keyboard-response","34","239410","0.0-3.0-6.0-1.2","spark_pilot_norest","8716","1","21","Female","","","","","","","null","<div style=""font-size:60px;"">+</div>","null","fixation","","","","","","","","","","","",""
"revaluation","35","243422","0.0-3.0-6.0-0.3","spark_pilot_norest","8716","1","21","Female","","false","","","","","[780.6999999880791]","./assets/img/space/animals/cat.jpg","[""ArrowLeft""]","second stage practice","space","3","{""ArrowUp,ArrowLeft"":3,""ArrowUp,ArrowRight"":36,""ArrowDown,ArrowLeft"":15,""ArrowDown,ArrowRight"":23}","false","ArrowUp,ArrowLeft","","","","","","",""
"html-keyboard-response","36","243929","0.0-3.0-6.0-1.3","spark_pilot_norest","8716","1","21","Female","","","","","","","null","<div style=""font-size:60px;"">+</div>","null","fixation","","","","","","","","","","","",""
"learning-instructions","37","261682","0.0-3.0-7.0-0.0","spark_pilot_norest","8716","1","21","Female","","","","","","","939.4000000059605","<p> Great job. Now let’s try putting it together. </p>
            <p> On each turn, you will first see a picture to remind you of the place you are in, and you need to choose whether to go up or down. </p>
            <p> Then you will see an animal and choose which of its chests to search for treasure. </p>","","instructions","","","","","","","","","","","",""
"learning-instructions","38","270614","0.0-3.0-7.0-0.1","spark_pilot_norest","8716","1","21","Female","","","","","","","671.5","<p> When you choose whether to go up or down, try to go to the animal with the chest with the most treasure. </p>
            <p> Try practicing that now! </p>","","instructions","","","","","","","","","","","",""
"revaluation","39","276638","0.0-3.0-8.0-0.0","spark_pilot_norest","8716","1","21","Female","","false","","","","","[901.2999999970198,714.7999999970198]","./assets/img/space/6.jpg","[""ArrowUp"",""ArrowLeft""]","full practice","space","3","{""ArrowUp,ArrowLeft"":3,""ArrowUp,ArrowRight"":36,""ArrowDown,ArrowLeft"":15,""ArrowDown,ArrowRight"":23}","false","ArrowUp,ArrowLeft","false","","","","","",""
"html-keyboard-response","40","277146","0.0-3.0-8.0-1.0","spark_pilot_norest","8716","1","21","Female","","","","","","","null","<div style=""font-size:60px;"">+</div>","null","fixation","","","","","","","","","","","",""
"revaluation","41","283174","0.0-3.0-8.0-0.1","spark_pilot_norest","8716","1","21","Female","","false","","","","","[454.5,424.90000000596046]","./assets/img/space/7.jpg","[""ArrowDown"",""ArrowLeft""]","full practice","space","15","{""ArrowUp,ArrowLeft"":3,""ArrowUp,ArrowRight"":36,""ArrowDown,ArrowLeft"":15,""ArrowDown,ArrowRight"":23}","false","ArrowDown,ArrowLeft","false","","","","","",""
"html-keyboard-response","42","283677","0.0-3.0-8.0-1.1","spark_pilot_norest","8716","1","21","Female","","","","","","","null","<div style=""font-size:60px;"">+</div>","null","fixation","","","","","","","","","","","",""
"revaluation","43","289706","0.0-3.0-8.0-0.2","spark_pilot_norest","8716","1","21","Female","","false","","","","","[639.7999999970198,403.20000000298023]","./assets/img/space/8.jpg","[""ArrowUp"",""ArrowRight""]","full practice","space","36","{""ArrowUp,ArrowLeft"":3,""ArrowUp,ArrowRight"":36,""ArrowDown,ArrowLeft"":15,""ArrowDown,ArrowRight"":23}","true","ArrowUp,ArrowRight","false","","","","","",""
"html-keyboard-response","44","290214","0.0-3.0-8.0-1.2","spark_pilot_norest","8716","1","21","Female","","","","","","","null","<div style=""font-size:60px;"">+</div>","null","fixation","","","","","","","","","","","",""
"revaluation","45","296242","0.0-3.0-8.0-0.3","spark_pilot_norest","8716","1","21","Female","","false","","","","","[763.7999999970198,545.7999999970198]","./assets/img/space/9.jpg","[""ArrowDown"",""ArrowLeft""]","full practice","space","15","{""ArrowUp,ArrowLeft"":3,""ArrowUp,ArrowRight"":36,""ArrowDown,ArrowLeft"":15,""ArrowDown,ArrowRight"":23}","false","ArrowDown,ArrowLeft","false","","","","","",""
"html-keyboard-response","46","296750","0.0-3.0-8.0-1.3","spark_pilot_norest","8716","1","21","Female","","","","","","","null","<div style=""font-size:60px;"">+</div>","null","fixation","","","","","","","","","","","",""
"revaluation","47","302776","0.0-3.0-8.0-0.4","spark_pilot_norest","8716","1","21","Female","","false","","","","","[825.5999999940395,523]","./assets/img/space/10.jpg","[""ArrowUp"",""ArrowRight""]","full practice","space","36","{""ArrowUp,ArrowLeft"":3,""ArrowUp,ArrowRight"":36,""ArrowDown,ArrowLeft"":15,""ArrowDown,ArrowRight"":23}","true","ArrowUp,ArrowRight","false","","","","","",""
"html-keyboard-response","48","303277","0.0-3.0-8.0-1.4","spark_pilot_norest","8716","1","21","Female","","","","","","","null","<div style=""font-size:60px;"">+</div>","null","fixation","","","","","","","","","","","",""
"learning-instructions","49","314407","0.0-3.0-9.0-0.0","spark_pilot_norest","8716","1","21","Female","","","","","","","801.4000000059605","<p> One last thing: sometimes, you will see a robber. The robber can be anywhere in the picture. </p>
            <p> If you do not stop them, you will lose treasure. </p>
            <img src='./assets/img/instructions/robber.jpg' class='instructions-image'>","","instructions","","","","","","","","","","","",""
"learning-instructions","50","322636","0.0-3.0-9.0-0.1","spark_pilot_norest","8716","1","21","Female","","","","","","","1068.1000000089407","<p> If you see the robber, you should <b>press the space bar</b> rather than using the arrow keys. </p>
            <p> Try practicing that now! </p>","","instructions","","","","","","","","","","","",""
"revaluation","51","326654","0.0-3.0-10.0-0.0","spark_pilot_norest","8716","1","21","Female","","false","","","","","[1058.8999999910593]","./assets/img/space/catch/0.jpg","[""spaceBar""]","catch practice","space","0","{""ArrowUp,ArrowLeft"":3,""ArrowUp,ArrowRight"":36,""ArrowDown,ArrowLeft"":15,""ArrowDown,ArrowRight"":23}","true","spaceBar","true","","","","","",""
"html-keyboard-response","52","327158","0.0-3.0-10.0-1.0","spark_pilot_norest","8716","1","21","Female","","","","","","","null","<div style=""font-size:60px;"">+</div>","null","fixation","","","","","","","","","","","",""
"revaluation","53","331178","0.0-3.0-10.0-0.1","spark_pilot_norest","8716","1","21","Female","","false","","","","","[844.5]","./assets/img/space/catch/1.jpg","[""ArrowDown""]","catch practice","space","-10","{""ArrowUp,ArrowLeft"":3,""ArrowUp,ArrowRight"":36,""ArrowDown,ArrowLeft"":15,""ArrowDown,ArrowRight"":23}","false","ArrowDown","true","","","","","",""
"html-keyboard-response","54","331687","0.0-3.0-10.0-1.1","spark_pilot_norest","8716","1","21","Female","","","","","","","null","<div style=""font-size:60px;"">+</div>","null","fixation","","","","","","","","","","","",""
"revaluation","55","335703","0.0-3.0-10.0-0.2","spark_pilot_norest","8716","1","21","Female","","false","","","","","[902]","./assets/img/space/catch/2.jpg","[""spaceBar""]","catch practice","space","0","{""ArrowUp,ArrowLeft"":3,""ArrowUp,ArrowRight"":36,""ArrowDown,ArrowLeft"":15,""ArrowDown,ArrowRight"":23}","true","spaceBar","true","","","","","",""
"html-keyboard-response","56","336208","0.0-3.0-10.0-1.2","spark_pilot_norest","8716","1","21","Female","","","","","","","null","<div style=""font-size:60px;"">+</div>","null","fixation","","","","","","","","","","","",""
"learning-instructions","57","343634","0.0-3.0-11.0-0.0-0.0","spark_pilot_norest","8716","1","21","Female","","","","","","","2173.5","<p> Now, you will practice a shortened version of the game to get a sense of how it all fits together. </p>","","instructions","","","","","","","","","","","",""
"learning-instructions","58","349225","0.0-3.0-11.0-0.0-0.1","spark_pilot_norest","8716","1","21","Female","","","","","","","2403.7999999970198","<p>This time you are searching for treasure in outer space.</p>","","instructions","","","","","","","","","","","",""
"learning-instructions","59","365058","0.0-3.0-11.0-1.0-0.0","spark_pilot_norest","8716","1","21","Female","","","","","","","1069.800000011921","<p> Remember, when you see a picture of the place, use the up and down keys to <b>find an animal</b>.</p>
            <p> When you encounter an animal, you should use the left and right keys to <b>select a treasure chest</b>.</p>
            <p> Don't forget to look out for the robber! </p>","","instructions","","","","","","","","","","","",""
"revaluation","60","371087","0.0-3.0-11.0-2.0-0.0","spark_pilot_norest","8716","1","21","Female","","false","","","","","[1035.7000000029802,554.1000000089407]","./assets/img/space/11.jpg","[""ArrowDown"",""ArrowLeft""]","practice block","space","15","{""ArrowUp,ArrowLeft"":3,""ArrowUp,ArrowRight"":36,""ArrowDown,ArrowLeft"":15,""ArrowDown,ArrowRight"":23}","false","ArrowDown,ArrowLeft","false","","","","","",""
"html-keyboard-response","61","371593","0.0-3.0-11.0-2.0-1.0","spark_pilot_norest","8716","1","21","Female","","","","","","","null","<div style=""font-size:60px;"">+</div>","null","fixation","","","","","","","","","","","",""
"revaluation","62","377626","0.0-3.0-11.0-2.0-0.1","spark_pilot_norest","8716","1","21","Female","","false","","","","","[795.2999999970198,476]","./assets/img/space/12.jpg","[""ArrowUp"",""ArrowLeft""]","practice block","space","3","{""ArrowUp,ArrowLeft"":3,""ArrowUp,ArrowRight"":36,""ArrowDown,ArrowLeft"":15,""ArrowDown,ArrowRight"":23}","false","ArrowUp,ArrowLeft","false","","","","","",""
"html-keyboard-response","63","378133","0.0-3.0-11.0-2.0-1.1","spark_pilot_norest","8716","1","21","Female","","","","","","","null","<div style=""font-size:60px;"">+</div>","null","fixation","","","","","","","","","","","",""
"revaluation","64","384159","0.0-3.0-11.0-2.0-0.2","spark_pilot_norest","8716","1","21","Female","","false","","","","","[823.7000000029802,379.70000000298023]","./assets/img/space/13.jpg","[""ArrowDown"",""ArrowRight""]","practice block","space","23","{""ArrowUp,ArrowLeft"":3,""ArrowUp,ArrowRight"":36,""ArrowDown,ArrowLeft"":15,""ArrowDown,ArrowRight"":23}","false","ArrowDown,ArrowRight","false","","","","","",""
"html-keyboard-response","65","384665","0.0-3.0-11.0-2.0-1.2","spark_pilot_norest","8716","1","21","Female","","","","","","","null","<div style=""font-size:60px;"">+</div>","null","fixation","","","","","","","","","","","",""
"revaluation","66","390698","0.0-3.0-11.0-2.0-0.3","spark_pilot_norest","8716","1","21","Female","","false","","","","","[936.8999999910593,496.40000000596046]","./assets/img/space/14.jpg","[""ArrowUp"",""ArrowRight""]","practice block","space","36","{""ArrowUp,ArrowLeft"":3,""ArrowUp,ArrowRight"":36,""ArrowDown,ArrowLeft"":15,""ArrowDown,ArrowRight"":23}","true","ArrowUp,ArrowRight","false","","","","","",""
"html-keyboard-response","67","391205","0.0-3.0-11.0-2.0-1.3","spark_pilot_norest","8716","1","21","Female","","","","","","","null","<div style=""font-size:60px;"">+</div>","null","fixation","","","","","","","","","","","",""
"revaluation","68","397232","0.0-3.0-11.0-2.0-0.4","spark_pilot_norest","8716","1","21","Female","","false","","","","","[844.7000000029802,597.5]","./assets/img/space/11.jpg","[""ArrowDown"",""ArrowLeft""]","practice block","space","15","{""ArrowUp,ArrowLeft"":3,""ArrowUp,ArrowRight"":36,""ArrowDown,ArrowLeft"":15,""ArrowDown,ArrowRight"":23}","false","ArrowDown,ArrowLeft","false","","","","","",""
"html-keyboard-response","69","397744","0.0-3.0-11.0-2.0-1.4","spark_pilot_norest","8716","1","21","Female","","","","","","","null","<div style=""font-size:60px;"">+</div>","null","fixation","","","","","","","","","","","",""
"revaluation","70","403765","0.0-3.0-11.0-2.0-0.5","spark_pilot_norest","8716","1","21","Female","","false","","","","","[840.2000000029802,613.7000000029802]","./assets/img/space/12.jpg","[""ArrowUp"",""ArrowRight""]","practice block","space","36","{""ArrowUp,ArrowLeft"":3,""ArrowUp,ArrowRight"":36,""ArrowDown,ArrowLeft"":15,""ArrowDown,ArrowRight"":23}","true","ArrowUp,ArrowRight","false","","","","","",""
"html-keyboard-response","71","404272","0.0-3.0-11.0-2.0-1.5","spark_pilot_norest","8716","1","21","Female","","","","","","","null","<div style=""font-size:60px;"">+</div>","null","fixation","","","","","","","","","","","",""
"revaluation","72","410293","0.0-3.0-11.0-2.0-0.6","spark_pilot_norest","8716","1","21","Female","","false","","","","","[832.5999999940395,1138.7999999970198]","./assets/img/space/13.jpg","[""ArrowDown"",""ArrowLeft""]","practice block","space","15","{""ArrowUp,ArrowLeft"":3,""ArrowUp,ArrowRight"":36,""ArrowDown,ArrowLeft"":15,""ArrowDown,ArrowRight"":23}","false","ArrowDown,ArrowLeft","false","","","","","",""
"html-keyboard-response","73","410800","0.0-3.0-11.0-2.0-1.6","spark_pilot_norest","8716","1","21","Female","","","","","","","null","<div style=""font-size:60px;"">+</div>","null","fixation","","","","","","","","","","","",""
"revaluation","74","416821","0.0-3.0-11.0-2.0-0.7","spark_pilot_norest","8716","1","21","Female","","false","","","","","[685,728.2000000029802]","./assets/img/space/14.jpg","[""ArrowUp"",""ArrowRight""]","practice block","space","36","{""ArrowUp,ArrowLeft"":3,""ArrowUp,ArrowRight"":36,""ArrowDown,ArrowLeft"":15,""ArrowDown,ArrowRight"":23}","true","ArrowUp,ArrowRight","false","","","","","",""
"html-keyboard-response","75","417328","0.0-3.0-11.0-2.0-1.7","spark_pilot_norest","8716","1","21","Female","","","","","","","null","<div style=""font-size:60px;"">+</div>","null","fixation","","","","","","","","","","","",""
"revaluation","76","421344","0.0-3.0-11.0-2.0-0.8","spark_pilot_norest","8716","1","21","Female","","false","","","","","[1001.2000000029802]","./assets/img/space/catch/3.jpg","[""spaceBar""]","practice block","space","0","{""ArrowUp,ArrowLeft"":3,""ArrowUp,ArrowRight"":36,""ArrowDown,ArrowLeft"":15,""ArrowDown,ArrowRight"":23}","true","spaceBar","true","","","","","",""
"html-keyboard-response","77","421856","0.0-3.0-11.0-2.0-1.8","spark_pilot_norest","8716","1","21","Female","","","","","","","null","<div style=""font-size:60px;"">+</div>","null","fixation","","","","","","","","","","","",""
"learning-instructions","78","436915","0.0-3.0-11.0-3.0-0.0","spark_pilot_norest","8716","1","21","Female","","","","","","","1601.5999999940395","<p> Now, you will travel with a friend who will choose whether you go up or down first. </p>
            <p> On these turns, you will just see the animal that they found. You will still get to choose which chest to search for treasure.</p>","","instructions","","","","","","","","","","","",""
"revaluation","79","440935","0.0-3.0-11.0-4.0-0.0","spark_pilot_norest","8716","1","21","Female","","false","","","","","[1455.800000011921]","./assets/img/space/animals/cat.jpg","[""ArrowRight""]","practice block","space","36","{""ArrowUp,ArrowLeft"":3,""ArrowUp,ArrowRight"":36,""ArrowDown,ArrowLeft"":15,""ArrowDown,ArrowRight"":23}","true","ArrowUp,ArrowRight","","","","","","",""
"html-keyboard-response","80","441446","0.0-3.0-11.0-4.0-1.0","spark_pilot_norest","8716","1","21","Female","","","","","","","null","<div style=""font-size:60px;"">+</div>","null","fixation","","","","","","","","","","","",""
"revaluation","81","445463","0.0-3.0-11.0-4.0-0.1","spark_pilot_norest","8716","1","21","Female","","false","","","","","[1254.9000000059605]","./assets/img/space/animals/rabbit.jpg","[""ArrowRight""]","practice block","space","23","{""ArrowUp,ArrowLeft"":3,""ArrowUp,ArrowRight"":36,""ArrowDown,ArrowLeft"":15,""ArrowDown,ArrowRight"":23}","true","ArrowDown,ArrowRight","","","","","","",""
"html-keyboard-response","82","445964","0.0-3.0-11.0-4.0-1.1","spark_pilot_norest","8716","1","21","Female","","","","","","","null","<div style=""font-size:60px;"">+</div>","null","fixation","","","","","","","","","","","",""
"revaluation","83","449980","0.0-3.0-11.0-4.0-0.2","spark_pilot_norest","8716","1","21","Female","","false","","","","","[651.7000000029802]","./assets/img/space/animals/rabbit.jpg","[""ArrowLeft""]","practice block","space","15","{""ArrowUp,ArrowLeft"":3,""ArrowUp,ArrowRight"":36,""ArrowDown,ArrowLeft"":15,""ArrowDown,ArrowRight"":23}","false","ArrowDown,ArrowLeft","","","","","","",""
"html-keyboard-response","84","450486","0.0-3.0-11.0-4.0-1.2","spark_pilot_norest","8716","1","21","Female","","","","","","","null","<div style=""font-size:60px;"">+</div>","null","fixation","","","","","","","","","","","",""
"revaluation","85","454500","0.0-3.0-11.0-4.0-0.3","spark_pilot_norest","8716","1","21","Female","","false","","","","","[484.09999999403954]","./assets/img/space/animals/cat.jpg","[""ArrowRight""]","practice block","space","36","{""ArrowUp,ArrowLeft"":3,""ArrowUp,ArrowRight"":36,""ArrowDown,ArrowLeft"":15,""ArrowDown,ArrowRight"":23}","true","ArrowUp,ArrowRight","","","","","","",""
"html-keyboard-response","86","455005","0.0-3.0-11.0-4.0-1.3","spark_pilot_norest","8716","1","21","Female","","","","","","","null","<div style=""font-size:60px;"">+</div>","null","fixation","","","","","","","","","","","",""
"learning-instructions","87","463141","0.0-3.0-11.0-5.0-0.0","spark_pilot_norest","8716","1","21","Female","","","","","","","null","<p> You have almost finished this part of the game! </p>
            <p> We are going to ask you to make a few more choices. </p>","","instructions","","","","","","","","","","","",""
"learning-instructions","88","479161","0.0-3.0-11.0-5.0-0.1","spark_pilot_norest","8716","1","21","Female","","","","","","","null","<p> First, you need to decide whether to go up or down. When you see each picture, use the arrow keys to make your choice. </p>
            <p><b>You will not see which animal you found, but try to get to the one that will give you the most treasure.</b></p>","","instructions","","","","","","","","","","","",""
"html-keyboard-response","89","480165","0.0-3.0-11.0-6.0-0.0","spark_pilot_norest","8716","1","21","Female","","","","","","","null","<div style=""font-size:100px;color:red;"">Starting in...</div>","null","","","","","","","","","","","","",""
"html-keyboard-response","90","481175","0.0-3.0-11.0-6.0-1.0","spark_pilot_norest","8716","1","21","Female","","","","","","","null","<div style=""font-size:200px;color:red;"">3</div>","null","","","","","","","","","","","","",""
"html-keyboard-response","91","482182","0.0-3.0-11.0-6.0-2.0","spark_pilot_norest","8716","1","21","Female","","","","","","","null","<div style=""font-size:200px;color:red;"">2</div>","null","","","","","","","","","","","","",""
"html-keyboard-response","92","483193","0.0-3.0-11.0-6.0-3.0","spark_pilot_norest","8716","1","21","Female","","","","","","","null","<div style=""font-size:200px;color:red;"">1</div>","null","","","","","","","","","","","","",""
"revaluation","93","484063","0.0-3.0-11.0-7.0","spark_pilot_norest","8716","1","21","Female","","false","","","","","[866.7999999970198]","./assets/img/space/15.jpg","[""ArrowUp""]","practice block","space","0","{""ArrowUp,ArrowLeft"":3,""ArrowUp,ArrowRight"":36,""ArrowDown,ArrowLeft"":15,""ArrowDown,ArrowRight"":23}","true","ArrowUp","false","","","","","",""
"html-keyboard-response","94","484566","0.0-3.0-11.0-8.0","spark_pilot_norest","8716","1","21","Female","","","","","","","null","<div style=""font-size:60px;"">+</div>","null","fixation","","","","","","","","","","","",""
"learning-instructions","95","497948","0.0-3.0-11.0-9.0-0.0","spark_pilot_norest","8716","1","21","Female","","","","","","","null","<p> Now you will see the animals again and can search their chests for treasure. </p>
            <p> This time, you will not see how much treasure you earned, but you will earn more bonus money for making better choices. </p>","","instructions","","","","","","","","","","","",""
"html-keyboard-response","96","498958","0.0-3.0-11.0-10.0-0.0","spark_pilot_norest","8716","1","21","Female","","","","","","","null","<div style=""font-size:100px;color:red;"">Starting in...</div>","null","","","","","","","","","","","","",""
"html-keyboard-response","97","499964","0.0-3.0-11.0-10.0-1.0","spark_pilot_norest","8716","1","21","Female","","","","","","","null","<div style=""font-size:200px;color:red;"">3</div>","null","","","","","","","","","","","","",""
"html-keyboard-response","98","500972","0.0-3.0-11.0-10.0-2.0","spark_pilot_norest","8716","1","21","Female","","","","","","","null","<div style=""font-size:200px;color:red;"">2</div>","null","","","","","","","","","","","","",""
"html-keyboard-response","99","501984","0.0-3.0-11.0-10.0-3.0","spark_pilot_norest","8716","1","21","Female","","","","","","","null","<div style=""font-size:200px;color:red;"">1</div>","null","","","","","","","","","","","","",""
"revaluation","100","502611","0.0-3.0-11.0-11.0-0.0","spark_pilot_norest","8716","1","21","Female","","false","","","","","[623.4000000059605]","./assets/img/space/animals/cat.jpg","[""ArrowRight""]","practice block","space","0","{""ArrowUp,ArrowLeft"":3,""ArrowUp,ArrowRight"":36,""ArrowDown,ArrowLeft"":15,""ArrowDown,ArrowRight"":23}","true","ArrowUp,ArrowRight","","","","","","",""
"html-keyboard-response","101","503116","0.0-3.0-11.0-11.0-1.0","spark_pilot_norest","8716","1","21","Female","","","","","","","null","<div style=""font-size:60px;"">+</div>","null","fixation","","","","","","","","","","","",""
"revaluation","102","504805","0.0-3.0-11.0-11.0-0.1","spark_pilot_norest","8716","1","21","Female","","false","","","","","[1686]","./assets/img/space/animals/rabbit.jpg","[""ArrowRight""]","practice block","space","0","{""ArrowUp,ArrowLeft"":3,""ArrowUp,ArrowRight"":36,""ArrowDown,ArrowLeft"":15,""ArrowDown,ArrowRight"":23}","true","ArrowDown,ArrowRight","","","","","","",""
"html-keyboard-response","103","505308","0.0-3.0-11.0-11.0-1.1","spark_pilot_norest","8716","1","21","Female","","","","","","","null","<div style=""font-size:60px;"">+</div>","null","fixation","","","","","","","","","","","",""
"learning-instructions","104","511549","0.0-3.0-12.0-0.0","spark_pilot_norest","8716","1","21","Female","","","","","","","1664.8999999910593","<p> Before you start, we're going to ask you a few questions about how the game works. </p>","","instructions","","","","","","","","","","","",""
"comp-q","105","523697","0.0-3.0-13.0-0.0-0.0","spark_pilot_norest","8716","1","21","Female","","","","","","","6561","<p> <b> True or False? </b> </p>
            <p> There can be 50 pieces of treasure in a given animal's chest. </p>","1","comp_question","","","","true","","","","","","","",""
"comp-q","106","531670","0.0-3.0-13.0-0.0-1.0","spark_pilot_norest","8716","1","21","Female","","","","","","","1316.699999988079","<p> <b> That's right! </b> The amount of treasure in each chest can range from 0 to 40 pieces. </p>","0","comp_answer","","","","","","","","","","","",""
"comp-q","107","539471","0.0-3.0-13.0-0.1-0.1","spark_pilot_norest","8716","1","21","Female","","","","","","","686.0999999940395","<p> <b> True or False? </b> </p><p> In this game, all animals have the same amount of treasure in their left and right chests. </p>","1","comp_question","","","","true","","","","","","","",""
"comp-q","108","545688","0.0-3.0-13.0-0.1-1.1","spark_pilot_norest","8716","1","21","Female","","","","","","","988.5","<p> <b> That's right! </b> Animals have different amounts of treasure in their treasure chests. </p>","0","comp_answer","","","","","","","","","","","",""
"comp-q","109","552288","0.0-3.0-13.0-0.2-0.2","spark_pilot_norest","8716","1","21","Female","","","","","","","755.7000000029802","<p> <b> True or False? </b> </p><p> The same animal will always be there if you go up in the same place. </p>","1","comp_question","","","","false","","","","","","","",""
"comp-q","110","559832","0.0-3.0-13.0-0.2-1.2","spark_pilot_norest","8716","1","21","Female","","","","","","","1244.2000000029802","<p> <b>Incorrect.</b> One animal lives in the upper part and one lives in the lower part of every place. </p>","0","comp_answer","","","","","","","","","","","",""
"comp-q","111","566254","0.0-3.0-13.0-0.3-0.3","spark_pilot_norest","8716","1","21","Female","","","","","","","599.2999999970198","<p> <b> True or False? </b> </p><p> The same animal will always be there if you go up in the same place. </p>","0","comp_question","","","","true","","","","","","","",""
"comp-q","112","573687","0.0-3.0-13.0-0.3-1.3","spark_pilot_norest","8716","1","21","Female","","","","","","","992.6000000089407","<p> <b> That's right! </b> One animal lives in the upper part and one lives in the lower part of every place. </p>","0","comp_answer","","","","","","","","","","","",""
"comp-q","113","580170","0.0-3.0-13.0-0.4-0.4","spark_pilot_norest","8716","1","21","Female","","","","","","","963.4000000059605","<p> <b> True or False? </b> </p><p> If you see a different picture, it means you are in a new place. </p>","0","comp_question","","","","false","","","","","","","",""
"comp-q","114","592383","0.0-3.0-13.0-0.4-1.4","spark_pilot_norest","8716","1","21","Female","","","","","","","1123.300000011921","<p> <b>Incorrect.</b> Lots of different images may show the same place. For example,  you may see three different images that all remind you that you are in outer space. </p>","0","comp_answer","","","","","","","","","","","",""
"comp-q","115","599927","0.0-3.0-13.0-0.5-0.5","spark_pilot_norest","8716","1","21","Female","","","","","","","2043.2000000029802","<p> <b> True or False? </b> </p><p> If you see a different picture, it means you are in a new place. </p>","0","comp_question","","","","false","","","","","","","",""
"comp-q","116","613620","0.0-3.0-13.0-0.5-1.5","spark_pilot_norest","8716","1","21","Female","","","","","","","2632.4000000059605","<p> <b>Incorrect.</b> Lots of different images may show the same place. For example,  you may see three different images that all remind you that you are in outer space. </p>","0","comp_answer","","","","","","","","","","","",""
"comp-q","117","620284","0.0-3.0-13.0-0.6-0.6","spark_pilot_norest","8716","1","21","Female","","","","","","","1163","<p> <b> True or False? </b> </p><p> If you see a different picture, it means you are in a new place. </p>","1","comp_question","","","","true","","","","","","","",""
"comp-q","118","632587","0.0-3.0-13.0-0.6-1.6","spark_pilot_norest","8716","1","21","Female","","","","","","","1082.7999999970198","<p> <b> That's right! </b> Lots of different images may show the same place. For example,  you may see three different images that all remind you that you are in outer space. </p>","0","comp_answer","","","","","","","","","","","",""
"learning-instructions","119","644682","0.0-3.0-14.0-0.0","spark_pilot_norest","8716","1","21","Female","","","","","","","2243.8999999910593","<p> Good job. Remember to do your best because the amount of treasure you earn will be converted into bonus money. </p>
            <p> It’s time to start the real game! </p>","","instructions","","","","","","","","","","","",""
"learning-instructions","120","648656","0.0-4.0-0.0-0.0","spark_pilot_norest","8716","1","21","Female","","","","","","","1268.5","<p> This time you are searching for treasure in the <b>ocean</b>.</p>","","instructions","","","","","","","","","","","",""
"learning-instructions","121","703582","0.0-4.0-0.0-0.1","spark_pilot_norest","8716","1","21","Female","","","","","","","37636.20000000298","<p><b>New</b> animals with <b>new</b> treasure chests live here. You need to explore to discover where the animal with the best treasure chest is.</p>
                    <p> Like before, once you figure out which animal has the chest with the most treasure, you should try to get to that animal and select that chest! </p>","","instructions","","","","","","","","","","","",""
"learning-instructions","122","724000","0.0-4.0-1.0-0.0","spark_pilot_norest","8716","1","21","Female","","","","","","","5323.70000000298","<p> Remember, when you see a picture of the place, use the up and down keys to <b>find an animal</b>.</p>
            <p> When you encounter an animal, you should use the left and right keys to <b>select a treasure chest</b>.</p>
            <p> Don't forget to look out for the robber! </p>","","instructions","","","","","","","","","","","",""
"revaluation","123","730031","0.0-4.0-2.0-0.0","spark_pilot_norest","8716","1","21","Female","","false","","","","","[1182.9000000059605,1076.9000000059605]","./assets/img/ocean/memory/37.jpg","[""ArrowUp"",""ArrowLeft""]","value training","ocean","26","{""ArrowUp,ArrowLeft"":26,""ArrowUp,ArrowRight"":10,""ArrowDown,ArrowLeft"":5,""ArrowDown,ArrowRight"":17}","true","ArrowUp,ArrowLeft","false","original","1","0","","",""
"html-keyboard-response","124","730543","0.0-4.0-2.0-1.0","spark_pilot_norest","8716","1","21","Female","","","","","","","null","<div style=""font-size:60px;"">+</div>","null","fixation","","","","","","","","","1","","",""
"revaluation","125","736571","0.0-4.0-2.0-0.1","spark_pilot_norest","8716","1","21","Female","","false","","","","","[899.7999999970198,1170.2000000029802]","./assets/img/ocean/memory/26.jpg","[""ArrowUp"",""ArrowLeft""]","value training","ocean","26","{""ArrowUp,ArrowLeft"":26,""ArrowUp,ArrowRight"":10,""ArrowDown,ArrowLeft"":5,""ArrowDown,ArrowRight"":17}","true","ArrowUp,ArrowLeft","false","original","1","2","","",""
"html-keyboard-response","126","737075","0.0-4.0-2.0-1.1","spark_pilot_norest","8716","1","21","Female","","","","","","","null","<div style=""font-size:60px;"">+</div>","null","fixation","","","","","","","","","3","","",""
"revaluation","127","743102","0.0-4.0-2.0-0.2","spark_pilot_norest","8716","1","21","Female","","false","","","","","[1182.7999999970198,775.7000000029802]","./assets/img/ocean/memory/34.jpg","[""ArrowUp"",""ArrowRight""]","value training","ocean","10","{""ArrowUp,ArrowLeft"":26,""ArrowUp,ArrowRight"":10,""ArrowDown,ArrowLeft"":5,""ArrowDown,ArrowRight"":17}","false","ArrowUp,ArrowRight","false","original","1","4","","",""
"html-keyboard-response","128","743615","0.0-4.0-2.0-1.2","spark_pilot_norest","8716","1","21","Female","","","","","","","null","<div style=""font-size:60px;"">+</div>","null","fixation","","","","","","","","","5","","",""
"revaluation","129","749643","0.0-4.0-2.0-0.3","spark_pilot_norest","8716","1","21","Female","","false","","","","","[949,525.5]","./assets/img/ocean/memory/23.jpg","[""ArrowUp"",""ArrowRight""]","value training","ocean","10","{""ArrowUp,ArrowLeft"":26,""ArrowUp,ArrowRight"":10,""ArrowDown,ArrowLeft"":5,""ArrowDown,ArrowRight"":17}","false","ArrowUp,ArrowRight","false","original","1","6","","",""
"html-keyboard-response","130","750149","0.0-4.0-2.0-1.3","spark_pilot_norest","8716","1","21","Female","","","","","","","null","<div style=""font-size:60px;"">+</div>","null","fixation","","","","","","","","","7","","",""
"revaluation","131","756171","0.0-4.0-2.0-0.4","spark_pilot_norest","8716","1","21","Female","","false","","","","","[418.5,656.4000000059605]","./assets/img/ocean/memory/9.jpg","[""ArrowDown"",""ArrowLeft""]","value training","ocean","5","{""ArrowUp,ArrowLeft"":26,""ArrowUp,ArrowRight"":10,""ArrowDown,ArrowLeft"":5,""ArrowDown,ArrowRight"":17}","false","ArrowDown,ArrowLeft","false","original","1","8","","",""
"html-keyboard-response","132","756677","0.0-4.0-2.0-1.4","spark_pilot_norest","8716","1","21","Female","","","","","","","null","<div style=""font-size:60px;"">+</div>","null","fixation","","","","","","","","","9","","",""
"revaluation","133","762699","0.0-4.0-2.0-0.5","spark_pilot_norest","8716","1","21","Female","","false","","","","","[864.4000000059605,525.2999999970198]","./assets/img/ocean/memory/0.jpg","[""ArrowDown"",""ArrowRight""]","value training","ocean","17","{""ArrowUp,ArrowLeft"":26,""ArrowUp,ArrowRight"":10,""ArrowDown,ArrowLeft"":5,""ArrowDown,ArrowRight"":17}","false","ArrowDown,ArrowRight","false","original","1","10","","",""
"html-keyboard-response","134","763205","0.0-4.0-2.0-1.5","spark_pilot_norest","8716","1","21","Female","","","","","","","null","<div style=""font-size:60px;"">+</div>","null","fixation","","","","","","","","","11","","",""
"revaluation","135","769226","0.0-4.0-2.0-0.6","spark_pilot_norest","8716","1","21","Female","","false","","","","","[731.8999999910593,455.1000000089407]","./assets/img/ocean/memory/26.jpg","[""ArrowUp"",""ArrowLeft""]","value training","ocean","26","{""ArrowUp,ArrowLeft"":26,""ArrowUp,ArrowRight"":10,""ArrowDown,ArrowLeft"":5,""ArrowDown,ArrowRight"":17}","true","ArrowUp,ArrowLeft","false","original","1","12","","",""
"html-keyboard-response","136","769732","0.0-4.0-2.0-1.6","spark_pilot_norest","8716","1","21","Female","","","","","","","null","<div style=""font-size:60px;"">+</div>","null","fixation","","","","","","","","","13","","",""
"revaluation","137","775754","0.0-4.0-2.0-0.7","spark_pilot_norest","8716","1","21","Female","","false","","","","","[929.5,1221.7000000029802]","./assets/img/ocean/memory/9.jpg","[""ArrowUp"",""ArrowLeft""]","value training","ocean","26","{""ArrowUp,ArrowLeft"":26,""ArrowUp,ArrowRight"":10,""ArrowDown,ArrowLeft"":5,""ArrowDown,ArrowRight"":17}","true","ArrowUp,ArrowLeft","false","original","1","14","","",""
"html-keyboard-response","138","776260","0.0-4.0-2.0-1.7","spark_pilot_norest","8716","1","21","Female","","","","","","","null","<div style=""font-size:60px;"">+</div>","null","fixation","","","","","","","","","15","","",""
"revaluation","139","782282","0.0-4.0-2.0-0.8","spark_pilot_norest","8716","1","21","Female","","false","","","","","[758.3999999910593,512.5]","./assets/img/ocean/memory/34.jpg","[""ArrowUp"",""ArrowLeft""]","value training","ocean","26","{""ArrowUp,ArrowLeft"":26,""ArrowUp,ArrowRight"":10,""ArrowDown,ArrowLeft"":5,""ArrowDown,ArrowRight"":17}","true","ArrowUp,ArrowLeft","false","original","1","16","","",""
"html-keyboard-response","140","782789","0.0-4.0-2.0-1.8","spark_pilot_norest","8716","1","21","Female","","","","","","","null","<div style=""font-size:60px;"">+</div>","null","fixation","","","","","","","","","17","","",""
"revaluation","141","786805","0.0-4.0-2.0-0.9","spark_pilot_norest","8716","1","21","Female","","false","","","","","[625.6000000089407]","./assets/img/ocean/catch/3.jpg","[""spaceBar""]","value training","ocean","0","{""ArrowUp,ArrowLeft"":26,""ArrowUp,ArrowRight"":10,""ArrowDown,ArrowLeft"":5,""ArrowDown,ArrowRight"":17}","true","spaceBar","true","original","1","18","","",""
"html-keyboard-response","142","787317","0.0-4.0-2.0-1.9","spark_pilot_norest","8716","1","21","Female","","","","","","","null","<div style=""font-size:60px;"">+</div>","null","fixation","","","","","","","","","19","","",""
"revaluation","143","793338","0.0-4.0-2.0-0.10","spark_pilot_norest","8716","1","21","Female","","false","","","","","[1465.3999999910593,1650.5999999940395]","./assets/img/ocean/memory/1.jpg","[""ArrowUp"",""ArrowLeft""]","value training","ocean","26","{""ArrowUp,ArrowLeft"":26,""ArrowUp,ArrowRight"":10,""ArrowDown,ArrowLeft"":5,""ArrowDown,ArrowRight"":17}","true","ArrowUp,ArrowLeft","false","original","1","20","","",""
"html-keyboard-response","144","793845","0.0-4.0-2.0-1.10","spark_pilot_norest","8716","1","21","Female","","","","","","","null","<div style=""font-size:60px;"">+</div>","null","fixation","","","","","","","","","21","","",""
"revaluation","145","797861","0.0-4.0-2.0-0.11","spark_pilot_norest","8716","1","21","Female","","false","","","","","[802.3999999910593]","./assets/img/ocean/catch/2.jpg","[""spaceBar""]","value training","ocean","0","{""ArrowUp,ArrowLeft"":26,""ArrowUp,ArrowRight"":10,""ArrowDown,ArrowLeft"":5,""ArrowDown,ArrowRight"":17}","true","spaceBar","true","original","1","22","","",""
"html-keyboard-response","146","798373","0.0-4.0-2.0-1.11","spark_pilot_norest","8716","1","21","Female","","","","","","","null","<div style=""font-size:60px;"">+</div>","null","fixation","","","","","","","","","23","","",""
"revaluation","147","802389","0.0-4.0-2.0-0.12","spark_pilot_norest","8716","1","21","Female","","false","","","","","[1489.6000000089407]","./assets/img/ocean/catch/4.jpg","[""spaceBar""]","value training","ocean","0","{""ArrowUp,ArrowLeft"":26,""ArrowUp,ArrowRight"":10,""ArrowDown,ArrowLeft"":5,""ArrowDown,ArrowRight"":17}","true","spaceBar","true","original","1","24","","",""
"html-keyboard-response","148","802901","0.0-4.0-2.0-1.12","spark_pilot_norest","8716","1","21","Female","","","","","","","null","<div style=""font-size:60px;"">+</div>","null","fixation","","","","","","","","","25","","",""
"revaluation","149","808922","0.0-4.0-2.0-0.13","spark_pilot_norest","8716","1","21","Female","","false","","","","","[963.2000000029802,1608.2000000029802]","./assets/img/ocean/memory/17.jpg","[""ArrowUp"",""ArrowLeft""]","value training","ocean","26","{""ArrowUp,ArrowLeft"":26,""ArrowUp,ArrowRight"":10,""ArrowDown,ArrowLeft"":5,""ArrowDown,ArrowRight"":17}","true","ArrowUp,ArrowLeft","false","original","1","26","","",""
"html-keyboard-response","150","809429","0.0-4.0-2.0-1.13","spark_pilot_norest","8716","1","21","Female","","","","","","","null","<div style=""font-size:60px;"">+</div>","null","fixation","","","","","","","","","27","","",""
"revaluation","151","815450","0.0-4.0-2.0-0.14","spark_pilot_norest","8716","1","21","Female","","false","","","","","[1149.1000000089407,1579.7000000029802]","./assets/img/ocean/memory/28.jpg","[""ArrowUp"",""ArrowLeft""]","value training","ocean","26","{""ArrowUp,ArrowLeft"":26,""ArrowUp,ArrowRight"":10,""ArrowDown,ArrowLeft"":5,""ArrowDown,ArrowRight"":17}","true","ArrowUp,ArrowLeft","false","original","1","28","","",""
"html-keyboard-response","152","815956","0.0-4.0-2.0-1.14","spark_pilot_norest","8716","1","21","Female","","","","","","","null","<div style=""font-size:60px;"">+</div>","null","fixation","","","","","","","","","29","","",""
"revaluation","153","821978","0.0-4.0-2.0-0.15","spark_pilot_norest","8716","1","21","Female","","false","","","","","[925.1000000089407,646.6999999880791]","./assets/img/ocean/memory/33.jpg","[""ArrowUp"",""ArrowLeft""]","value training","ocean","26","{""ArrowUp,ArrowLeft"":26,""ArrowUp,ArrowRight"":10,""ArrowDown,ArrowLeft"":5,""ArrowDown,ArrowRight"":17}","true","ArrowUp,ArrowLeft","false","original","1","30","","",""
"html-keyboard-response","154","822484","0.0-4.0-2.0-1.15","spark_pilot_norest","8716","1","21","Female","","","","","","","null","<div style=""font-size:60px;"">+</div>","null","fixation","","","","","","","","","31","","",""
"revaluation","155","826501","0.0-4.0-2.0-0.16","spark_pilot_norest","8716","1","21","Female","","false","","","","","[582.4000000059605]","./assets/img/ocean/catch/0.jpg","[""spaceBar""]","value training","ocean","0","{""ArrowUp,ArrowLeft"":26,""ArrowUp,ArrowRight"":10,""ArrowDown,ArrowLeft"":5,""ArrowDown,ArrowRight"":17}","true","spaceBar","true","original","1","32","","",""
"html-keyboard-response","156","827012","0.0-4.0-2.0-1.16","spark_pilot_norest","8716","1","21","Female","","","","","","","null","<div style=""font-size:60px;"">+</div>","null","fixation","","","","","","","","","33","","",""
"revaluation","157","833034","0.0-4.0-2.0-0.17","spark_pilot_norest","8716","1","21","Female","","false","","","","","[1444.5999999940395,824.2000000029802]","./assets/img/ocean/memory/16.jpg","[""ArrowUp"",""ArrowLeft""]","value training","ocean","26","{""ArrowUp,ArrowLeft"":26,""ArrowUp,ArrowRight"":10,""ArrowDown,ArrowLeft"":5,""ArrowDown,ArrowRight"":17}","true","ArrowUp,ArrowLeft","false","original","1","34","","",""
"html-keyboard-response","158","833540","0.0-4.0-2.0-1.17","spark_pilot_norest","8716","1","21","Female","","","","","","","null","<div style=""font-size:60px;"">+</div>","null","fixation","","","","","","","","","35","","",""
"revaluation","159","839562","0.0-4.0-2.0-0.18","spark_pilot_norest","8716","1","21","Female","","false","","","","","[687.2999999970198,1008.1000000089407]","./assets/img/ocean/memory/33.jpg","[""ArrowUp"",""ArrowLeft""]","value training","ocean","26","{""ArrowUp,ArrowLeft"":26,""ArrowUp,ArrowRight"":10,""ArrowDown,ArrowLeft"":5,""ArrowDown,ArrowRight"":17}","true","ArrowUp,ArrowLeft","false","original","1","36","","",""
"html-keyboard-response","160","840068","0.0-4.0-2.0-1.18","spark_pilot_norest","8716","1","21","Female","","","","","","","null","<div style=""font-size:60px;"">+</div>","null","fixation","","","","","","","","","37","","",""
"revaluation","161","846090","0.0-4.0-2.0-0.19","spark_pilot_norest","8716","1","21","Female","","false","","","","","[994.5,1821.0999999940395]","./assets/img/ocean/memory/2.jpg","[""ArrowUp"",""ArrowLeft""]","value training","ocean","26","{""ArrowUp,ArrowLeft"":26,""ArrowUp,ArrowRight"":10,""ArrowDown,ArrowLeft"":5,""ArrowDown,ArrowRight"":17}","true","ArrowUp,ArrowLeft","false","original","1","38","","",""
"html-keyboard-response","162","846596","0.0-4.0-2.0-1.19","spark_pilot_norest","8716","1","21","Female","","","","","","","null","<div style=""font-size:60px;"">+</div>","null","fixation","","","","","","","","","39","","",""
"revaluation","163","852618","0.0-4.0-2.0-0.20","spark_pilot_norest","8716","1","21","Female","","false","","","","","[881.0999999940395,764.9000000059605]","./assets/img/ocean/memory/10.jpg","[""ArrowUp"",""ArrowLeft""]","value training","ocean","26","{""ArrowUp,ArrowLeft"":26,""ArrowUp,ArrowRight"":10,""ArrowDown,ArrowLeft"":5,""ArrowDown,ArrowRight"":17}","true","ArrowUp,ArrowLeft","false","original","1","40","","",""
"html-keyboard-response","164","853124","0.0-4.0-2.0-1.20","spark_pilot_norest","8716","1","21","Female","","","","","","","null","<div style=""font-size:60px;"">+</div>","null","fixation","","","","","","","","","41","","",""
"revaluation","165","859146","0.0-4.0-2.0-0.21","spark_pilot_norest","8716","1","21","Female","","false","","","","","[746.7999999970198,686.6000000089407]","./assets/img/ocean/memory/19.jpg","[""ArrowUp"",""ArrowLeft""]","value training","ocean","26","{""ArrowUp,ArrowLeft"":26,""ArrowUp,ArrowRight"":10,""ArrowDown,ArrowLeft"":5,""ArrowDown,ArrowRight"":17}","true","ArrowUp,ArrowLeft","false","original","1","42","","",""
"html-keyboard-response","166","859652","0.0-4.0-2.0-1.21","spark_pilot_norest","8716","1","21","Female","","","","","","","null","<div style=""font-size:60px;"">+</div>","null","fixation","","","","","","","","","43","","",""
"revaluation","167","865674","0.0-4.0-2.0-0.22","spark_pilot_norest","8716","1","21","Female","","false","","","","","[850.8999999910593,947]","./assets/img/ocean/memory/41.jpg","[""ArrowUp"",""ArrowLeft""]","value training","ocean","26","{""ArrowUp,ArrowLeft"":26,""ArrowUp,ArrowRight"":10,""ArrowDown,ArrowLeft"":5,""ArrowDown,ArrowRight"":17}","true","ArrowUp,ArrowLeft","false","original","1","44","","",""
"html-keyboard-response","168","866180","0.0-4.0-2.0-1.22","spark_pilot_norest","8716","1","21","Female","","","","","","","null","<div style=""font-size:60px;"">+</div>","null","fixation","","","","","","","","","45","","",""
"revaluation","169","872202","0.0-4.0-2.0-0.23","spark_pilot_norest","8716","1","21","Female","","false","","","","","[783.2999999970198,614.6000000089407]","./assets/img/ocean/memory/10.jpg","[""ArrowUp"",""ArrowLeft""]","value training","ocean","26","{""ArrowUp,ArrowLeft"":26,""ArrowUp,ArrowRight"":10,""ArrowDown,ArrowLeft"":5,""ArrowDown,ArrowRight"":17}","true","ArrowUp,ArrowLeft","false","original","1","46","","",""
"html-keyboard-response","170","872708","0.0-4.0-2.0-1.23","spark_pilot_norest","8716","1","21","Female","","","","","","","null","<div style=""font-size:60px;"">+</div>","null","fixation","","","","","","","","","47","","",""
"revaluation","171","878730","0.0-4.0-2.0-0.24","spark_pilot_norest","8716","1","21","Female","","false","","","","","[811.7999999970198,363.09999999403954]","./assets/img/ocean/memory/35.jpg","[""ArrowUp"",""ArrowLeft""]","value training","ocean","26","{""ArrowUp,ArrowLeft"":26,""ArrowUp,ArrowRight"":10,""ArrowDown,ArrowLeft"":5,""ArrowDown,ArrowRight"":17}","true","ArrowUp,ArrowLeft","false","original","1","48","","",""
"html-keyboard-response","172","879235","0.0-4.0-2.0-1.24","spark_pilot_norest","8716","1","21","Female","","","","","","","null","<div style=""font-size:60px;"">+</div>","null","fixation","","","","","","","","","49","","",""
"revaluation","173","885258","0.0-4.0-2.0-0.25","spark_pilot_norest","8716","1","21","Female","","false","","","","","[725.6000000089407,615.1000000089407]","./assets/img/ocean/memory/19.jpg","[""ArrowUp"",""ArrowLeft""]","value training","ocean","26","{""ArrowUp,ArrowLeft"":26,""ArrowUp,ArrowRight"":10,""ArrowDown,ArrowLeft"":5,""ArrowDown,ArrowRight"":17}","true","ArrowUp,ArrowLeft","false","original","1","50","","",""
"html-keyboard-response","174","885764","0.0-4.0-2.0-1.25","spark_pilot_norest","8716","1","21","Female","","","","","","","null","<div style=""font-size:60px;"">+</div>","null","fixation","","","","","","","","","51","","",""
"revaluation","175","891786","0.0-4.0-2.0-0.26","spark_pilot_norest","8716","1","21","Female","","false","","","","","[522.9000000059605,516.8999999910593]","./assets/img/ocean/memory/3.jpg","[""ArrowUp"",""ArrowLeft""]","value training","ocean","26","{""ArrowUp,ArrowLeft"":26,""ArrowUp,ArrowRight"":10,""ArrowDown,ArrowLeft"":5,""ArrowDown,ArrowRight"":17}","true","ArrowUp,ArrowLeft","false","original","1","52","","",""
"html-keyboard-response","176","892292","0.0-4.0-2.0-1.26","spark_pilot_norest","8716","1","21","Female","","","","","","","null","<div style=""font-size:60px;"">+</div>","null","fixation","","","","","","","","","53","","",""
"revaluation","177","896308","0.0-4.0-2.0-0.27","spark_pilot_norest","8716","1","21","Female","","false","","","","","[865.2999999970198]","./assets/img/ocean/catch/7.jpg","[""spaceBar""]","value training","ocean","0","{""ArrowUp,ArrowLeft"":26,""ArrowUp,ArrowRight"":10,""ArrowDown,ArrowLeft"":5,""ArrowDown,ArrowRight"":17}","true","spaceBar","true","original","1","54","","",""
"html-keyboard-response","178","896820","0.0-4.0-2.0-1.27","spark_pilot_norest","8716","1","21","Female","","","","","","","null","<div style=""font-size:60px;"">+</div>","null","fixation","","","","","","","","","55","","",""
"revaluation","179","902842","0.0-4.0-2.0-0.28","spark_pilot_norest","8716","1","21","Female","","false","","","","","[864.7999999970198,582.7999999970198]","./assets/img/ocean/memory/29.jpg","[""ArrowUp"",""ArrowLeft""]","value training","ocean","26","{""ArrowUp,ArrowLeft"":26,""ArrowUp,ArrowRight"":10,""ArrowDown,ArrowLeft"":5,""ArrowDown,ArrowRight"":17}","true","ArrowUp,ArrowLeft","false","original","1","56","","",""
"html-keyboard-response","180","903348","0.0-4.0-2.0-1.28","spark_pilot_norest","8716","1","21","Female","","","","","","","null","<div style=""font-size:60px;"">+</div>","null","fixation","","","","","","","","","57","","",""
"revaluation","181","909370","0.0-4.0-2.0-0.29","spark_pilot_norest","8716","1","21","Female","","false","","","","","[607.9000000059605,577.7000000029802]","./assets/img/ocean/memory/41.jpg","[""ArrowUp"",""ArrowRight""]","value training","ocean","10","{""ArrowUp,ArrowLeft"":26,""ArrowUp,ArrowRight"":10,""ArrowDown,ArrowLeft"":5,""ArrowDown,ArrowRight"":17}","false","ArrowUp,ArrowRight","false","original","1","58","","",""
"html-keyboard-response","182","909876","0.0-4.0-2.0-1.29","spark_pilot_norest","8716","1","21","Female","","","","","","","null","<div style=""font-size:60px;"">+</div>","null","fixation","","","","","","","","","59","","",""
"revaluation","183","915898","0.0-4.0-2.0-0.30","spark_pilot_norest","8716","1","21","Female","","false","","","","","[884.2000000029802,515.2000000029802]","./assets/img/ocean/memory/13.jpg","[""ArrowUp"",""ArrowLeft""]","value training","ocean","26","{""ArrowUp,ArrowLeft"":26,""ArrowUp,ArrowRight"":10,""ArrowDown,ArrowLeft"":5,""ArrowDown,ArrowRight"":17}","true","ArrowUp,ArrowLeft","false","original","1","60","","",""
"html-keyboard-response","184","916404","0.0-4.0-2.0-1.30","spark_pilot_norest","8716","1","21","Female","","","","","","","null","<div style=""font-size:60px;"">+</div>","null","fixation","","","","","","","","","61","","",""
"revaluation","185","922425","0.0-4.0-2.0-0.31","spark_pilot_norest","8716","1","21","Female","","false","","","","","[657.2999999970198,486.09999999403954]","./assets/img/ocean/memory/3.jpg","[""ArrowUp"",""ArrowLeft""]","value training","ocean","26","{""ArrowUp,ArrowLeft"":26,""ArrowUp,ArrowRight"":10,""ArrowDown,ArrowLeft"":5,""ArrowDown,ArrowRight"":17}","true","ArrowUp,ArrowLeft","false","original","1","62","","",""
"html-keyboard-response","186","922932","0.0-4.0-2.0-1.31","spark_pilot_norest","8716","1","21","Female","","","","","","","null","<div style=""font-size:60px;"">+</div>","null","fixation","","","","","","","","","63","","",""
"revaluation","187","926948","0.0-4.0-2.0-0.32","spark_pilot_norest","8716","1","21","Female","","false","","","","","[629.7000000029802]","./assets/img/ocean/catch/1.jpg","[""spaceBar""]","value training","ocean","0","{""ArrowUp,ArrowLeft"":26,""ArrowUp,ArrowRight"":10,""ArrowDown,ArrowLeft"":5,""ArrowDown,ArrowRight"":17}","true","spaceBar","true","original","1","64","","",""
"html-keyboard-response","188","927460","0.0-4.0-2.0-1.32","spark_pilot_norest","8716","1","21","Female","","","","","","","null","<div style=""font-size:60px;"">+</div>","null","fixation","","","","","","","","","65","","",""
"revaluation","189","933481","0.0-4.0-2.0-0.33","spark_pilot_norest","8716","1","21","Female","","false","","","","","[758.0999999940395,836.1000000089407]","./assets/img/ocean/memory/23.jpg","[""ArrowUp"",""ArrowLeft""]","value training","ocean","26","{""ArrowUp,ArrowLeft"":26,""ArrowUp,ArrowRight"":10,""ArrowDown,ArrowLeft"":5,""ArrowDown,ArrowRight"":17}","true","ArrowUp,ArrowLeft","false","original","1","66","","",""
"html-keyboard-response","190","933987","0.0-4.0-2.0-1.33","spark_pilot_norest","8716","1","21","Female","","","","","","","null","<div style=""font-size:60px;"">+</div>","null","fixation","","","","","","","","","67","","",""
"revaluation","191","940009","0.0-4.0-2.0-0.34","spark_pilot_norest","8716","1","21","Female","","false","","","","","[680.7999999970198,606]","./assets/img/ocean/memory/32.jpg","[""ArrowUp"",""ArrowLeft""]","value training","ocean","26","{""ArrowUp,ArrowLeft"":26,""ArrowUp,ArrowRight"":10,""ArrowDown,ArrowLeft"":5,""ArrowDown,ArrowRight"":17}","true","ArrowUp,ArrowLeft","false","original","1","68","","",""
"html-keyboard-response","192","940516","0.0-4.0-2.0-1.34","spark_pilot_norest","8716","1","21","Female","","","","","","","null","<div style=""font-size:60px;"">+</div>","null","fixation","","","","","","","","","69","","",""
"revaluation","193","946537","0.0-4.0-2.0-0.35","spark_pilot_norest","8716","1","21","Female","","false","","","","","[624.4000000059605,451.8999999910593]","./assets/img/ocean/memory/37.jpg","[""ArrowUp"",""ArrowLeft""]","value training","ocean","26","{""ArrowUp,ArrowLeft"":26,""ArrowUp,ArrowRight"":10,""ArrowDown,ArrowLeft"":5,""ArrowDown,ArrowRight"":17}","true","ArrowUp,ArrowLeft","false","original","1","70","","",""
"html-keyboard-response","194","947044","0.0-4.0-2.0-1.35","spark_pilot_norest","8716","1","21","Female","","","","","","","null","<div style=""font-size:60px;"">+</div>","null","fixation","","","","","","","","","71","","",""
"revaluation","195","953065","0.0-4.0-2.0-0.36","spark_pilot_norest","8716","1","21","Female","","false","","","","","[534.7999999970198,288.6000000089407]","./assets/img/ocean/memory/17.jpg","[""ArrowUp"",""ArrowLeft""]","value training","ocean","26","{""ArrowUp,ArrowLeft"":26,""ArrowUp,ArrowRight"":10,""ArrowDown,ArrowLeft"":5,""ArrowDown,ArrowRight"":17}","true","ArrowUp,ArrowLeft","false","original","1","72","","",""
"html-keyboard-response","196","953572","0.0-4.0-2.0-1.36","spark_pilot_norest","8716","1","21","Female","","","","","","","null","<div style=""font-size:60px;"">+</div>","null","fixation","","","","","","","","","73","","",""
"revaluation","197","959593","0.0-4.0-2.0-0.37","spark_pilot_norest","8716","1","21","Female","","false","","","","","[654.9000000059605,570]","./assets/img/ocean/memory/35.jpg","[""ArrowUp"",""ArrowLeft""]","value training","ocean","26","{""ArrowUp,ArrowLeft"":26,""ArrowUp,ArrowRight"":10,""ArrowDown,ArrowLeft"":5,""ArrowDown,ArrowRight"":17}","true","ArrowUp,ArrowLeft","false","original","1","74","","",""
"html-keyboard-response","198","960100","0.0-4.0-2.0-1.37","spark_pilot_norest","8716","1","21","Female","","","","","","","null","<div style=""font-size:60px;"">+</div>","null","fixation","","","","","","","","","75","","",""
"revaluation","199","966121","0.0-4.0-2.0-0.38","spark_pilot_norest","8716","1","21","Female","","false","","","","","[513.2000000029802,689.5]","./assets/img/ocean/memory/11.jpg","[""ArrowUp"",""ArrowLeft""]","value training","ocean","26","{""ArrowUp,ArrowLeft"":26,""ArrowUp,ArrowRight"":10,""ArrowDown,ArrowLeft"":5,""ArrowDown,ArrowRight"":17}","true","ArrowUp,ArrowLeft","false","original","1","76","","",""
"html-keyboard-response","200","966628","0.0-4.0-2.0-1.38","spark_pilot_norest","8716","1","21","Female","","","","","","","null","<div style=""font-size:60px;"">+</div>","null","fixation","","","","","","","","","77","","",""
"revaluation","201","970644","0.0-4.0-2.0-0.39","spark_pilot_norest","8716","1","21","Female","","false","","","","","[660.5999999940395]","./assets/img/ocean/catch/6.jpg","[""spaceBar""]","value training","ocean","0","{""ArrowUp,ArrowLeft"":26,""ArrowUp,ArrowRight"":10,""ArrowDown,ArrowLeft"":5,""ArrowDown,ArrowRight"":17}","true","spaceBar","true","original","1","78","","",""
"html-keyboard-response","202","971155","0.0-4.0-2.0-1.39","spark_pilot_norest","8716","1","21","Female","","","","","","","null","<div style=""font-size:60px;"">+</div>","null","fixation","","","","","","","","","79","","",""
"revaluation","203","977177","0.0-4.0-2.0-0.40","spark_pilot_norest","8716","1","21","Female","","false","","","","","[577.6000000089407,277.20000000298023]","./assets/img/ocean/memory/2.jpg","[""ArrowUp"",""ArrowLeft""]","value training","ocean","26","{""ArrowUp,ArrowLeft"":26,""ArrowUp,ArrowRight"":10,""ArrowDown,ArrowLeft"":5,""ArrowDown,ArrowRight"":17}","true","ArrowUp,ArrowLeft","false","original","1","80","","",""
"html-keyboard-response","204","977683","0.0-4.0-2.0-1.40","spark_pilot_norest","8716","1","21","Female","","","","","","","null","<div style=""font-size:60px;"">+</div>","null","fixation","","","","","","","","","81","","",""
"revaluation","205","983705","0.0-4.0-2.0-0.41","spark_pilot_norest","8716","1","21","Female","","false","","","","","[561.4000000059605,425.70000000298023]","./assets/img/ocean/memory/28.jpg","[""ArrowUp"",""ArrowLeft""]","value training","ocean","26","{""ArrowUp,ArrowLeft"":26,""ArrowUp,ArrowRight"":10,""ArrowDown,ArrowLeft"":5,""ArrowDown,ArrowRight"":17}","true","ArrowUp,ArrowLeft","false","original","1","82","","",""
"html-keyboard-response","206","984212","0.0-4.0-2.0-1.41","spark_pilot_norest","8716","1","21","Female","","","","","","","null","<div style=""font-size:60px;"">+</div>","null","fixation","","","","","","","","","83","","",""
"revaluation","207","990233","0.0-4.0-2.0-0.42","spark_pilot_norest","8716","1","21","Female","","false","","","","","[768.2000000029802,593.0999999940395]","./assets/img/ocean/memory/11.jpg","[""ArrowUp"",""ArrowLeft""]","value training","ocean","26","{""ArrowUp,ArrowLeft"":26,""ArrowUp,ArrowRight"":10,""ArrowDown,ArrowLeft"":5,""ArrowDown,ArrowRight"":17}","true","ArrowUp,ArrowLeft","false","original","1","84","","",""
"html-keyboard-response","208","990739","0.0-4.0-2.0-1.42","spark_pilot_norest","8716","1","21","Female","","","","","","","null","<div style=""font-size:60px;"">+</div>","null","fixation","","","","","","","","","85","","",""
"revaluation","209","996761","0.0-4.0-2.0-0.43","spark_pilot_norest","8716","1","21","Female","","false","","","","","[745.5,398.40000000596046]","./assets/img/ocean/memory/16.jpg","[""ArrowUp"",""ArrowLeft""]","value training","ocean","26","{""ArrowUp,ArrowLeft"":26,""ArrowUp,ArrowRight"":10,""ArrowDown,ArrowLeft"":5,""ArrowDown,ArrowRight"":17}","true","ArrowUp,ArrowLeft","false","original","1","86","","",""
"html-keyboard-response","210","997267","0.0-4.0-2.0-1.43","spark_pilot_norest","8716","1","21","Female","","","","","","","null","<div style=""font-size:60px;"">+</div>","null","fixation","","","","","","","","","87","","",""
"revaluation","211","1003289","0.0-4.0-2.0-0.44","spark_pilot_norest","8716","1","21","Female","","false","","","","","[597,279.20000000298023]","./assets/img/ocean/memory/13.jpg","[""ArrowUp"",""ArrowLeft""]","value training","ocean","26","{""ArrowUp,ArrowLeft"":26,""ArrowUp,ArrowRight"":10,""ArrowDown,ArrowLeft"":5,""ArrowDown,ArrowRight"":17}","true","ArrowUp,ArrowLeft","false","original","1","88","","",""
"html-keyboard-response","212","1003795","0.0-4.0-2.0-1.44","spark_pilot_norest","8716","1","21","Female","","","","","","","null","<div style=""font-size:60px;"">+</div>","null","fixation","","","","","","","","","89","","",""
"revaluation","213","1009817","0.0-4.0-2.0-0.45","spark_pilot_norest","8716","1","21","Female","","false","","","","","[582.9000000059605,426.79999999701977]","./assets/img/ocean/memory/1.jpg","[""ArrowUp"",""ArrowLeft""]","value training","ocean","26","{""ArrowUp,ArrowLeft"":26,""ArrowUp,ArrowRight"":10,""ArrowDown,ArrowLeft"":5,""ArrowDown,ArrowRight"":17}","true","ArrowUp,ArrowLeft","false","original","1","90","","",""
"html-keyboard-response","214","1010323","0.0-4.0-2.0-1.45","spark_pilot_norest","8716","1","21","Female","","","","","","","null","<div style=""font-size:60px;"">+</div>","null","fixation","","","","","","","","","91","","",""
"revaluation","215","1016345","0.0-4.0-2.0-0.46","spark_pilot_norest","8716","1","21","Female","","false","","","","","[869.5,477.70000000298023]","./assets/img/ocean/memory/0.jpg","[""ArrowUp"",""ArrowLeft""]","value training","ocean","26","{""ArrowUp,ArrowLeft"":26,""ArrowUp,ArrowRight"":10,""ArrowDown,ArrowLeft"":5,""ArrowDown,ArrowRight"":17}","true","ArrowUp,ArrowLeft","false","original","1","92","","",""
"html-keyboard-response","216","1016851","0.0-4.0-2.0-1.46","spark_pilot_norest","8716","1","21","Female","","","","","","","null","<div style=""font-size:60px;"">+</div>","null","fixation","","","","","","","","","93","","",""
"revaluation","217","1022873","0.0-4.0-2.0-0.47","spark_pilot_norest","8716","1","21","Female","","false","","","","","[788.2000000029802,472.90000000596046]","./assets/img/ocean/memory/32.jpg","[""ArrowUp"",""ArrowLeft""]","value training","ocean","26","{""ArrowUp,ArrowLeft"":26,""ArrowUp,ArrowRight"":10,""ArrowDown,ArrowLeft"":5,""ArrowDown,ArrowRight"":17}","true","ArrowUp,ArrowLeft","false","original","1","94","","",""
"html-keyboard-response","218","1023379","0.0-4.0-2.0-1.47","spark_pilot_norest","8716","1","21","Female","","","","","","","null","<div style=""font-size:60px;"">+</div>","null","fixation","","","","","","","","","95","","",""
"revaluation","219","1027395","0.0-4.0-2.0-0.48","spark_pilot_norest","8716","1","21","Female","","false","","","","","[872.0999999940395]","./assets/img/ocean/catch/5.jpg","[""spaceBar""]","value training","ocean","0","{""ArrowUp,ArrowLeft"":26,""ArrowUp,ArrowRight"":10,""ArrowDown,ArrowLeft"":5,""ArrowDown,ArrowRight"":17}","true","spaceBar","true","original","1","96","","",""
"html-keyboard-response","220","1027907","0.0-4.0-2.0-1.48","spark_pilot_norest","8716","1","21","Female","","","","","","","null","<div style=""font-size:60px;"">+</div>","null","fixation","","","","","","","","","97","","",""
"revaluation","221","1033929","0.0-4.0-2.0-0.49","spark_pilot_norest","8716","1","21","Female","","false","","","","","[685.5,542.9000000059605]","./assets/img/ocean/memory/29.jpg","[""ArrowUp"",""ArrowLeft""]","value training","ocean","26","{""ArrowUp,ArrowLeft"":26,""ArrowUp,ArrowRight"":10,""ArrowDown,ArrowLeft"":5,""ArrowDown,ArrowRight"":17}","true","ArrowUp,ArrowLeft","false","original","1","98","","",""
"html-keyboard-response","222","1034435","0.0-4.0-2.0-1.49","spark_pilot_norest","8716","1","21","Female","","","","","","","null","<div style=""font-size:60px;"">+</div>","null","fixation","","","","","","","","","99","","",""
"learning-instructions","223","1049535","0.0-4.0-3.0-0.0","spark_pilot_norest","8716","1","21","Female","","","","","","","1680.2999999970198","<p> Now, you will travel with a friend who will choose whether you go up or down first. </p>
            <p> On these turns, you will just see the animal that they found. You will still get to choose which chest to search for treasure.</p>","","instructions","","","","","","","","","","","",""
"revaluation","224","1053557","0.0-4.0-4.0-0.0","spark_pilot_norest","8716","1","21","Female","","false","","","","","[1245.7000000029802]","./assets/img/ocean/animals/seahorse.jpg","[""ArrowRight""]","revaluation","ocean","17","{""ArrowUp,ArrowLeft"":26,""ArrowUp,ArrowRight"":10,""ArrowDown,ArrowLeft"":5,""ArrowDown,ArrowRight"":17}","true","ArrowDown,ArrowRight","","original","1","0","","",""
"html-keyboard-response","225","1054065","0.0-4.0-4.0-1.0","spark_pilot_norest","8716","1","21","Female","","","","","","","null","<div style=""font-size:60px;"">+</div>","null","fixation","","","","","","","","","1","","",""
"revaluation","226","1058084","0.0-4.0-4.0-0.1","spark_pilot_norest","8716","1","21","Female","","false","","","","","[522.7000000029802]","./assets/img/ocean/animals/seahorse.jpg","[""ArrowLeft""]","revaluation","ocean","5","{""ArrowUp,ArrowLeft"":26,""ArrowUp,ArrowRight"":10,""ArrowDown,ArrowLeft"":5,""ArrowDown,ArrowRight"":17}","false","ArrowDown,ArrowLeft","","original","1","2","","",""
"html-keyboard-response","227","1058596","0.0-4.0-4.0-1.1","spark_pilot_norest","8716","1","21","Female","","","","","","","null","<div style=""font-size:60px;"">+</div>","null","fixation","","","","","","","","","3","","",""
"revaluation","228","1062609","0.0-4.0-4.0-0.2","spark_pilot_norest","8716","1","21","Female","","false","","","","","[1893.7999999970198]","./assets/img/ocean/animals/octopus.jpg","[""ArrowRight""]","revaluation","ocean","10","{""ArrowUp,ArrowLeft"":26,""ArrowUp,ArrowRight"":10,""ArrowDown,ArrowLeft"":5,""ArrowDown,ArrowRight"":17}","false","ArrowUp,ArrowRight","","original","1","4","","",""
"html-keyboard-response","229","1063114","0.0-4.0-4.0-1.2","spark_pilot_norest","8716","1","21","Female","","","","","","","null","<div style=""font-size:60px;"">+</div>","null","fixation","","","","","","","","","5","","",""
"revaluation","230","1067133","0.0-4.0-4.0-0.3","spark_pilot_norest","8716","1","21","Female","","false","","","","","[1312.2999999970198]","./assets/img/ocean/animals/octopus.jpg","[""ArrowLeft""]","revaluation","ocean","26","{""ArrowUp,ArrowLeft"":26,""ArrowUp,ArrowRight"":10,""ArrowDown,ArrowLeft"":5,""ArrowDown,ArrowRight"":17}","true","ArrowUp,ArrowLeft","","original","1","6","","",""
"html-keyboard-response","231","1067645","0.0-4.0-4.0-1.3","spark_pilot_norest","8716","1","21","Female","","","","","","","null","<div style=""font-size:60px;"">+</div>","null","fixation","","","","","","","","","7","","",""
"revaluation","232","1071664","0.0-4.0-4.0-0.4","spark_pilot_norest","8716","1","21","Female","","false","","","","","[1138]","./assets/img/ocean/animals/seahorse.jpg","[""ArrowRight""]","revaluation","ocean","17","{""ArrowUp,ArrowLeft"":26,""ArrowUp,ArrowRight"":10,""ArrowDown,ArrowLeft"":5,""ArrowDown,ArrowRight"":17}","true","ArrowDown,ArrowRight","","original","1","8","","",""
"html-keyboard-response","233","1072173","0.0-4.0-4.0-1.4","spark_pilot_norest","8716","1","21","Female","","","","","","","null","<div style=""font-size:60px;"">+</div>","null","fixation","","","","","","","","","9","","",""
"revaluation","234","1076197","0.0-4.0-4.0-0.5","spark_pilot_norest","8716","1","21","Female","","false","","","","","[1295.5999999940395]","./assets/img/ocean/animals/seahorse.jpg","[""ArrowRight""]","revaluation","ocean","17","{""ArrowUp,ArrowLeft"":26,""ArrowUp,ArrowRight"":10,""ArrowDown,ArrowLeft"":5,""ArrowDown,ArrowRight"":17}","true","ArrowDown,ArrowRight","","original","1","10","","",""
"html-keyboard-response","235","1076707","0.0-4.0-4.0-1.5","spark_pilot_norest","8716","1","21","Female","","","","","","","null","<div style=""font-size:60px;"">+</div>","null","fixation","","","","","","","","","11","","",""
"revaluation","236","1080720","0.0-4.0-4.0-0.6","spark_pilot_norest","8716","1","21","Female","","false","","","","","[814.2999999970198]","./assets/img/ocean/animals/seahorse.jpg","[""ArrowRight""]","revaluation","ocean","17","{""ArrowUp,ArrowLeft"":26,""ArrowUp,ArrowRight"":10,""ArrowDown,ArrowLeft"":5,""ArrowDown,ArrowRight"":17}","true","ArrowDown,ArrowRight","","original","1","12","","",""
"html-keyboard-response","237","1081226","0.0-4.0-4.0-1.6","spark_pilot_norest","8716","1","21","Female","","","","","","","null","<div style=""font-size:60px;"">+</div>","null","fixation","","","","","","","","","13","","",""
"revaluation","238","1085243","0.0-4.0-4.0-0.7","spark_pilot_norest","8716","1","21","Female","","false","","","","","[694.7999999970198]","./assets/img/ocean/animals/octopus.jpg","[""ArrowLeft""]","revaluation","ocean","26","{""ArrowUp,ArrowLeft"":26,""ArrowUp,ArrowRight"":10,""ArrowDown,ArrowLeft"":5,""ArrowDown,ArrowRight"":17}","true","ArrowUp,ArrowLeft","","original","1","14","","",""
"html-keyboard-response","239","1085754","0.0-4.0-4.0-1.7","spark_pilot_norest","8716","1","21","Female","","","","","","","null","<div style=""font-size:60px;"">+</div>","null","fixation","","","","","","","","","15","","",""
"revaluation","240","1089771","0.0-4.0-4.0-0.8","spark_pilot_norest","8716","1","21","Female","","false","","","","","[549.8000000119209]","./assets/img/ocean/animals/seahorse.jpg","[""ArrowRight""]","revaluation","ocean","17","{""ArrowUp,ArrowLeft"":26,""ArrowUp,ArrowRight"":10,""ArrowDown,ArrowLeft"":5,""ArrowDown,ArrowRight"":17}","true","ArrowDown,ArrowRight","","original","1","16","","",""
"html-keyboard-response","241","1090282","0.0-4.0-4.0-1.8","spark_pilot_norest","8716","1","21","Female","","","","","","","null","<div style=""font-size:60px;"">+</div>","null","fixation","","","","","","","","","17","","",""
"revaluation","242","1094299","0.0-4.0-4.0-0.9","spark_pilot_norest","8716","1","21","Female","","false","","","","","[995.4000000059605]","./assets/img/ocean/animals/seahorse.jpg","[""ArrowRight""]","revaluation","ocean","17","{""ArrowUp,ArrowLeft"":26,""ArrowUp,ArrowRight"":10,""ArrowDown,ArrowLeft"":5,""ArrowDown,ArrowRight"":17}","true","ArrowDown,ArrowRight","","original","1","18","","",""
"html-keyboard-response","243","1094809","0.0-4.0-4.0-1.9","spark_pilot_norest","8716","1","21","Female","","","","","","","null","<div style=""font-size:60px;"">+</div>","null","fixation","","","","","","","","","19","","",""
"revaluation","244","1098827","0.0-4.0-4.0-0.10","spark_pilot_norest","8716","1","21","Female","","false","","","","","[432.59999999403954]","./assets/img/ocean/animals/octopus.jpg","[""ArrowRight""]","revaluation","ocean","10","{""ArrowUp,ArrowLeft"":26,""ArrowUp,ArrowRight"":10,""ArrowDown,ArrowLeft"":5,""ArrowDown,ArrowRight"":17}","false","ArrowUp,ArrowRight","","original","1","20","","",""
"html-keyboard-response","245","1099338","0.0-4.0-4.0-1.10","spark_pilot_norest","8716","1","21","Female","","","","","","","null","<div style=""font-size:60px;"">+</div>","null","fixation","","","","","","","","","21","","",""
"revaluation","246","1103355","0.0-4.0-4.0-0.11","spark_pilot_norest","8716","1","21","Female","","false","","","","","[629.7999999970198]","./assets/img/ocean/animals/octopus.jpg","[""ArrowLeft""]","revaluation","ocean","26","{""ArrowUp,ArrowLeft"":26,""ArrowUp,ArrowRight"":10,""ArrowDown,ArrowLeft"":5,""ArrowDown,ArrowRight"":17}","true","ArrowUp,ArrowLeft","","original","1","22","","",""
"html-keyboard-response","247","1103866","0.0-4.0-4.0-1.11","spark_pilot_norest","8716","1","21","Female","","","","","","","null","<div style=""font-size:60px;"">+</div>","null","fixation","","","","","","","","","23","","",""
"revaluation","248","1107883","0.0-4.0-4.0-0.12","spark_pilot_norest","8716","1","21","Female","","false","","","","","[657.7999999970198]","./assets/img/ocean/animals/seahorse.jpg","[""ArrowRight""]","revaluation","ocean","17","{""ArrowUp,ArrowLeft"":26,""ArrowUp,ArrowRight"":10,""ArrowDown,ArrowLeft"":5,""ArrowDown,ArrowRight"":17}","true","ArrowDown,ArrowRight","","original","1","24","","",""
"html-keyboard-response","249","1108394","0.0-4.0-4.0-1.12","spark_pilot_norest","8716","1","21","Female","","","","","","","null","<div style=""font-size:60px;"">+</div>","null","fixation","","","","","","","","","25","","",""
"revaluation","250","1112411","0.0-4.0-4.0-0.13","spark_pilot_norest","8716","1","21","Female","","false","","","","","[833.2999999970198]","./assets/img/ocean/animals/octopus.jpg","[""ArrowLeft""]","revaluation","ocean","26","{""ArrowUp,ArrowLeft"":26,""ArrowUp,ArrowRight"":10,""ArrowDown,ArrowLeft"":5,""ArrowDown,ArrowRight"":17}","true","ArrowUp,ArrowLeft","","original","1","26","","",""
"html-keyboard-response","251","1112922","0.0-4.0-4.0-1.13","spark_pilot_norest","8716","1","21","Female","","","","","","","null","<div style=""font-size:60px;"">+</div>","null","fixation","","","","","","","","","27","","",""
"revaluation","252","1116938","0.0-4.0-4.0-0.14","spark_pilot_norest","8716","1","21","Female","","false","","","","","[730.0999999940395]","./assets/img/ocean/animals/octopus.jpg","[""ArrowLeft""]","revaluation","ocean","26","{""ArrowUp,ArrowLeft"":26,""ArrowUp,ArrowRight"":10,""ArrowDown,ArrowLeft"":5,""ArrowDown,ArrowRight"":17}","true","ArrowUp,ArrowLeft","","original","1","28","","",""
"html-keyboard-response","253","1117450","0.0-4.0-4.0-1.14","spark_pilot_norest","8716","1","21","Female","","","","","","","null","<div style=""font-size:60px;"">+</div>","null","fixation","","","","","","","","","29","","",""
"revaluation","254","1121466","0.0-4.0-4.0-0.15","spark_pilot_norest","8716","1","21","Female","","false","","","","","[939.5]","./assets/img/ocean/animals/octopus.jpg","[""ArrowLeft""]","revaluation","ocean","26","{""ArrowUp,ArrowLeft"":26,""ArrowUp,ArrowRight"":10,""ArrowDown,ArrowLeft"":5,""ArrowDown,ArrowRight"":17}","true","ArrowUp,ArrowLeft","","original","1","30","","",""
"html-keyboard-response","255","1121967","0.0-4.0-4.0-1.15","spark_pilot_norest","8716","1","21","Female","","","","","","","null","<div style=""font-size:60px;"">+</div>","null","fixation","","","","","","","","","31","","",""
"revaluation","256","1125984","0.0-4.0-4.0-0.16","spark_pilot_norest","8716","1","21","Female","","false","","","","","[552.7999999970198]","./assets/img/ocean/animals/seahorse.jpg","[""ArrowRight""]","revaluation","ocean","17","{""ArrowUp,ArrowLeft"":26,""ArrowUp,ArrowRight"":10,""ArrowDown,ArrowLeft"":5,""ArrowDown,ArrowRight"":17}","true","ArrowDown,ArrowRight","","original","1","32","","",""
"html-keyboard-response","257","1126490","0.0-4.0-4.0-1.16","spark_pilot_norest","8716","1","21","Female","","","","","","","null","<div style=""font-size:60px;"">+</div>","null","fixation","","","","","","","","","33","","",""
"revaluation","258","1130506","0.0-4.0-4.0-0.17","spark_pilot_norest","8716","1","21","Female","","false","","","","","[463]","./assets/img/ocean/animals/octopus.jpg","[""ArrowLeft""]","revaluation","ocean","26","{""ArrowUp,ArrowLeft"":26,""ArrowUp,ArrowRight"":10,""ArrowDown,ArrowLeft"":5,""ArrowDown,ArrowRight"":17}","true","ArrowUp,ArrowLeft","","original","1","34","","",""
"html-keyboard-response","259","1131018","0.0-4.0-4.0-1.17","spark_pilot_norest","8716","1","21","Female","","","","","","","null","<div style=""font-size:60px;"">+</div>","null","fixation","","","","","","","","","35","","",""
"learning-instructions","260","1139564","0.0-4.0-5.0-0.0","spark_pilot_norest","8716","1","21","Female","","","","","","","null","<p> You have almost finished this part of the game! </p>
            <p> We are going to ask you to make a few more choices. </p>","","instructions","","","","","","","","","","","",""
"learning-instructions","261","1155607","0.0-4.0-5.0-0.1","spark_pilot_norest","8716","1","21","Female","","","","","","","null","<p> First, you need to decide whether to go up or down. When you see each picture, use the arrow keys to make your choice. </p>
            <p><b>You will not see which animal you found, but try to get to the one that will give you the most treasure.</b></p>","","instructions","","","","","","","","","","","",""
"html-keyboard-response","262","1156615","0.0-4.0-6.0-0.0","spark_pilot_norest","8716","1","21","Female","","","","","","","null","<div style=""font-size:100px;color:red;"">Starting in...</div>","null","","","","","","","","","","","","",""
"html-keyboard-response","263","1157626","0.0-4.0-6.0-1.0","spark_pilot_norest","8716","1","21","Female","","","","","","","null","<div style=""font-size:200px;color:red;"">3</div>","null","","","","","","","","","","","","",""
"html-keyboard-response","264","1158631","0.0-4.0-6.0-2.0","spark_pilot_norest","8716","1","21","Female","","","","","","","null","<div style=""font-size:200px;color:red;"">2</div>","null","","","","","","","","","","","","",""
"html-keyboard-response","265","1159642","0.0-4.0-6.0-3.0","spark_pilot_norest","8716","1","21","Female","","","","","","","null","<div style=""font-size:200px;color:red;"">1</div>","null","","","","","","","","","","","","",""
"revaluation","266","1160453","0.0-4.0-7.0-0.0","spark_pilot_norest","8716","1","21","Female","","false","","","","","[806.7000000029802]","./assets/img/ocean/test/1.jpg","[""ArrowUp""]","first stage test","ocean","0","{""ArrowUp,ArrowLeft"":26,""ArrowUp,ArrowRight"":10,""ArrowDown,ArrowLeft"":5,""ArrowDown,ArrowRight"":17}","true","ArrowUp","false","original","1","","","",""
"html-keyboard-response","267","1160962","0.0-4.0-7.0-1.0","spark_pilot_norest","8716","1","21","Female","","","","","","","null","<div style=""font-size:60px;"">+</div>","null","fixation","","","","","","","","","","","",""
"revaluation","268","1162548","0.0-4.0-7.0-0.1","spark_pilot_norest","8716","1","21","Female","","false","","","","","[1583.2999999970198]","./assets/img/ocean/test/2.jpg","[""ArrowUp""]","first stage test","ocean","0","{""ArrowUp,ArrowLeft"":26,""ArrowUp,ArrowRight"":10,""ArrowDown,ArrowLeft"":5,""ArrowDown,ArrowRight"":17}","true","ArrowUp","false","original","1","","","",""
"html-keyboard-response","269","1163056","0.0-4.0-7.0-1.1","spark_pilot_norest","8716","1","21","Female","","","","","","","null","<div style=""font-size:60px;"">+</div>","null","fixation","","","","","","","","","","","",""
"revaluation","270","1164431","0.0-4.0-7.0-0.2","spark_pilot_norest","8716","1","21","Female","","false","","","","","[1371.2999999970198]","./assets/img/ocean/test/3.jpg","[""ArrowDown""]","first stage test","ocean","0","{""ArrowUp,ArrowLeft"":26,""ArrowUp,ArrowRight"":10,""ArrowDown,ArrowLeft"":5,""ArrowDown,ArrowRight"":17}","false","ArrowDown","false","original","1","","","",""
"html-keyboard-response","271","1164936","0.0-4.0-7.0-1.2","spark_pilot_norest","8716","1","21","Female","","","","","","","null","<div style=""font-size:60px;"">+</div>","null","fixation","","","","","","","","","","","",""
"revaluation","272","1166707","0.0-4.0-7.0-0.3","spark_pilot_norest","8716","1","21","Female","","false","","","","","[1768.2000000029802]","./assets/img/ocean/test/0.jpg","[""ArrowDown""]","first stage test","ocean","0","{""ArrowUp,ArrowLeft"":26,""ArrowUp,ArrowRight"":10,""ArrowDown,ArrowLeft"":5,""ArrowDown,ArrowRight"":17}","false","ArrowDown","false","original","1","","","",""
"html-keyboard-response","273","1167220","0.0-4.0-7.0-1.3","spark_pilot_norest","8716","1","21","Female","","","","","","","null","<div style=""font-size:60px;"">+</div>","null","fixation","","","","","","","","","","","",""
"learning-instructions","274","1180567","0.0-4.0-8.0-0.0","spark_pilot_norest","8716","1","21","Female","","","","","","","null","<p> Now you will see the animals again and can search their chests for treasure. </p>
            <p> This time, you will not see how much treasure you earned, but you will earn more bonus money for making better choices. </p>","","instructions","","","","","","","","","","","",""
"html-keyboard-response","275","1181576","0.0-4.0-9.0-0.0","spark_pilot_norest","8716","1","21","Female","","","","","","","null","<div style=""font-size:100px;color:red;"">Starting in...</div>","null","","","","","","","","","","","","",""
"html-keyboard-response","276","1182583","0.0-4.0-9.0-1.0","spark_pilot_norest","8716","1","21","Female","","","","","","","null","<div style=""font-size:200px;color:red;"">3</div>","null","","","","","","","","","","","","",""
"html-keyboard-response","277","1183596","0.0-4.0-9.0-2.0","spark_pilot_norest","8716","1","21","Female","","","","","","","null","<div style=""font-size:200px;color:red;"">2</div>","null","","","","","","","","","","","","",""
"html-keyboard-response","278","1184603","0.0-4.0-9.0-3.0","spark_pilot_norest","8716","1","21","Female","","","","","","","null","<div style=""font-size:200px;color:red;"">1</div>","null","","","","","","","","","","","","",""
"revaluation","279","1186814","0.0-4.0-10.0-0.0","spark_pilot_norest","8716","1","21","Female","","false","","","","","[2207.0999999940395]","./assets/img/ocean/animals/octopus.jpg","[""ArrowLeft""]","second stage test","ocean","0","{""ArrowUp,ArrowLeft"":26,""ArrowUp,ArrowRight"":10,""ArrowDown,ArrowLeft"":5,""ArrowDown,ArrowRight"":17}","true","ArrowUp,ArrowLeft","","original","1","","","",""
"html-keyboard-response","280","1187324","0.0-4.0-10.0-1.0","spark_pilot_norest","8716","1","21","Female","","","","","","","null","<div style=""font-size:60px;"">+</div>","null","fixation","","","","","","","","","","","",""
"revaluation","281","1188357","0.0-4.0-10.0-0.1","spark_pilot_norest","8716","1","21","Female","","false","","","","","[1029.2999999970198]","./assets/img/ocean/animals/octopus.jpg","[""ArrowLeft""]","second stage test","ocean","0","{""ArrowUp,ArrowLeft"":26,""ArrowUp,ArrowRight"":10,""ArrowDown,ArrowLeft"":5,""ArrowDown,ArrowRight"":17}","true","ArrowUp,ArrowLeft","","original","1","","","",""
"html-keyboard-response","282","1188865","0.0-4.0-10.0-1.1","spark_pilot_norest","8716","1","21","Female","","","","","","","null","<div style=""font-size:60px;"">+</div>","null","fixation","","","","","","","","","","","",""
"revaluation","283","1190438","0.0-4.0-10.0-0.2","spark_pilot_norest","8716","1","21","Female","","false","","","","","[1569.2999999970198]","./assets/img/ocean/animals/octopus.jpg","[""ArrowLeft""]","second stage test","ocean","0","{""ArrowUp,ArrowLeft"":26,""ArrowUp,ArrowRight"":10,""ArrowDown,ArrowLeft"":5,""ArrowDown,ArrowRight"":17}","true","ArrowUp,ArrowLeft","","original","1","","","",""
"html-keyboard-response","284","1190944","0.0-4.0-10.0-1.2","spark_pilot_norest","8716","1","21","Female","","","","","","","null","<div style=""font-size:60px;"">+</div>","null","fixation","","","","","","","","","","","",""
"revaluation","285","1192747","0.0-4.0-10.0-0.3","spark_pilot_norest","8716","1","21","Female","","false","","","","","[1799.7000000029802]","./assets/img/ocean/animals/octopus.jpg","[""ArrowLeft""]","second stage test","ocean","0","{""ArrowUp,ArrowLeft"":26,""ArrowUp,ArrowRight"":10,""ArrowDown,ArrowLeft"":5,""ArrowDown,ArrowRight"":17}","true","ArrowUp,ArrowLeft","","original","1","","","",""
"html-keyboard-response","286","1193252","0.0-4.0-10.0-1.3","spark_pilot_norest","8716","1","21","Female","","","","","","","null","<div style=""font-size:60px;"">+</div>","null","fixation","","","","","","","","","","","",""
"revaluation","287","1194315","0.0-4.0-10.0-0.4","spark_pilot_norest","8716","1","21","Female","","false","","","","","[1059.4000000059605]","./assets/img/ocean/animals/seahorse.jpg","[""ArrowRight""]","second stage test","ocean","0","{""ArrowUp,ArrowLeft"":26,""ArrowUp,ArrowRight"":10,""ArrowDown,ArrowLeft"":5,""ArrowDown,ArrowRight"":17}","true","ArrowDown,ArrowRight","","original","1","","","",""
"html-keyboard-response","288","1194823","0.0-4.0-10.0-1.4","spark_pilot_norest","8716","1","21","Female","","","","","","","null","<div style=""font-size:60px;"">+</div>","null","fixation","","","","","","","","","","","",""
"revaluation","289","1195560","0.0-4.0-10.0-0.5","spark_pilot_norest","8716","1","21","Female","","false","","","","","[733.8999999910593]","./assets/img/ocean/animals/seahorse.jpg","[""ArrowRight""]","second stage test","ocean","0","{""ArrowUp,ArrowLeft"":26,""ArrowUp,ArrowRight"":10,""ArrowDown,ArrowLeft"":5,""ArrowDown,ArrowRight"":17}","true","ArrowDown,ArrowRight","","original","1","","","",""
"html-keyboard-response","290","1196068","0.0-4.0-10.0-1.5","spark_pilot_norest","8716","1","21","Female","","","","","","","null","<div style=""font-size:60px;"">+</div>","null","fixation","","","","","","","","","","","",""
"revaluation","291","1196544","0.0-4.0-10.0-0.6","spark_pilot_norest","8716","1","21","Female","","false","","","","","[473.20000000298023]","./assets/img/ocean/animals/seahorse.jpg","[""ArrowRight""]","second stage test","ocean","0","{""ArrowUp,ArrowLeft"":26,""ArrowUp,ArrowRight"":10,""ArrowDown,ArrowLeft"":5,""ArrowDown,ArrowRight"":17}","true","ArrowDown,ArrowRight","","original","1","","","",""
"html-keyboard-response","292","1197047","0.0-4.0-10.0-1.6","spark_pilot_norest","8716","1","21","Female","","","","","","","null","<div style=""font-size:60px;"">+</div>","null","fixation","","","","","","","","","","","",""
"revaluation","293","1197609","0.0-4.0-10.0-0.7","spark_pilot_norest","8716","1","21","Female","","false","","","","","[558.6000000089407]","./assets/img/ocean/animals/seahorse.jpg","[""ArrowRight""]","second stage test","ocean","0","{""ArrowUp,ArrowLeft"":26,""ArrowUp,ArrowRight"":10,""ArrowDown,ArrowLeft"":5,""ArrowDown,ArrowRight"":17}","true","ArrowDown,ArrowRight","","original","1","","","",""
"html-keyboard-response","294","1198113","0.0-4.0-10.0-1.7","spark_pilot_norest","8716","1","21","Female","","","","","","","null","<div style=""font-size:60px;"">+</div>","null","fixation","","","","","","","","","","","",""
"learning-instructions","295","1205254","0.0-4.0-0.1-0.2","spark_pilot_norest","8716","1","21","Female","","","","","","","4372.20000000298","<p> This time you are searching for treasure in the <b>canyon</b>.</p>","","instructions","","","","","","","","","","","",""
"learning-instructions","296","1235017","0.0-4.0-0.1-0.3","spark_pilot_norest","8716","1","21","Female","","","","","","","12508.59999999404","<p><b>New</b> animals with <b>new</b> treasure chests live here. You need to explore to discover where the animal with the best treasure chest is.</p>
                    <p> Like before, once you figure out which animal has the chest with the most treasure, you should try to get to that animal and select that chest! </p>","","instructions","","","","","","","","","","","",""
"learning-instructions","297","1251167","0.0-4.0-1.1-0.1","spark_pilot_norest","8716","1","21","Female","","","","","","","1420.7999999970198","<p> Remember, when you see a picture of the place, use the up and down keys to <b>find an animal</b>.</p>
            <p> When you encounter an animal, you should use the left and right keys to <b>select a treasure chest</b>.</p>
            <p> Don't forget to look out for the robber! </p>","","instructions","","","","","","","","","","","",""
"revaluation","298","1255188","0.0-4.0-2.1-0.50","spark_pilot_norest","8716","1","21","Female","","false","","","","","[1318.7999999970198]","./assets/img/canyon/catch/0.jpg","[""spaceBar""]","value training","canyon","0","{""ArrowUp,ArrowLeft"":23,""ArrowUp,ArrowRight"":10,""ArrowDown,ArrowLeft"":8,""ArrowDown,ArrowRight"":30}","true","spaceBar","true","revaluation","2","0","","",""
"html-keyboard-response","299","1255698","0.0-4.0-2.1-1.50","spark_pilot_norest","8716","1","21","Female","","","","","","","null","<div style=""font-size:60px;"">+</div>","null","fixation","","","","","","","","","1","","",""
"revaluation","300","1261724","0.0-4.0-2.1-0.51","spark_pilot_norest","8716","1","21","Female","","false","","","","","[597.0999999940395,702.7999999970198]","./assets/img/canyon/memory/11.jpg","[""ArrowUp"",""ArrowLeft""]","value training","canyon","23","{""ArrowUp,ArrowLeft"":23,""ArrowUp,ArrowRight"":10,""ArrowDown,ArrowLeft"":8,""ArrowDown,ArrowRight"":30}","false","ArrowUp,ArrowLeft","false","revaluation","2","2","","",""
"html-keyboard-response","301","1262236","0.0-4.0-2.1-1.51","spark_pilot_norest","8716","1","21","Female","","","","","","","null","<div style=""font-size:60px;"">+</div>","null","fixation","","","","","","","","","3","","",""
"revaluation","302","1266259","0.0-4.0-2.1-0.52","spark_pilot_norest","8716","1","21","Female","","false","","","","","[460.09999999403954]","./assets/img/canyon/catch/2.jpg","[""ArrowUp""]","value training","canyon","-10","{""ArrowUp,ArrowLeft"":23,""ArrowUp,ArrowRight"":10,""ArrowDown,ArrowLeft"":8,""ArrowDown,ArrowRight"":30}","false","ArrowUp","true","revaluation","2","4","","",""
"html-keyboard-response","303","1266768","0.0-4.0-2.1-1.52","spark_pilot_norest","8716","1","21","Female","","","","","","","null","<div style=""font-size:60px;"">+</div>","null","fixation","","","","","","","","","5","","",""
"revaluation","304","1270786","0.0-4.0-2.1-0.53","spark_pilot_norest","8716","1","21","Female","","false","","","","","[1266.4000000059605]","./assets/img/canyon/catch/4.jpg","[""spaceBar""]","value training","canyon","0","{""ArrowUp,ArrowLeft"":23,""ArrowUp,ArrowRight"":10,""ArrowDown,ArrowLeft"":8,""ArrowDown,ArrowRight"":30}","true","spaceBar","true","revaluation","2","6","","",""
"html-keyboard-response","305","1271296","0.0-4.0-2.1-1.53","spark_pilot_norest","8716","1","21","Female","","","","","","","null","<div style=""font-size:60px;"">+</div>","null","fixation","","","","","","","","","7","","",""
"revaluation","306","1277320","0.0-4.0-2.1-0.54","spark_pilot_norest","8716","1","21","Female","","false","","","","","[923.2000000029802,611.3999999910593]","./assets/img/canyon/memory/10.jpg","[""ArrowUp"",""ArrowRight""]","value training","canyon","10","{""ArrowUp,ArrowLeft"":23,""ArrowUp,ArrowRight"":10,""ArrowDown,ArrowLeft"":8,""ArrowDown,ArrowRight"":30}","false","ArrowUp,ArrowRight","false","revaluation","2","8","","",""
"html-keyboard-response","307","1277828","0.0-4.0-2.1-1.54","spark_pilot_norest","8716","1","21","Female","","","","","","","null","<div style=""font-size:60px;"">+</div>","null","fixation","","","","","","","","","9","","",""
"revaluation","308","1283859","0.0-4.0-2.1-0.55","spark_pilot_norest","8716","1","21","Female","","false","","","","","[1099.9000000059605,729]","./assets/img/canyon/memory/13.jpg","[""ArrowDown"",""ArrowLeft""]","value training","canyon","8","{""ArrowUp,ArrowLeft"":23,""ArrowUp,ArrowRight"":10,""ArrowDown,ArrowLeft"":8,""ArrowDown,ArrowRight"":30}","false","ArrowDown,ArrowLeft","false","revaluation","2","10","","",""
"html-keyboard-response","309","1284371","0.0-4.0-2.1-1.55","spark_pilot_norest","8716","1","21","Female","","","","","","","null","<div style=""font-size:60px;"">+</div>","null","fixation","","","","","","","","","11","","",""
"revaluation","310","1290393","0.0-4.0-2.1-0.56","spark_pilot_norest","8716","1","21","Female","","false","","","","","[896,398.6000000089407]","./assets/img/canyon/memory/17.jpg","[""ArrowDown"",""ArrowRight""]","value training","canyon","30","{""ArrowUp,ArrowLeft"":23,""ArrowUp,ArrowRight"":10,""ArrowDown,ArrowLeft"":8,""ArrowDown,ArrowRight"":30}","true","ArrowDown,ArrowRight","false","revaluation","2","12","","",""
"html-keyboard-response","311","1290899","0.0-4.0-2.1-1.56","spark_pilot_norest","8716","1","21","Female","","","","","","","null","<div style=""font-size:60px;"">+</div>","null","fixation","","","","","","","","","13","","",""
