"trial_type","trial_index","time_elapsed","internal_node_id","task_version","subject_id","assigned_condition","age","gender","success","timeout","failed_images","failed_audio","failed_video","browser_interaction","rt","stimulus","response","task_part","environment","score","rewardMap","correct","fullState","isCatch","condition","order","trial_num","key_press","ground_truth","bonus"
"pavlovia","0","1797","0.0-0.0","spark_pilot_norest","8210","5","22","Male","","","","","","","","","","","","","","","","","","","","","",""
"preload","1","22272","0.0-1.0","spark_pilot_norest","8210","5","22","Male","true","false","[]","[]","[]","[{""event"":""fullscreenenter"",""trial"":2,""time"":24597}]","","","","","","","","","","","","","","","",""
"fullscreen","2","25569","0.0-2.0","spark_pilot_norest","8210","5","22","Male","true","","","","","","","","","","","","","","","","","","","","",""
"audio-button-response","3","28256","0.0-3.0-0.0-0.0","spark_pilot_norest","8210","5","22","Male","","","","","","","2309","./assets/audio/audiotest/turtle.mp3","2","audio_test","","","","","","","","","","","",""
"learning-instructions","4","38509","0.0-3.0-1.0-0.0","spark_pilot_norest","8210","5","22","Male","","","","","","","3262.600000023842","<p> Welcome! Please remember to stay in fullscreen mode and don't click away from the experiment. </p>","","instructions","","","","","","","","","","","",""
"learning-instructions","5","47681","0.0-3.0-1.0-0.1","spark_pilot_norest","8210","5","22","Male","","","","","","","754.8999999761581","<p> Today you will be playing a game to earn treasure. </p>
            <p> At the end of the experiment, you will earn a bonus based on how much treasure you find. </p>
            <img src='./assets/img/instructions/treasure.jpg' class='instructions-image'>","","instructions","","","","","","","","","","","",""
"learning-instructions","6","57029","0.0-3.0-1.0-0.2","spark_pilot_norest","8210","5","22","Male","","","","","","","1072.8000000715256","<p> Animals have hidden treasure in treasure chests. </p>
            <p> You need to first find an animal and then choose which of their treasure chests to search. </p>
            <img src='./assets/img/space/animals/cat.jpg' class='instructions-image'>","","instructions","","","","","","","","","","","",""
"learning-instructions","7","70775","0.0-3.0-1.0-0.3","spark_pilot_norest","8210","5","22","Male","","","","","","","588.7000000476837","<p> In each round, you will search for treasure in a different place. In the real game, there will be two rounds. </p>
            <p> You will begin with a separate, practice round where you will search for treasure in outer space. </p>
            <img src='./assets/img/space/0.jpg' class='instructions-image'>","","instructions","","","","","","","","","","","",""
"learning-instructions","8","82606","0.0-3.0-1.0-0.4","spark_pilot_norest","8210","5","22","Male","","","","","","","410","<p> On every turn, you will see a picture of the place that you are in, but the specific image may be different each time. </p>
            <p> For example, both of these images mean you are in outer space. </p>
            <img src='./assets/img/instructions/outerspace.jpg' class='instructions-image'>","","instructions","","","","","","","","","","","",""
"learning-instructions","9","91021","0.0-3.0-1.0-0.5","spark_pilot_norest","8210","5","22","Male","","","","","","","583.7999999523163","<p> You need to decide which direction to travel in. </p>
            <p> You can choose between going <b>up or down</b> by using the arrow keys. </p>
            <img src='./assets/img/instructions/updown.jpg' class='instructions-image'>","","instructions","","","","","","","","","","","",""
"learning-instructions","10","100434","0.0-3.0-1.0-0.6","spark_pilot_norest","8210","5","22","Male","","","","","","","597.5","<p> You will have <b>2 seconds</b> to make your choice. </p>
            <p> If you do not make a choice within 2 seconds, you will not find an animal or earn treasure. </p>
            <img src='./assets/img/instructions/2seconds.jpg' class='instructions-image'>","","instructions","","","","","","","","","","","",""
"learning-instructions","11","108254","0.0-3.0-1.0-0.7","spark_pilot_norest","8210","5","22","Male","","","","","","","787.4000000953674","<p> Let’s try practicing that now! </p>
            <p> When you see a picture of the place you are in, press the <b>up</b> key to travel up. </p>
            <img src='./assets/img/instructions/pressUp.jpg' class='instructions-image'>","","instructions","","","","","","","","","","","",""
"revaluation","12","112290","0.0-3.0-2.0-0.0","spark_pilot_norest","8210","5","22","Male","","false","","","","","[1204.5]","./assets/img/space/0.jpg","[""ArrowUp""]","first stage practice","space","0","null","null","ArrowUp","false","","","","","",""
"html-keyboard-response","13","112803","0.0-3.0-2.0-1.0","spark_pilot_norest","8210","5","22","Male","","","","","","","null","<div style=""font-size:60px;"">+</div>","null","fixation","","","","","","","","","","","",""
"revaluation","14","116828","0.0-3.0-2.0-0.1","spark_pilot_norest","8210","5","22","Male","","false","","","","","[752.5]","./assets/img/space/1.jpg","[""ArrowUp""]","first stage practice","space","0","null","null","ArrowUp","false","","","","","",""
"html-keyboard-response","15","117338","0.0-3.0-2.0-1.1","spark_pilot_norest","8210","5","22","Male","","","","","","","null","<div style=""font-size:60px;"">+</div>","null","fixation","","","","","","","","","","","",""
"revaluation","16","121347","0.0-3.0-2.0-0.2","spark_pilot_norest","8210","5","22","Male","","false","","","","","[636]","./assets/img/space/2.jpg","[""ArrowUp""]","first stage practice","space","0","null","null","ArrowUp","false","","","","","",""
"html-keyboard-response","17","121861","0.0-3.0-2.0-1.2","spark_pilot_norest","8210","5","22","Male","","","","","","","null","<div style=""font-size:60px;"">+</div>","null","fixation","","","","","","","","","","","",""
"learning-instructions","18","128315","0.0-3.0-3.0-0.0","spark_pilot_norest","8210","5","22","Male","","","","","","","1758.6000000238419","<p> Great job! Now try pressing the <b>down</b> key to travel down. </p>
            <img src='./assets/img/instructions/pressDown.jpg' class='instructions-image'>","","instructions","","","","","","","","","","","",""
"revaluation","19","132338","0.0-3.0-4.0-0.0","spark_pilot_norest","8210","5","22","Male","","false","","","","","[660]","./assets/img/space/3.jpg","[""ArrowDown""]","first stage practice","space","0","null","null","ArrowDown","false","","","","","",""
"html-keyboard-response","20","132852","0.0-3.0-4.0-1.0","spark_pilot_norest","8210","5","22","Male","","","","","","","null","<div style=""font-size:60px;"">+</div>","null","fixation","","","","","","","","","","","",""
"revaluation","21","136866","0.0-3.0-4.0-0.1","spark_pilot_norest","8210","5","22","Male","","false","","","","","[399.3000000715256]","./assets/img/space/4.jpg","[""ArrowDown""]","first stage practice","space","0","null","null","ArrowDown","false","","","","","",""
"html-keyboard-response","22","137378","0.0-3.0-4.0-1.1","spark_pilot_norest","8210","5","22","Male","","","","","","","null","<div style=""font-size:60px;"">+</div>","null","fixation","","","","","","","","","","","",""
"revaluation","23","141391","0.0-3.0-4.0-0.2","spark_pilot_norest","8210","5","22","Male","","false","","","","","[311]","./assets/img/space/5.jpg","[""ArrowDown""]","first stage practice","space","0","null","null","ArrowDown","false","","","","","",""
"html-keyboard-response","24","141899","0.0-3.0-4.0-1.2","spark_pilot_norest","8210","5","22","Male","","","","","","","null","<div style=""font-size:60px;"">+</div>","null","fixation","","","","","","","","","","","",""
"learning-instructions","25","152350","0.0-3.0-5.0-0.0","spark_pilot_norest","8210","5","22","Male","","","","","","","594.4000000953674","<p> The animals don’t move, so the animal in the upper part of a place will stay in the upper part of a place, and the animal in the lower part of a place will stay in the lower part of a place. </p>","","instructions","","","","","","","","","","","",""
"learning-instructions","26","162083","0.0-3.0-5.0-0.1","spark_pilot_norest","8210","5","22","Male","","","","","","","597.3999999761581","<p> Each animal has two treasure chests for you to choose from. </p>
            <p> The amount of treasure in each chest can range from <b> 0 to 40 pieces.</b></p>","","instructions","","","","","","","","","","","",""
"learning-instructions","27","173829","0.0-3.0-5.0-0.2","spark_pilot_norest","8210","5","22","Male","","","","","","","552.5","<p> You should decide which chest to search for treasure by using the <b>left</b> and <b>right</b> arrow keys. </p>
            <p><b> Pay attention to which animal is on the screen, as the animals have different treasure chests. </b></p>
            <img src='./assets/img/instructions/leftright.jpg' class='instructions-image'>","","instructions","","","","","","","","","","","",""
"learning-instructions","28","180896","0.0-3.0-5.0-0.3","spark_pilot_norest","8210","5","22","Male","","","","","","","699.6000000238419","<p> Let’s try practicing that now. </p>
            <p> When you see an animal, choose which chest to search for treasure. </p>
            <img src='./assets/img/instructions/chooseChest.jpg' class='instructions-image'>","","instructions","","","","","","","","","","","",""
"revaluation","29","184927","0.0-3.0-6.0-0.0","spark_pilot_norest","8210","5","22","Male","","false","","","","","[1122]","./assets/img/space/animals/cat.jpg","[""ArrowRight""]","second stage practice","space","36","{""ArrowUp,ArrowLeft"":3,""ArrowUp,ArrowRight"":36,""ArrowDown,ArrowLeft"":15,""ArrowDown,ArrowRight"":23}","true","ArrowUp,ArrowRight","","","","","","",""
"html-keyboard-response","30","185442","0.0-3.0-6.0-1.0","spark_pilot_norest","8210","5","22","Male","","","","","","","null","<div style=""font-size:60px;"">+</div>","null","fixation","","","","","","","","","","","",""
"revaluation","31","189471","0.0-3.0-6.0-0.1","spark_pilot_norest","8210","5","22","Male","","false","","","","","[515.6999999284744]","./assets/img/space/animals/rabbit.jpg","[""ArrowRight""]","second stage practice","space","23","{""ArrowUp,ArrowLeft"":3,""ArrowUp,ArrowRight"":36,""ArrowDown,ArrowLeft"":15,""ArrowDown,ArrowRight"":23}","true","ArrowDown,ArrowRight","","","","","","",""
"html-keyboard-response","32","189983","0.0-3.0-6.0-1.1","spark_pilot_norest","8210","5","22","Male","","","","","","","null","<div style=""font-size:60px;"">+</div>","null","fixation","","","","","","","","","","","",""
"revaluation","33","193991","0.0-3.0-6.0-0.2","spark_pilot_norest","8210","5","22","Male","","false","","","","","[312.90000009536743]","./assets/img/space/animals/cat.jpg","[""ArrowRight""]","second stage practice","space","36","{""ArrowUp,ArrowLeft"":3,""ArrowUp,ArrowRight"":36,""ArrowDown,ArrowLeft"":15,""ArrowDown,ArrowRight"":23}","true","ArrowUp,ArrowRight","","","","","","",""
"html-keyboard-response","34","194502","0.0-3.0-6.0-1.2","spark_pilot_norest","8210","5","22","Male","","","","","","","null","<div style=""font-size:60px;"">+</div>","null","fixation","","","","","","","","","","","",""
"revaluation","35","198515","0.0-3.0-6.0-0.3","spark_pilot_norest","8210","5","22","Male","","false","","","","","[471]","./assets/img/space/animals/rabbit.jpg","[""ArrowLeft""]","second stage practice","space","15","{""ArrowUp,ArrowLeft"":3,""ArrowUp,ArrowRight"":36,""ArrowDown,ArrowLeft"":15,""ArrowDown,ArrowRight"":23}","false","ArrowDown,ArrowLeft","","","","","","",""
"html-keyboard-response","36","199030","0.0-3.0-6.0-1.3","spark_pilot_norest","8210","5","22","Male","","","","","","","null","<div style=""font-size:60px;"">+</div>","null","fixation","","","","","","","","","","","",""
"learning-instructions","37","216392","0.0-3.0-7.0-0.0","spark_pilot_norest","8210","5","22","Male","","","","","","","555.7000000476837","<p> Great job. Now let’s try putting it together. </p>
            <p> On each turn, you will first see a picture to remind you of the place you are in, and you need to choose whether to go up or down. </p>
            <p> Then you will see an animal and choose which of its chests to search for treasure. </p>","","instructions","","","","","","","","","","","",""
"learning-instructions","38","225235","0.0-3.0-7.0-0.1","spark_pilot_norest","8210","5","22","Male","","","","","","","569","<p> When you choose whether to go up or down, try to go to the animal with the chest with the most treasure. </p>
            <p> Try practicing that now! </p>","","instructions","","","","","","","","","","","",""
"revaluation","39","231263","0.0-3.0-8.0-0.0","spark_pilot_norest","8210","5","22","Male","","false","","","","","[1002.8999999761581,924.6000000238419]","./assets/img/space/6.jpg","[""ArrowUp"",""ArrowRight""]","full practice","space","36","{""ArrowUp,ArrowLeft"":3,""ArrowUp,ArrowRight"":36,""ArrowDown,ArrowLeft"":15,""ArrowDown,ArrowRight"":23}","true","ArrowUp,ArrowRight","false","","","","","",""
"html-keyboard-response","40","231779","0.0-3.0-8.0-1.0","spark_pilot_norest","8210","5","22","Male","","","","","","","null","<div style=""font-size:60px;"">+</div>","null","fixation","","","","","","","","","","","",""
"revaluation","41","237812","0.0-3.0-8.0-0.1","spark_pilot_norest","8210","5","22","Male","","false","","","","","[576,557.8000000715256]","./assets/img/space/7.jpg","[""ArrowUp"",""ArrowRight""]","full practice","space","36","{""ArrowUp,ArrowLeft"":3,""ArrowUp,ArrowRight"":36,""ArrowDown,ArrowLeft"":15,""ArrowDown,ArrowRight"":23}","true","ArrowUp,ArrowRight","false","","","","","",""
"html-keyboard-response","42","238325","0.0-3.0-8.0-1.1","spark_pilot_norest","8210","5","22","Male","","","","","","","null","<div style=""font-size:60px;"">+</div>","null","fixation","","","","","","","","","","","",""
"revaluation","43","244356","0.0-3.0-8.0-0.2","spark_pilot_norest","8210","5","22","Male","","false","","","","","[718.1000000238419,621.1000000238419]","./assets/img/space/8.jpg","[""ArrowUp"",""ArrowRight""]","full practice","space","36","{""ArrowUp,ArrowLeft"":3,""ArrowUp,ArrowRight"":36,""ArrowDown,ArrowLeft"":15,""ArrowDown,ArrowRight"":23}","true","ArrowUp,ArrowRight","false","","","","","",""
"html-keyboard-response","44","244871","0.0-3.0-8.0-1.2","spark_pilot_norest","8210","5","22","Male","","","","","","","null","<div style=""font-size:60px;"">+</div>","null","fixation","","","","","","","","","","","",""
"revaluation","45","250897","0.0-3.0-8.0-0.3","spark_pilot_norest","8210","5","22","Male","","false","","","","","[891.3999999761581,368.2000000476837]","./assets/img/space/9.jpg","[""ArrowUp"",""ArrowRight""]","full practice","space","36","{""ArrowUp,ArrowLeft"":3,""ArrowUp,ArrowRight"":36,""ArrowDown,ArrowLeft"":15,""ArrowDown,ArrowRight"":23}","true","ArrowUp,ArrowRight","false","","","","","",""
"html-keyboard-response","46","251412","0.0-3.0-8.0-1.3","spark_pilot_norest","8210","5","22","Male","","","","","","","null","<div style=""font-size:60px;"">+</div>","null","fixation","","","","","","","","","","","",""
"revaluation","47","257420","0.0-3.0-8.0-0.4","spark_pilot_norest","8210","5","22","Male","","false","","","","","[916,401.39999997615814]","./assets/img/space/10.jpg","[""ArrowUp"",""ArrowRight""]","full practice","space","36","{""ArrowUp,ArrowLeft"":3,""ArrowUp,ArrowRight"":36,""ArrowDown,ArrowLeft"":15,""ArrowDown,ArrowRight"":23}","true","ArrowUp,ArrowRight","false","","","","","",""
"html-keyboard-response","48","257922","0.0-3.0-8.0-1.4","spark_pilot_norest","8210","5","22","Male","","","","","","","null","<div style=""font-size:60px;"">+</div>","null","fixation","","","","","","","","","","","",""
"learning-instructions","49","268907","0.0-3.0-9.0-0.0","spark_pilot_norest","8210","5","22","Male","","","","","","","678.8000000715256","<p> One last thing: sometimes, you will see a robber. The robber can be anywhere in the picture. </p>
            <p> If you do not stop them, you will lose treasure. </p>
            <img src='./assets/img/instructions/robber.jpg' class='instructions-image'>","","instructions","","","","","","","","","","","",""
"learning-instructions","50","276627","0.0-3.0-9.0-0.1","spark_pilot_norest","8210","5","22","Male","","","","","","","539.2999999523163","<p> If you see the robber, you should <b>press the space bar</b> rather than using the arrow keys. </p>
            <p> Try practicing that now! </p>","","instructions","","","","","","","","","","","",""
"revaluation","51","280647","0.0-3.0-10.0-0.0","spark_pilot_norest","8210","5","22","Male","","false","","","","","[1294.3999999761581]","./assets/img/space/catch/0.jpg","[""spaceBar""]","catch practice","space","0","{""ArrowUp,ArrowLeft"":3,""ArrowUp,ArrowRight"":36,""ArrowDown,ArrowLeft"":15,""ArrowDown,ArrowRight"":23}","true","spaceBar","true","","","","","",""
"html-keyboard-response","52","281156","0.0-3.0-10.0-1.0","spark_pilot_norest","8210","5","22","Male","","","","","","","null","<div style=""font-size:60px;"">+</div>","null","fixation","","","","","","","","","","","",""
"revaluation","53","285180","0.0-3.0-10.0-0.1","spark_pilot_norest","8210","5","22","Male","","false","","","","","[954.5]","./assets/img/space/catch/1.jpg","[""spaceBar""]","catch practice","space","0","{""ArrowUp,ArrowLeft"":3,""ArrowUp,ArrowRight"":36,""ArrowDown,ArrowLeft"":15,""ArrowDown,ArrowRight"":23}","true","spaceBar","true","","","","","",""
"html-keyboard-response","54","285695","0.0-3.0-10.0-1.1","spark_pilot_norest","8210","5","22","Male","","","","","","","null","<div style=""font-size:60px;"">+</div>","null","fixation","","","","","","","","","","","",""
"revaluation","55","289719","0.0-3.0-10.0-0.2","spark_pilot_norest","8210","5","22","Male","","false","","","","","[461.1999999284744]","./assets/img/space/catch/2.jpg","[""spaceBar""]","catch practice","space","0","{""ArrowUp,ArrowLeft"":3,""ArrowUp,ArrowRight"":36,""ArrowDown,ArrowLeft"":15,""ArrowDown,ArrowRight"":23}","true","spaceBar","true","","","","","",""
"html-keyboard-response","56","290231","0.0-3.0-10.0-1.2","spark_pilot_norest","8210","5","22","Male","","","","","","","null","<div style=""font-size:60px;"">+</div>","null","fixation","","","","","","","","","","","",""
"learning-instructions","57","298023","0.0-3.0-11.0-0.0-0.0","spark_pilot_norest","8210","5","22","Male","","","","","","","2536","<p> Now, you will practice a shortened version of the game to get a sense of how it all fits together. </p>","","instructions","","","","","","","","","","","",""
"learning-instructions","58","301693","0.0-3.0-11.0-0.0-0.1","spark_pilot_norest","8210","5","22","Male","","","","","","","474.7999999523163","<p>This time you are searching for treasure in outer space.</p>","","instructions","","","","","","","","","","","",""
"learning-instructions","59","317148","0.0-3.0-11.0-1.0-0.0","spark_pilot_norest","8210","5","22","Male","","","","","","","679.8999999761581","<p> Remember, when you see a picture of the place, use the up and down keys to <b>find an animal</b>.</p>
            <p> When you encounter an animal, you should use the left and right keys to <b>select a treasure chest</b>.</p>
            <p> Don't forget to look out for the robber! </p>","","instructions","","","","","","","","","","","",""
"revaluation","60","323185","0.0-3.0-11.0-2.0-0.0","spark_pilot_norest","8210","5","22","Male","","false","","","","","[1049.3000000715256,415.2999999523163]","./assets/img/space/11.jpg","[""ArrowUp"",""ArrowRight""]","practice block","space","36","{""ArrowUp,ArrowLeft"":3,""ArrowUp,ArrowRight"":36,""ArrowDown,ArrowLeft"":15,""ArrowDown,ArrowRight"":23}","true","ArrowUp,ArrowRight","false","","","","","",""
"html-keyboard-response","61","323695","0.0-3.0-11.0-2.0-1.0","spark_pilot_norest","8210","5","22","Male","","","","","","","null","<div style=""font-size:60px;"">+</div>","null","fixation","","","","","","","","","","","",""
"revaluation","62","329718","0.0-3.0-11.0-2.0-0.1","spark_pilot_norest","8210","5","22","Male","","false","","","","","[522.5,524]","./assets/img/space/12.jpg","[""ArrowUp"",""ArrowRight""]","practice block","space","36","{""ArrowUp,ArrowLeft"":3,""ArrowUp,ArrowRight"":36,""ArrowDown,ArrowLeft"":15,""ArrowDown,ArrowRight"":23}","true","ArrowUp,ArrowRight","false","","","","","",""
"html-keyboard-response","63","330230","0.0-3.0-11.0-2.0-1.1","spark_pilot_norest","8210","5","22","Male","","","","","","","null","<div style=""font-size:60px;"">+</div>","null","fixation","","","","","","","","","","","",""
"revaluation","64","336245","0.0-3.0-11.0-2.0-0.2","spark_pilot_norest","8210","5","22","Male","","false","","","","","[577.7999999523163,503.39999997615814]","./assets/img/space/13.jpg","[""ArrowDown"",""ArrowRight""]","practice block","space","23","{""ArrowUp,ArrowLeft"":3,""ArrowUp,ArrowRight"":36,""ArrowDown,ArrowLeft"":15,""ArrowDown,ArrowRight"":23}","false","ArrowDown,ArrowRight","false","","","","","",""
"html-keyboard-response","65","336755","0.0-3.0-11.0-2.0-1.2","spark_pilot_norest","8210","5","22","Male","","","","","","","null","<div style=""font-size:60px;"">+</div>","null","fixation","","","","","","","","","","","",""
"revaluation","66","342788","0.0-3.0-11.0-2.0-0.3","spark_pilot_norest","8210","5","22","Male","","false","","","","","[507.60000002384186,472.6999999284744]","./assets/img/space/14.jpg","[""ArrowUp"",""ArrowRight""]","practice block","space","36","{""ArrowUp,ArrowLeft"":3,""ArrowUp,ArrowRight"":36,""ArrowDown,ArrowLeft"":15,""ArrowDown,ArrowRight"":23}","true","ArrowUp,ArrowRight","false","","","","","",""
"html-keyboard-response","67","343299","0.0-3.0-11.0-2.0-1.3","spark_pilot_norest","8210","5","22","Male","","","","","","","null","<div style=""font-size:60px;"">+</div>","null","fixation","","","","","","","","","","","",""
"revaluation","68","349320","0.0-3.0-11.0-2.0-0.4","spark_pilot_norest","8210","5","22","Male","","false","","","","","[524.7000000476837,547.0999999046326]","./assets/img/space/11.jpg","[""ArrowUp"",""ArrowRight""]","practice block","space","36","{""ArrowUp,ArrowLeft"":3,""ArrowUp,ArrowRight"":36,""ArrowDown,ArrowLeft"":15,""ArrowDown,ArrowRight"":23}","true","ArrowUp,ArrowRight","false","","","","","",""
"html-keyboard-response","69","349822","0.0-3.0-11.0-2.0-1.4","spark_pilot_norest","8210","5","22","Male","","","","","","","null","<div style=""font-size:60px;"">+</div>","null","fixation","","","","","","","","","","","",""
"revaluation","70","355828","0.0-3.0-11.0-2.0-0.5","spark_pilot_norest","8210","5","22","Male","","false","","","","","[762.1999999284744,517.5]","./assets/img/space/12.jpg","[""ArrowUp"",""ArrowRight""]","practice block","space","36","{""ArrowUp,ArrowLeft"":3,""ArrowUp,ArrowRight"":36,""ArrowDown,ArrowLeft"":15,""ArrowDown,ArrowRight"":23}","true","ArrowUp,ArrowRight","false","","","","","",""
"html-keyboard-response","71","356330","0.0-3.0-11.0-2.0-1.5","spark_pilot_norest","8210","5","22","Male","","","","","","","null","<div style=""font-size:60px;"">+</div>","null","fixation","","","","","","","","","","","",""
"revaluation","72","362335","0.0-3.0-11.0-2.0-0.6","spark_pilot_norest","8210","5","22","Male","","false","","","","","[642.8999999761581,317.89999997615814]","./assets/img/space/13.jpg","[""ArrowUp"",""ArrowRight""]","practice block","space","36","{""ArrowUp,ArrowLeft"":3,""ArrowUp,ArrowRight"":36,""ArrowDown,ArrowLeft"":15,""ArrowDown,ArrowRight"":23}","true","ArrowUp,ArrowRight","false","","","","","",""
"html-keyboard-response","73","362837","0.0-3.0-11.0-2.0-1.6","spark_pilot_norest","8210","5","22","Male","","","","","","","null","<div style=""font-size:60px;"">+</div>","null","fixation","","","","","","","","","","","",""
"revaluation","74","368843","0.0-3.0-11.0-2.0-0.7","spark_pilot_norest","8210","5","22","Male","","false","","","","","[613.5,354.2999999523163]","./assets/img/space/14.jpg","[""ArrowUp"",""ArrowRight""]","practice block","space","36","{""ArrowUp,ArrowLeft"":3,""ArrowUp,ArrowRight"":36,""ArrowDown,ArrowLeft"":15,""ArrowDown,ArrowRight"":23}","true","ArrowUp,ArrowRight","false","","","","","",""
"html-keyboard-response","75","369344","0.0-3.0-11.0-2.0-1.7","spark_pilot_norest","8210","5","22","Male","","","","","","","null","<div style=""font-size:60px;"">+</div>","null","fixation","","","","","","","","","","","",""
"revaluation","76","373349","0.0-3.0-11.0-2.0-0.8","spark_pilot_norest","8210","5","22","Male","","false","","","","","[712.5]","./assets/img/space/catch/3.jpg","[""spaceBar""]","practice block","space","0","{""ArrowUp,ArrowLeft"":3,""ArrowUp,ArrowRight"":36,""ArrowDown,ArrowLeft"":15,""ArrowDown,ArrowRight"":23}","true","spaceBar","true","","","","","",""
"html-keyboard-response","77","373851","0.0-3.0-11.0-2.0-1.8","spark_pilot_norest","8210","5","22","Male","","","","","","","null","<div style=""font-size:60px;"">+</div>","null","fixation","","","","","","","","","","","",""
"learning-instructions","78","388989","0.0-3.0-11.0-3.0-0.0","spark_pilot_norest","8210","5","22","Male","","","","","","","1866","<p> Now, you will travel with a friend who will choose whether you go up or down first. </p>
            <p> On these turns, you will just see the animal that they found. You will still get to choose which chest to search for treasure.</p>","","instructions","","","","","","","","","","","",""
"revaluation","79","393005","0.0-3.0-11.0-4.0-0.0","spark_pilot_norest","8210","5","22","Male","","false","","","","","[1033.8000000715256]","./assets/img/space/animals/cat.jpg","[""ArrowRight""]","practice block","space","36","{""ArrowUp,ArrowLeft"":3,""ArrowUp,ArrowRight"":36,""ArrowDown,ArrowLeft"":15,""ArrowDown,ArrowRight"":23}","true","ArrowUp,ArrowRight","","","","","","",""
"html-keyboard-response","80","393510","0.0-3.0-11.0-4.0-1.0","spark_pilot_norest","8210","5","22","Male","","","","","","","null","<div style=""font-size:60px;"">+</div>","null","fixation","","","","","","","","","","","",""
"revaluation","81","397540","0.0-3.0-11.0-4.0-0.1","spark_pilot_norest","8210","5","22","Male","","false","","","","","[1723.7999999523163]","./assets/img/space/animals/rabbit.jpg","[""ArrowRight""]","practice block","space","23","{""ArrowUp,ArrowLeft"":3,""ArrowUp,ArrowRight"":36,""ArrowDown,ArrowLeft"":15,""ArrowDown,ArrowRight"":23}","true","ArrowDown,ArrowRight","","","","","","",""
"html-keyboard-response","82","398050","0.0-3.0-11.0-4.0-1.1","spark_pilot_norest","8210","5","22","Male","","","","","","","null","<div style=""font-size:60px;"">+</div>","null","fixation","","","","","","","","","","","",""
"revaluation","83","402077","0.0-3.0-11.0-4.0-0.2","spark_pilot_norest","8210","5","22","Male","","false","","","","","[457.5]","./assets/img/space/animals/cat.jpg","[""ArrowRight""]","practice block","space","36","{""ArrowUp,ArrowLeft"":3,""ArrowUp,ArrowRight"":36,""ArrowDown,ArrowLeft"":15,""ArrowDown,ArrowRight"":23}","true","ArrowUp,ArrowRight","","","","","","",""
"html-keyboard-response","84","402589","0.0-3.0-11.0-4.0-1.2","spark_pilot_norest","8210","5","22","Male","","","","","","","null","<div style=""font-size:60px;"">+</div>","null","fixation","","","","","","","","","","","",""
"revaluation","85","406602","0.0-3.0-11.0-4.0-0.3","spark_pilot_norest","8210","5","22","Male","","false","","","","","[524.5999999046326]","./assets/img/space/animals/rabbit.jpg","[""ArrowRight""]","practice block","space","23","{""ArrowUp,ArrowLeft"":3,""ArrowUp,ArrowRight"":36,""ArrowDown,ArrowLeft"":15,""ArrowDown,ArrowRight"":23}","true","ArrowDown,ArrowRight","","","","","","",""
"html-keyboard-response","86","407117","0.0-3.0-11.0-4.0-1.3","spark_pilot_norest","8210","5","22","Male","","","","","","","null","<div style=""font-size:60px;"">+</div>","null","fixation","","","","","","","","","","","",""
"learning-instructions","87","415253","0.0-3.0-11.0-5.0-0.0","spark_pilot_norest","8210","5","22","Male","","","","","","","null","<p> You have almost finished this part of the game! </p>
            <p> We are going to ask you to make a few more choices. </p>","","instructions","","","","","","","","","","","",""
"learning-instructions","88","431253","0.0-3.0-11.0-5.0-0.1","spark_pilot_norest","8210","5","22","Male","","","","","","","null","<p> First, you need to decide whether to go up or down. When you see each picture, use the arrow keys to make your choice. </p>
            <p><b>You will not see which animal you found, but try to get to the one that will give you the most treasure.</b></p>","","instructions","","","","","","","","","","","",""
"html-keyboard-response","89","432259","0.0-3.0-11.0-6.0-0.0","spark_pilot_norest","8210","5","22","Male","","","","","","","null","<div style=""font-size:100px;color:red;"">Starting in...</div>","null","","","","","","","","","","","","",""
"html-keyboard-response","90","433262","0.0-3.0-11.0-6.0-1.0","spark_pilot_norest","8210","5","22","Male","","","","","","","null","<div style=""font-size:200px;color:red;"">3</div>","null","","","","","","","","","","","","",""
"html-keyboard-response","91","434274","0.0-3.0-11.0-6.0-2.0","spark_pilot_norest","8210","5","22","Male","","","","","","","null","<div style=""font-size:200px;color:red;"">2</div>","null","","","","","","","","","","","","",""
"html-keyboard-response","92","435285","0.0-3.0-11.0-6.0-3.0","spark_pilot_norest","8210","5","22","Male","","","","","","","null","<div style=""font-size:200px;color:red;"">1</div>","null","","","","","","","","","","","","",""
"revaluation","93","436278","0.0-3.0-11.0-7.0","spark_pilot_norest","8210","5","22","Male","","false","","","","","[989.8000000715256]","./assets/img/space/15.jpg","[""ArrowUp""]","practice block","space","0","{""ArrowUp,ArrowLeft"":3,""ArrowUp,ArrowRight"":36,""ArrowDown,ArrowLeft"":15,""ArrowDown,ArrowRight"":23}","true","ArrowUp","false","","","","","",""
"html-keyboard-response","94","436783","0.0-3.0-11.0-8.0","spark_pilot_norest","8210","5","22","Male","","","","","","","null","<div style=""font-size:60px;"">+</div>","null","fixation","","","","","","","","","","","",""
"learning-instructions","95","450178","0.0-3.0-11.0-9.0-0.0","spark_pilot_norest","8210","5","22","Male","","","","","","","null","<p> Now you will see the animals again and can search their chests for treasure. </p>
            <p> This time, you will not see how much treasure you earned, but you will earn more bonus money for making better choices. </p>","","instructions","","","","","","","","","","","",""
"html-keyboard-response","96","451186","0.0-3.0-11.0-10.0-0.0","spark_pilot_norest","8210","5","22","Male","","","","","","","null","<div style=""font-size:100px;color:red;"">Starting in...</div>","null","","","","","","","","","","","","",""
"html-keyboard-response","97","452191","0.0-3.0-11.0-10.0-1.0","spark_pilot_norest","8210","5","22","Male","","","","","","","null","<div style=""font-size:200px;color:red;"">3</div>","null","","","","","","","","","","","","",""
"html-keyboard-response","98","453200","0.0-3.0-11.0-10.0-2.0","spark_pilot_norest","8210","5","22","Male","","","","","","","null","<div style=""font-size:200px;color:red;"">2</div>","null","","","","","","","","","","","","",""
"html-keyboard-response","99","454207","0.0-3.0-11.0-10.0-3.0","spark_pilot_norest","8210","5","22","Male","","","","","","","null","<div style=""font-size:200px;color:red;"">1</div>","null","","","","","","","","","","","","",""
"revaluation","100","454679","0.0-3.0-11.0-11.0-0.0","spark_pilot_norest","8210","5","22","Male","","false","","","","","[468]","./assets/img/space/animals/cat.jpg","[""ArrowRight""]","practice block","space","0","{""ArrowUp,ArrowLeft"":3,""ArrowUp,ArrowRight"":36,""ArrowDown,ArrowLeft"":15,""ArrowDown,ArrowRight"":23}","true","ArrowUp,ArrowRight","","","","","","",""
"html-keyboard-response","101","455180","0.0-3.0-11.0-11.0-1.0","spark_pilot_norest","8210","5","22","Male","","","","","","","null","<div style=""font-size:60px;"">+</div>","null","fixation","","","","","","","","","","","",""
"revaluation","102","456120","0.0-3.0-11.0-11.0-0.1","spark_pilot_norest","8210","5","22","Male","","false","","","","","[937.1000000238419]","./assets/img/space/animals/rabbit.jpg","[""ArrowLeft""]","practice block","space","0","{""ArrowUp,ArrowLeft"":3,""ArrowUp,ArrowRight"":36,""ArrowDown,ArrowLeft"":15,""ArrowDown,ArrowRight"":23}","false","ArrowDown,ArrowLeft","","","","","","",""
"html-keyboard-response","103","456626","0.0-3.0-11.0-11.0-1.1","spark_pilot_norest","8210","5","22","Male","","","","","","","null","<div style=""font-size:60px;"">+</div>","null","fixation","","","","","","","","","","","",""
"learning-instructions","104","461694","0.0-3.0-12.0-0.0","spark_pilot_norest","8210","5","22","Male","","","","","","","491.5","<p> Before you start, we're going to ask you a few questions about how the game works. </p>","","instructions","","","","","","","","","","","",""
"comp-q","105","469882","0.0-3.0-13.0-0.0-0.0","spark_pilot_norest","8210","5","22","Male","","","","","","","2593.7999999523163","<p> <b> True or False? </b> </p>
            <p> There can be 50 pieces of treasure in a given animal's chest. </p>","1","comp_question","","","","true","","","","","","","",""
"comp-q","106","478533","0.0-3.0-13.0-0.0-1.0","spark_pilot_norest","8210","5","22","Male","","","","","","","1989.9000000953674","<p> <b> That's right! </b> The amount of treasure in each chest can range from 0 to 40 pieces. </p>","0","comp_answer","","","","","","","","","","","",""
"comp-q","107","486562","0.0-3.0-13.0-0.1-0.1","spark_pilot_norest","8210","5","22","Male","","","","","","","908.7000000476837","<p> <b> True or False? </b> </p><p> In this game, all animals have the same amount of treasure in their left and right chests. </p>","1","comp_question","","","","true","","","","","","","",""
"comp-q","108","494006","0.0-3.0-13.0-0.1-1.1","spark_pilot_norest","8210","5","22","Male","","","","","","","2204.2000000476837","<p> <b> That's right! </b> Animals have different amounts of treasure in their treasure chests. </p>","0","comp_answer","","","","","","","","","","","",""
"comp-q","109","500932","0.0-3.0-13.0-0.2-0.2","spark_pilot_norest","8210","5","22","Male","","","","","","","1080.6000000238419","<p> <b> True or False? </b> </p><p> The same animal will always be there if you go up in the same place. </p>","1","comp_question","","","","false","","","","","","","",""
"comp-q","110","508175","0.0-3.0-13.0-0.2-1.2","spark_pilot_norest","8210","5","22","Male","","","","","","","932.7999999523163","<p> <b>Incorrect.</b> One animal lives in the upper part and one lives in the lower part of every place. </p>","0","comp_answer","","","","","","","","","","","",""
"comp-q","111","515009","0.0-3.0-13.0-0.3-0.3","spark_pilot_norest","8210","5","22","Male","","","","","","","1006.2999999523163","<p> <b> True or False? </b> </p><p> The same animal will always be there if you go up in the same place. </p>","0","comp_question","","","","true","","","","","","","",""
"comp-q","112","522139","0.0-3.0-13.0-0.3-1.3","spark_pilot_norest","8210","5","22","Male","","","","","","","676.7000000476837","<p> <b> That's right! </b> One animal lives in the upper part and one lives in the lower part of every place. </p>","0","comp_answer","","","","","","","","","","","",""
"comp-q","113","528444","0.0-3.0-13.0-0.4-0.4","spark_pilot_norest","8210","5","22","Male","","","","","","","782.6999999284744","<p> <b> True or False? </b> </p><p> If you see a different picture, it means you are in a new place. </p>","1","comp_question","","","","true","","","","","","","",""
"comp-q","114","540842","0.0-3.0-13.0-0.4-1.4","spark_pilot_norest","8210","5","22","Male","","","","","","","1159.7000000476837","<p> <b> That's right! </b> Lots of different images may show the same place. For example,  you may see three different images that all remind you that you are in outer space. </p>","0","comp_answer","","","","","","","","","","","",""
"learning-instructions","115","552628","0.0-3.0-14.0-0.0","spark_pilot_norest","8210","5","22","Male","","","","","","","1935.5","<p> Good job. Remember to do your best because the amount of treasure you earn will be converted into bonus money. </p>
            <p> It’s time to start the real game! </p>","","instructions","","","","","","","","","","","",""
"learning-instructions","116","556414","0.0-4.0-0.0-0.0","spark_pilot_norest","8210","5","22","Male","","","","","","","1001.1999999284744","<p> This time you are searching for treasure in the <b>canyon</b>.</p>","","instructions","","","","","","","","","","","",""
"learning-instructions","117","574459","0.0-4.0-0.0-0.1","spark_pilot_norest","8210","5","22","Male","","","","","","","735.6999999284744","<p><b>New</b> animals with <b>new</b> treasure chests live here. You need to explore to discover where the animal with the best treasure chest is.</p>
                    <p> Like before, once you figure out which animal has the chest with the most treasure, you should try to get to that animal and select that chest! </p>","","instructions","","","","","","","","","","","",""
"learning-instructions","118","589590","0.0-4.0-1.0-0.0","spark_pilot_norest","8210","5","22","Male","","","","","","","407.60000002384186","<p> Remember, when you see a picture of the place, use the up and down keys to <b>find an animal</b>.</p>
            <p> When you encounter an animal, you should use the left and right keys to <b>select a treasure chest</b>.</p>
            <p> Don't forget to look out for the robber! </p>","","instructions","","","","","","","","","","","",""
"revaluation","119","595619","0.0-4.0-2.0-0.0","spark_pilot_norest","8210","5","22","Male","","false","","","","","[1169.7999999523163,510.7999999523163]","./assets/img/canyon/memory/14.jpg","[""ArrowUp"",""ArrowRight""]","value training","canyon","10","{""ArrowUp,ArrowLeft"":26,""ArrowUp,ArrowRight"":10,""ArrowDown,ArrowLeft"":5,""ArrowDown,ArrowRight"":17}","false","ArrowUp,ArrowRight","false","original","1","0","","",""
"html-keyboard-response","120","596131","0.0-4.0-2.0-1.0","spark_pilot_norest","8210","5","22","Male","","","","","","","null","<div style=""font-size:60px;"">+</div>","null","fixation","","","","","","","","","1","","",""
"revaluation","121","600158","0.0-4.0-2.0-0.1","spark_pilot_norest","8210","5","22","Male","","false","","","","","[264.2999999523163]","./assets/img/canyon/catch/4.jpg","[""ArrowUp""]","value training","canyon","-10","{""ArrowUp,ArrowLeft"":26,""ArrowUp,ArrowRight"":10,""ArrowDown,ArrowLeft"":5,""ArrowDown,ArrowRight"":17}","false","ArrowUp","true","original","1","2","","",""
"html-keyboard-response","122","600669","0.0-4.0-2.0-1.1","spark_pilot_norest","8210","5","22","Male","","","","","","","null","<div style=""font-size:60px;"">+</div>","null","fixation","","","","","","","","","3","","",""
"revaluation","123","604685","0.0-4.0-2.0-0.2","spark_pilot_norest","8210","5","22","Male","","false","","","","","[582.8000000715256]","./assets/img/canyon/catch/3.jpg","[""spaceBar""]","value training","canyon","0","{""ArrowUp,ArrowLeft"":26,""ArrowUp,ArrowRight"":10,""ArrowDown,ArrowLeft"":5,""ArrowDown,ArrowRight"":17}","true","spaceBar","true","original","1","4","","",""
"html-keyboard-response","124","605201","0.0-4.0-2.0-1.2","spark_pilot_norest","8210","5","22","Male","","","","","","","null","<div style=""font-size:60px;"">+</div>","null","fixation","","","","","","","","","5","","",""
"revaluation","125","611229","0.0-4.0-2.0-0.3","spark_pilot_norest","8210","5","22","Male","","false","","","","","[459.10000002384186,480.2999999523163]","./assets/img/canyon/memory/11.jpg","[""ArrowUp"",""ArrowLeft""]","value training","canyon","26","{""ArrowUp,ArrowLeft"":26,""ArrowUp,ArrowRight"":10,""ArrowDown,ArrowLeft"":5,""ArrowDown,ArrowRight"":17}","true","ArrowUp,ArrowLeft","false","original","1","6","","",""
"html-keyboard-response","126","611742","0.0-4.0-2.0-1.3","spark_pilot_norest","8210","5","22","Male","","","","","","","null","<div style=""font-size:60px;"">+</div>","null","fixation","","","","","","","","","7","","",""
"revaluation","127","617772","0.0-4.0-2.0-0.4","spark_pilot_norest","8210","5","22","Male","","false","","","","","[601.8000000715256,448]","./assets/img/canyon/memory/22.jpg","[""ArrowDown"",""ArrowRight""]","value training","canyon","17","{""ArrowUp,ArrowLeft"":26,""ArrowUp,ArrowRight"":10,""ArrowDown,ArrowLeft"":5,""ArrowDown,ArrowRight"":17}","false","ArrowDown,ArrowRight","false","original","1","8","","",""
"html-keyboard-response","128","618277","0.0-4.0-2.0-1.4","spark_pilot_norest","8210","5","22","Male","","","","","","","null","<div style=""font-size:60px;"">+</div>","null","fixation","","","","","","","","","9","","",""
"revaluation","129","622281","0.0-4.0-2.0-0.5","spark_pilot_norest","8210","5","22","Male","","false","","","","","[473.2000000476837]","./assets/img/canyon/catch/2.jpg","[""ArrowDown""]","value training","canyon","-10","{""ArrowUp,ArrowLeft"":26,""ArrowUp,ArrowRight"":10,""ArrowDown,ArrowLeft"":5,""ArrowDown,ArrowRight"":17}","false","ArrowDown","true","original","1","10","","",""
"html-keyboard-response","130","622782","0.0-4.0-2.0-1.5","spark_pilot_norest","8210","5","22","Male","","","","","","","null","<div style=""font-size:60px;"">+</div>","null","fixation","","","","","","","","","11","","",""
"revaluation","131","628788","0.0-4.0-2.0-0.6","spark_pilot_norest","8210","5","22","Male","","false","","","","","[368.1999999284744,564.1000000238419]","./assets/img/canyon/memory/33.jpg","[""ArrowDown"",""ArrowLeft""]","value training","canyon","5","{""ArrowUp,ArrowLeft"":26,""ArrowUp,ArrowRight"":10,""ArrowDown,ArrowLeft"":5,""ArrowDown,ArrowRight"":17}","false","ArrowDown,ArrowLeft","false","original","1","12","","",""
"html-keyboard-response","132","629290","0.0-4.0-2.0-1.6","spark_pilot_norest","8210","5","22","Male","","","","","","","null","<div style=""font-size:60px;"">+</div>","null","fixation","","","","","","","","","13","","",""
"revaluation","133","635296","0.0-4.0-2.0-0.7","spark_pilot_norest","8210","5","22","Male","","false","","","","","[827.8999999761581,593.7000000476837]","./assets/img/canyon/memory/26.jpg","[""ArrowUp"",""ArrowRight""]","value training","canyon","10","{""ArrowUp,ArrowLeft"":26,""ArrowUp,ArrowRight"":10,""ArrowDown,ArrowLeft"":5,""ArrowDown,ArrowRight"":17}","false","ArrowUp,ArrowRight","false","original","1","14","","",""
"html-keyboard-response","134","635797","0.0-4.0-2.0-1.7","spark_pilot_norest","8210","5","22","Male","","","","","","","null","<div style=""font-size:60px;"">+</div>","null","fixation","","","","","","","","","15","","",""
"revaluation","135","641803","0.0-4.0-2.0-0.8","spark_pilot_norest","8210","5","22","Male","","false","","","","","[858.6000000238419,289.09999990463257]","./assets/img/canyon/memory/23.jpg","[""ArrowUp"",""ArrowLeft""]","value training","canyon","26","{""ArrowUp,ArrowLeft"":26,""ArrowUp,ArrowRight"":10,""ArrowDown,ArrowLeft"":5,""ArrowDown,ArrowRight"":17}","true","ArrowUp,ArrowLeft","false","original","1","16","","",""
"html-keyboard-response","136","642305","0.0-4.0-2.0-1.8","spark_pilot_norest","8210","5","22","Male","","","","","","","null","<div style=""font-size:60px;"">+</div>","null","fixation","","","","","","","","","17","","",""
"revaluation","137","648311","0.0-4.0-2.0-0.9","spark_pilot_norest","8210","5","22","Male","","false","","","","","[560.8000000715256,278]","./assets/img/canyon/memory/2.jpg","[""ArrowUp"",""ArrowLeft""]","value training","canyon","26","{""ArrowUp,ArrowLeft"":26,""ArrowUp,ArrowRight"":10,""ArrowDown,ArrowLeft"":5,""ArrowDown,ArrowRight"":17}","true","ArrowUp,ArrowLeft","false","original","1","18","","",""
"html-keyboard-response","138","648813","0.0-4.0-2.0-1.9","spark_pilot_norest","8210","5","22","Male","","","","","","","null","<div style=""font-size:60px;"">+</div>","null","fixation","","","","","","","","","19","","",""
"revaluation","139","654819","0.0-4.0-2.0-0.10","spark_pilot_norest","8210","5","22","Male","","false","","","","","[550.6999999284744,266.2999999523163]","./assets/img/canyon/memory/2.jpg","[""ArrowUp"",""ArrowLeft""]","value training","canyon","26","{""ArrowUp,ArrowLeft"":26,""ArrowUp,ArrowRight"":10,""ArrowDown,ArrowLeft"":5,""ArrowDown,ArrowRight"":17}","true","ArrowUp,ArrowLeft","false","original","1","20","","",""
"html-keyboard-response","140","655321","0.0-4.0-2.0-1.10","spark_pilot_norest","8210","5","22","Male","","","","","","","null","<div style=""font-size:60px;"">+</div>","null","fixation","","","","","","","","","21","","",""
"revaluation","141","661327","0.0-4.0-2.0-0.11","spark_pilot_norest","8210","5","22","Male","","false","","","","","[453.8000000715256,324.39999997615814]","./assets/img/canyon/memory/28.jpg","[""ArrowUp"",""ArrowLeft""]","value training","canyon","26","{""ArrowUp,ArrowLeft"":26,""ArrowUp,ArrowRight"":10,""ArrowDown,ArrowLeft"":5,""ArrowDown,ArrowRight"":17}","true","ArrowUp,ArrowLeft","false","original","1","22","","",""
"html-keyboard-response","142","661830","0.0-4.0-2.0-1.11","spark_pilot_norest","8210","5","22","Male","","","","","","","null","<div style=""font-size:60px;"">+</div>","null","fixation","","","","","","","","","23","","",""
"revaluation","143","667834","0.0-4.0-2.0-0.12","spark_pilot_norest","8210","5","22","Male","","false","","","","","[464,349.7999999523163]","./assets/img/canyon/memory/16.jpg","[""ArrowUp"",""ArrowLeft""]","value training","canyon","26","{""ArrowUp,ArrowLeft"":26,""ArrowUp,ArrowRight"":10,""ArrowDown,ArrowLeft"":5,""ArrowDown,ArrowRight"":17}","true","ArrowUp,ArrowLeft","false","original","1","24","","",""
"html-keyboard-response","144","668336","0.0-4.0-2.0-1.12","spark_pilot_norest","8210","5","22","Male","","","","","","","null","<div style=""font-size:60px;"">+</div>","null","fixation","","","","","","","","","25","","",""
"revaluation","145","674341","0.0-4.0-2.0-0.13","spark_pilot_norest","8210","5","22","Male","","false","","","","","[453.2999999523163,264.5]","./assets/img/canyon/memory/19.jpg","[""ArrowUp"",""ArrowLeft""]","value training","canyon","26","{""ArrowUp,ArrowLeft"":26,""ArrowUp,ArrowRight"":10,""ArrowDown,ArrowLeft"":5,""ArrowDown,ArrowRight"":17}","true","ArrowUp,ArrowLeft","false","original","1","26","","",""
"html-keyboard-response","146","674843","0.0-4.0-2.0-1.13","spark_pilot_norest","8210","5","22","Male","","","","","","","null","<div style=""font-size:60px;"">+</div>","null","fixation","","","","","","","","","27","","",""
"revaluation","147","680849","0.0-4.0-2.0-0.14","spark_pilot_norest","8210","5","22","Male","","false","","","","","[523.7999999523163,413.2999999523163]","./assets/img/canyon/memory/15.jpg","[""ArrowUp"",""ArrowLeft""]","value training","canyon","26","{""ArrowUp,ArrowLeft"":26,""ArrowUp,ArrowRight"":10,""ArrowDown,ArrowLeft"":5,""ArrowDown,ArrowRight"":17}","true","ArrowUp,ArrowLeft","false","original","1","28","","",""
"html-keyboard-response","148","681351","0.0-4.0-2.0-1.14","spark_pilot_norest","8210","5","22","Male","","","","","","","null","<div style=""font-size:60px;"">+</div>","null","fixation","","","","","","","","","29","","",""
"revaluation","149","687358","0.0-4.0-2.0-0.15","spark_pilot_norest","8210","5","22","Male","","false","","","","","[507.2000000476837,387.60000002384186]","./assets/img/canyon/memory/20.jpg","[""ArrowUp"",""ArrowLeft""]","value training","canyon","26","{""ArrowUp,ArrowLeft"":26,""ArrowUp,ArrowRight"":10,""ArrowDown,ArrowLeft"":5,""ArrowDown,ArrowRight"":17}","true","ArrowUp,ArrowLeft","false","original","1","30","","",""
"html-keyboard-response","150","687860","0.0-4.0-2.0-1.15","spark_pilot_norest","8210","5","22","Male","","","","","","","null","<div style=""font-size:60px;"">+</div>","null","fixation","","","","","","","","","31","","",""
"revaluation","151","693866","0.0-4.0-2.0-0.16","spark_pilot_norest","8210","5","22","Male","","false","","","","","[506.3000000715256,687.8999999761581]","./assets/img/canyon/memory/8.jpg","[""ArrowUp"",""ArrowLeft""]","value training","canyon","26","{""ArrowUp,ArrowLeft"":26,""ArrowUp,ArrowRight"":10,""ArrowDown,ArrowLeft"":5,""ArrowDown,ArrowRight"":17}","true","ArrowUp,ArrowLeft","false","original","1","32","","",""
"html-keyboard-response","152","694368","0.0-4.0-2.0-1.16","spark_pilot_norest","8210","5","22","Male","","","","","","","null","<div style=""font-size:60px;"">+</div>","null","fixation","","","","","","","","","33","","",""
"revaluation","153","700375","0.0-4.0-2.0-0.17","spark_pilot_norest","8210","5","22","Male","","false","","","","","[543.2000000476837,445.89999997615814]","./assets/img/canyon/memory/3.jpg","[""ArrowUp"",""ArrowLeft""]","value training","canyon","26","{""ArrowUp,ArrowLeft"":26,""ArrowUp,ArrowRight"":10,""ArrowDown,ArrowLeft"":5,""ArrowDown,ArrowRight"":17}","true","ArrowUp,ArrowLeft","false","original","1","34","","",""
"html-keyboard-response","154","700876","0.0-4.0-2.0-1.17","spark_pilot_norest","8210","5","22","Male","","","","","","","null","<div style=""font-size:60px;"">+</div>","null","fixation","","","","","","","","","35","","",""
"revaluation","155","706882","0.0-4.0-2.0-0.18","spark_pilot_norest","8210","5","22","Male","","false","","","","","[483.3000000715256,278.90000009536743]","./assets/img/canyon/memory/15.jpg","[""ArrowUp"",""ArrowLeft""]","value training","canyon","26","{""ArrowUp,ArrowLeft"":26,""ArrowUp,ArrowRight"":10,""ArrowDown,ArrowLeft"":5,""ArrowDown,ArrowRight"":17}","true","ArrowUp,ArrowLeft","false","original","1","36","","",""
"html-keyboard-response","156","707384","0.0-4.0-2.0-1.18","spark_pilot_norest","8210","5","22","Male","","","","","","","null","<div style=""font-size:60px;"">+</div>","null","fixation","","","","","","","","","37","","",""
"revaluation","157","711389","0.0-4.0-2.0-0.19","spark_pilot_norest","8210","5","22","Male","","false","","","","","[758]","./assets/img/canyon/catch/5.jpg","[""spaceBar""]","value training","canyon","0","{""ArrowUp,ArrowLeft"":26,""ArrowUp,ArrowRight"":10,""ArrowDown,ArrowLeft"":5,""ArrowDown,ArrowRight"":17}","true","spaceBar","true","original","1","38","","",""
"html-keyboard-response","158","711891","0.0-4.0-2.0-1.19","spark_pilot_norest","8210","5","22","Male","","","","","","","null","<div style=""font-size:60px;"">+</div>","null","fixation","","","","","","","","","39","","",""
"revaluation","159","717896","0.0-4.0-2.0-0.20","spark_pilot_norest","8210","5","22","Male","","false","","","","","[555.6000000238419,347.7000000476837]","./assets/img/canyon/memory/9.jpg","[""ArrowUp"",""ArrowLeft""]","value training","canyon","26","{""ArrowUp,ArrowLeft"":26,""ArrowUp,ArrowRight"":10,""ArrowDown,ArrowLeft"":5,""ArrowDown,ArrowRight"":17}","true","ArrowUp,ArrowLeft","false","original","1","40","","",""
"html-keyboard-response","160","718410","0.0-4.0-2.0-1.20","spark_pilot_norest","8210","5","22","Male","","","","","","","null","<div style=""font-size:60px;"">+</div>","null","fixation","","","","","","","","","41","","",""
"revaluation","161","724416","0.0-4.0-2.0-0.21","spark_pilot_norest","8210","5","22","Male","","false","","","","","[628.6000000238419,235.20000004768372]","./assets/img/canyon/memory/33.jpg","[""ArrowUp"",""ArrowLeft""]","value training","canyon","26","{""ArrowUp,ArrowLeft"":26,""ArrowUp,ArrowRight"":10,""ArrowDown,ArrowLeft"":5,""ArrowDown,ArrowRight"":17}","true","ArrowUp,ArrowLeft","false","original","1","42","","",""
"html-keyboard-response","162","724918","0.0-4.0-2.0-1.21","spark_pilot_norest","8210","5","22","Male","","","","","","","null","<div style=""font-size:60px;"">+</div>","null","fixation","","","","","","","","","43","","",""
"revaluation","163","730923","0.0-4.0-2.0-0.22","spark_pilot_norest","8210","5","22","Male","","false","","","","","[568.2000000476837,314.3000000715256]","./assets/img/canyon/memory/14.jpg","[""ArrowUp"",""ArrowLeft""]","value training","canyon","26","{""ArrowUp,ArrowLeft"":26,""ArrowUp,ArrowRight"":10,""ArrowDown,ArrowLeft"":5,""ArrowDown,ArrowRight"":17}","true","ArrowUp,ArrowLeft","false","original","1","44","","",""
"html-keyboard-response","164","731426","0.0-4.0-2.0-1.22","spark_pilot_norest","8210","5","22","Male","","","","","","","null","<div style=""font-size:60px;"">+</div>","null","fixation","","","","","","","","","45","","",""
"revaluation","165","737432","0.0-4.0-2.0-0.23","spark_pilot_norest","8210","5","22","Male","","false","","","","","[410.90000009536743,353.3000000715256]","./assets/img/canyon/memory/19.jpg","[""ArrowUp"",""ArrowLeft""]","value training","canyon","26","{""ArrowUp,ArrowLeft"":26,""ArrowUp,ArrowRight"":10,""ArrowDown,ArrowLeft"":5,""ArrowDown,ArrowRight"":17}","true","ArrowUp,ArrowLeft","false","original","1","46","","",""
"html-keyboard-response","166","737934","0.0-4.0-2.0-1.23","spark_pilot_norest","8210","5","22","Male","","","","","","","null","<div style=""font-size:60px;"">+</div>","null","fixation","","","","","","","","","47","","",""
"revaluation","167","743940","0.0-4.0-2.0-0.24","spark_pilot_norest","8210","5","22","Male","","false","","","","","[466.1999999284744,241.69999992847443]","./assets/img/canyon/memory/22.jpg","[""ArrowUp"",""ArrowLeft""]","value training","canyon","26","{""ArrowUp,ArrowLeft"":26,""ArrowUp,ArrowRight"":10,""ArrowDown,ArrowLeft"":5,""ArrowDown,ArrowRight"":17}","true","ArrowUp,ArrowLeft","false","original","1","48","","",""
"html-keyboard-response","168","744447","0.0-4.0-2.0-1.24","spark_pilot_norest","8210","5","22","Male","","","","","","","null","<div style=""font-size:60px;"">+</div>","null","fixation","","","","","","","","","49","","",""
"revaluation","169","750453","0.0-4.0-2.0-0.25","spark_pilot_norest","8210","5","22","Male","","false","","","","","[460.1999999284744,260.60000002384186]","./assets/img/canyon/memory/12.jpg","[""ArrowUp"",""ArrowLeft""]","value training","canyon","26","{""ArrowUp,ArrowLeft"":26,""ArrowUp,ArrowRight"":10,""ArrowDown,ArrowLeft"":5,""ArrowDown,ArrowRight"":17}","true","ArrowUp,ArrowLeft","false","original","1","50","","",""
"html-keyboard-response","170","750955","0.0-4.0-2.0-1.25","spark_pilot_norest","8210","5","22","Male","","","","","","","null","<div style=""font-size:60px;"">+</div>","null","fixation","","","","","","","","","51","","",""
"revaluation","171","754959","0.0-4.0-2.0-0.26","spark_pilot_norest","8210","5","22","Male","","false","","","","","[595]","./assets/img/canyon/catch/0.jpg","[""spaceBar""]","value training","canyon","0","{""ArrowUp,ArrowLeft"":26,""ArrowUp,ArrowRight"":10,""ArrowDown,ArrowLeft"":5,""ArrowDown,ArrowRight"":17}","true","spaceBar","true","original","1","52","","",""
"html-keyboard-response","172","755461","0.0-4.0-2.0-1.26","spark_pilot_norest","8210","5","22","Male","","","","","","","null","<div style=""font-size:60px;"">+</div>","null","fixation","","","","","","","","","53","","",""
"revaluation","173","761468","0.0-4.0-2.0-0.27","spark_pilot_norest","8210","5","22","Male","","false","","","","","[501.8000000715256,322.89999997615814]","./assets/img/canyon/memory/21.jpg","[""ArrowUp"",""ArrowLeft""]","value training","canyon","26","{""ArrowUp,ArrowLeft"":26,""ArrowUp,ArrowRight"":10,""ArrowDown,ArrowLeft"":5,""ArrowDown,ArrowRight"":17}","true","ArrowUp,ArrowLeft","false","original","1","54","","",""
"html-keyboard-response","174","761970","0.0-4.0-2.0-1.27","spark_pilot_norest","8210","5","22","Male","","","","","","","null","<div style=""font-size:60px;"">+</div>","null","fixation","","","","","","","","","55","","",""
"revaluation","175","767976","0.0-4.0-2.0-0.28","spark_pilot_norest","8210","5","22","Male","","false","","","","","[426,251.89999997615814]","./assets/img/canyon/memory/16.jpg","[""ArrowUp"",""ArrowLeft""]","value training","canyon","26","{""ArrowUp,ArrowLeft"":26,""ArrowUp,ArrowRight"":10,""ArrowDown,ArrowLeft"":5,""ArrowDown,ArrowRight"":17}","true","ArrowUp,ArrowLeft","false","original","1","56","","",""
"html-keyboard-response","176","768478","0.0-4.0-2.0-1.28","spark_pilot_norest","8210","5","22","Male","","","","","","","null","<div style=""font-size:60px;"">+</div>","null","fixation","","","","","","","","","57","","",""
"revaluation","177","772484","0.0-4.0-2.0-0.29","spark_pilot_norest","8210","5","22","Male","","false","","","","","[650]","./assets/img/canyon/catch/7.jpg","[""spaceBar""]","value training","canyon","0","{""ArrowUp,ArrowLeft"":26,""ArrowUp,ArrowRight"":10,""ArrowDown,ArrowLeft"":5,""ArrowDown,ArrowRight"":17}","true","spaceBar","true","original","1","58","","",""
"html-keyboard-response","178","772986","0.0-4.0-2.0-1.29","spark_pilot_norest","8210","5","22","Male","","","","","","","null","<div style=""font-size:60px;"">+</div>","null","fixation","","","","","","","","","59","","",""
"revaluation","179","778993","0.0-4.0-2.0-0.30","spark_pilot_norest","8210","5","22","Male","","false","","","","","[512.7999999523163,282.89999997615814]","./assets/img/canyon/memory/9.jpg","[""ArrowUp"",""ArrowLeft""]","value training","canyon","26","{""ArrowUp,ArrowLeft"":26,""ArrowUp,ArrowRight"":10,""ArrowDown,ArrowLeft"":5,""ArrowDown,ArrowRight"":17}","true","ArrowUp,ArrowLeft","false","original","1","60","","",""
"html-keyboard-response","180","779495","0.0-4.0-2.0-1.30","spark_pilot_norest","8210","5","22","Male","","","","","","","null","<div style=""font-size:60px;"">+</div>","null","fixation","","","","","","","","","61","","",""
"revaluation","181","785500","0.0-4.0-2.0-0.31","spark_pilot_norest","8210","5","22","Male","","false","","","","","[460.60000002384186,248.30000007152557]","./assets/img/canyon/memory/23.jpg","[""ArrowUp"",""ArrowLeft""]","value training","canyon","26","{""ArrowUp,ArrowLeft"":26,""ArrowUp,ArrowRight"":10,""ArrowDown,ArrowLeft"":5,""ArrowDown,ArrowRight"":17}","true","ArrowUp,ArrowLeft","false","original","1","62","","",""
"html-keyboard-response","182","786003","0.0-4.0-2.0-1.31","spark_pilot_norest","8210","5","22","Male","","","","","","","null","<div style=""font-size:60px;"">+</div>","null","fixation","","","","","","","","","63","","",""
"revaluation","183","790008","0.0-4.0-2.0-0.32","spark_pilot_norest","8210","5","22","Male","","false","","","","","[746]","./assets/img/canyon/catch/1.jpg","[""spaceBar""]","value training","canyon","0","{""ArrowUp,ArrowLeft"":26,""ArrowUp,ArrowRight"":10,""ArrowDown,ArrowLeft"":5,""ArrowDown,ArrowRight"":17}","true","spaceBar","true","original","1","64","","",""
"html-keyboard-response","184","790510","0.0-4.0-2.0-1.32","spark_pilot_norest","8210","5","22","Male","","","","","","","null","<div style=""font-size:60px;"">+</div>","null","fixation","","","","","","","","","65","","",""
"revaluation","185","796526","0.0-4.0-2.0-0.33","spark_pilot_norest","8210","5","22","Male","","false","","","","","[603.3999999761581,298.7999999523163]","./assets/img/canyon/memory/3.jpg","[""ArrowUp"",""ArrowLeft""]","value training","canyon","26","{""ArrowUp,ArrowLeft"":26,""ArrowUp,ArrowRight"":10,""ArrowDown,ArrowLeft"":5,""ArrowDown,ArrowRight"":17}","true","ArrowUp,ArrowLeft","false","original","1","66","","",""
"html-keyboard-response","186","797029","0.0-4.0-2.0-1.33","spark_pilot_norest","8210","5","22","Male","","","","","","","null","<div style=""font-size:60px;"">+</div>","null","fixation","","","","","","","","","67","","",""
"revaluation","187","803034","0.0-4.0-2.0-0.34","spark_pilot_norest","8210","5","22","Male","","false","","","","","[427.1999999284744,458.10000002384186]","./assets/img/canyon/memory/7.jpg","[""ArrowUp"",""ArrowLeft""]","value training","canyon","26","{""ArrowUp,ArrowLeft"":26,""ArrowUp,ArrowRight"":10,""ArrowDown,ArrowLeft"":5,""ArrowDown,ArrowRight"":17}","true","ArrowUp,ArrowLeft","false","original","1","68","","",""
"html-keyboard-response","188","803536","0.0-4.0-2.0-1.34","spark_pilot_norest","8210","5","22","Male","","","","","","","null","<div style=""font-size:60px;"">+</div>","null","fixation","","","","","","","","","69","","",""
"revaluation","189","809543","0.0-4.0-2.0-0.35","spark_pilot_norest","8210","5","22","Male","","false","","","","","[721.7999999523163,253.20000004768372]","./assets/img/canyon/memory/36.jpg","[""ArrowUp"",""ArrowLeft""]","value training","canyon","26","{""ArrowUp,ArrowLeft"":26,""ArrowUp,ArrowRight"":10,""ArrowDown,ArrowLeft"":5,""ArrowDown,ArrowRight"":17}","true","ArrowUp,ArrowLeft","false","original","1","70","","",""
"html-keyboard-response","190","810044","0.0-4.0-2.0-1.35","spark_pilot_norest","8210","5","22","Male","","","","","","","null","<div style=""font-size:60px;"">+</div>","null","fixation","","","","","","","","","71","","",""
"revaluation","191","816050","0.0-4.0-2.0-0.36","spark_pilot_norest","8210","5","22","Male","","false","","","","","[630.6999999284744,312]","./assets/img/canyon/memory/8.jpg","[""ArrowUp"",""ArrowLeft""]","value training","canyon","26","{""ArrowUp,ArrowLeft"":26,""ArrowUp,ArrowRight"":10,""ArrowDown,ArrowLeft"":5,""ArrowDown,ArrowRight"":17}","true","ArrowUp,ArrowLeft","false","original","1","72","","",""
"html-keyboard-response","192","816552","0.0-4.0-2.0-1.36","spark_pilot_norest","8210","5","22","Male","","","","","","","null","<div style=""font-size:60px;"">+</div>","null","fixation","","","","","","","","","73","","",""
"revaluation","193","822558","0.0-4.0-2.0-0.37","spark_pilot_norest","8210","5","22","Male","","false","","","","","[496.8000000715256,442.7000000476837]","./assets/img/canyon/memory/5.jpg","[""ArrowUp"",""ArrowLeft""]","value training","canyon","26","{""ArrowUp,ArrowLeft"":26,""ArrowUp,ArrowRight"":10,""ArrowDown,ArrowLeft"":5,""ArrowDown,ArrowRight"":17}","true","ArrowUp,ArrowLeft","false","original","1","74","","",""
"html-keyboard-response","194","823060","0.0-4.0-2.0-1.37","spark_pilot_norest","8210","5","22","Male","","","","","","","null","<div style=""font-size:60px;"">+</div>","null","fixation","","","","","","","","","75","","",""
"revaluation","195","829067","0.0-4.0-2.0-0.38","spark_pilot_norest","8210","5","22","Male","","false","","","","","[400.7999999523163,10.200000047683716]","./assets/img/canyon/memory/7.jpg","[""ArrowUp"",""ArrowLeft""]","value training","canyon","26","{""ArrowUp,ArrowLeft"":26,""ArrowUp,ArrowRight"":10,""ArrowDown,ArrowLeft"":5,""ArrowDown,ArrowRight"":17}","true","ArrowUp,ArrowLeft","false","original","1","76","","",""
"html-keyboard-response","196","829569","0.0-4.0-2.0-1.38","spark_pilot_norest","8210","5","22","Male","","","","","","","null","<div style=""font-size:60px;"">+</div>","null","fixation","","","","","","","","","77","","",""
"revaluation","197","835575","0.0-4.0-2.0-0.39","spark_pilot_norest","8210","5","22","Male","","false","","","","","[493.8000000715256,29.899999976158142]","./assets/img/canyon/memory/36.jpg","[""ArrowUp"",""ArrowLeft""]","value training","canyon","26","{""ArrowUp,ArrowLeft"":26,""ArrowUp,ArrowRight"":10,""ArrowDown,ArrowLeft"":5,""ArrowDown,ArrowRight"":17}","true","ArrowUp,ArrowLeft","false","original","1","78","","",""
"html-keyboard-response","198","836077","0.0-4.0-2.0-1.39","spark_pilot_norest","8210","5","22","Male","","","","","","","null","<div style=""font-size:60px;"">+</div>","null","fixation","","","","","","","","","79","","",""
"revaluation","199","842083","0.0-4.0-2.0-0.40","spark_pilot_norest","8210","5","22","Male","","false","","","","","[503.8000000715256,284.60000002384186]","./assets/img/canyon/memory/5.jpg","[""ArrowUp"",""ArrowLeft""]","value training","canyon","26","{""ArrowUp,ArrowLeft"":26,""ArrowUp,ArrowRight"":10,""ArrowDown,ArrowLeft"":5,""ArrowDown,ArrowRight"":17}","true","ArrowUp,ArrowLeft","false","original","1","80","","",""
"html-keyboard-response","200","842585","0.0-4.0-2.0-1.40","spark_pilot_norest","8210","5","22","Male","","","","","","","null","<div style=""font-size:60px;"">+</div>","null","fixation","","","","","","","","","81","","",""
"revaluation","201","848591","0.0-4.0-2.0-0.41","spark_pilot_norest","8210","5","22","Male","","false","","","","","[547.5999999046326,329]","./assets/img/canyon/memory/26.jpg","[""ArrowUp"",""ArrowLeft""]","value training","canyon","26","{""ArrowUp,ArrowLeft"":26,""ArrowUp,ArrowRight"":10,""ArrowDown,ArrowLeft"":5,""ArrowDown,ArrowRight"":17}","true","ArrowUp,ArrowLeft","false","original","1","82","","",""
"html-keyboard-response","202","849092","0.0-4.0-2.0-1.41","spark_pilot_norest","8210","5","22","Male","","","","","","","null","<div style=""font-size:60px;"">+</div>","null","fixation","","","","","","","","","83","","",""
"revaluation","203","855098","0.0-4.0-2.0-0.42","spark_pilot_norest","8210","5","22","Male","","false","","","","","[452.89999997615814,224.19999992847443]","./assets/img/canyon/memory/21.jpg","[""ArrowUp"",""ArrowLeft""]","value training","canyon","26","{""ArrowUp,ArrowLeft"":26,""ArrowUp,ArrowRight"":10,""ArrowDown,ArrowLeft"":5,""ArrowDown,ArrowRight"":17}","true","ArrowUp,ArrowLeft","false","original","1","84","","",""
"html-keyboard-response","204","855599","0.0-4.0-2.0-1.42","spark_pilot_norest","8210","5","22","Male","","","","","","","null","<div style=""font-size:60px;"">+</div>","null","fixation","","","","","","","","","85","","",""
"revaluation","205","861607","0.0-4.0-2.0-0.43","spark_pilot_norest","8210","5","22","Male","","false","","","","","[458.89999997615814,248.39999997615814]","./assets/img/canyon/memory/20.jpg","[""ArrowUp"",""ArrowLeft""]","value training","canyon","26","{""ArrowUp,ArrowLeft"":26,""ArrowUp,ArrowRight"":10,""ArrowDown,ArrowLeft"":5,""ArrowDown,ArrowRight"":17}","true","ArrowUp,ArrowLeft","false","original","1","86","","",""
"html-keyboard-response","206","862108","0.0-4.0-2.0-1.43","spark_pilot_norest","8210","5","22","Male","","","","","","","null","<div style=""font-size:60px;"">+</div>","null","fixation","","","","","","","","","87","","",""
"revaluation","207","868115","0.0-4.0-2.0-0.44","spark_pilot_norest","8210","5","22","Male","","false","","","","","[445.60000002384186,146.69999992847443]","./assets/img/canyon/memory/12.jpg","[""ArrowUp"",""ArrowLeft""]","value training","canyon","26","{""ArrowUp,ArrowLeft"":26,""ArrowUp,ArrowRight"":10,""ArrowDown,ArrowLeft"":5,""ArrowDown,ArrowRight"":17}","true","ArrowUp,ArrowLeft","false","original","1","88","","",""
"html-keyboard-response","208","868617","0.0-4.0-2.0-1.44","spark_pilot_norest","8210","5","22","Male","","","","","","","null","<div style=""font-size:60px;"">+</div>","null","fixation","","","","","","","","","89","","",""
"revaluation","209","874623","0.0-4.0-2.0-0.45","spark_pilot_norest","8210","5","22","Male","","false","","","","","[390.8000000715256,180.5]","./assets/img/canyon/memory/28.jpg","[""ArrowUp"",""ArrowLeft""]","value training","canyon","26","{""ArrowUp,ArrowLeft"":26,""ArrowUp,ArrowRight"":10,""ArrowDown,ArrowLeft"":5,""ArrowDown,ArrowRight"":17}","true","ArrowUp,ArrowLeft","false","original","1","90","","",""
"html-keyboard-response","210","875125","0.0-4.0-2.0-1.45","spark_pilot_norest","8210","5","22","Male","","","","","","","null","<div style=""font-size:60px;"">+</div>","null","fixation","","","","","","","","","91","","",""
"revaluation","211","881131","0.0-4.0-2.0-0.46","spark_pilot_norest","8210","5","22","Male","","false","","","","","[440.6999999284744,356.7000000476837]","./assets/img/canyon/memory/11.jpg","[""ArrowUp"",""ArrowLeft""]","value training","canyon","26","{""ArrowUp,ArrowLeft"":26,""ArrowUp,ArrowRight"":10,""ArrowDown,ArrowLeft"":5,""ArrowDown,ArrowRight"":17}","true","ArrowUp,ArrowLeft","false","original","1","92","","",""
"html-keyboard-response","212","881634","0.0-4.0-2.0-1.46","spark_pilot_norest","8210","5","22","Male","","","","","","","null","<div style=""font-size:60px;"">+</div>","null","fixation","","","","","","","","","93","","",""
"revaluation","213","887641","0.0-4.0-2.0-0.47","spark_pilot_norest","8210","5","22","Male","","false","","","","","[613.3999999761581,379]","./assets/img/canyon/memory/18.jpg","[""ArrowUp"",""ArrowLeft""]","value training","canyon","26","{""ArrowUp,ArrowLeft"":26,""ArrowUp,ArrowRight"":10,""ArrowDown,ArrowLeft"":5,""ArrowDown,ArrowRight"":17}","true","ArrowUp,ArrowLeft","false","original","1","94","","",""
"html-keyboard-response","214","888143","0.0-4.0-2.0-1.47","spark_pilot_norest","8210","5","22","Male","","","","","","","null","<div style=""font-size:60px;"">+</div>","null","fixation","","","","","","","","","95","","",""
"revaluation","215","892147","0.0-4.0-2.0-0.48","spark_pilot_norest","8210","5","22","Male","","false","","","","","[613.7000000476837]","./assets/img/canyon/catch/6.jpg","[""spaceBar""]","value training","canyon","0","{""ArrowUp,ArrowLeft"":26,""ArrowUp,ArrowRight"":10,""ArrowDown,ArrowLeft"":5,""ArrowDown,ArrowRight"":17}","true","spaceBar","true","original","1","96","","",""
"html-keyboard-response","216","892650","0.0-4.0-2.0-1.48","spark_pilot_norest","8210","5","22","Male","","","","","","","null","<div style=""font-size:60px;"">+</div>","null","fixation","","","","","","","","","97","","",""
"revaluation","217","898654","0.0-4.0-2.0-0.49","spark_pilot_norest","8210","5","22","Male","","false","","","","","[456.7999999523163,248.39999997615814]","./assets/img/canyon/memory/18.jpg","[""ArrowUp"",""ArrowLeft""]","value training","canyon","26","{""ArrowUp,ArrowLeft"":26,""ArrowUp,ArrowRight"":10,""ArrowDown,ArrowLeft"":5,""ArrowDown,ArrowRight"":17}","true","ArrowUp,ArrowLeft","false","original","1","98","","",""
"html-keyboard-response","218","899157","0.0-4.0-2.0-1.49","spark_pilot_norest","8210","5","22","Male","","","","","","","null","<div style=""font-size:60px;"">+</div>","null","fixation","","","","","","","","","99","","",""
"learning-instructions","219","915900","0.0-4.0-3.0-0.0","spark_pilot_norest","8210","5","22","Male","","","","","","","3494.1999999284744","<p> Now, you will travel with a friend who will choose whether you go up or down first. </p>
            <p> On these turns, you will just see the animal that they found. You will still get to choose which chest to search for treasure.</p>","","instructions","","","","","","","","","","","",""
"revaluation","220","919918","0.0-4.0-4.0-0.0","spark_pilot_norest","8210","5","22","Male","","false","","","","","[1189]","./assets/img/canyon/animals/lion.jpg","[""ArrowRight""]","revaluation","canyon","17","{""ArrowUp,ArrowLeft"":26,""ArrowUp,ArrowRight"":10,""ArrowDown,ArrowLeft"":5,""ArrowDown,ArrowRight"":17}","true","ArrowDown,ArrowRight","","original","1","0","","",""
"html-keyboard-response","221","920431","0.0-4.0-4.0-1.0","spark_pilot_norest","8210","5","22","Male","","","","","","","null","<div style=""font-size:60px;"">+</div>","null","fixation","","","","","","","","","1","","",""
"revaluation","222","924458","0.0-4.0-4.0-0.1","spark_pilot_norest","8210","5","22","Male","","false","","","","","[968.1000000238419]","./assets/img/canyon/animals/giraffe.jpg","[""ArrowLeft""]","revaluation","canyon","26","{""ArrowUp,ArrowLeft"":26,""ArrowUp,ArrowRight"":10,""ArrowDown,ArrowLeft"":5,""ArrowDown,ArrowRight"":17}","true","ArrowUp,ArrowLeft","","original","1","2","","",""
"html-keyboard-response","223","924973","0.0-4.0-4.0-1.1","spark_pilot_norest","8210","5","22","Male","","","","","","","null","<div style=""font-size:60px;"">+</div>","null","fixation","","","","","","","","","3","","",""
"revaluation","224","928992","0.0-4.0-4.0-0.2","spark_pilot_norest","8210","5","22","Male","","false","","","","","[424.89999997615814]","./assets/img/canyon/animals/lion.jpg","[""ArrowLeft""]","revaluation","canyon","5","{""ArrowUp,ArrowLeft"":26,""ArrowUp,ArrowRight"":10,""ArrowDown,ArrowLeft"":5,""ArrowDown,ArrowRight"":17}","false","ArrowDown,ArrowLeft","","original","1","4","","",""
"html-keyboard-response","225","929502","0.0-4.0-4.0-1.2","spark_pilot_norest","8210","5","22","Male","","","","","","","null","<div style=""font-size:60px;"">+</div>","null","fixation","","","","","","","","","5","","",""
"revaluation","226","933519","0.0-4.0-4.0-0.3","spark_pilot_norest","8210","5","22","Male","","false","","","","","[701.8999999761581]","./assets/img/canyon/animals/lion.jpg","[""ArrowRight""]","revaluation","canyon","17","{""ArrowUp,ArrowLeft"":26,""ArrowUp,ArrowRight"":10,""ArrowDown,ArrowLeft"":5,""ArrowDown,ArrowRight"":17}","true","ArrowDown,ArrowRight","","original","1","6","","",""
"html-keyboard-response","227","934032","0.0-4.0-4.0-1.3","spark_pilot_norest","8210","5","22","Male","","","","","","","null","<div style=""font-size:60px;"">+</div>","null","fixation","","","","","","","","","7","","",""
"revaluation","228","938054","0.0-4.0-4.0-0.4","spark_pilot_norest","8210","5","22","Male","","false","","","","","[482.2000000476837]","./assets/img/canyon/animals/lion.jpg","[""ArrowRight""]","revaluation","canyon","17","{""ArrowUp,ArrowLeft"":26,""ArrowUp,ArrowRight"":10,""ArrowDown,ArrowLeft"":5,""ArrowDown,ArrowRight"":17}","true","ArrowDown,ArrowRight","","original","1","8","","",""
"html-keyboard-response","229","938558","0.0-4.0-4.0-1.4","spark_pilot_norest","8210","5","22","Male","","","","","","","null","<div style=""font-size:60px;"">+</div>","null","fixation","","","","","","","","","9","","",""
"revaluation","230","942583","0.0-4.0-4.0-0.5","spark_pilot_norest","8210","5","22","Male","","false","","","","","[535.8999999761581]","./assets/img/canyon/animals/giraffe.jpg","[""ArrowLeft""]","revaluation","canyon","26","{""ArrowUp,ArrowLeft"":26,""ArrowUp,ArrowRight"":10,""ArrowDown,ArrowLeft"":5,""ArrowDown,ArrowRight"":17}","true","ArrowUp,ArrowLeft","","original","1","10","","",""
"html-keyboard-response","231","943085","0.0-4.0-4.0-1.5","spark_pilot_norest","8210","5","22","Male","","","","","","","null","<div style=""font-size:60px;"">+</div>","null","fixation","","","","","","","","","11","","",""
"revaluation","232","947089","0.0-4.0-4.0-0.6","spark_pilot_norest","8210","5","22","Male","","false","","","","","[505.60000002384186]","./assets/img/canyon/animals/giraffe.jpg","[""ArrowLeft""]","revaluation","canyon","26","{""ArrowUp,ArrowLeft"":26,""ArrowUp,ArrowRight"":10,""ArrowDown,ArrowLeft"":5,""ArrowDown,ArrowRight"":17}","true","ArrowUp,ArrowLeft","","original","1","12","","",""
"html-keyboard-response","233","947590","0.0-4.0-4.0-1.6","spark_pilot_norest","8210","5","22","Male","","","","","","","null","<div style=""font-size:60px;"">+</div>","null","fixation","","","","","","","","","13","","",""
"revaluation","234","951595","0.0-4.0-4.0-0.7","spark_pilot_norest","8210","5","22","Male","","false","","","","","[705]","./assets/img/canyon/animals/lion.jpg","[""ArrowRight""]","revaluation","canyon","17","{""ArrowUp,ArrowLeft"":26,""ArrowUp,ArrowRight"":10,""ArrowDown,ArrowLeft"":5,""ArrowDown,ArrowRight"":17}","true","ArrowDown,ArrowRight","","original","1","14","","",""
"html-keyboard-response","235","952097","0.0-4.0-4.0-1.7","spark_pilot_norest","8210","5","22","Male","","","","","","","null","<div style=""font-size:60px;"">+</div>","null","fixation","","","","","","","","","15","","",""
"revaluation","236","956112","0.0-4.0-4.0-0.8","spark_pilot_norest","8210","5","22","Male","","false","","","","","[577.1000000238419]","./assets/img/canyon/animals/giraffe.jpg","[""ArrowLeft""]","revaluation","canyon","26","{""ArrowUp,ArrowLeft"":26,""ArrowUp,ArrowRight"":10,""ArrowDown,ArrowLeft"":5,""ArrowDown,ArrowRight"":17}","true","ArrowUp,ArrowLeft","","original","1","16","","",""
"html-keyboard-response","237","956614","0.0-4.0-4.0-1.8","spark_pilot_norest","8210","5","22","Male","","","","","","","null","<div style=""font-size:60px;"">+</div>","null","fixation","","","","","","","","","17","","",""
"revaluation","238","960619","0.0-4.0-4.0-0.9","spark_pilot_norest","8210","5","22","Male","","false","","","","","[518.1999999284744]","./assets/img/canyon/animals/giraffe.jpg","[""ArrowLeft""]","revaluation","canyon","26","{""ArrowUp,ArrowLeft"":26,""ArrowUp,ArrowRight"":10,""ArrowDown,ArrowLeft"":5,""ArrowDown,ArrowRight"":17}","true","ArrowUp,ArrowLeft","","original","1","18","","",""
"html-keyboard-response","239","961121","0.0-4.0-4.0-1.9","spark_pilot_norest","8210","5","22","Male","","","","","","","null","<div style=""font-size:60px;"">+</div>","null","fixation","","","","","","","","","19","","",""
"revaluation","240","965128","0.0-4.0-4.0-0.10","spark_pilot_norest","8210","5","22","Male","","false","","","","","[420.2000000476837]","./assets/img/canyon/animals/giraffe.jpg","[""ArrowLeft""]","revaluation","canyon","26","{""ArrowUp,ArrowLeft"":26,""ArrowUp,ArrowRight"":10,""ArrowDown,ArrowLeft"":5,""ArrowDown,ArrowRight"":17}","true","ArrowUp,ArrowLeft","","original","1","20","","",""
"html-keyboard-response","241","965629","0.0-4.0-4.0-1.10","spark_pilot_norest","8210","5","22","Male","","","","","","","null","<div style=""font-size:60px;"">+</div>","null","fixation","","","","","","","","","21","","",""
"revaluation","242","969634","0.0-4.0-4.0-0.11","spark_pilot_norest","8210","5","22","Male","","false","","","","","[572.7000000476837]","./assets/img/canyon/animals/lion.jpg","[""ArrowRight""]","revaluation","canyon","17","{""ArrowUp,ArrowLeft"":26,""ArrowUp,ArrowRight"":10,""ArrowDown,ArrowLeft"":5,""ArrowDown,ArrowRight"":17}","true","ArrowDown,ArrowRight","","original","1","22","","",""
"html-keyboard-response","243","970138","0.0-4.0-4.0-1.11","spark_pilot_norest","8210","5","22","Male","","","","","","","null","<div style=""font-size:60px;"">+</div>","null","fixation","","","","","","","","","23","","",""
"revaluation","244","974169","0.0-4.0-4.0-0.12","spark_pilot_norest","8210","5","22","Male","","false","","","","","[404.5]","./assets/img/canyon/animals/lion.jpg","[""ArrowRight""]","revaluation","canyon","17","{""ArrowUp,ArrowLeft"":26,""ArrowUp,ArrowRight"":10,""ArrowDown,ArrowLeft"":5,""ArrowDown,ArrowRight"":17}","true","ArrowDown,ArrowRight","","original","1","24","","",""
"html-keyboard-response","245","974672","0.0-4.0-4.0-1.12","spark_pilot_norest","8210","5","22","Male","","","","","","","null","<div style=""font-size:60px;"">+</div>","null","fixation","","","","","","","","","25","","",""
"revaluation","246","978677","0.0-4.0-4.0-0.13","spark_pilot_norest","8210","5","22","Male","","false","","","","","[610.3000000715256]","./assets/img/canyon/animals/giraffe.jpg","[""ArrowLeft""]","revaluation","canyon","26","{""ArrowUp,ArrowLeft"":26,""ArrowUp,ArrowRight"":10,""ArrowDown,ArrowLeft"":5,""ArrowDown,ArrowRight"":17}","true","ArrowUp,ArrowLeft","","original","1","26","","",""
"html-keyboard-response","247","979178","0.0-4.0-4.0-1.13","spark_pilot_norest","8210","5","22","Male","","","","","","","null","<div style=""font-size:60px;"">+</div>","null","fixation","","","","","","","","","27","","",""
"revaluation","248","983188","0.0-4.0-4.0-0.14","spark_pilot_norest","8210","5","22","Male","","false","","","","","[438]","./assets/img/canyon/animals/lion.jpg","[""ArrowRight""]","revaluation","canyon","17","{""ArrowUp,ArrowLeft"":26,""ArrowUp,ArrowRight"":10,""ArrowDown,ArrowLeft"":5,""ArrowDown,ArrowRight"":17}","true","ArrowDown,ArrowRight","","original","1","28","","",""
"html-keyboard-response","249","983691","0.0-4.0-4.0-1.14","spark_pilot_norest","8210","5","22","Male","","","","","","","null","<div style=""font-size:60px;"">+</div>","null","fixation","","","","","","","","","29","","",""
"revaluation","250","987703","0.0-4.0-4.0-0.15","spark_pilot_norest","8210","5","22","Male","","false","","","","","[643.2999999523163]","./assets/img/canyon/animals/giraffe.jpg","[""ArrowLeft""]","revaluation","canyon","26","{""ArrowUp,ArrowLeft"":26,""ArrowUp,ArrowRight"":10,""ArrowDown,ArrowLeft"":5,""ArrowDown,ArrowRight"":17}","true","ArrowUp,ArrowLeft","","original","1","30","","",""
"html-keyboard-response","251","988205","0.0-4.0-4.0-1.15","spark_pilot_norest","8210","5","22","Male","","","","","","","null","<div style=""font-size:60px;"">+</div>","null","fixation","","","","","","","","","31","","",""
"revaluation","252","992221","0.0-4.0-4.0-0.16","spark_pilot_norest","8210","5","22","Male","","false","","","","","[712.2000000476837]","./assets/img/canyon/animals/giraffe.jpg","[""ArrowLeft""]","revaluation","canyon","26","{""ArrowUp,ArrowLeft"":26,""ArrowUp,ArrowRight"":10,""ArrowDown,ArrowLeft"":5,""ArrowDown,ArrowRight"":17}","true","ArrowUp,ArrowLeft","","original","1","32","","",""
"html-keyboard-response","253","992723","0.0-4.0-4.0-1.16","spark_pilot_norest","8210","5","22","Male","","","","","","","null","<div style=""font-size:60px;"">+</div>","null","fixation","","","","","","","","","33","","",""
"revaluation","254","996729","0.0-4.0-4.0-0.17","spark_pilot_norest","8210","5","22","Male","","false","","","","","[524.1999999284744]","./assets/img/canyon/animals/lion.jpg","[""ArrowRight""]","revaluation","canyon","17","{""ArrowUp,ArrowLeft"":26,""ArrowUp,ArrowRight"":10,""ArrowDown,ArrowLeft"":5,""ArrowDown,ArrowRight"":17}","true","ArrowDown,ArrowRight","","original","1","34","","",""
"html-keyboard-response","255","997231","0.0-4.0-4.0-1.17","spark_pilot_norest","8210","5","22","Male","","","","","","","null","<div style=""font-size:60px;"">+</div>","null","fixation","","","","","","","","","35","","",""
"learning-instructions","256","1005708","0.0-4.0-5.0-0.0","spark_pilot_norest","8210","5","22","Male","","","","","","","null","<p> You have almost finished this part of the game! </p>
            <p> We are going to ask you to make a few more choices. </p>","","instructions","","","","","","","","","","","",""
"learning-instructions","257","1021679","0.0-4.0-5.0-0.1","spark_pilot_norest","8210","5","22","Male","","","","","","","null","<p> First, you need to decide whether to go up or down. When you see each picture, use the arrow keys to make your choice. </p>
            <p><b>You will not see which animal you found, but try to get to the one that will give you the most treasure.</b></p>","","instructions","","","","","","","","","","","",""
"html-keyboard-response","258","1022686","0.0-4.0-6.0-0.0","spark_pilot_norest","8210","5","22","Male","","","","","","","null","<div style=""font-size:100px;color:red;"">Starting in...</div>","null","","","","","","","","","","","","",""
"html-keyboard-response","259","1023695","0.0-4.0-6.0-1.0","spark_pilot_norest","8210","5","22","Male","","","","","","","null","<div style=""font-size:200px;color:red;"">3</div>","null","","","","","","","","","","","","",""
"html-keyboard-response","260","1024705","0.0-4.0-6.0-2.0","spark_pilot_norest","8210","5","22","Male","","","","","","","null","<div style=""font-size:200px;color:red;"">2</div>","null","","","","","","","","","","","","",""
"html-keyboard-response","261","1025712","0.0-4.0-6.0-3.0","spark_pilot_norest","8210","5","22","Male","","","","","","","null","<div style=""font-size:200px;color:red;"">1</div>","null","","","","","","","","","","","","",""
"revaluation","262","1026324","0.0-4.0-7.0-0.0","spark_pilot_norest","8210","5","22","Male","","false","","","","","[607.2999999523163]","./assets/img/canyon/test/3.jpg","[""ArrowUp""]","first stage test","canyon","0","{""ArrowUp,ArrowLeft"":26,""ArrowUp,ArrowRight"":10,""ArrowDown,ArrowLeft"":5,""ArrowDown,ArrowRight"":17}","true","ArrowUp","false","original","1","","","",""
"html-keyboard-response","263","1026828","0.0-4.0-7.0-1.0","spark_pilot_norest","8210","5","22","Male","","","","","","","null","<div style=""font-size:60px;"">+</div>","null","fixation","","","","","","","","","","","",""
"revaluation","264","1027824","0.0-4.0-7.0-0.1","spark_pilot_norest","8210","5","22","Male","","false","","","","","[993.2999999523163]","./assets/img/canyon/test/2.jpg","[""ArrowUp""]","first stage test","canyon","0","{""ArrowUp,ArrowLeft"":26,""ArrowUp,ArrowRight"":10,""ArrowDown,ArrowLeft"":5,""ArrowDown,ArrowRight"":17}","true","ArrowUp","false","original","1","","","",""
"html-keyboard-response","265","1028330","0.0-4.0-7.0-1.1","spark_pilot_norest","8210","5","22","Male","","","","","","","null","<div style=""font-size:60px;"">+</div>","null","fixation","","","","","","","","","","","",""
"revaluation","266","1028922","0.0-4.0-7.0-0.2","spark_pilot_norest","8210","5","22","Male","","false","","","","","[588.3999999761581]","./assets/img/canyon/test/1.jpg","[""ArrowUp""]","first stage test","canyon","0","{""ArrowUp,ArrowLeft"":26,""ArrowUp,ArrowRight"":10,""ArrowDown,ArrowLeft"":5,""ArrowDown,ArrowRight"":17}","true","ArrowUp","false","original","1","","","",""
"html-keyboard-response","267","1029428","0.0-4.0-7.0-1.2","spark_pilot_norest","8210","5","22","Male","","","","","","","null","<div style=""font-size:60px;"">+</div>","null","fixation","","","","","","","","","","","",""
"revaluation","268","1029817","0.0-4.0-7.0-0.3","spark_pilot_norest","8210","5","22","Male","","false","","","","","[385.3000000715256]","./assets/img/canyon/test/0.jpg","[""ArrowUp""]","first stage test","canyon","0","{""ArrowUp,ArrowLeft"":26,""ArrowUp,ArrowRight"":10,""ArrowDown,ArrowLeft"":5,""ArrowDown,ArrowRight"":17}","true","ArrowUp","false","original","1","","","",""
"html-keyboard-response","269","1030321","0.0-4.0-7.0-1.3","spark_pilot_norest","8210","5","22","Male","","","","","","","null","<div style=""font-size:60px;"">+</div>","null","fixation","","","","","","","","","","","",""
"learning-instructions","270","1043675","0.0-4.0-8.0-0.0","spark_pilot_norest","8210","5","22","Male","","","","","","","null","<p> Now you will see the animals again and can search their chests for treasure. </p>
            <p> This time, you will not see how much treasure you earned, but you will earn more bonus money for making better choices. </p>","","instructions","","","","","","","","","","","",""
"html-keyboard-response","271","1044687","0.0-4.0-9.0-0.0","spark_pilot_norest","8210","5","22","Male","","","","","","","null","<div style=""font-size:100px;color:red;"">Starting in...</div>","null","","","","","","","","","","","","",""
"html-keyboard-response","272","1045700","0.0-4.0-9.0-1.0","spark_pilot_norest","8210","5","22","Male","","","","","","","null","<div style=""font-size:200px;color:red;"">3</div>","null","","","","","","","","","","","","",""
"html-keyboard-response","273","1046711","0.0-4.0-9.0-2.0","spark_pilot_norest","8210","5","22","Male","","","","","","","null","<div style=""font-size:200px;color:red;"">2</div>","null","","","","","","","","","","","","",""
"html-keyboard-response","274","1047717","0.0-4.0-9.0-3.0","spark_pilot_norest","8210","5","22","Male","","","","","","","null","<div style=""font-size:200px;color:red;"">1</div>","null","","","","","","","","","","","","",""
"revaluation","275","1048235","0.0-4.0-10.0-0.0","spark_pilot_norest","8210","5","22","Male","","false","","","","","[514.3999999761581]","./assets/img/canyon/animals/giraffe.jpg","[""ArrowLeft""]","second stage test","canyon","0","{""ArrowUp,ArrowLeft"":26,""ArrowUp,ArrowRight"":10,""ArrowDown,ArrowLeft"":5,""ArrowDown,ArrowRight"":17}","true","ArrowUp,ArrowLeft","","original","1","","","",""
"html-keyboard-response","276","1048740","0.0-4.0-10.0-1.0","spark_pilot_norest","8210","5","22","Male","","","","","","","null","<div style=""font-size:60px;"">+</div>","null","fixation","","","","","","","","","","","",""
"revaluation","277","1049220","0.0-4.0-10.0-0.1","spark_pilot_norest","8210","5","22","Male","","false","","","","","[476.5]","./assets/img/canyon/animals/giraffe.jpg","[""ArrowLeft""]","second stage test","canyon","0","{""ArrowUp,ArrowLeft"":26,""ArrowUp,ArrowRight"":10,""ArrowDown,ArrowLeft"":5,""ArrowDown,ArrowRight"":17}","true","ArrowUp,ArrowLeft","","original","1","","","",""
"html-keyboard-response","278","1049722","0.0-4.0-10.0-1.1","spark_pilot_norest","8210","5","22","Male","","","","","","","null","<div style=""font-size:60px;"">+</div>","null","fixation","","","","","","","","","","","",""
"revaluation","279","1050196","0.0-4.0-10.0-0.2","spark_pilot_norest","8210","5","22","Male","","false","","","","","[470.40000009536743]","./assets/img/canyon/animals/giraffe.jpg","[""ArrowLeft""]","second stage test","canyon","0","{""ArrowUp,ArrowLeft"":26,""ArrowUp,ArrowRight"":10,""ArrowDown,ArrowLeft"":5,""ArrowDown,ArrowRight"":17}","true","ArrowUp,ArrowLeft","","original","1","","","",""
"html-keyboard-response","280","1050704","0.0-4.0-10.0-1.2","spark_pilot_norest","8210","5","22","Male","","","","","","","null","<div style=""font-size:60px;"">+</div>","null","fixation","","","","","","","","","","","",""
"revaluation","281","1051152","0.0-4.0-10.0-0.3","spark_pilot_norest","8210","5","22","Male","","false","","","","","[444.2999999523163]","./assets/img/canyon/animals/giraffe.jpg","[""ArrowLeft""]","second stage test","canyon","0","{""ArrowUp,ArrowLeft"":26,""ArrowUp,ArrowRight"":10,""ArrowDown,ArrowLeft"":5,""ArrowDown,ArrowRight"":17}","true","ArrowUp,ArrowLeft","","original","1","","","",""
"html-keyboard-response","282","1051669","0.0-4.0-10.0-1.3","spark_pilot_norest","8210","5","22","Male","","","","","","","null","<div style=""font-size:60px;"">+</div>","null","fixation","","","","","","","","","","","",""
"revaluation","283","1052223","0.0-4.0-10.0-0.4","spark_pilot_norest","8210","5","22","Male","","false","","","","","[549.1000000238419]","./assets/img/canyon/animals/lion.jpg","[""ArrowRight""]","second stage test","canyon","0","{""ArrowUp,ArrowLeft"":26,""ArrowUp,ArrowRight"":10,""ArrowDown,ArrowLeft"":5,""ArrowDown,ArrowRight"":17}","true","ArrowDown,ArrowRight","","original","1","","","",""
"html-keyboard-response","284","1052736","0.0-4.0-10.0-1.4","spark_pilot_norest","8210","5","22","Male","","","","","","","null","<div style=""font-size:60px;"">+</div>","null","fixation","","","","","","","","","","","",""
"revaluation","285","1053144","0.0-4.0-10.0-0.5","spark_pilot_norest","8210","5","22","Male","","false","","","","","[405.39999997615814]","./assets/img/canyon/animals/lion.jpg","[""ArrowRight""]","second stage test","canyon","0","{""ArrowUp,ArrowLeft"":26,""ArrowUp,ArrowRight"":10,""ArrowDown,ArrowLeft"":5,""ArrowDown,ArrowRight"":17}","true","ArrowDown,ArrowRight","","original","1","","","",""
"html-keyboard-response","286","1053654","0.0-4.0-10.0-1.5","spark_pilot_norest","8210","5","22","Male","","","","","","","null","<div style=""font-size:60px;"">+</div>","null","fixation","","","","","","","","","","","",""
"revaluation","287","1054120","0.0-4.0-10.0-0.6","spark_pilot_norest","8210","5","22","Male","","false","","","","","[462.60000002384186]","./assets/img/canyon/animals/lion.jpg","[""ArrowRight""]","second stage test","canyon","0","{""ArrowUp,ArrowLeft"":26,""ArrowUp,ArrowRight"":10,""ArrowDown,ArrowLeft"":5,""ArrowDown,ArrowRight"":17}","true","ArrowDown,ArrowRight","","original","1","","","",""
"html-keyboard-response","288","1054623","0.0-4.0-10.0-1.6","spark_pilot_norest","8210","5","22","Male","","","","","","","null","<div style=""font-size:60px;"">+</div>","null","fixation","","","","","","","","","","","",""
"revaluation","289","1055110","0.0-4.0-10.0-0.7","spark_pilot_norest","8210","5","22","Male","","false","","","","","[483.59999990463257]","./assets/img/canyon/animals/lion.jpg","[""ArrowRight""]","second stage test","canyon","0","{""ArrowUp,ArrowLeft"":26,""ArrowUp,ArrowRight"":10,""ArrowDown,ArrowLeft"":5,""ArrowDown,ArrowRight"":17}","true","ArrowDown,ArrowRight","","original","1","","","",""
"html-keyboard-response","290","1055614","0.0-4.0-10.0-1.7","spark_pilot_norest","8210","5","22","Male","","","","","","","null","<div style=""font-size:60px;"">+</div>","null","fixation","","","","","","","","","","","",""
"learning-instructions","291","1059366","0.0-4.0-0.1-0.2","spark_pilot_norest","8210","5","22","Male","","","","","","","1032.5","<p> This time you are searching for treasure in the <b>ocean</b>.</p>","","instructions","","","","","","","","","","","",""
"learning-instructions","292","1077442","0.0-4.0-0.1-0.3","spark_pilot_norest","8210","5","22","Male","","","","","","","828.8999999761581","<p><b>New</b> animals with <b>new</b> treasure chests live here. You need to explore to discover where the animal with the best treasure chest is.</p>
                    <p> Like before, once you figure out which animal has the chest with the most treasure, you should try to get to that animal and select that chest! </p>","","instructions","","","","","","","","","","","",""
"learning-instructions","293","1094380","0.0-4.0-1.1-0.1","spark_pilot_norest","8210","5","22","Male","","","","","","","2206.8000000715256","<p> Remember, when you see a picture of the place, use the up and down keys to <b>find an animal</b>.</p>
            <p> When you encounter an animal, you should use the left and right keys to <b>select a treasure chest</b>.</p>
            <p> Don't forget to look out for the robber! </p>","","instructions","","","","","","","","","","","",""
"revaluation","294","1100406","0.0-4.0-2.1-0.50","spark_pilot_norest","8210","5","22","Male","","false","","","","","[1679.2000000476837,1060.6000000238419]","./assets/img/ocean/memory/3.jpg","[""ArrowUp"",""ArrowRight""]","value training","ocean","10","{""ArrowUp,ArrowLeft"":23,""ArrowUp,ArrowRight"":10,""ArrowDown,ArrowLeft"":8,""ArrowDown,ArrowRight"":30}","false","ArrowUp,ArrowRight","false","revaluation","2","0","","",""
"html-keyboard-response","295","1100916","0.0-4.0-2.1-1.50","spark_pilot_norest","8210","5","22","Male","","","","","","","null","<div style=""font-size:60px;"">+</div>","null","fixation","","","","","","","","","1","","",""
"revaluation","296","1106936","0.0-4.0-2.1-0.51","spark_pilot_norest","8210","5","22","Male","","false","","","","","[423.5,279.7000000476837]","./assets/img/ocean/memory/11.jpg","[""ArrowUp"",""ArrowLeft""]","value training","ocean","23","{""ArrowUp,ArrowLeft"":23,""ArrowUp,ArrowRight"":10,""ArrowDown,ArrowLeft"":8,""ArrowDown,ArrowRight"":30}","false","ArrowUp,ArrowLeft","false","revaluation","2","2","","",""
"html-keyboard-response","297","1107438","0.0-4.0-2.1-1.51","spark_pilot_norest","8210","5","22","Male","","","","","","","null","<div style=""font-size:60px;"">+</div>","null","fixation","","","","","","","","","3","","",""
"revaluation","298","1113467","0.0-4.0-2.1-0.52","spark_pilot_norest","8210","5","22","Male","","false","","","","","[744.1000000238419,353.7999999523163]","./assets/img/ocean/memory/14.jpg","[""ArrowDown"",""ArrowRight""]","value training","ocean","30","{""ArrowUp,ArrowLeft"":23,""ArrowUp,ArrowRight"":10,""ArrowDown,ArrowLeft"":8,""ArrowDown,ArrowRight"":30}","true","ArrowDown,ArrowRight","false","revaluation","2","4","","",""
"html-keyboard-response","299","1113970","0.0-4.0-2.1-1.52","spark_pilot_norest","8210","5","22","Male","","","","","","","null","<div style=""font-size:60px;"">+</div>","null","fixation","","","","","","","","","5","","",""
"revaluation","300","1120000","0.0-4.0-2.1-0.53","spark_pilot_norest","8210","5","22","Male","","false","","","","","[563.2999999523163,331.60000002384186]","./assets/img/ocean/memory/14.jpg","[""ArrowDown"",""ArrowLeft""]","value training","ocean","8","{""ArrowUp,ArrowLeft"":23,""ArrowUp,ArrowRight"":10,""ArrowDown,ArrowLeft"":8,""ArrowDown,ArrowRight"":30}","false","ArrowDown,ArrowLeft","false","revaluation","2","6","","",""
"html-keyboard-response","301","1120503","0.0-4.0-2.1-1.53","spark_pilot_norest","8210","5","22","Male","","","","","","","null","<div style=""font-size:60px;"">+</div>","null","fixation","","","","","","","","","7","","",""
"revaluation","302","1126509","0.0-4.0-2.1-0.54","spark_pilot_norest","8210","5","22","Male","","false","","","","","[468.10000002384186,269.09999990463257]","./assets/img/ocean/memory/8.jpg","[""ArrowDown"",""ArrowRight""]","value training","ocean","30","{""ArrowUp,ArrowLeft"":23,""ArrowUp,ArrowRight"":10,""ArrowDown,ArrowLeft"":8,""ArrowDown,ArrowRight"":30}","true","ArrowDown,ArrowRight","false","revaluation","2","8","","",""
"html-keyboard-response","303","1127011","0.0-4.0-2.1-1.54","spark_pilot_norest","8210","5","22","Male","","","","","","","null","<div style=""font-size:60px;"">+</div>","null","fixation","","","","","","","","","9","","",""
"revaluation","304","1133018","0.0-4.0-2.1-0.55","spark_pilot_norest","8210","5","22","Male","","false","","","","","[405.89999997615814,267.8000000715256]","./assets/img/ocean/memory/9.jpg","[""ArrowDown"",""ArrowRight""]","value training","ocean","30","{""ArrowUp,ArrowLeft"":23,""ArrowUp,ArrowRight"":10,""ArrowDown,ArrowLeft"":8,""ArrowDown,ArrowRight"":30}","true","ArrowDown,ArrowRight","false","revaluation","2","10","","",""
"html-keyboard-response","305","1133519","0.0-4.0-2.1-1.55","spark_pilot_norest","8210","5","22","Male","","","","","","","null","<div style=""font-size:60px;"">+</div>","null","fixation","","","","","","","","","11","","",""
"revaluation","306","1139529","0.0-4.0-2.1-0.56","spark_pilot_norest","8210","5","22","Male","","false","","","","","[472.39999997615814,404.5]","./assets/img/ocean/memory/7.jpg","[""ArrowDown"",""ArrowRight""]","value training","ocean","30","{""ArrowUp,ArrowLeft"":23,""ArrowUp,ArrowRight"":10,""ArrowDown,ArrowLeft"":8,""ArrowDown,ArrowRight"":30}","true","ArrowDown,ArrowRight","false","revaluation","2","12","","",""
"html-keyboard-response","307","1140030","0.0-4.0-2.1-1.56","spark_pilot_norest","8210","5","22","Male","","","","","","","null","<div style=""font-size:60px;"">+</div>","null","fixation","","","","","","","","","13","","",""
"revaluation","308","1146036","0.0-4.0-2.1-0.57","spark_pilot_norest","8210","5","22","Male","","false","","","","","[461.10000002384186,372.2999999523163]","./assets/img/ocean/memory/22.jpg","[""ArrowDown"",""ArrowRight""]","value training","ocean","30","{""ArrowUp,ArrowLeft"":23,""ArrowUp,ArrowRight"":10,""ArrowDown,ArrowLeft"":8,""ArrowDown,ArrowRight"":30}","true","ArrowDown,ArrowRight","false","revaluation","2","14","","",""
"html-keyboard-response","309","1146537","0.0-4.0-2.1-1.57","spark_pilot_norest","8210","5","22","Male","","","","","","","null","<div style=""font-size:60px;"">+</div>","null","fixation","","","","","","","","","15","","",""
"revaluation","310","1152544","0.0-4.0-2.1-0.58","spark_pilot_norest","8210","5","22","Male","","false","","","","","[452.09999990463257,268.60000002384186]","./assets/img/ocean/memory/28.jpg","[""ArrowDown"",""ArrowRight""]","value training","ocean","30","{""ArrowUp,ArrowLeft"":23,""ArrowUp,ArrowRight"":10,""ArrowDown,ArrowLeft"":8,""ArrowDown,ArrowRight"":30}","true","ArrowDown,ArrowRight","false","revaluation","2","16","","",""
"html-keyboard-response","311","1153046","0.0-4.0-2.1-1.58","spark_pilot_norest","8210","5","22","Male","","","","","","","null","<div style=""font-size:60px;"">+</div>","null","fixation","","","","","","","","","17","","",""
"revaluation","312","1159051","0.0-4.0-2.1-0.59","spark_pilot_norest","8210","5","22","Male","","false","","","","","[439.10000002384186,80.70000004768372]","./assets/img/ocean/memory/33.jpg","[""ArrowDown"",""ArrowRight""]","value training","ocean","30","{""ArrowUp,ArrowLeft"":23,""ArrowUp,ArrowRight"":10,""ArrowDown,ArrowLeft"":8,""ArrowDown,ArrowRight"":30}","true","ArrowDown,ArrowRight","false","revaluation","2","18","","",""
"html-keyboard-response","313","1159553","0.0-4.0-2.1-1.59","spark_pilot_norest","8210","5","22","Male","","","","","","","null","<div style=""font-size:60px;"">+</div>","null","fixation","","","","","","","","","19","","",""
