"trial_type","trial_index","time_elapsed","internal_node_id","task_version","subject_id","assigned_condition","age","gender","success","timeout","failed_images","failed_audio","failed_video","browser_interaction","rt","stimulus","response","task_part","environment","score","rewardMap","correct","fullState","isCatch","condition","order","trial_num","key_press","ground_truth","bonus"
"pavlovia","0","1352","0.0-0.0","spark_pilot_norest","12454","1","16","Male","","","","","","","","","","","","","","","","","","","","","",""
"preload","1","87072","0.0-1.0","spark_pilot_norest","12454","1","16","Male","true","false","[]","[]","[]","[{""event"":""fullscreenenter"",""trial"":2,""time"":90806}]","","","","","","","","","","","","","","","",""
"fullscreen","2","91800","0.0-2.0","spark_pilot_norest","12454","1","16","Male","true","","","","","","","","","","","","","","","","","","","","",""
"audio-button-response","3","93162","0.0-3.0-0.0-0.0","spark_pilot_norest","12454","1","16","Male","","","","","","","1091","./assets/audio/audiotest/turtle.mp3","2","audio_test","","","","","","","","","","","",""
"learning-instructions","4","102179","0.0-3.0-1.0-0.0","spark_pilot_norest","12454","1","16","Male","","","","","","","2021.5999999046326","<p> Welcome! Please remember to stay in fullscreen mode and don't click away from the experiment. </p>","","instructions","","","","","","","","","","","",""
"learning-instructions","5","112408","0.0-3.0-1.0-0.1","spark_pilot_norest","12454","1","16","Male","","","","","","","1814","<p> Today you will be playing a game to earn treasure. </p>
            <p> At the end of the experiment, you will earn a bonus based on how much treasure you find. </p>
            <img src='./assets/img/instructions/treasure.jpg' class='instructions-image'>","","instructions","","","","","","","","","","","",""
"learning-instructions","6","121305","0.0-3.0-1.0-0.2","spark_pilot_norest","12454","1","16","Male","","","","","","","641.5","<p> Animals have hidden treasure in treasure chests. </p>
            <p> You need to first find an animal and then choose which of their treasure chests to search. </p>
            <img src='./assets/img/space/animals/cat.jpg' class='instructions-image'>","","instructions","","","","","","","","","","","",""
"learning-instructions","7","135501","0.0-3.0-1.0-0.3","spark_pilot_norest","12454","1","16","Male","","","","","","","1056.7000000476837","<p> In each round, you will search for treasure in a different place. In the real game, there will be two rounds. </p>
            <p> You will begin with a separate, practice round where you will search for treasure in outer space. </p>
            <img src='./assets/img/space/0.jpg' class='instructions-image'>","","instructions","","","","","","","","","","","",""
"learning-instructions","8","147705","0.0-3.0-1.0-0.4","spark_pilot_norest","12454","1","16","Male","","","","","","","789.9000000953674","<p> On every turn, you will see a picture of the place that you are in, but the specific image may be different each time. </p>
            <p> For example, both of these images mean you are in outer space. </p>
            <img src='./assets/img/instructions/outerspace.jpg' class='instructions-image'>","","instructions","","","","","","","","","","","",""
"learning-instructions","9","156535","0.0-3.0-1.0-0.5","spark_pilot_norest","12454","1","16","Male","","","","","","","999","<p> You need to decide which direction to travel in. </p>
            <p> You can choose between going <b>up or down</b> by using the arrow keys. </p>
            <img src='./assets/img/instructions/updown.jpg' class='instructions-image'>","","instructions","","","","","","","","","","","",""
"learning-instructions","10","166073","0.0-3.0-1.0-0.6","spark_pilot_norest","12454","1","16","Male","","","","","","","727.5999999046326","<p> You will have <b>2 seconds</b> to make your choice. </p>
            <p> If you do not make a choice within 2 seconds, you will not find an animal or earn treasure. </p>
            <img src='./assets/img/instructions/2seconds.jpg' class='instructions-image'>","","instructions","","","","","","","","","","","",""
"learning-instructions","11","173598","0.0-3.0-1.0-0.7","spark_pilot_norest","12454","1","16","Male","","","","","","","492.2999999523163","<p> Let’s try practicing that now! </p>
            <p> When you see a picture of the place you are in, press the <b>up</b> key to travel up. </p>
            <img src='./assets/img/instructions/pressUp.jpg' class='instructions-image'>","","instructions","","","","","","","","","","","",""
"revaluation","12","177625","0.0-3.0-2.0-0.0","spark_pilot_norest","12454","1","16","Male","","false","","","","","[913.7000000476837]","./assets/img/space/0.jpg","[""ArrowUp""]","first stage practice","space","0","null","null","ArrowUp","false","","","","","",""
"html-keyboard-response","13","178127","0.0-3.0-2.0-1.0","spark_pilot_norest","12454","1","16","Male","","","","","","","null","<div style=""font-size:60px;"">+</div>","null","fixation","","","","","","","","","","","",""
"revaluation","14","182152","0.0-3.0-2.0-0.1","spark_pilot_norest","12454","1","16","Male","","false","","","","","[1469.7999999523163]","./assets/img/space/1.jpg","[""ArrowUp""]","first stage practice","space","0","null","null","ArrowUp","false","","","","","",""
"html-keyboard-response","15","182669","0.0-3.0-2.0-1.1","spark_pilot_norest","12454","1","16","Male","","","","","","","null","<div style=""font-size:60px;"">+</div>","null","fixation","","","","","","","","","","","",""
"revaluation","16","186684","0.0-3.0-2.0-0.2","spark_pilot_norest","12454","1","16","Male","","false","","","","","[997.8000001907349]","./assets/img/space/2.jpg","[""ArrowUp""]","first stage practice","space","0","null","null","ArrowUp","false","","","","","",""
"html-keyboard-response","17","187200","0.0-3.0-2.0-1.2","spark_pilot_norest","12454","1","16","Male","","","","","","","null","<div style=""font-size:60px;"">+</div>","null","fixation","","","","","","","","","","","",""
"learning-instructions","18","192956","0.0-3.0-3.0-0.0","spark_pilot_norest","12454","1","16","Male","","","","","","","1050.5999999046326","<p> Great job! Now try pressing the <b>down</b> key to travel down. </p>
            <img src='./assets/img/instructions/pressDown.jpg' class='instructions-image'>","","instructions","","","","","","","","","","","",""
"revaluation","19","196974","0.0-3.0-4.0-0.0","spark_pilot_norest","12454","1","16","Male","","false","","","","","[672]","./assets/img/space/3.jpg","[""ArrowDown""]","first stage practice","space","0","null","null","ArrowDown","false","","","","","",""
"html-keyboard-response","20","197477","0.0-3.0-4.0-1.0","spark_pilot_norest","12454","1","16","Male","","","","","","","null","<div style=""font-size:60px;"">+</div>","null","fixation","","","","","","","","","","","",""
"revaluation","21","201499","0.0-3.0-4.0-0.1","spark_pilot_norest","12454","1","16","Male","","false","","","","","[760.3999998569489]","./assets/img/space/4.jpg","[""ArrowDown""]","first stage practice","space","0","null","null","ArrowDown","false","","","","","",""
"html-keyboard-response","22","202013","0.0-3.0-4.0-1.1","spark_pilot_norest","12454","1","16","Male","","","","","","","null","<div style=""font-size:60px;"">+</div>","null","fixation","","","","","","","","","","","",""
"revaluation","23","206031","0.0-3.0-4.0-0.2","spark_pilot_norest","12454","1","16","Male","","false","","","","","[444.7999999523163]","./assets/img/space/5.jpg","[""ArrowDown""]","first stage practice","space","0","null","null","ArrowDown","false","","","","","",""
"html-keyboard-response","24","206533","0.0-3.0-4.0-1.2","spark_pilot_norest","12454","1","16","Male","","","","","","","null","<div style=""font-size:60px;"">+</div>","null","fixation","","","","","","","","","","","",""
"learning-instructions","25","218712","0.0-3.0-5.0-0.0","spark_pilot_norest","12454","1","16","Male","","","","","","","2326.7999999523163","<p> The animals don’t move, so the animal in the upper part of a place will stay in the upper part of a place, and the animal in the lower part of a place will stay in the lower part of a place. </p>","","instructions","","","","","","","","","","","",""
"learning-instructions","26","230315","0.0-3.0-5.0-0.1","spark_pilot_norest","12454","1","16","Male","","","","","","","2479.2999999523163","<p> Each animal has two treasure chests for you to choose from. </p>
            <p> The amount of treasure in each chest can range from <b> 0 to 40 pieces.</b></p>","","instructions","","","","","","","","","","","",""
"learning-instructions","27","243184","0.0-3.0-5.0-0.2","spark_pilot_norest","12454","1","16","Male","","","","","","","1697.3999998569489","<p> You should decide which chest to search for treasure by using the <b>left</b> and <b>right</b> arrow keys. </p>
            <p><b> Pay attention to which animal is on the screen, as the animals have different treasure chests. </b></p>
            <img src='./assets/img/instructions/leftright.jpg' class='instructions-image'>","","instructions","","","","","","","","","","","",""
"learning-instructions","28","252035","0.0-3.0-5.0-0.3","spark_pilot_norest","12454","1","16","Male","","","","","","","2488","<p> Let’s try practicing that now. </p>
            <p> When you see an animal, choose which chest to search for treasure. </p>
            <img src='./assets/img/instructions/chooseChest.jpg' class='instructions-image'>","","instructions","","","","","","","","","","","",""
"revaluation","29","256068","0.0-3.0-6.0-0.0","spark_pilot_norest","12454","1","16","Male","","false","","","","","[803.7000000476837]","./assets/img/space/animals/rabbit.jpg","[""ArrowLeft""]","second stage practice","space","15","{""ArrowUp,ArrowLeft"":3,""ArrowUp,ArrowRight"":36,""ArrowDown,ArrowLeft"":15,""ArrowDown,ArrowRight"":23}","false","ArrowDown,ArrowLeft","","","","","","",""
"html-keyboard-response","30","256584","0.0-3.0-6.0-1.0","spark_pilot_norest","12454","1","16","Male","","","","","","","null","<div style=""font-size:60px;"">+</div>","null","fixation","","","","","","","","","","","",""
"revaluation","31","260606","0.0-3.0-6.0-0.1","spark_pilot_norest","12454","1","16","Male","","false","","","","","[1053.5999999046326]","./assets/img/space/animals/cat.jpg","[""ArrowRight""]","second stage practice","space","36","{""ArrowUp,ArrowLeft"":3,""ArrowUp,ArrowRight"":36,""ArrowDown,ArrowLeft"":15,""ArrowDown,ArrowRight"":23}","true","ArrowUp,ArrowRight","","","","","","",""
"html-keyboard-response","32","261122","0.0-3.0-6.0-1.1","spark_pilot_norest","12454","1","16","Male","","","","","","","null","<div style=""font-size:60px;"">+</div>","null","fixation","","","","","","","","","","","",""
"revaluation","33","265140","0.0-3.0-6.0-0.2","spark_pilot_norest","12454","1","16","Male","","false","","","","","[1005.8999998569489]","./assets/img/space/animals/cat.jpg","[""ArrowLeft""]","second stage practice","space","3","{""ArrowUp,ArrowLeft"":3,""ArrowUp,ArrowRight"":36,""ArrowDown,ArrowLeft"":15,""ArrowDown,ArrowRight"":23}","false","ArrowUp,ArrowLeft","","","","","","",""
"html-keyboard-response","34","265643","0.0-3.0-6.0-1.2","spark_pilot_norest","12454","1","16","Male","","","","","","","null","<div style=""font-size:60px;"">+</div>","null","fixation","","","","","","","","","","","",""
"revaluation","35","269650","0.0-3.0-6.0-0.3","spark_pilot_norest","12454","1","16","Male","","false","","","","","[1045.1999998092651]","./assets/img/space/animals/rabbit.jpg","[""ArrowRight""]","second stage practice","space","23","{""ArrowUp,ArrowLeft"":3,""ArrowUp,ArrowRight"":36,""ArrowDown,ArrowLeft"":15,""ArrowDown,ArrowRight"":23}","true","ArrowDown,ArrowRight","","","","","","",""
"html-keyboard-response","36","270162","0.0-3.0-6.0-1.3","spark_pilot_norest","12454","1","16","Male","","","","","","","null","<div style=""font-size:60px;"">+</div>","null","fixation","","","","","","","","","","","",""
"learning-instructions","37","288559","0.0-3.0-7.0-0.0","spark_pilot_norest","12454","1","16","Male","","","","","","","1592.2999999523163","<p> Great job. Now let’s try putting it together. </p>
            <p> On each turn, you will first see a picture to remind you of the place you are in, and you need to choose whether to go up or down. </p>
            <p> Then you will see an animal and choose which of its chests to search for treasure. </p>","","instructions","","","","","","","","","","","",""
"learning-instructions","38","297388","0.0-3.0-7.0-0.1","spark_pilot_norest","12454","1","16","Male","","","","","","","581.7999999523163","<p> When you choose whether to go up or down, try to go to the animal with the chest with the most treasure. </p>
            <p> Try practicing that now! </p>","","instructions","","","","","","","","","","","",""
"revaluation","39","303423","0.0-3.0-8.0-0.0","spark_pilot_norest","12454","1","16","Male","","false","","","","","[861.9000000953674,417.10000014305115]","./assets/img/space/6.jpg","[""ArrowUp"",""ArrowLeft""]","full practice","space","3","{""ArrowUp,ArrowLeft"":3,""ArrowUp,ArrowRight"":36,""ArrowDown,ArrowLeft"":15,""ArrowDown,ArrowRight"":23}","false","ArrowUp,ArrowLeft","false","","","","","",""
"html-keyboard-response","40","303937","0.0-3.0-8.0-1.0","spark_pilot_norest","12454","1","16","Male","","","","","","","null","<div style=""font-size:60px;"">+</div>","null","fixation","","","","","","","","","","","",""
"revaluation","41","309985","0.0-3.0-8.0-0.1","spark_pilot_norest","12454","1","16","Male","","false","","","","","[771.1999998092651,388]","./assets/img/space/7.jpg","[""ArrowUp"",""ArrowRight""]","full practice","space","36","{""ArrowUp,ArrowLeft"":3,""ArrowUp,ArrowRight"":36,""ArrowDown,ArrowLeft"":15,""ArrowDown,ArrowRight"":23}","true","ArrowUp,ArrowRight","false","","","","","",""
"html-keyboard-response","42","310488","0.0-3.0-8.0-1.1","spark_pilot_norest","12454","1","16","Male","","","","","","","null","<div style=""font-size:60px;"">+</div>","null","fixation","","","","","","","","","","","",""
"revaluation","43","316527","0.0-3.0-8.0-0.2","spark_pilot_norest","12454","1","16","Male","","false","","","","","[320.5,427.2999999523163]","./assets/img/space/8.jpg","[""ArrowDown"",""ArrowRight""]","full practice","space","23","{""ArrowUp,ArrowLeft"":3,""ArrowUp,ArrowRight"":36,""ArrowDown,ArrowLeft"":15,""ArrowDown,ArrowRight"":23}","false","ArrowDown,ArrowRight","false","","","","","",""
"html-keyboard-response","44","317042","0.0-3.0-8.0-1.2","spark_pilot_norest","12454","1","16","Male","","","","","","","null","<div style=""font-size:60px;"">+</div>","null","fixation","","","","","","","","","","","",""
"revaluation","45","323065","0.0-3.0-8.0-0.3","spark_pilot_norest","12454","1","16","Male","","false","","","","","[626.2000000476837,281.2000000476837]","./assets/img/space/9.jpg","[""ArrowDown"",""ArrowLeft""]","full practice","space","15","{""ArrowUp,ArrowLeft"":3,""ArrowUp,ArrowRight"":36,""ArrowDown,ArrowLeft"":15,""ArrowDown,ArrowRight"":23}","false","ArrowDown,ArrowLeft","false","","","","","",""
"html-keyboard-response","46","323566","0.0-3.0-8.0-1.3","spark_pilot_norest","12454","1","16","Male","","","","","","","null","<div style=""font-size:60px;"">+</div>","null","fixation","","","","","","","","","","","",""
"revaluation","47","329593","0.0-3.0-8.0-0.4","spark_pilot_norest","12454","1","16","Male","","false","","","","","[352.2999999523163,401.5]","./assets/img/space/10.jpg","[""ArrowUp"",""ArrowRight""]","full practice","space","36","{""ArrowUp,ArrowLeft"":3,""ArrowUp,ArrowRight"":36,""ArrowDown,ArrowLeft"":15,""ArrowDown,ArrowRight"":23}","true","ArrowUp,ArrowRight","false","","","","","",""
"html-keyboard-response","48","330095","0.0-3.0-8.0-1.4","spark_pilot_norest","12454","1","16","Male","","","","","","","null","<div style=""font-size:60px;"">+</div>","null","fixation","","","","","","","","","","","",""
"learning-instructions","49","341156","0.0-3.0-9.0-0.0","spark_pilot_norest","12454","1","16","Male","","","","","","","764.0999999046326","<p> One last thing: sometimes, you will see a robber. The robber can be anywhere in the picture. </p>
            <p> If you do not stop them, you will lose treasure. </p>
            <img src='./assets/img/instructions/robber.jpg' class='instructions-image'>","","instructions","","","","","","","","","","","",""
"learning-instructions","50","348859","0.0-3.0-9.0-0.1","spark_pilot_norest","12454","1","16","Male","","","","","","","547.2000000476837","<p> If you see the robber, you should <b>press the space bar</b> rather than using the arrow keys. </p>
            <p> Try practicing that now! </p>","","instructions","","","","","","","","","","","",""
"revaluation","51","352873","0.0-3.0-10.0-0.0","spark_pilot_norest","12454","1","16","Male","","false","","","","","[961]","./assets/img/space/catch/0.jpg","[""spaceBar""]","catch practice","space","0","{""ArrowUp,ArrowLeft"":3,""ArrowUp,ArrowRight"":36,""ArrowDown,ArrowLeft"":15,""ArrowDown,ArrowRight"":23}","true","spaceBar","true","","","","","",""
"html-keyboard-response","52","353383","0.0-3.0-10.0-1.0","spark_pilot_norest","12454","1","16","Male","","","","","","","null","<div style=""font-size:60px;"">+</div>","null","fixation","","","","","","","","","","","",""
"revaluation","53","357409","0.0-3.0-10.0-0.1","spark_pilot_norest","12454","1","16","Male","","false","","","","","[976.2000000476837]","./assets/img/space/catch/1.jpg","[""spaceBar""]","catch practice","space","0","{""ArrowUp,ArrowLeft"":3,""ArrowUp,ArrowRight"":36,""ArrowDown,ArrowLeft"":15,""ArrowDown,ArrowRight"":23}","true","spaceBar","true","","","","","",""
"html-keyboard-response","54","357924","0.0-3.0-10.0-1.1","spark_pilot_norest","12454","1","16","Male","","","","","","","null","<div style=""font-size:60px;"">+</div>","null","fixation","","","","","","","","","","","",""
"revaluation","55","361944","0.0-3.0-10.0-0.2","spark_pilot_norest","12454","1","16","Male","","false","","","","","[845.2000000476837]","./assets/img/space/catch/2.jpg","[""spaceBar""]","catch practice","space","0","{""ArrowUp,ArrowLeft"":3,""ArrowUp,ArrowRight"":36,""ArrowDown,ArrowLeft"":15,""ArrowDown,ArrowRight"":23}","true","spaceBar","true","","","","","",""
"html-keyboard-response","56","362460","0.0-3.0-10.0-1.2","spark_pilot_norest","12454","1","16","Male","","","","","","","null","<div style=""font-size:60px;"">+</div>","null","fixation","","","","","","","","","","","",""
"learning-instructions","57","369003","0.0-3.0-11.0-0.0-0.0","spark_pilot_norest","12454","1","16","Male","","","","","","","1271.7999999523163","<p> Now, you will practice a shortened version of the game to get a sense of how it all fits together. </p>","","instructions","","","","","","","","","","","",""
"learning-instructions","58","373504","0.0-3.0-11.0-0.0-0.1","spark_pilot_norest","12454","1","16","Male","","","","","","","1322.4000000953674","<p>This time you are searching for treasure in outer space.</p>","","instructions","","","","","","","","","","","",""
"learning-instructions","59","388776","0.0-3.0-11.0-1.0-0.0","spark_pilot_norest","12454","1","16","Male","","","","","","","514.5","<p> Remember, when you see a picture of the place, use the up and down keys to <b>find an animal</b>.</p>
            <p> When you encounter an animal, you should use the left and right keys to <b>select a treasure chest</b>.</p>
            <p> Don't forget to look out for the robber! </p>","","instructions","","","","","","","","","","","",""
"revaluation","60","394802","0.0-3.0-11.0-2.0-0.0","spark_pilot_norest","12454","1","16","Male","","false","","","","","[1984.5,510.5]","./assets/img/space/11.jpg","[""ArrowUp"",""ArrowRight""]","practice block","space","36","{""ArrowUp,ArrowLeft"":3,""ArrowUp,ArrowRight"":36,""ArrowDown,ArrowLeft"":15,""ArrowDown,ArrowRight"":23}","true","ArrowUp,ArrowRight","false","","","","","",""
"html-keyboard-response","61","395315","0.0-3.0-11.0-2.0-1.0","spark_pilot_norest","12454","1","16","Male","","","","","","","null","<div style=""font-size:60px;"">+</div>","null","fixation","","","","","","","","","","","",""
"revaluation","62","401350","0.0-3.0-11.0-2.0-0.1","spark_pilot_norest","12454","1","16","Male","","false","","","","","[1314.3999998569489,367.7000000476837]","./assets/img/space/12.jpg","[""ArrowUp"",""ArrowRight""]","practice block","space","36","{""ArrowUp,ArrowLeft"":3,""ArrowUp,ArrowRight"":36,""ArrowDown,ArrowLeft"":15,""ArrowDown,ArrowRight"":23}","true","ArrowUp,ArrowRight","false","","","","","",""
"html-keyboard-response","63","401852","0.0-3.0-11.0-2.0-1.1","spark_pilot_norest","12454","1","16","Male","","","","","","","null","<div style=""font-size:60px;"">+</div>","null","fixation","","","","","","","","","","","",""
"revaluation","64","407874","0.0-3.0-11.0-2.0-0.2","spark_pilot_norest","12454","1","16","Male","","false","","","","","[1276.8000001907349,310.2999999523163]","./assets/img/space/13.jpg","[""ArrowUp"",""ArrowRight""]","practice block","space","36","{""ArrowUp,ArrowLeft"":3,""ArrowUp,ArrowRight"":36,""ArrowDown,ArrowLeft"":15,""ArrowDown,ArrowRight"":23}","true","ArrowUp,ArrowRight","false","","","","","",""
"html-keyboard-response","65","408375","0.0-3.0-11.0-2.0-1.2","spark_pilot_norest","12454","1","16","Male","","","","","","","null","<div style=""font-size:60px;"">+</div>","null","fixation","","","","","","","","","","","",""
"revaluation","66","414400","0.0-3.0-11.0-2.0-0.3","spark_pilot_norest","12454","1","16","Male","","false","","","","","[1153.7999999523163,439.5]","./assets/img/space/14.jpg","[""ArrowUp"",""ArrowRight""]","practice block","space","36","{""ArrowUp,ArrowLeft"":3,""ArrowUp,ArrowRight"":36,""ArrowDown,ArrowLeft"":15,""ArrowDown,ArrowRight"":23}","true","ArrowUp,ArrowRight","false","","","","","",""
"html-keyboard-response","67","414913","0.0-3.0-11.0-2.0-1.3","spark_pilot_norest","12454","1","16","Male","","","","","","","null","<div style=""font-size:60px;"">+</div>","null","fixation","","","","","","","","","","","",""
"revaluation","68","420934","0.0-3.0-11.0-2.0-0.4","spark_pilot_norest","12454","1","16","Male","","false","","","","","[1546.2999999523163,610.0999999046326]","./assets/img/space/11.jpg","[""ArrowUp"",""ArrowRight""]","practice block","space","36","{""ArrowUp,ArrowLeft"":3,""ArrowUp,ArrowRight"":36,""ArrowDown,ArrowLeft"":15,""ArrowDown,ArrowRight"":23}","true","ArrowUp,ArrowRight","false","","","","","",""
"html-keyboard-response","69","421436","0.0-3.0-11.0-2.0-1.4","spark_pilot_norest","12454","1","16","Male","","","","","","","null","<div style=""font-size:60px;"">+</div>","null","fixation","","","","","","","","","","","",""
"revaluation","70","427442","0.0-3.0-11.0-2.0-0.5","spark_pilot_norest","12454","1","16","Male","","false","","","","","[1173.7000000476837,392.7999999523163]","./assets/img/space/12.jpg","[""ArrowUp"",""ArrowRight""]","practice block","space","36","{""ArrowUp,ArrowLeft"":3,""ArrowUp,ArrowRight"":36,""ArrowDown,ArrowLeft"":15,""ArrowDown,ArrowRight"":23}","true","ArrowUp,ArrowRight","false","","","","","",""
"html-keyboard-response","71","427943","0.0-3.0-11.0-2.0-1.5","spark_pilot_norest","12454","1","16","Male","","","","","","","null","<div style=""font-size:60px;"">+</div>","null","fixation","","","","","","","","","","","",""
"revaluation","72","433964","0.0-3.0-11.0-2.0-0.6","spark_pilot_norest","12454","1","16","Male","","false","","","","","[1416.7000000476837,395.90000009536743]","./assets/img/space/13.jpg","[""ArrowUp"",""ArrowRight""]","practice block","space","36","{""ArrowUp,ArrowLeft"":3,""ArrowUp,ArrowRight"":36,""ArrowDown,ArrowLeft"":15,""ArrowDown,ArrowRight"":23}","true","ArrowUp,ArrowRight","false","","","","","",""
"html-keyboard-response","73","434465","0.0-3.0-11.0-2.0-1.6","spark_pilot_norest","12454","1","16","Male","","","","","","","null","<div style=""font-size:60px;"">+</div>","null","fixation","","","","","","","","","","","",""
"revaluation","74","440480","0.0-3.0-11.0-2.0-0.7","spark_pilot_norest","12454","1","16","Male","","false","","","","","[1044.5,384.2000000476837]","./assets/img/space/14.jpg","[""ArrowUp"",""ArrowRight""]","practice block","space","36","{""ArrowUp,ArrowLeft"":3,""ArrowUp,ArrowRight"":36,""ArrowDown,ArrowLeft"":15,""ArrowDown,ArrowRight"":23}","true","ArrowUp,ArrowRight","false","","","","","",""
"html-keyboard-response","75","440982","0.0-3.0-11.0-2.0-1.7","spark_pilot_norest","12454","1","16","Male","","","","","","","null","<div style=""font-size:60px;"">+</div>","null","fixation","","","","","","","","","","","",""
"revaluation","76","444987","0.0-3.0-11.0-2.0-0.8","spark_pilot_norest","12454","1","16","Male","","false","","","","","[778.3000001907349]","./assets/img/space/catch/3.jpg","[""spaceBar""]","practice block","space","0","{""ArrowUp,ArrowLeft"":3,""ArrowUp,ArrowRight"":36,""ArrowDown,ArrowLeft"":15,""ArrowDown,ArrowRight"":23}","true","spaceBar","true","","","","","",""
"html-keyboard-response","77","445489","0.0-3.0-11.0-2.0-1.8","spark_pilot_norest","12454","1","16","Male","","","","","","","null","<div style=""font-size:60px;"">+</div>","null","fixation","","","","","","","","","","","",""
"learning-instructions","78","460271","0.0-3.0-11.0-3.0-0.0","spark_pilot_norest","12454","1","16","Male","","","","","","","1557.8000001907349","<p> Now, you will travel with a friend who will choose whether you go up or down first. </p>
            <p> On these turns, you will just see the animal that they found. You will still get to choose which chest to search for treasure.</p>","","instructions","","","","","","","","","","","",""
"revaluation","79","464295","0.0-3.0-11.0-4.0-0.0","spark_pilot_norest","12454","1","16","Male","","false","","","","","[1179.2999999523163]","./assets/img/space/animals/rabbit.jpg","[""ArrowRight""]","practice block","space","23","{""ArrowUp,ArrowLeft"":3,""ArrowUp,ArrowRight"":36,""ArrowDown,ArrowLeft"":15,""ArrowDown,ArrowRight"":23}","true","ArrowDown,ArrowRight","","","","","","",""
"html-keyboard-response","80","464798","0.0-3.0-11.0-4.0-1.0","spark_pilot_norest","12454","1","16","Male","","","","","","","null","<div style=""font-size:60px;"">+</div>","null","fixation","","","","","","","","","","","",""
"revaluation","81","468817","0.0-3.0-11.0-4.0-0.1","spark_pilot_norest","12454","1","16","Male","","false","","","","","[802.5999999046326]","./assets/img/space/animals/cat.jpg","[""ArrowRight""]","practice block","space","36","{""ArrowUp,ArrowLeft"":3,""ArrowUp,ArrowRight"":36,""ArrowDown,ArrowLeft"":15,""ArrowDown,ArrowRight"":23}","true","ArrowUp,ArrowRight","","","","","","",""
"html-keyboard-response","82","469333","0.0-3.0-11.0-4.0-1.1","spark_pilot_norest","12454","1","16","Male","","","","","","","null","<div style=""font-size:60px;"">+</div>","null","fixation","","","","","","","","","","","",""
"revaluation","83","473355","0.0-3.0-11.0-4.0-0.2","spark_pilot_norest","12454","1","16","Male","","false","","","","","[608.2000000476837]","./assets/img/space/animals/cat.jpg","[""ArrowRight""]","practice block","space","36","{""ArrowUp,ArrowLeft"":3,""ArrowUp,ArrowRight"":36,""ArrowDown,ArrowLeft"":15,""ArrowDown,ArrowRight"":23}","true","ArrowUp,ArrowRight","","","","","","",""
"html-keyboard-response","84","473872","0.0-3.0-11.0-4.0-1.2","spark_pilot_norest","12454","1","16","Male","","","","","","","null","<div style=""font-size:60px;"">+</div>","null","fixation","","","","","","","","","","","",""
"revaluation","85","477889","0.0-3.0-11.0-4.0-0.3","spark_pilot_norest","12454","1","16","Male","","false","","","","","[639.2999999523163]","./assets/img/space/animals/rabbit.jpg","[""ArrowRight""]","practice block","space","23","{""ArrowUp,ArrowLeft"":3,""ArrowUp,ArrowRight"":36,""ArrowDown,ArrowLeft"":15,""ArrowDown,ArrowRight"":23}","true","ArrowDown,ArrowRight","","","","","","",""
"html-keyboard-response","86","478392","0.0-3.0-11.0-4.0-1.3","spark_pilot_norest","12454","1","16","Male","","","","","","","null","<div style=""font-size:60px;"">+</div>","null","fixation","","","","","","","","","","","",""
"learning-instructions","87","486530","0.0-3.0-11.0-5.0-0.0","spark_pilot_norest","12454","1","16","Male","","","","","","","null","<p> You have almost finished this part of the game! </p>
            <p> We are going to ask you to make a few more choices. </p>","","instructions","","","","","","","","","","","",""
"learning-instructions","88","502527","0.0-3.0-11.0-5.0-0.1","spark_pilot_norest","12454","1","16","Male","","","","","","","null","<p> First, you need to decide whether to go up or down. When you see each picture, use the arrow keys to make your choice. </p>
            <p><b>You will not see which animal you found, but try to get to the one that will give you the most treasure.</b></p>","","instructions","","","","","","","","","","","",""
"html-keyboard-response","89","503542","0.0-3.0-11.0-6.0-0.0","spark_pilot_norest","12454","1","16","Male","","","","","","","null","<div style=""font-size:100px;color:red;"">Starting in...</div>","null","","","","","","","","","","","","",""
"html-keyboard-response","90","504550","0.0-3.0-11.0-6.0-1.0","spark_pilot_norest","12454","1","16","Male","","","","","","","null","<div style=""font-size:200px;color:red;"">3</div>","null","","","","","","","","","","","","",""
"html-keyboard-response","91","505553","0.0-3.0-11.0-6.0-2.0","spark_pilot_norest","12454","1","16","Male","","","","","","","null","<div style=""font-size:200px;color:red;"">2</div>","null","","","","","","","","","","","","",""
"html-keyboard-response","92","506567","0.0-3.0-11.0-6.0-3.0","spark_pilot_norest","12454","1","16","Male","","","","","","","null","<div style=""font-size:200px;color:red;"">1</div>","null","","","","","","","","","","","","",""
"revaluation","93","507314","0.0-3.0-11.0-7.0","spark_pilot_norest","12454","1","16","Male","","false","","","","","[743.7999999523163]","./assets/img/space/15.jpg","[""ArrowUp""]","practice block","space","0","{""ArrowUp,ArrowLeft"":3,""ArrowUp,ArrowRight"":36,""ArrowDown,ArrowLeft"":15,""ArrowDown,ArrowRight"":23}","true","ArrowUp","false","","","","","",""
"html-keyboard-response","94","507827","0.0-3.0-11.0-8.0","spark_pilot_norest","12454","1","16","Male","","","","","","","null","<div style=""font-size:60px;"">+</div>","null","fixation","","","","","","","","","","","",""
"learning-instructions","95","521217","0.0-3.0-11.0-9.0-0.0","spark_pilot_norest","12454","1","16","Male","","","","","","","null","<p> Now you will see the animals again and can search their chests for treasure. </p>
            <p> This time, you will not see how much treasure you earned, but you will earn more bonus money for making better choices. </p>","","instructions","","","","","","","","","","","",""
"html-keyboard-response","96","522231","0.0-3.0-11.0-10.0-0.0","spark_pilot_norest","12454","1","16","Male","","","","","","","null","<div style=""font-size:100px;color:red;"">Starting in...</div>","null","","","","","","","","","","","","",""
"html-keyboard-response","97","523246","0.0-3.0-11.0-10.0-1.0","spark_pilot_norest","12454","1","16","Male","","","","","","","null","<div style=""font-size:200px;color:red;"">3</div>","null","","","","","","","","","","","","",""
"html-keyboard-response","98","524249","0.0-3.0-11.0-10.0-2.0","spark_pilot_norest","12454","1","16","Male","","","","","","","null","<div style=""font-size:200px;color:red;"">2</div>","null","","","","","","","","","","","","",""
"html-keyboard-response","99","525251","0.0-3.0-11.0-10.0-3.0","spark_pilot_norest","12454","1","16","Male","","","","","","","null","<div style=""font-size:200px;color:red;"">1</div>","null","","","","","","","","","","","","",""
"revaluation","100","526144","0.0-3.0-11.0-11.0-0.0","spark_pilot_norest","12454","1","16","Male","","false","","","","","[889.2999999523163]","./assets/img/space/animals/cat.jpg","[""ArrowRight""]","practice block","space","0","{""ArrowUp,ArrowLeft"":3,""ArrowUp,ArrowRight"":36,""ArrowDown,ArrowLeft"":15,""ArrowDown,ArrowRight"":23}","true","ArrowUp,ArrowRight","","","","","","",""
"html-keyboard-response","101","526656","0.0-3.0-11.0-11.0-1.0","spark_pilot_norest","12454","1","16","Male","","","","","","","null","<div style=""font-size:60px;"">+</div>","null","fixation","","","","","","","","","","","",""
"revaluation","102","527374","0.0-3.0-11.0-11.0-0.1","spark_pilot_norest","12454","1","16","Male","","false","","","","","[714.2999999523163]","./assets/img/space/animals/rabbit.jpg","[""ArrowRight""]","practice block","space","0","{""ArrowUp,ArrowLeft"":3,""ArrowUp,ArrowRight"":36,""ArrowDown,ArrowLeft"":15,""ArrowDown,ArrowRight"":23}","true","ArrowDown,ArrowRight","","","","","","",""
"html-keyboard-response","103","527890","0.0-3.0-11.0-11.0-1.1","spark_pilot_norest","12454","1","16","Male","","","","","","","null","<div style=""font-size:60px;"">+</div>","null","fixation","","","","","","","","","","","",""
"learning-instructions","104","533626","0.0-3.0-12.0-0.0","spark_pilot_norest","12454","1","16","Male","","","","","","","1151.2000000476837","<p> Before you start, we're going to ask you a few questions about how the game works. </p>","","instructions","","","","","","","","","","","",""
"comp-q","105","540531","0.0-3.0-13.0-0.0-0.0","spark_pilot_norest","12454","1","16","Male","","","","","","","1331.5","<p> <b> True or False? </b> </p>
            <p> There can be 50 pieces of treasure in a given animal's chest. </p>","1","comp_question","","","","true","","","","","","","",""
"comp-q","106","548764","0.0-3.0-13.0-0.0-1.0","spark_pilot_norest","12454","1","16","Male","","","","","","","1570","<p> <b> That's right! </b> The amount of treasure in each chest can range from 0 to 40 pieces. </p>","0","comp_answer","","","","","","","","","","","",""
"comp-q","107","556690","0.0-3.0-13.0-0.1-0.1","spark_pilot_norest","12454","1","16","Male","","","","","","","804.7000000476837","<p> <b> True or False? </b> </p><p> In this game, all animals have the same amount of treasure in their left and right chests. </p>","1","comp_question","","","","true","","","","","","","",""
"comp-q","108","563378","0.0-3.0-13.0-0.1-1.1","spark_pilot_norest","12454","1","16","Male","","","","","","","1453.1999998092651","<p> <b> That's right! </b> Animals have different amounts of treasure in their treasure chests. </p>","0","comp_answer","","","","","","","","","","","",""
"comp-q","109","569875","0.0-3.0-13.0-0.2-0.2","spark_pilot_norest","12454","1","16","Male","","","","","","","660","<p> <b> True or False? </b> </p><p> The same animal will always be there if you go up in the same place. </p>","0","comp_question","","","","true","","","","","","","",""
"comp-q","110","577473","0.0-3.0-13.0-0.2-1.2","spark_pilot_norest","12454","1","16","Male","","","","","","","1148.5","<p> <b> That's right! </b> One animal lives in the upper part and one lives in the lower part of every place. </p>","0","comp_answer","","","","","","","","","","","",""
"comp-q","111","583847","0.0-3.0-13.0-0.3-0.3","spark_pilot_norest","12454","1","16","Male","","","","","","","851.7000000476837","<p> <b> True or False? </b> </p><p> If you see a different picture, it means you are in a new place. </p>","1","comp_question","","","","true","","","","","","","",""
"comp-q","112","596233","0.0-3.0-13.0-0.3-1.3","spark_pilot_norest","12454","1","16","Male","","","","","","","1177.7000000476837","<p> <b> That's right! </b> Lots of different images may show the same place. For example,  you may see three different images that all remind you that you are in outer space. </p>","0","comp_answer","","","","","","","","","","","",""
"learning-instructions","113","607156","0.0-3.0-14.0-0.0","spark_pilot_norest","12454","1","16","Male","","","","","","","1071.4000000953674","<p> Good job. Remember to do your best because the amount of treasure you earn will be converted into bonus money. </p>
            <p> It’s time to start the real game! </p>","","instructions","","","","","","","","","","","",""
"learning-instructions","114","610792","0.0-4.0-0.0-0.0","spark_pilot_norest","12454","1","16","Male","","","","","","","936.6000001430511","<p> This time you are searching for treasure in the <b>ocean</b>.</p>","","instructions","","","","","","","","","","","",""
"learning-instructions","115","628868","0.0-4.0-0.0-0.1","spark_pilot_norest","12454","1","16","Male","","","","","","","792.5","<p><b>New</b> animals with <b>new</b> treasure chests live here. You need to explore to discover where the animal with the best treasure chest is.</p>
                    <p> Like before, once you figure out which animal has the chest with the most treasure, you should try to get to that animal and select that chest! </p>","","instructions","","","","","","","","","","","",""
"learning-instructions","116","645171","0.0-4.0-1.0-0.0","spark_pilot_norest","12454","1","16","Male","","","","","","","1575.8000001907349","<p> Remember, when you see a picture of the place, use the up and down keys to <b>find an animal</b>.</p>
            <p> When you encounter an animal, you should use the left and right keys to <b>select a treasure chest</b>.</p>
            <p> Don't forget to look out for the robber! </p>","","instructions","","","","","","","","","","","",""
"revaluation","117","651196","0.0-4.0-2.0-0.0","spark_pilot_norest","12454","1","16","Male","","false","","","","","[1750.7000000476837,1056.7000000476837]","./assets/img/ocean/memory/20.jpg","[""ArrowUp"",""ArrowRight""]","value training","ocean","10","{""ArrowUp,ArrowLeft"":26,""ArrowUp,ArrowRight"":10,""ArrowDown,ArrowLeft"":5,""ArrowDown,ArrowRight"":17}","false","ArrowUp,ArrowRight","false","original","1","0","","",""
"html-keyboard-response","118","651709","0.0-4.0-2.0-1.0","spark_pilot_norest","12454","1","16","Male","","","","","","","null","<div style=""font-size:60px;"">+</div>","null","fixation","","","","","","","","","1","","",""
"revaluation","119","655730","0.0-4.0-2.0-0.1","spark_pilot_norest","12454","1","16","Male","","false","","","","","[1203.5]","./assets/img/ocean/catch/2.jpg","[""spaceBar""]","value training","ocean","0","{""ArrowUp,ArrowLeft"":26,""ArrowUp,ArrowRight"":10,""ArrowDown,ArrowLeft"":5,""ArrowDown,ArrowRight"":17}","true","spaceBar","true","original","1","2","","",""
"html-keyboard-response","120","656245","0.0-4.0-2.0-1.1","spark_pilot_norest","12454","1","16","Male","","","","","","","null","<div style=""font-size:60px;"">+</div>","null","fixation","","","","","","","","","3","","",""
"revaluation","121","662267","0.0-4.0-2.0-0.2","spark_pilot_norest","12454","1","16","Male","","false","","","","","[747.2999999523163,313.7000000476837]","./assets/img/ocean/memory/41.jpg","[""ArrowUp"",""ArrowLeft""]","value training","ocean","26","{""ArrowUp,ArrowLeft"":26,""ArrowUp,ArrowRight"":10,""ArrowDown,ArrowLeft"":5,""ArrowDown,ArrowRight"":17}","true","ArrowUp,ArrowLeft","false","original","1","4","","",""
"html-keyboard-response","122","662781","0.0-4.0-2.0-1.2","spark_pilot_norest","12454","1","16","Male","","","","","","","null","<div style=""font-size:60px;"">+</div>","null","fixation","","","","","","","","","5","","",""
"revaluation","123","668804","0.0-4.0-2.0-0.3","spark_pilot_norest","12454","1","16","Male","","false","","","","","[910.0999999046326,601.7000000476837]","./assets/img/ocean/memory/8.jpg","[""ArrowDown"",""ArrowLeft""]","value training","ocean","5","{""ArrowUp,ArrowLeft"":26,""ArrowUp,ArrowRight"":10,""ArrowDown,ArrowLeft"":5,""ArrowDown,ArrowRight"":17}","false","ArrowDown,ArrowLeft","false","original","1","6","","",""
"html-keyboard-response","124","669321","0.0-4.0-2.0-1.3","spark_pilot_norest","12454","1","16","Male","","","","","","","null","<div style=""font-size:60px;"">+</div>","null","fixation","","","","","","","","","7","","",""
"revaluation","125","675341","0.0-4.0-2.0-0.4","spark_pilot_norest","12454","1","16","Male","","false","","","","","[770.8999998569489,399.09999990463257]","./assets/img/ocean/memory/19.jpg","[""ArrowDown"",""ArrowRight""]","value training","ocean","17","{""ArrowUp,ArrowLeft"":26,""ArrowUp,ArrowRight"":10,""ArrowDown,ArrowLeft"":5,""ArrowDown,ArrowRight"":17}","false","ArrowDown,ArrowRight","false","original","1","8","","",""
"html-keyboard-response","126","675857","0.0-4.0-2.0-1.4","spark_pilot_norest","12454","1","16","Male","","","","","","","null","<div style=""font-size:60px;"">+</div>","null","fixation","","","","","","","","","9","","",""
"revaluation","127","681879","0.0-4.0-2.0-0.5","spark_pilot_norest","12454","1","16","Male","","false","","","","","[884.2000000476837,423]","./assets/img/ocean/memory/20.jpg","[""ArrowUp"",""ArrowLeft""]","value training","ocean","26","{""ArrowUp,ArrowLeft"":26,""ArrowUp,ArrowRight"":10,""ArrowDown,ArrowLeft"":5,""ArrowDown,ArrowRight"":17}","true","ArrowUp,ArrowLeft","false","original","1","10","","",""
"html-keyboard-response","128","682380","0.0-4.0-2.0-1.5","spark_pilot_norest","12454","1","16","Male","","","","","","","null","<div style=""font-size:60px;"">+</div>","null","fixation","","","","","","","","","11","","",""
"revaluation","129","688385","0.0-4.0-2.0-0.6","spark_pilot_norest","12454","1","16","Male","","false","","","","","[1152.9000000953674,392.7999999523163]","./assets/img/ocean/memory/8.jpg","[""ArrowUp"",""ArrowLeft""]","value training","ocean","26","{""ArrowUp,ArrowLeft"":26,""ArrowUp,ArrowRight"":10,""ArrowDown,ArrowLeft"":5,""ArrowDown,ArrowRight"":17}","true","ArrowUp,ArrowLeft","false","original","1","12","","",""
"html-keyboard-response","130","688887","0.0-4.0-2.0-1.6","spark_pilot_norest","12454","1","16","Male","","","","","","","null","<div style=""font-size:60px;"">+</div>","null","fixation","","","","","","","","","13","","",""
"revaluation","131","694893","0.0-4.0-2.0-0.7","spark_pilot_norest","12454","1","16","Male","","false","","","","","[1366.7000000476837,303]","./assets/img/ocean/memory/27.jpg","[""ArrowUp"",""ArrowLeft""]","value training","ocean","26","{""ArrowUp,ArrowLeft"":26,""ArrowUp,ArrowRight"":10,""ArrowDown,ArrowLeft"":5,""ArrowDown,ArrowRight"":17}","true","ArrowUp,ArrowLeft","false","original","1","14","","",""
"html-keyboard-response","132","695396","0.0-4.0-2.0-1.7","spark_pilot_norest","12454","1","16","Male","","","","","","","null","<div style=""font-size:60px;"">+</div>","null","fixation","","","","","","","","","15","","",""
"revaluation","133","699401","0.0-4.0-2.0-0.8","spark_pilot_norest","12454","1","16","Male","","false","","","","","[1076.2999999523163]","./assets/img/ocean/catch/5.jpg","[""spaceBar""]","value training","ocean","0","{""ArrowUp,ArrowLeft"":26,""ArrowUp,ArrowRight"":10,""ArrowDown,ArrowLeft"":5,""ArrowDown,ArrowRight"":17}","true","spaceBar","true","original","1","16","","",""
"html-keyboard-response","134","699902","0.0-4.0-2.0-1.8","spark_pilot_norest","12454","1","16","Male","","","","","","","null","<div style=""font-size:60px;"">+</div>","null","fixation","","","","","","","","","17","","",""
"revaluation","135","705909","0.0-4.0-2.0-0.9","spark_pilot_norest","12454","1","16","Male","","false","","","","","[1220.2000000476837,420.39999985694885]","./assets/img/ocean/memory/1.jpg","[""ArrowUp"",""ArrowLeft""]","value training","ocean","26","{""ArrowUp,ArrowLeft"":26,""ArrowUp,ArrowRight"":10,""ArrowDown,ArrowLeft"":5,""ArrowDown,ArrowRight"":17}","true","ArrowUp,ArrowLeft","false","original","1","18","","",""
"html-keyboard-response","136","706411","0.0-4.0-2.0-1.9","spark_pilot_norest","12454","1","16","Male","","","","","","","null","<div style=""font-size:60px;"">+</div>","null","fixation","","","","","","","","","19","","",""
"revaluation","137","712419","0.0-4.0-2.0-0.10","spark_pilot_norest","12454","1","16","Male","","false","","","","","[921.4000000953674,329.80000019073486]","./assets/img/ocean/memory/26.jpg","[""ArrowUp"",""ArrowLeft""]","value training","ocean","26","{""ArrowUp,ArrowLeft"":26,""ArrowUp,ArrowRight"":10,""ArrowDown,ArrowLeft"":5,""ArrowDown,ArrowRight"":17}","true","ArrowUp,ArrowLeft","false","original","1","20","","",""
"html-keyboard-response","138","712920","0.0-4.0-2.0-1.10","spark_pilot_norest","12454","1","16","Male","","","","","","","null","<div style=""font-size:60px;"">+</div>","null","fixation","","","","","","","","","21","","",""
"revaluation","139","718926","0.0-4.0-2.0-0.11","spark_pilot_norest","12454","1","16","Male","","false","","","","","[1402.4000000953674,402.2000000476837]","./assets/img/ocean/memory/22.jpg","[""ArrowUp"",""ArrowLeft""]","value training","ocean","26","{""ArrowUp,ArrowLeft"":26,""ArrowUp,ArrowRight"":10,""ArrowDown,ArrowLeft"":5,""ArrowDown,ArrowRight"":17}","true","ArrowUp,ArrowLeft","false","original","1","22","","",""
"html-keyboard-response","140","719429","0.0-4.0-2.0-1.11","spark_pilot_norest","12454","1","16","Male","","","","","","","null","<div style=""font-size:60px;"">+</div>","null","fixation","","","","","","","","","23","","",""
"revaluation","141","725433","0.0-4.0-2.0-0.12","spark_pilot_norest","12454","1","16","Male","","false","","","","","[1014.7999999523163,394.5]","./assets/img/ocean/memory/14.jpg","[""ArrowUp"",""ArrowLeft""]","value training","ocean","26","{""ArrowUp,ArrowLeft"":26,""ArrowUp,ArrowRight"":10,""ArrowDown,ArrowLeft"":5,""ArrowDown,ArrowRight"":17}","true","ArrowUp,ArrowLeft","false","original","1","24","","",""
"html-keyboard-response","142","725935","0.0-4.0-2.0-1.12","spark_pilot_norest","12454","1","16","Male","","","","","","","null","<div style=""font-size:60px;"">+</div>","null","fixation","","","","","","","","","25","","",""
"revaluation","143","729939","0.0-4.0-2.0-0.13","spark_pilot_norest","12454","1","16","Male","","false","","","","","[1439.5]","./assets/img/ocean/catch/1.jpg","[""spaceBar""]","value training","ocean","0","{""ArrowUp,ArrowLeft"":26,""ArrowUp,ArrowRight"":10,""ArrowDown,ArrowLeft"":5,""ArrowDown,ArrowRight"":17}","true","spaceBar","true","original","1","26","","",""
"html-keyboard-response","144","730440","0.0-4.0-2.0-1.13","spark_pilot_norest","12454","1","16","Male","","","","","","","null","<div style=""font-size:60px;"">+</div>","null","fixation","","","","","","","","","27","","",""
"revaluation","145","736445","0.0-4.0-2.0-0.14","spark_pilot_norest","12454","1","16","Male","","false","","","","","[1434.2000000476837,343.40000009536743]","./assets/img/ocean/memory/24.jpg","[""ArrowUp"",""ArrowLeft""]","value training","ocean","26","{""ArrowUp,ArrowLeft"":26,""ArrowUp,ArrowRight"":10,""ArrowDown,ArrowLeft"":5,""ArrowDown,ArrowRight"":17}","true","ArrowUp,ArrowLeft","false","original","1","28","","",""
"html-keyboard-response","146","736946","0.0-4.0-2.0-1.14","spark_pilot_norest","12454","1","16","Male","","","","","","","null","<div style=""font-size:60px;"">+</div>","null","fixation","","","","","","","","","29","","",""
"revaluation","147","742952","0.0-4.0-2.0-0.15","spark_pilot_norest","12454","1","16","Male","","false","","","","","[1257.1999998092651,357.40000009536743]","./assets/img/ocean/memory/0.jpg","[""ArrowUp"",""ArrowLeft""]","value training","ocean","26","{""ArrowUp,ArrowLeft"":26,""ArrowUp,ArrowRight"":10,""ArrowDown,ArrowLeft"":5,""ArrowDown,ArrowRight"":17}","true","ArrowUp,ArrowLeft","false","original","1","30","","",""
"html-keyboard-response","148","743454","0.0-4.0-2.0-1.15","spark_pilot_norest","12454","1","16","Male","","","","","","","null","<div style=""font-size:60px;"">+</div>","null","fixation","","","","","","","","","31","","",""
"revaluation","149","749460","0.0-4.0-2.0-0.16","spark_pilot_norest","12454","1","16","Male","","false","","","","","[579.9000000953674,318.5]","./assets/img/ocean/memory/23.jpg","[""ArrowUp"",""ArrowLeft""]","value training","ocean","26","{""ArrowUp,ArrowLeft"":26,""ArrowUp,ArrowRight"":10,""ArrowDown,ArrowLeft"":5,""ArrowDown,ArrowRight"":17}","true","ArrowUp,ArrowLeft","false","original","1","32","","",""
"html-keyboard-response","150","749962","0.0-4.0-2.0-1.16","spark_pilot_norest","12454","1","16","Male","","","","","","","null","<div style=""font-size:60px;"">+</div>","null","fixation","","","","","","","","","33","","",""
"revaluation","151","753966","0.0-4.0-2.0-0.17","spark_pilot_norest","12454","1","16","Male","","false","","","","","[741.4000000953674]","./assets/img/ocean/catch/7.jpg","[""spaceBar""]","value training","ocean","0","{""ArrowUp,ArrowLeft"":26,""ArrowUp,ArrowRight"":10,""ArrowDown,ArrowLeft"":5,""ArrowDown,ArrowRight"":17}","true","spaceBar","true","original","1","34","","",""
"html-keyboard-response","152","754468","0.0-4.0-2.0-1.17","spark_pilot_norest","12454","1","16","Male","","","","","","","null","<div style=""font-size:60px;"">+</div>","null","fixation","","","","","","","","","35","","",""
"revaluation","153","760473","0.0-4.0-2.0-0.18","spark_pilot_norest","12454","1","16","Male","","false","","","","","[896.2999999523163,555.0999999046326]","./assets/img/ocean/memory/13.jpg","[""ArrowUp"",""ArrowLeft""]","value training","ocean","26","{""ArrowUp,ArrowLeft"":26,""ArrowUp,ArrowRight"":10,""ArrowDown,ArrowLeft"":5,""ArrowDown,ArrowRight"":17}","true","ArrowUp,ArrowLeft","false","original","1","36","","",""
"html-keyboard-response","154","760976","0.0-4.0-2.0-1.18","spark_pilot_norest","12454","1","16","Male","","","","","","","null","<div style=""font-size:60px;"">+</div>","null","fixation","","","","","","","","","37","","",""
"revaluation","155","766981","0.0-4.0-2.0-0.19","spark_pilot_norest","12454","1","16","Male","","false","","","","","[637.7999999523163,267.7000000476837]","./assets/img/ocean/memory/13.jpg","[""ArrowUp"",""ArrowLeft""]","value training","ocean","26","{""ArrowUp,ArrowLeft"":26,""ArrowUp,ArrowRight"":10,""ArrowDown,ArrowLeft"":5,""ArrowDown,ArrowRight"":17}","true","ArrowUp,ArrowLeft","false","original","1","38","","",""
"html-keyboard-response","156","767482","0.0-4.0-2.0-1.19","spark_pilot_norest","12454","1","16","Male","","","","","","","null","<div style=""font-size:60px;"">+</div>","null","fixation","","","","","","","","","39","","",""
"revaluation","157","771487","0.0-4.0-2.0-0.20","spark_pilot_norest","12454","1","16","Male","","false","","","","","[692]","./assets/img/ocean/catch/0.jpg","[""spaceBar""]","value training","ocean","0","{""ArrowUp,ArrowLeft"":26,""ArrowUp,ArrowRight"":10,""ArrowDown,ArrowLeft"":5,""ArrowDown,ArrowRight"":17}","true","spaceBar","true","original","1","40","","",""
"html-keyboard-response","158","771988","0.0-4.0-2.0-1.20","spark_pilot_norest","12454","1","16","Male","","","","","","","null","<div style=""font-size:60px;"">+</div>","null","fixation","","","","","","","","","41","","",""
"revaluation","159","775993","0.0-4.0-2.0-0.21","spark_pilot_norest","12454","1","16","Male","","false","","","","","[924.5999999046326]","./assets/img/ocean/catch/4.jpg","[""spaceBar""]","value training","ocean","0","{""ArrowUp,ArrowLeft"":26,""ArrowUp,ArrowRight"":10,""ArrowDown,ArrowLeft"":5,""ArrowDown,ArrowRight"":17}","true","spaceBar","true","original","1","42","","",""
"html-keyboard-response","160","776495","0.0-4.0-2.0-1.21","spark_pilot_norest","12454","1","16","Male","","","","","","","null","<div style=""font-size:60px;"">+</div>","null","fixation","","","","","","","","","43","","",""
"revaluation","161","782500","0.0-4.0-2.0-0.22","spark_pilot_norest","12454","1","16","Male","","false","","","","","[958.4000000953674,408.40000009536743]","./assets/img/ocean/memory/9.jpg","[""ArrowUp"",""ArrowLeft""]","value training","ocean","26","{""ArrowUp,ArrowLeft"":26,""ArrowUp,ArrowRight"":10,""ArrowDown,ArrowLeft"":5,""ArrowDown,ArrowRight"":17}","true","ArrowUp,ArrowLeft","false","original","1","44","","",""
"html-keyboard-response","162","783001","0.0-4.0-2.0-1.22","spark_pilot_norest","12454","1","16","Male","","","","","","","null","<div style=""font-size:60px;"">+</div>","null","fixation","","","","","","","","","45","","",""
"revaluation","163","789009","0.0-4.0-2.0-0.23","spark_pilot_norest","12454","1","16","Male","","false","","","","","[802.3000001907349,311.30000019073486]","./assets/img/ocean/memory/19.jpg","[""ArrowUp"",""ArrowLeft""]","value training","ocean","26","{""ArrowUp,ArrowLeft"":26,""ArrowUp,ArrowRight"":10,""ArrowDown,ArrowLeft"":5,""ArrowDown,ArrowRight"":17}","true","ArrowUp,ArrowLeft","false","original","1","46","","",""
"html-keyboard-response","164","789510","0.0-4.0-2.0-1.23","spark_pilot_norest","12454","1","16","Male","","","","","","","null","<div style=""font-size:60px;"">+</div>","null","fixation","","","","","","","","","47","","",""
"revaluation","165","795516","0.0-4.0-2.0-0.24","spark_pilot_norest","12454","1","16","Male","","false","","","","","[524.2999999523163,332]","./assets/img/ocean/memory/33.jpg","[""ArrowUp"",""ArrowLeft""]","value training","ocean","26","{""ArrowUp,ArrowLeft"":26,""ArrowUp,ArrowRight"":10,""ArrowDown,ArrowLeft"":5,""ArrowDown,ArrowRight"":17}","true","ArrowUp,ArrowLeft","false","original","1","48","","",""
"html-keyboard-response","166","796018","0.0-4.0-2.0-1.24","spark_pilot_norest","12454","1","16","Male","","","","","","","null","<div style=""font-size:60px;"">+</div>","null","fixation","","","","","","","","","49","","",""
"revaluation","167","802023","0.0-4.0-2.0-0.25","spark_pilot_norest","12454","1","16","Male","","false","","","","","[795.5,325.09999990463257]","./assets/img/ocean/memory/22.jpg","[""ArrowUp"",""ArrowLeft""]","value training","ocean","26","{""ArrowUp,ArrowLeft"":26,""ArrowUp,ArrowRight"":10,""ArrowDown,ArrowLeft"":5,""ArrowDown,ArrowRight"":17}","true","ArrowUp,ArrowLeft","false","original","1","50","","",""
"html-keyboard-response","168","802524","0.0-4.0-2.0-1.25","spark_pilot_norest","12454","1","16","Male","","","","","","","null","<div style=""font-size:60px;"">+</div>","null","fixation","","","","","","","","","51","","",""
"revaluation","169","808535","0.0-4.0-2.0-0.26","spark_pilot_norest","12454","1","16","Male","","false","","","","","[839.7999999523163,388.5]","./assets/img/ocean/memory/27.jpg","[""ArrowUp"",""ArrowLeft""]","value training","ocean","26","{""ArrowUp,ArrowLeft"":26,""ArrowUp,ArrowRight"":10,""ArrowDown,ArrowLeft"":5,""ArrowDown,ArrowRight"":17}","true","ArrowUp,ArrowLeft","false","original","1","52","","",""
"html-keyboard-response","170","809038","0.0-4.0-2.0-1.26","spark_pilot_norest","12454","1","16","Male","","","","","","","null","<div style=""font-size:60px;"">+</div>","null","fixation","","","","","","","","","53","","",""
"revaluation","171","815045","0.0-4.0-2.0-0.27","spark_pilot_norest","12454","1","16","Male","","false","","","","","[985.8999998569489,655.5]","./assets/img/ocean/memory/14.jpg","[""ArrowUp"",""ArrowLeft""]","value training","ocean","26","{""ArrowUp,ArrowLeft"":26,""ArrowUp,ArrowRight"":10,""ArrowDown,ArrowLeft"":5,""ArrowDown,ArrowRight"":17}","true","ArrowUp,ArrowLeft","false","original","1","54","","",""
"html-keyboard-response","172","815546","0.0-4.0-2.0-1.27","spark_pilot_norest","12454","1","16","Male","","","","","","","null","<div style=""font-size:60px;"">+</div>","null","fixation","","","","","","","","","55","","",""
"revaluation","173","821551","0.0-4.0-2.0-0.28","spark_pilot_norest","12454","1","16","Male","","false","","","","","[1027.8999998569489,1297.8000001907349]","./assets/img/ocean/memory/32.jpg","[""ArrowUp"",""ArrowLeft""]","value training","ocean","26","{""ArrowUp,ArrowLeft"":26,""ArrowUp,ArrowRight"":10,""ArrowDown,ArrowLeft"":5,""ArrowDown,ArrowRight"":17}","true","ArrowUp,ArrowLeft","false","original","1","56","","",""
"html-keyboard-response","174","822052","0.0-4.0-2.0-1.28","spark_pilot_norest","12454","1","16","Male","","","","","","","null","<div style=""font-size:60px;"">+</div>","null","fixation","","","","","","","","","57","","",""
"revaluation","175","828068","0.0-4.0-2.0-0.29","spark_pilot_norest","12454","1","16","Male","","false","","","","","[942.3999998569489,371.60000014305115]","./assets/img/ocean/memory/15.jpg","[""ArrowUp"",""ArrowLeft""]","value training","ocean","26","{""ArrowUp,ArrowLeft"":26,""ArrowUp,ArrowRight"":10,""ArrowDown,ArrowLeft"":5,""ArrowDown,ArrowRight"":17}","true","ArrowUp,ArrowLeft","false","original","1","58","","",""
"html-keyboard-response","176","828569","0.0-4.0-2.0-1.29","spark_pilot_norest","12454","1","16","Male","","","","","","","null","<div style=""font-size:60px;"">+</div>","null","fixation","","","","","","","","","59","","",""
"revaluation","177","834574","0.0-4.0-2.0-0.30","spark_pilot_norest","12454","1","16","Male","","false","","","","","[744.7000000476837,373.7000000476837]","./assets/img/ocean/memory/4.jpg","[""ArrowUp"",""ArrowLeft""]","value training","ocean","26","{""ArrowUp,ArrowLeft"":26,""ArrowUp,ArrowRight"":10,""ArrowDown,ArrowLeft"":5,""ArrowDown,ArrowRight"":17}","true","ArrowUp,ArrowLeft","false","original","1","60","","",""
"html-keyboard-response","178","835076","0.0-4.0-2.0-1.30","spark_pilot_norest","12454","1","16","Male","","","","","","","null","<div style=""font-size:60px;"">+</div>","null","fixation","","","","","","","","","61","","",""
"revaluation","179","841081","0.0-4.0-2.0-0.31","spark_pilot_norest","12454","1","16","Male","","false","","","","","[688.4000000953674,17.700000047683716]","./assets/img/ocean/memory/40.jpg","[""ArrowUp"",""ArrowLeft""]","value training","ocean","26","{""ArrowUp,ArrowLeft"":26,""ArrowUp,ArrowRight"":10,""ArrowDown,ArrowLeft"":5,""ArrowDown,ArrowRight"":17}","true","ArrowUp,ArrowLeft","false","original","1","62","","",""
"html-keyboard-response","180","841582","0.0-4.0-2.0-1.31","spark_pilot_norest","12454","1","16","Male","","","","","","","null","<div style=""font-size:60px;"">+</div>","null","fixation","","","","","","","","","63","","",""
"revaluation","181","847587","0.0-4.0-2.0-0.32","spark_pilot_norest","12454","1","16","Male","","false","","","","","[781.3999998569489,481.2999999523163]","./assets/img/ocean/memory/7.jpg","[""ArrowUp"",""ArrowLeft""]","value training","ocean","26","{""ArrowUp,ArrowLeft"":26,""ArrowUp,ArrowRight"":10,""ArrowDown,ArrowLeft"":5,""ArrowDown,ArrowRight"":17}","true","ArrowUp,ArrowLeft","false","original","1","64","","",""
"html-keyboard-response","182","848089","0.0-4.0-2.0-1.32","spark_pilot_norest","12454","1","16","Male","","","","","","","null","<div style=""font-size:60px;"">+</div>","null","fixation","","","","","","","","","65","","",""
"revaluation","183","854095","0.0-4.0-2.0-0.33","spark_pilot_norest","12454","1","16","Male","","false","","","","","[745.7999999523163,423.89999985694885]","./assets/img/ocean/memory/7.jpg","[""ArrowUp"",""ArrowLeft""]","value training","ocean","26","{""ArrowUp,ArrowLeft"":26,""ArrowUp,ArrowRight"":10,""ArrowDown,ArrowLeft"":5,""ArrowDown,ArrowRight"":17}","true","ArrowUp,ArrowLeft","false","original","1","66","","",""
"html-keyboard-response","184","854596","0.0-4.0-2.0-1.33","spark_pilot_norest","12454","1","16","Male","","","","","","","null","<div style=""font-size:60px;"">+</div>","null","fixation","","","","","","","","","67","","",""
"revaluation","185","860600","0.0-4.0-2.0-0.34","spark_pilot_norest","12454","1","16","Male","","false","","","","","[779.1000001430511,588.2999999523163]","./assets/img/ocean/memory/9.jpg","[""ArrowUp"",""ArrowLeft""]","value training","ocean","26","{""ArrowUp,ArrowLeft"":26,""ArrowUp,ArrowRight"":10,""ArrowDown,ArrowLeft"":5,""ArrowDown,ArrowRight"":17}","true","ArrowUp,ArrowLeft","false","original","1","68","","",""
"html-keyboard-response","186","861102","0.0-4.0-2.0-1.34","spark_pilot_norest","12454","1","16","Male","","","","","","","null","<div style=""font-size:60px;"">+</div>","null","fixation","","","","","","","","","69","","",""
"revaluation","187","867114","0.0-4.0-2.0-0.35","spark_pilot_norest","12454","1","16","Male","","false","","","","","[442.7999999523163,302.2000000476837]","./assets/img/ocean/memory/40.jpg","[""ArrowUp"",""ArrowLeft""]","value training","ocean","26","{""ArrowUp,ArrowLeft"":26,""ArrowUp,ArrowRight"":10,""ArrowDown,ArrowLeft"":5,""ArrowDown,ArrowRight"":17}","true","ArrowUp,ArrowLeft","false","original","1","70","","",""
"html-keyboard-response","188","867615","0.0-4.0-2.0-1.35","spark_pilot_norest","12454","1","16","Male","","","","","","","null","<div style=""font-size:60px;"">+</div>","null","fixation","","","","","","","","","71","","",""
"revaluation","189","873619","0.0-4.0-2.0-0.36","spark_pilot_norest","12454","1","16","Male","","false","","","","","[779.3999998569489,348.2000000476837]","./assets/img/ocean/memory/23.jpg","[""ArrowUp"",""ArrowLeft""]","value training","ocean","26","{""ArrowUp,ArrowLeft"":26,""ArrowUp,ArrowRight"":10,""ArrowDown,ArrowLeft"":5,""ArrowDown,ArrowRight"":17}","true","ArrowUp,ArrowLeft","false","original","1","72","","",""
"html-keyboard-response","190","874121","0.0-4.0-2.0-1.36","spark_pilot_norest","12454","1","16","Male","","","","","","","null","<div style=""font-size:60px;"">+</div>","null","fixation","","","","","","","","","73","","",""
"revaluation","191","880125","0.0-4.0-2.0-0.37","spark_pilot_norest","12454","1","16","Male","","false","","","","","[652.7999999523163,312.59999990463257]","./assets/img/ocean/memory/33.jpg","[""ArrowUp"",""ArrowLeft""]","value training","ocean","26","{""ArrowUp,ArrowLeft"":26,""ArrowUp,ArrowRight"":10,""ArrowDown,ArrowLeft"":5,""ArrowDown,ArrowRight"":17}","true","ArrowUp,ArrowLeft","false","original","1","74","","",""
"html-keyboard-response","192","880627","0.0-4.0-2.0-1.37","spark_pilot_norest","12454","1","16","Male","","","","","","","null","<div style=""font-size:60px;"">+</div>","null","fixation","","","","","","","","","75","","",""
"revaluation","193","886633","0.0-4.0-2.0-0.38","spark_pilot_norest","12454","1","16","Male","","false","","","","","[686.9000000953674,526.2000000476837]","./assets/img/ocean/memory/32.jpg","[""ArrowUp"",""ArrowLeft""]","value training","ocean","26","{""ArrowUp,ArrowLeft"":26,""ArrowUp,ArrowRight"":10,""ArrowDown,ArrowLeft"":5,""ArrowDown,ArrowRight"":17}","true","ArrowUp,ArrowLeft","false","original","1","76","","",""
"html-keyboard-response","194","887135","0.0-4.0-2.0-1.38","spark_pilot_norest","12454","1","16","Male","","","","","","","null","<div style=""font-size:60px;"">+</div>","null","fixation","","","","","","","","","77","","",""
"revaluation","195","893141","0.0-4.0-2.0-0.39","spark_pilot_norest","12454","1","16","Male","","false","","","","","[578.5,468.09999990463257]","./assets/img/ocean/memory/37.jpg","[""ArrowUp"",""ArrowLeft""]","value training","ocean","26","{""ArrowUp,ArrowLeft"":26,""ArrowUp,ArrowRight"":10,""ArrowDown,ArrowLeft"":5,""ArrowDown,ArrowRight"":17}","true","ArrowUp,ArrowLeft","false","original","1","78","","",""
"html-keyboard-response","196","893643","0.0-4.0-2.0-1.39","spark_pilot_norest","12454","1","16","Male","","","","","","","null","<div style=""font-size:60px;"">+</div>","null","fixation","","","","","","","","","79","","",""
"revaluation","197","897646","0.0-4.0-2.0-0.40","spark_pilot_norest","12454","1","16","Male","","false","","","","","[941.5]","./assets/img/ocean/catch/3.jpg","[""spaceBar""]","value training","ocean","0","{""ArrowUp,ArrowLeft"":26,""ArrowUp,ArrowRight"":10,""ArrowDown,ArrowLeft"":5,""ArrowDown,ArrowRight"":17}","true","spaceBar","true","original","1","80","","",""
"html-keyboard-response","198","898148","0.0-4.0-2.0-1.40","spark_pilot_norest","12454","1","16","Male","","","","","","","null","<div style=""font-size:60px;"">+</div>","null","fixation","","","","","","","","","81","","",""
"revaluation","199","904155","0.0-4.0-2.0-0.41","spark_pilot_norest","12454","1","16","Male","","false","","","","","[1185.5,815.5999999046326]","./assets/img/ocean/memory/41.jpg","[""ArrowUp"",""ArrowLeft""]","value training","ocean","26","{""ArrowUp,ArrowLeft"":26,""ArrowUp,ArrowRight"":10,""ArrowDown,ArrowLeft"":5,""ArrowDown,ArrowRight"":17}","true","ArrowUp,ArrowLeft","false","original","1","82","","",""
"html-keyboard-response","200","904657","0.0-4.0-2.0-1.41","spark_pilot_norest","12454","1","16","Male","","","","","","","null","<div style=""font-size:60px;"">+</div>","null","fixation","","","","","","","","","83","","",""
"revaluation","201","910662","0.0-4.0-2.0-0.42","spark_pilot_norest","12454","1","16","Male","","false","","","","","[807.5999999046326,946.7999999523163]","./assets/img/ocean/memory/4.jpg","[""ArrowUp"",""ArrowLeft""]","value training","ocean","26","{""ArrowUp,ArrowLeft"":26,""ArrowUp,ArrowRight"":10,""ArrowDown,ArrowLeft"":5,""ArrowDown,ArrowRight"":17}","true","ArrowUp,ArrowLeft","false","original","1","84","","",""
"html-keyboard-response","202","911163","0.0-4.0-2.0-1.42","spark_pilot_norest","12454","1","16","Male","","","","","","","null","<div style=""font-size:60px;"">+</div>","null","fixation","","","","","","","","","85","","",""
"revaluation","203","917170","0.0-4.0-2.0-0.43","spark_pilot_norest","12454","1","16","Male","","false","","","","","[941.2999999523163,380.80000019073486]","./assets/img/ocean/memory/24.jpg","[""ArrowUp"",""ArrowLeft""]","value training","ocean","26","{""ArrowUp,ArrowLeft"":26,""ArrowUp,ArrowRight"":10,""ArrowDown,ArrowLeft"":5,""ArrowDown,ArrowRight"":17}","true","ArrowUp,ArrowLeft","false","original","1","86","","",""
"html-keyboard-response","204","917671","0.0-4.0-2.0-1.43","spark_pilot_norest","12454","1","16","Male","","","","","","","null","<div style=""font-size:60px;"">+</div>","null","fixation","","","","","","","","","87","","",""
"revaluation","205","923676","0.0-4.0-2.0-0.44","spark_pilot_norest","12454","1","16","Male","","false","","","","","[792.9000000953674,662.5]","./assets/img/ocean/memory/0.jpg","[""ArrowUp"",""ArrowLeft""]","value training","ocean","26","{""ArrowUp,ArrowLeft"":26,""ArrowUp,ArrowRight"":10,""ArrowDown,ArrowLeft"":5,""ArrowDown,ArrowRight"":17}","true","ArrowUp,ArrowLeft","false","original","1","88","","",""
"html-keyboard-response","206","924178","0.0-4.0-2.0-1.44","spark_pilot_norest","12454","1","16","Male","","","","","","","null","<div style=""font-size:60px;"">+</div>","null","fixation","","","","","","","","","89","","",""
"revaluation","207","930183","0.0-4.0-2.0-0.45","spark_pilot_norest","12454","1","16","Male","","false","","","","","[716.3999998569489,395.80000019073486]","./assets/img/ocean/memory/37.jpg","[""ArrowUp"",""ArrowLeft""]","value training","ocean","26","{""ArrowUp,ArrowLeft"":26,""ArrowUp,ArrowRight"":10,""ArrowDown,ArrowLeft"":5,""ArrowDown,ArrowRight"":17}","true","ArrowUp,ArrowLeft","false","original","1","90","","",""
"html-keyboard-response","208","930685","0.0-4.0-2.0-1.45","spark_pilot_norest","12454","1","16","Male","","","","","","","null","<div style=""font-size:60px;"">+</div>","null","fixation","","","","","","","","","91","","",""
"revaluation","209","936690","0.0-4.0-2.0-0.46","spark_pilot_norest","12454","1","16","Male","","false","","","","","[709.5999999046326,348.60000014305115]","./assets/img/ocean/memory/15.jpg","[""ArrowUp"",""ArrowLeft""]","value training","ocean","26","{""ArrowUp,ArrowLeft"":26,""ArrowUp,ArrowRight"":10,""ArrowDown,ArrowLeft"":5,""ArrowDown,ArrowRight"":17}","true","ArrowUp,ArrowLeft","false","original","1","92","","",""
"html-keyboard-response","210","937191","0.0-4.0-2.0-1.46","spark_pilot_norest","12454","1","16","Male","","","","","","","null","<div style=""font-size:60px;"">+</div>","null","fixation","","","","","","","","","93","","",""
"revaluation","211","941196","0.0-4.0-2.0-0.47","spark_pilot_norest","12454","1","16","Male","","false","","","","","[403]","./assets/img/ocean/catch/6.jpg","[""ArrowUp""]","value training","ocean","-10","{""ArrowUp,ArrowLeft"":26,""ArrowUp,ArrowRight"":10,""ArrowDown,ArrowLeft"":5,""ArrowDown,ArrowRight"":17}","false","ArrowUp","true","original","1","94","","",""
"html-keyboard-response","212","941698","0.0-4.0-2.0-1.47","spark_pilot_norest","12454","1","16","Male","","","","","","","null","<div style=""font-size:60px;"">+</div>","null","fixation","","","","","","","","","95","","",""
"revaluation","213","947704","0.0-4.0-2.0-0.48","spark_pilot_norest","12454","1","16","Male","","false","","","","","[718.5,366.09999990463257]","./assets/img/ocean/memory/1.jpg","[""ArrowUp"",""ArrowLeft""]","value training","ocean","26","{""ArrowUp,ArrowLeft"":26,""ArrowUp,ArrowRight"":10,""ArrowDown,ArrowLeft"":5,""ArrowDown,ArrowRight"":17}","true","ArrowUp,ArrowLeft","false","original","1","96","","",""
"html-keyboard-response","214","948206","0.0-4.0-2.0-1.48","spark_pilot_norest","12454","1","16","Male","","","","","","","null","<div style=""font-size:60px;"">+</div>","null","fixation","","","","","","","","","97","","",""
"revaluation","215","954211","0.0-4.0-2.0-0.49","spark_pilot_norest","12454","1","16","Male","","false","","","","","[778.7999999523163,518.5]","./assets/img/ocean/memory/26.jpg","[""ArrowUp"",""ArrowLeft""]","value training","ocean","26","{""ArrowUp,ArrowLeft"":26,""ArrowUp,ArrowRight"":10,""ArrowDown,ArrowLeft"":5,""ArrowDown,ArrowRight"":17}","true","ArrowUp,ArrowLeft","false","original","1","98","","",""
"html-keyboard-response","216","954713","0.0-4.0-2.0-1.49","spark_pilot_norest","12454","1","16","Male","","","","","","","null","<div style=""font-size:60px;"">+</div>","null","fixation","","","","","","","","","99","","",""
"learning-instructions","217","968918","0.0-4.0-3.0-0.0","spark_pilot_norest","12454","1","16","Male","","","","","","","1020.7999999523163","<p> Now, you will travel with a friend who will choose whether you go up or down first. </p>
            <p> On these turns, you will just see the animal that they found. You will still get to choose which chest to search for treasure.</p>","","instructions","","","","","","","","","","","",""
"revaluation","218","972950","0.0-4.0-4.0-0.0","spark_pilot_norest","12454","1","16","Male","","false","","","","","[1237.5]","./assets/img/ocean/animals/seahorse.jpg","[""ArrowLeft""]","revaluation","ocean","26","{""ArrowUp,ArrowLeft"":26,""ArrowUp,ArrowRight"":10,""ArrowDown,ArrowLeft"":5,""ArrowDown,ArrowRight"":17}","true","ArrowUp,ArrowLeft","","original","1","0","","",""
"html-keyboard-response","219","973465","0.0-4.0-4.0-1.0","spark_pilot_norest","12454","1","16","Male","","","","","","","null","<div style=""font-size:60px;"">+</div>","null","fixation","","","","","","","","","1","","",""
"revaluation","220","977487","0.0-4.0-4.0-0.1","spark_pilot_norest","12454","1","16","Male","","false","","","","","[449.2999999523163]","./assets/img/ocean/animals/octopus.jpg","[""ArrowRight""]","revaluation","ocean","17","{""ArrowUp,ArrowLeft"":26,""ArrowUp,ArrowRight"":10,""ArrowDown,ArrowLeft"":5,""ArrowDown,ArrowRight"":17}","true","ArrowDown,ArrowRight","","original","1","2","","",""
"html-keyboard-response","221","977989","0.0-4.0-4.0-1.1","spark_pilot_norest","12454","1","16","Male","","","","","","","null","<div style=""font-size:60px;"">+</div>","null","fixation","","","","","","","","","3","","",""
"revaluation","222","982008","0.0-4.0-4.0-0.2","spark_pilot_norest","12454","1","16","Male","","false","","","","","[825.3000001907349]","./assets/img/ocean/animals/octopus.jpg","[""ArrowRight""]","revaluation","ocean","17","{""ArrowUp,ArrowLeft"":26,""ArrowUp,ArrowRight"":10,""ArrowDown,ArrowLeft"":5,""ArrowDown,ArrowRight"":17}","true","ArrowDown,ArrowRight","","original","1","4","","",""
"html-keyboard-response","223","982522","0.0-4.0-4.0-1.2","spark_pilot_norest","12454","1","16","Male","","","","","","","null","<div style=""font-size:60px;"">+</div>","null","fixation","","","","","","","","","5","","",""
"revaluation","224","986544","0.0-4.0-4.0-0.3","spark_pilot_norest","12454","1","16","Male","","false","","","","","[642.2000000476837]","./assets/img/ocean/animals/octopus.jpg","[""ArrowRight""]","revaluation","ocean","17","{""ArrowUp,ArrowLeft"":26,""ArrowUp,ArrowRight"":10,""ArrowDown,ArrowLeft"":5,""ArrowDown,ArrowRight"":17}","true","ArrowDown,ArrowRight","","original","1","6","","",""
"html-keyboard-response","225","987059","0.0-4.0-4.0-1.3","spark_pilot_norest","12454","1","16","Male","","","","","","","null","<div style=""font-size:60px;"">+</div>","null","fixation","","","","","","","","","7","","",""
"revaluation","226","991093","0.0-4.0-4.0-0.4","spark_pilot_norest","12454","1","16","Male","","false","","","","","[714.7000000476837]","./assets/img/ocean/animals/octopus.jpg","[""ArrowRight""]","revaluation","ocean","17","{""ArrowUp,ArrowLeft"":26,""ArrowUp,ArrowRight"":10,""ArrowDown,ArrowLeft"":5,""ArrowDown,ArrowRight"":17}","true","ArrowDown,ArrowRight","","original","1","8","","",""
"html-keyboard-response","227","991594","0.0-4.0-4.0-1.4","spark_pilot_norest","12454","1","16","Male","","","","","","","null","<div style=""font-size:60px;"">+</div>","null","fixation","","","","","","","","","9","","",""
"revaluation","228","995613","0.0-4.0-4.0-0.5","spark_pilot_norest","12454","1","16","Male","","false","","","","","[720.1000001430511]","./assets/img/ocean/animals/octopus.jpg","[""ArrowRight""]","revaluation","ocean","17","{""ArrowUp,ArrowLeft"":26,""ArrowUp,ArrowRight"":10,""ArrowDown,ArrowLeft"":5,""ArrowDown,ArrowRight"":17}","true","ArrowDown,ArrowRight","","original","1","10","","",""
"html-keyboard-response","229","996128","0.0-4.0-4.0-1.5","spark_pilot_norest","12454","1","16","Male","","","","","","","null","<div style=""font-size:60px;"">+</div>","null","fixation","","","","","","","","","11","","",""
"revaluation","230","1000134","0.0-4.0-4.0-0.6","spark_pilot_norest","12454","1","16","Male","","false","","","","","[706.5999999046326]","./assets/img/ocean/animals/seahorse.jpg","[""ArrowLeft""]","revaluation","ocean","26","{""ArrowUp,ArrowLeft"":26,""ArrowUp,ArrowRight"":10,""ArrowDown,ArrowLeft"":5,""ArrowDown,ArrowRight"":17}","true","ArrowUp,ArrowLeft","","original","1","12","","",""
"html-keyboard-response","231","1000635","0.0-4.0-4.0-1.6","spark_pilot_norest","12454","1","16","Male","","","","","","","null","<div style=""font-size:60px;"">+</div>","null","fixation","","","","","","","","","13","","",""
"revaluation","232","1004641","0.0-4.0-4.0-0.7","spark_pilot_norest","12454","1","16","Male","","false","","","","","[819]","./assets/img/ocean/animals/octopus.jpg","[""ArrowRight""]","revaluation","ocean","17","{""ArrowUp,ArrowLeft"":26,""ArrowUp,ArrowRight"":10,""ArrowDown,ArrowLeft"":5,""ArrowDown,ArrowRight"":17}","true","ArrowDown,ArrowRight","","original","1","14","","",""
"html-keyboard-response","233","1005142","0.0-4.0-4.0-1.7","spark_pilot_norest","12454","1","16","Male","","","","","","","null","<div style=""font-size:60px;"">+</div>","null","fixation","","","","","","","","","15","","",""
"revaluation","234","1009147","0.0-4.0-4.0-0.8","spark_pilot_norest","12454","1","16","Male","","false","","","","","[813]","./assets/img/ocean/animals/seahorse.jpg","[""ArrowLeft""]","revaluation","ocean","26","{""ArrowUp,ArrowLeft"":26,""ArrowUp,ArrowRight"":10,""ArrowDown,ArrowLeft"":5,""ArrowDown,ArrowRight"":17}","true","ArrowUp,ArrowLeft","","original","1","16","","",""
"html-keyboard-response","235","1009648","0.0-4.0-4.0-1.8","spark_pilot_norest","12454","1","16","Male","","","","","","","null","<div style=""font-size:60px;"">+</div>","null","fixation","","","","","","","","","17","","",""
"revaluation","236","1013653","0.0-4.0-4.0-0.9","spark_pilot_norest","12454","1","16","Male","","false","","","","","[846.5]","./assets/img/ocean/animals/seahorse.jpg","[""ArrowLeft""]","revaluation","ocean","26","{""ArrowUp,ArrowLeft"":26,""ArrowUp,ArrowRight"":10,""ArrowDown,ArrowLeft"":5,""ArrowDown,ArrowRight"":17}","true","ArrowUp,ArrowLeft","","original","1","18","","",""
"html-keyboard-response","237","1014166","0.0-4.0-4.0-1.9","spark_pilot_norest","12454","1","16","Male","","","","","","","null","<div style=""font-size:60px;"">+</div>","null","fixation","","","","","","","","","19","","",""
"revaluation","238","1018170","0.0-4.0-4.0-0.10","spark_pilot_norest","12454","1","16","Male","","false","","","","","[498.7999999523163]","./assets/img/ocean/animals/seahorse.jpg","[""ArrowLeft""]","revaluation","ocean","26","{""ArrowUp,ArrowLeft"":26,""ArrowUp,ArrowRight"":10,""ArrowDown,ArrowLeft"":5,""ArrowDown,ArrowRight"":17}","true","ArrowUp,ArrowLeft","","original","1","20","","",""
"html-keyboard-response","239","1018672","0.0-4.0-4.0-1.10","spark_pilot_norest","12454","1","16","Male","","","","","","","null","<div style=""font-size:60px;"">+</div>","null","fixation","","","","","","","","","21","","",""
"revaluation","240","1022678","0.0-4.0-4.0-0.11","spark_pilot_norest","12454","1","16","Male","","false","","","","","[812.9000000953674]","./assets/img/ocean/animals/seahorse.jpg","[""ArrowLeft""]","revaluation","ocean","26","{""ArrowUp,ArrowLeft"":26,""ArrowUp,ArrowRight"":10,""ArrowDown,ArrowLeft"":5,""ArrowDown,ArrowRight"":17}","true","ArrowUp,ArrowLeft","","original","1","22","","",""
"html-keyboard-response","241","1023179","0.0-4.0-4.0-1.11","spark_pilot_norest","12454","1","16","Male","","","","","","","null","<div style=""font-size:60px;"">+</div>","null","fixation","","","","","","","","","23","","",""
"revaluation","242","1027184","0.0-4.0-4.0-0.12","spark_pilot_norest","12454","1","16","Male","","false","","","","","[776.2000000476837]","./assets/img/ocean/animals/octopus.jpg","[""ArrowRight""]","revaluation","ocean","17","{""ArrowUp,ArrowLeft"":26,""ArrowUp,ArrowRight"":10,""ArrowDown,ArrowLeft"":5,""ArrowDown,ArrowRight"":17}","true","ArrowDown,ArrowRight","","original","1","24","","",""
"html-keyboard-response","243","1027684","0.0-4.0-4.0-1.12","spark_pilot_norest","12454","1","16","Male","","","","","","","null","<div style=""font-size:60px;"">+</div>","null","fixation","","","","","","","","","25","","",""
"revaluation","244","1031689","0.0-4.0-4.0-0.13","spark_pilot_norest","12454","1","16","Male","","false","","","","","[660.7999999523163]","./assets/img/ocean/animals/seahorse.jpg","[""ArrowLeft""]","revaluation","ocean","26","{""ArrowUp,ArrowLeft"":26,""ArrowUp,ArrowRight"":10,""ArrowDown,ArrowLeft"":5,""ArrowDown,ArrowRight"":17}","true","ArrowUp,ArrowLeft","","original","1","26","","",""
"html-keyboard-response","245","1032192","0.0-4.0-4.0-1.13","spark_pilot_norest","12454","1","16","Male","","","","","","","null","<div style=""font-size:60px;"">+</div>","null","fixation","","","","","","","","","27","","",""
"revaluation","246","1036196","0.0-4.0-4.0-0.14","spark_pilot_norest","12454","1","16","Male","","false","","","","","[703.5]","./assets/img/ocean/animals/seahorse.jpg","[""ArrowLeft""]","revaluation","ocean","26","{""ArrowUp,ArrowLeft"":26,""ArrowUp,ArrowRight"":10,""ArrowDown,ArrowLeft"":5,""ArrowDown,ArrowRight"":17}","true","ArrowUp,ArrowLeft","","original","1","28","","",""
"html-keyboard-response","247","1036707","0.0-4.0-4.0-1.14","spark_pilot_norest","12454","1","16","Male","","","","","","","null","<div style=""font-size:60px;"">+</div>","null","fixation","","","","","","","","","29","","",""
"revaluation","248","1040712","0.0-4.0-4.0-0.15","spark_pilot_norest","12454","1","16","Male","","false","","","","","[759.4000000953674]","./assets/img/ocean/animals/seahorse.jpg","[""ArrowLeft""]","revaluation","ocean","26","{""ArrowUp,ArrowLeft"":26,""ArrowUp,ArrowRight"":10,""ArrowDown,ArrowLeft"":5,""ArrowDown,ArrowRight"":17}","true","ArrowUp,ArrowLeft","","original","1","30","","",""
"html-keyboard-response","249","1041213","0.0-4.0-4.0-1.15","spark_pilot_norest","12454","1","16","Male","","","","","","","null","<div style=""font-size:60px;"">+</div>","null","fixation","","","","","","","","","31","","",""
"revaluation","250","1045220","0.0-4.0-4.0-0.16","spark_pilot_norest","12454","1","16","Male","","false","","","","","[541.8999998569489]","./assets/img/ocean/animals/octopus.jpg","[""ArrowRight""]","revaluation","ocean","17","{""ArrowUp,ArrowLeft"":26,""ArrowUp,ArrowRight"":10,""ArrowDown,ArrowLeft"":5,""ArrowDown,ArrowRight"":17}","true","ArrowDown,ArrowRight","","original","1","32","","",""
"html-keyboard-response","251","1045721","0.0-4.0-4.0-1.16","spark_pilot_norest","12454","1","16","Male","","","","","","","null","<div style=""font-size:60px;"">+</div>","null","fixation","","","","","","","","","33","","",""
"revaluation","252","1049725","0.0-4.0-4.0-0.17","spark_pilot_norest","12454","1","16","Male","","false","","","","","[356.09999990463257]","./assets/img/ocean/animals/octopus.jpg","[""ArrowLeft""]","revaluation","ocean","5","{""ArrowUp,ArrowLeft"":26,""ArrowUp,ArrowRight"":10,""ArrowDown,ArrowLeft"":5,""ArrowDown,ArrowRight"":17}","false","ArrowDown,ArrowLeft","","original","1","34","","",""
"html-keyboard-response","253","1050226","0.0-4.0-4.0-1.17","spark_pilot_norest","12454","1","16","Male","","","","","","","null","<div style=""font-size:60px;"">+</div>","null","fixation","","","","","","","","","35","","",""
"learning-instructions","254","1058626","0.0-4.0-5.0-0.0","spark_pilot_norest","12454","1","16","Male","","","","","","","null","<p> You have almost finished this part of the game! </p>
            <p> We are going to ask you to make a few more choices. </p>","","instructions","","","","","","","","","","","",""
"learning-instructions","255","1074617","0.0-4.0-5.0-0.1","spark_pilot_norest","12454","1","16","Male","","","","","","","null","<p> First, you need to decide whether to go up or down. When you see each picture, use the arrow keys to make your choice. </p>
            <p><b>You will not see which animal you found, but try to get to the one that will give you the most treasure.</b></p>","","instructions","","","","","","","","","","","",""
"html-keyboard-response","256","1075633","0.0-4.0-6.0-0.0","spark_pilot_norest","12454","1","16","Male","","","","","","","null","<div style=""font-size:100px;color:red;"">Starting in...</div>","null","","","","","","","","","","","","",""
"html-keyboard-response","257","1076649","0.0-4.0-6.0-1.0","spark_pilot_norest","12454","1","16","Male","","","","","","","null","<div style=""font-size:200px;color:red;"">3</div>","null","","","","","","","","","","","","",""
"html-keyboard-response","258","1077663","0.0-4.0-6.0-2.0","spark_pilot_norest","12454","1","16","Male","","","","","","","null","<div style=""font-size:200px;color:red;"">2</div>","null","","","","","","","","","","","","",""
"html-keyboard-response","259","1078675","0.0-4.0-6.0-3.0","spark_pilot_norest","12454","1","16","Male","","","","","","","null","<div style=""font-size:200px;color:red;"">1</div>","null","","","","","","","","","","","","",""
"revaluation","260","1079830","0.0-4.0-7.0-0.0","spark_pilot_norest","12454","1","16","Male","","false","","","","","[1152.8999998569489]","./assets/img/ocean/test/1.jpg","[""ArrowUp""]","first stage test","ocean","0","{""ArrowUp,ArrowLeft"":26,""ArrowUp,ArrowRight"":10,""ArrowDown,ArrowLeft"":5,""ArrowDown,ArrowRight"":17}","true","ArrowUp","false","original","1","","","",""
"html-keyboard-response","261","1080343","0.0-4.0-7.0-1.0","spark_pilot_norest","12454","1","16","Male","","","","","","","null","<div style=""font-size:60px;"">+</div>","null","fixation","","","","","","","","","","","",""
"revaluation","262","1082260","0.0-4.0-7.0-0.1","spark_pilot_norest","12454","1","16","Male","","false","","","","","[1914]","./assets/img/ocean/test/0.jpg","[""ArrowUp""]","first stage test","ocean","0","{""ArrowUp,ArrowLeft"":26,""ArrowUp,ArrowRight"":10,""ArrowDown,ArrowLeft"":5,""ArrowDown,ArrowRight"":17}","true","ArrowUp","false","original","1","","","",""
"html-keyboard-response","263","1082774","0.0-4.0-7.0-1.1","spark_pilot_norest","12454","1","16","Male","","","","","","","null","<div style=""font-size:60px;"">+</div>","null","fixation","","","","","","","","","","","",""
"revaluation","264","1084100","0.0-4.0-7.0-0.2","spark_pilot_norest","12454","1","16","Male","","false","","","","","[1323.0999999046326]","./assets/img/ocean/test/3.jpg","[""ArrowUp""]","first stage test","ocean","0","{""ArrowUp,ArrowLeft"":26,""ArrowUp,ArrowRight"":10,""ArrowDown,ArrowLeft"":5,""ArrowDown,ArrowRight"":17}","true","ArrowUp","false","original","1","","","",""
"html-keyboard-response","265","1084611","0.0-4.0-7.0-1.2","spark_pilot_norest","12454","1","16","Male","","","","","","","null","<div style=""font-size:60px;"">+</div>","null","fixation","","","","","","","","","","","",""
"revaluation","266","1086229","0.0-4.0-7.0-0.3","spark_pilot_norest","12454","1","16","Male","","false","","","","","[1615.3999998569489]","./assets/img/ocean/test/2.jpg","[""ArrowUp""]","first stage test","ocean","0","{""ArrowUp,ArrowLeft"":26,""ArrowUp,ArrowRight"":10,""ArrowDown,ArrowLeft"":5,""ArrowDown,ArrowRight"":17}","true","ArrowUp","false","original","1","","","",""
"html-keyboard-response","267","1086734","0.0-4.0-7.0-1.3","spark_pilot_norest","12454","1","16","Male","","","","","","","null","<div style=""font-size:60px;"">+</div>","null","fixation","","","","","","","","","","","",""
"learning-instructions","268","1100079","0.0-4.0-8.0-0.0","spark_pilot_norest","12454","1","16","Male","","","","","","","null","<p> Now you will see the animals again and can search their chests for treasure. </p>
            <p> This time, you will not see how much treasure you earned, but you will earn more bonus money for making better choices. </p>","","instructions","","","","","","","","","","","",""
"html-keyboard-response","269","1101083","0.0-4.0-9.0-0.0","spark_pilot_norest","12454","1","16","Male","","","","","","","null","<div style=""font-size:100px;color:red;"">Starting in...</div>","null","","","","","","","","","","","","",""
"html-keyboard-response","270","1102099","0.0-4.0-9.0-1.0","spark_pilot_norest","12454","1","16","Male","","","","","","","null","<div style=""font-size:200px;color:red;"">3</div>","null","","","","","","","","","","","","",""
"html-keyboard-response","271","1103102","0.0-4.0-9.0-2.0","spark_pilot_norest","12454","1","16","Male","","","","","","","null","<div style=""font-size:200px;color:red;"">2</div>","null","","","","","","","","","","","","",""
"html-keyboard-response","272","1104119","0.0-4.0-9.0-3.0","spark_pilot_norest","12454","1","16","Male","","","","","","","null","<div style=""font-size:200px;color:red;"">1</div>","null","","","","","","","","","","","","",""
"revaluation","273","1105250","0.0-4.0-10.0-0.0","spark_pilot_norest","12454","1","16","Male","","false","","","","","[1128.0999999046326]","./assets/img/ocean/animals/seahorse.jpg","[""ArrowLeft""]","second stage test","ocean","0","{""ArrowUp,ArrowLeft"":26,""ArrowUp,ArrowRight"":10,""ArrowDown,ArrowLeft"":5,""ArrowDown,ArrowRight"":17}","true","ArrowUp,ArrowLeft","","original","1","","","",""
"html-keyboard-response","274","1105759","0.0-4.0-10.0-1.0","spark_pilot_norest","12454","1","16","Male","","","","","","","null","<div style=""font-size:60px;"">+</div>","null","fixation","","","","","","","","","","","",""
"revaluation","275","1106270","0.0-4.0-10.0-0.1","spark_pilot_norest","12454","1","16","Male","","false","","","","","[507.7000000476837]","./assets/img/ocean/animals/seahorse.jpg","[""ArrowLeft""]","second stage test","ocean","0","{""ArrowUp,ArrowLeft"":26,""ArrowUp,ArrowRight"":10,""ArrowDown,ArrowLeft"":5,""ArrowDown,ArrowRight"":17}","true","ArrowUp,ArrowLeft","","original","1","","","",""
"html-keyboard-response","276","1106777","0.0-4.0-10.0-1.1","spark_pilot_norest","12454","1","16","Male","","","","","","","null","<div style=""font-size:60px;"">+</div>","null","fixation","","","","","","","","","","","",""
"revaluation","277","1107280","0.0-4.0-10.0-0.2","spark_pilot_norest","12454","1","16","Male","","false","","","","","[499.59999990463257]","./assets/img/ocean/animals/seahorse.jpg","[""ArrowLeft""]","second stage test","ocean","0","{""ArrowUp,ArrowLeft"":26,""ArrowUp,ArrowRight"":10,""ArrowDown,ArrowLeft"":5,""ArrowDown,ArrowRight"":17}","true","ArrowUp,ArrowLeft","","original","1","","","",""
"html-keyboard-response","278","1107793","0.0-4.0-10.0-1.2","spark_pilot_norest","12454","1","16","Male","","","","","","","null","<div style=""font-size:60px;"">+</div>","null","fixation","","","","","","","","","","","",""
"revaluation","279","1108510","0.0-4.0-10.0-0.3","spark_pilot_norest","12454","1","16","Male","","false","","","","","[713]","./assets/img/ocean/animals/seahorse.jpg","[""ArrowLeft""]","second stage test","ocean","0","{""ArrowUp,ArrowLeft"":26,""ArrowUp,ArrowRight"":10,""ArrowDown,ArrowLeft"":5,""ArrowDown,ArrowRight"":17}","true","ArrowUp,ArrowLeft","","original","1","","","",""
"html-keyboard-response","280","1109011","0.0-4.0-10.0-1.3","spark_pilot_norest","12454","1","16","Male","","","","","","","null","<div style=""font-size:60px;"">+</div>","null","fixation","","","","","","","","","","","",""
"revaluation","281","1109640","0.0-4.0-10.0-0.4","spark_pilot_norest","12454","1","16","Male","","false","","","","","[625.4000000953674]","./assets/img/ocean/animals/octopus.jpg","[""ArrowRight""]","second stage test","ocean","0","{""ArrowUp,ArrowLeft"":26,""ArrowUp,ArrowRight"":10,""ArrowDown,ArrowLeft"":5,""ArrowDown,ArrowRight"":17}","true","ArrowDown,ArrowRight","","original","1","","","",""
"html-keyboard-response","282","1110145","0.0-4.0-10.0-1.4","spark_pilot_norest","12454","1","16","Male","","","","","","","null","<div style=""font-size:60px;"">+</div>","null","fixation","","","","","","","","","","","",""
"revaluation","283","1110540","0.0-4.0-10.0-0.5","spark_pilot_norest","12454","1","16","Male","","false","","","","","[391.30000019073486]","./assets/img/ocean/animals/octopus.jpg","[""ArrowRight""]","second stage test","ocean","0","{""ArrowUp,ArrowLeft"":26,""ArrowUp,ArrowRight"":10,""ArrowDown,ArrowLeft"":5,""ArrowDown,ArrowRight"":17}","true","ArrowDown,ArrowRight","","original","1","","","",""
"html-keyboard-response","284","1111043","0.0-4.0-10.0-1.5","spark_pilot_norest","12454","1","16","Male","","","","","","","null","<div style=""font-size:60px;"">+</div>","null","fixation","","","","","","","","","","","",""
"revaluation","285","1111510","0.0-4.0-10.0-0.6","spark_pilot_norest","12454","1","16","Male","","false","","","","","[463.80000019073486]","./assets/img/ocean/animals/octopus.jpg","[""ArrowRight""]","second stage test","ocean","0","{""ArrowUp,ArrowLeft"":26,""ArrowUp,ArrowRight"":10,""ArrowDown,ArrowLeft"":5,""ArrowDown,ArrowRight"":17}","true","ArrowDown,ArrowRight","","original","1","","","",""
"html-keyboard-response","286","1112013","0.0-4.0-10.0-1.6","spark_pilot_norest","12454","1","16","Male","","","","","","","null","<div style=""font-size:60px;"">+</div>","null","fixation","","","","","","","","","","","",""
"revaluation","287","1112380","0.0-4.0-10.0-0.7","spark_pilot_norest","12454","1","16","Male","","false","","","","","[363.2000000476837]","./assets/img/ocean/animals/octopus.jpg","[""ArrowRight""]","second stage test","ocean","0","{""ArrowUp,ArrowLeft"":26,""ArrowUp,ArrowRight"":10,""ArrowDown,ArrowLeft"":5,""ArrowDown,ArrowRight"":17}","true","ArrowDown,ArrowRight","","original","1","","","",""
"html-keyboard-response","288","1112881","0.0-4.0-10.0-1.7","spark_pilot_norest","12454","1","16","Male","","","","","","","null","<div style=""font-size:60px;"">+</div>","null","fixation","","","","","","","","","","","",""
"learning-instructions","289","1117201","0.0-4.0-0.1-0.2","spark_pilot_norest","12454","1","16","Male","","","","","","","1543.7999999523163","<p> This time you are searching for treasure in the <b>canyon</b>.</p>","","instructions","","","","","","","","","","","",""
"learning-instructions","290","1136265","0.0-4.0-0.1-0.3","spark_pilot_norest","12454","1","16","Male","","","","","","","1817.4000000953674","<p><b>New</b> animals with <b>new</b> treasure chests live here. You need to explore to discover where the animal with the best treasure chest is.</p>
                    <p> Like before, once you figure out which animal has the chest with the most treasure, you should try to get to that animal and select that chest! </p>","","instructions","","","","","","","","","","","",""
"learning-instructions","291","1152503","0.0-4.0-1.1-0.1","spark_pilot_norest","12454","1","16","Male","","","","","","","1515.2999999523163","<p> Remember, when you see a picture of the place, use the up and down keys to <b>find an animal</b>.</p>
            <p> When you encounter an animal, you should use the left and right keys to <b>select a treasure chest</b>.</p>
            <p> Don't forget to look out for the robber! </p>","","instructions","","","","","","","","","","","",""
"revaluation","292","1158526","0.0-4.0-2.1-0.50","spark_pilot_norest","12454","1","16","Male","","false","","","","","[1675.7000000476837,911.2000000476837]","./assets/img/canyon/memory/22.jpg","[""ArrowUp"",""ArrowLeft""]","value training","canyon","23","{""ArrowUp,ArrowLeft"":23,""ArrowUp,ArrowRight"":10,""ArrowDown,ArrowLeft"":8,""ArrowDown,ArrowRight"":30}","false","ArrowUp,ArrowLeft","false","revaluation","2","0","","",""
"html-keyboard-response","293","1159042","0.0-4.0-2.1-1.50","spark_pilot_norest","12454","1","16","Male","","","","","","","null","<div style=""font-size:60px;"">+</div>","null","fixation","","","","","","","","","1","","",""
"revaluation","294","1165068","0.0-4.0-2.1-0.51","spark_pilot_norest","12454","1","16","Male","","false","","","","","[346,512.2999999523163]","./assets/img/canyon/memory/19.jpg","[""ArrowUp"",""ArrowRight""]","value training","canyon","10","{""ArrowUp,ArrowLeft"":23,""ArrowUp,ArrowRight"":10,""ArrowDown,ArrowLeft"":8,""ArrowDown,ArrowRight"":30}","false","ArrowUp,ArrowRight","false","revaluation","2","2","","",""
"html-keyboard-response","295","1165584","0.0-4.0-2.1-1.51","spark_pilot_norest","12454","1","16","Male","","","","","","","null","<div style=""font-size:60px;"">+</div>","null","fixation","","","","","","","","","3","","",""
"revaluation","296","1171622","0.0-4.0-2.1-0.52","spark_pilot_norest","12454","1","16","Male","","false","","","","","[973.7000000476837,564.3999998569489]","./assets/img/canyon/memory/8.jpg","[""ArrowDown"",""ArrowLeft""]","value training","canyon","8","{""ArrowUp,ArrowLeft"":23,""ArrowUp,ArrowRight"":10,""ArrowDown,ArrowLeft"":8,""ArrowDown,ArrowRight"":30}","false","ArrowDown,ArrowLeft","false","revaluation","2","4","","",""
"html-keyboard-response","297","1172136","0.0-4.0-2.1-1.52","spark_pilot_norest","12454","1","16","Male","","","","","","","null","<div style=""font-size:60px;"">+</div>","null","fixation","","","","","","","","","5","","",""
"revaluation","298","1178160","0.0-4.0-2.1-0.53","spark_pilot_norest","12454","1","16","Male","","false","","","","","[462.5,496.60000014305115]","./assets/img/canyon/memory/0.jpg","[""ArrowDown"",""ArrowRight""]","value training","canyon","30","{""ArrowUp,ArrowLeft"":23,""ArrowUp,ArrowRight"":10,""ArrowDown,ArrowLeft"":8,""ArrowDown,ArrowRight"":30}","true","ArrowDown,ArrowRight","false","revaluation","2","6","","",""
"html-keyboard-response","299","1178668","0.0-4.0-2.1-1.53","spark_pilot_norest","12454","1","16","Male","","","","","","","null","<div style=""font-size:60px;"">+</div>","null","fixation","","","","","","","","","7","","",""
"revaluation","300","1184676","0.0-4.0-2.1-0.54","spark_pilot_norest","12454","1","16","Male","","false","","","","","[1009.6000001430511,397]","./assets/img/canyon/memory/26.jpg","[""ArrowDown"",""ArrowRight""]","value training","canyon","30","{""ArrowUp,ArrowLeft"":23,""ArrowUp,ArrowRight"":10,""ArrowDown,ArrowLeft"":8,""ArrowDown,ArrowRight"":30}","true","ArrowDown,ArrowRight","false","revaluation","2","8","","",""
"html-keyboard-response","301","1185177","0.0-4.0-2.1-1.54","spark_pilot_norest","12454","1","16","Male","","","","","","","null","<div style=""font-size:60px;"">+</div>","null","fixation","","","","","","","","","9","","",""
"revaluation","302","1191183","0.0-4.0-2.1-0.55","spark_pilot_norest","12454","1","16","Male","","false","","","","","[1060.7999999523163,389.80000019073486]","./assets/img/canyon/memory/14.jpg","[""ArrowDown"",""ArrowRight""]","value training","canyon","30","{""ArrowUp,ArrowLeft"":23,""ArrowUp,ArrowRight"":10,""ArrowDown,ArrowLeft"":8,""ArrowDown,ArrowRight"":30}","true","ArrowDown,ArrowRight","false","revaluation","2","10","","",""
"html-keyboard-response","303","1191684","0.0-4.0-2.1-1.55","spark_pilot_norest","12454","1","16","Male","","","","","","","null","<div style=""font-size:60px;"">+</div>","null","fixation","","","","","","","","","11","","",""
"revaluation","304","1197690","0.0-4.0-2.1-0.56","spark_pilot_norest","12454","1","16","Male","","false","","","","","[1274.5,452.7999999523163]","./assets/img/canyon/memory/20.jpg","[""ArrowDown"",""ArrowRight""]","value training","canyon","30","{""ArrowUp,ArrowLeft"":23,""ArrowUp,ArrowRight"":10,""ArrowDown,ArrowLeft"":8,""ArrowDown,ArrowRight"":30}","true","ArrowDown,ArrowRight","false","revaluation","2","12","","",""
"html-keyboard-response","305","1198192","0.0-4.0-2.1-1.56","spark_pilot_norest","12454","1","16","Male","","","","","","","null","<div style=""font-size:60px;"">+</div>","null","fixation","","","","","","","","","13","","",""
"revaluation","306","1202197","0.0-4.0-2.1-0.57","spark_pilot_norest","12454","1","16","Male","","false","","","","","[1345.9000000953674]","./assets/img/canyon/catch/1.jpg","[""spaceBar""]","value training","canyon","0","{""ArrowUp,ArrowLeft"":23,""ArrowUp,ArrowRight"":10,""ArrowDown,ArrowLeft"":8,""ArrowDown,ArrowRight"":30}","true","spaceBar","true","revaluation","2","14","","",""
"html-keyboard-response","307","1202699","0.0-4.0-2.1-1.57","spark_pilot_norest","12454","1","16","Male","","","","","","","null","<div style=""font-size:60px;"">+</div>","null","fixation","","","","","","","","","15","","",""
"revaluation","308","1208705","0.0-4.0-2.1-0.58","spark_pilot_norest","12454","1","16","Male","","false","","","","","[1328.7000000476837,317.10000014305115]","./assets/img/canyon/memory/13.jpg","[""ArrowDown"",""ArrowRight""]","value training","canyon","30","{""ArrowUp,ArrowLeft"":23,""ArrowUp,ArrowRight"":10,""ArrowDown,ArrowLeft"":8,""ArrowDown,ArrowRight"":30}","true","ArrowDown,ArrowRight","false","revaluation","2","16","","",""
"html-keyboard-response","309","1209207","0.0-4.0-2.1-1.58","spark_pilot_norest","12454","1","16","Male","","","","","","","null","<div style=""font-size:60px;"">+</div>","null","fixation","","","","","","","","","17","","",""
"revaluation","310","1215220","0.0-4.0-2.1-0.59","spark_pilot_norest","12454","1","16","Male","","false","","","","","[1050.2000000476837,449]","./assets/img/canyon/memory/26.jpg","[""ArrowDown"",""ArrowRight""]","value training","canyon","30","{""ArrowUp,ArrowLeft"":23,""ArrowUp,ArrowRight"":10,""ArrowDown,ArrowLeft"":8,""ArrowDown,ArrowRight"":30}","true","ArrowDown,ArrowRight","false","revaluation","2","18","","",""
"html-keyboard-response","311","1215723","0.0-4.0-2.1-1.59","spark_pilot_norest","12454","1","16","Male","","","","","","","null","<div style=""font-size:60px;"">+</div>","null","fixation","","","","","","","","","19","","",""
"revaluation","312","1221728","0.0-4.0-2.1-0.60","spark_pilot_norest","12454","1","16","Male","","false","","","","","[935.2000000476837,614.1000001430511]","./assets/img/canyon/memory/24.jpg","[""ArrowDown"",""ArrowRight""]","value training","canyon","30","{""ArrowUp,ArrowLeft"":23,""ArrowUp,ArrowRight"":10,""ArrowDown,ArrowLeft"":8,""ArrowDown,ArrowRight"":30}","true","ArrowDown,ArrowRight","false","revaluation","2","20","","",""
