"trial_type","trial_index","time_elapsed","internal_node_id","task_version","subject_id","assigned_condition","age","gender","success","timeout","failed_images","failed_audio","failed_video","browser_interaction","rt","stimulus","response","task_part","environment","score","rewardMap","correct","fullState","isCatch","condition","order","trial_num","key_press","ground_truth","bonus"
"pavlovia","0","3594","0.0-0.0","spark_pilot_norest","10588","4","9","Female","","","","","","","","","","","","","","","","","","","","","",""
"preload","1","47772","0.0-1.0","spark_pilot_norest","10588","4","9","Female","true","false","[]","[]","[]","[{""event"":""fullscreenenter"",""trial"":2,""time"":53765}]","","","","","","","","","","","","","","","",""
"fullscreen","2","54730","0.0-2.0","spark_pilot_norest","10588","4","9","Female","true","","","","","","","","","","","","","","","","","","","","",""
"audio-button-response","3","57060","0.0-3.0-0.0-0.0","spark_pilot_norest","10588","4","9","Female","","","","","","","2109","./assets/audio/audiotest/turtle.mp3","2","audio_test","","","","","","","","","","","",""
"learning-instructions","4","69379","0.0-3.0-1.0-0.0","spark_pilot_norest","10588","4","9","Female","","","","","","","5313.100000023842","<p> Welcome! Please remember to stay in fullscreen mode and don't click away from the experiment. </p>","","instructions","","","","","","","","","","","",""
"learning-instructions","5","79990","0.0-3.0-1.0-0.1","spark_pilot_norest","10588","4","9","Female","","","","","","","2191.800000011921","<p> Today you will be playing a game to earn treasure. </p>
            <p> At the end of the experiment, you will earn a bonus based on how much treasure you find. </p>
            <img src='./assets/img/instructions/treasure.jpg' class='instructions-image'>","","instructions","","","","","","","","","","","",""
"learning-instructions","6","90330","0.0-3.0-1.0-0.2","spark_pilot_norest","10588","4","9","Female","","","","","","","2064.5","<p> Animals have hidden treasure in treasure chests. </p>
            <p> You need to first find an animal and then choose which of their treasure chests to search. </p>
            <img src='./assets/img/space/animals/cat.jpg' class='instructions-image'>","","instructions","","","","","","","","","","","",""
"learning-instructions","7","104637","0.0-3.0-1.0-0.3","spark_pilot_norest","10588","4","9","Female","","","","","","","1141","<p> In each round, you will search for treasure in a different place. In the real game, there will be two rounds. </p>
            <p> You will begin with a separate, practice round where you will search for treasure in outer space. </p>
            <img src='./assets/img/space/0.jpg' class='instructions-image'>","","instructions","","","","","","","","","","","",""
"learning-instructions","8","118907","0.0-3.0-1.0-0.4","spark_pilot_norest","10588","4","9","Female","","","","","","","2841.5","<p> On every turn, you will see a picture of the place that you are in, but the specific image may be different each time. </p>
            <p> For example, both of these images mean you are in outer space. </p>
            <img src='./assets/img/instructions/outerspace.jpg' class='instructions-image'>","","instructions","","","","","","","","","","","",""
"learning-instructions","9","130269","0.0-3.0-1.0-0.5","spark_pilot_norest","10588","4","9","Female","","","","","","","3523.699999988079","<p> You need to decide which direction to travel in. </p>
            <p> You can choose between going <b>up or down</b> by using the arrow keys. </p>
            <img src='./assets/img/instructions/updown.jpg' class='instructions-image'>","","instructions","","","","","","","","","","","",""
"learning-instructions","10","142085","0.0-3.0-1.0-0.6","spark_pilot_norest","10588","4","9","Female","","","","","","","2987.2999999523163","<p> You will have <b>2 seconds</b> to make your choice. </p>
            <p> If you do not make a choice within 2 seconds, you will not find an animal or earn treasure. </p>
            <img src='./assets/img/instructions/2seconds.jpg' class='instructions-image'>","","instructions","","","","","","","","","","","",""
"learning-instructions","11","152003","0.0-3.0-1.0-0.7","spark_pilot_norest","10588","4","9","Female","","","","","","","2868","<p> Let’s try practicing that now! </p>
            <p> When you see a picture of the place you are in, press the <b>up</b> key to travel up. </p>
            <img src='./assets/img/instructions/pressUp.jpg' class='instructions-image'>","","instructions","","","","","","","","","","","",""
"revaluation","12","156043","0.0-3.0-2.0-0.0","spark_pilot_norest","10588","4","9","Female","","true","","","","","[]","./assets/img/space/0.jpg","[]","first stage practice","space","-5","null","null","","false","","","","","",""
"html-keyboard-response","13","156559","0.0-3.0-2.0-1.0","spark_pilot_norest","10588","4","9","Female","","","","","","","null","<div style=""font-size:60px;"">+</div>","null","fixation","","","","","","","","","","","",""
"revaluation","14","160584","0.0-3.0-2.0-0.1","spark_pilot_norest","10588","4","9","Female","","true","","","","","[]","./assets/img/space/1.jpg","[]","first stage practice","space","-5","null","null","","false","","","","","",""
"html-keyboard-response","15","161095","0.0-3.0-2.0-1.1","spark_pilot_norest","10588","4","9","Female","","","","","","","null","<div style=""font-size:60px;"">+</div>","null","fixation","","","","","","","","","","","",""
"revaluation","16","165127","0.0-3.0-2.0-0.2","spark_pilot_norest","10588","4","9","Female","","true","","","","","[]","./assets/img/space/2.jpg","[]","first stage practice","space","-5","null","null","","false","","","","","",""
"html-keyboard-response","17","165643","0.0-3.0-2.0-1.2","spark_pilot_norest","10588","4","9","Female","","","","","","","null","<div style=""font-size:60px;"">+</div>","null","fixation","","","","","","","","","","","",""
"learning-instructions","18","172101","0.0-3.0-3.0-0.0","spark_pilot_norest","10588","4","9","Female","","","","","","","1755.8999999761581","<p> Great job! Now try pressing the <b>down</b> key to travel down. </p>
            <img src='./assets/img/instructions/pressDown.jpg' class='instructions-image'>","","instructions","","","","","","","","","","","",""
"revaluation","19","176127","0.0-3.0-4.0-0.0","spark_pilot_norest","10588","4","9","Female","","true","","","","","[]","./assets/img/space/3.jpg","[]","first stage practice","space","-5","null","null","","false","","","","","",""
"html-keyboard-response","20","176635","0.0-3.0-4.0-1.0","spark_pilot_norest","10588","4","9","Female","","","","","","","null","<div style=""font-size:60px;"">+</div>","null","fixation","","","","","","","","","","","",""
"revaluation","21","180645","0.0-3.0-4.0-0.1","spark_pilot_norest","10588","4","9","Female","","true","","","","","[]","./assets/img/space/4.jpg","[]","first stage practice","space","-5","null","null","","false","","","","","",""
"html-keyboard-response","22","181152","0.0-3.0-4.0-1.1","spark_pilot_norest","10588","4","9","Female","","","","","","","null","<div style=""font-size:60px;"">+</div>","null","fixation","","","","","","","","","","","",""
"revaluation","23","185179","0.0-3.0-4.0-0.2","spark_pilot_norest","10588","4","9","Female","","false","","","","","[509.4000000357628]","./assets/img/space/5.jpg","[""ArrowDown""]","first stage practice","space","0","null","null","ArrowDown","false","","","","","",""
"html-keyboard-response","24","185692","0.0-3.0-4.0-1.2","spark_pilot_norest","10588","4","9","Female","","","","","","","null","<div style=""font-size:60px;"">+</div>","null","fixation","","","","","","","","","","","",""
"learning-instructions","25","196563","0.0-3.0-5.0-0.0","spark_pilot_norest","10588","4","9","Female","","","","","","","1015.6000000238419","<p> The animals don’t move, so the animal in the upper part of a place will stay in the upper part of a place, and the animal in the lower part of a place will stay in the lower part of a place. </p>","","instructions","","","","","","","","","","","",""
"learning-instructions","26","206829","0.0-3.0-5.0-0.1","spark_pilot_norest","10588","4","9","Female","","","","","","","1124.199999988079","<p> Each animal has two treasure chests for you to choose from. </p>
            <p> The amount of treasure in each chest can range from <b> 0 to 40 pieces.</b></p>","","instructions","","","","","","","","","","","",""
"learning-instructions","27","219688","0.0-3.0-5.0-0.2","spark_pilot_norest","10588","4","9","Female","","","","","","","1652.3999999761581","<p> You should decide which chest to search for treasure by using the <b>left</b> and <b>right</b> arrow keys. </p>
            <p><b> Pay attention to which animal is on the screen, as the animals have different treasure chests. </b></p>
            <img src='./assets/img/instructions/leftright.jpg' class='instructions-image'>","","instructions","","","","","","","","","","","",""
"learning-instructions","28","227398","0.0-3.0-5.0-0.3","spark_pilot_norest","10588","4","9","Female","","","","","","","1333.9000000357628","<p> Let’s try practicing that now. </p>
            <p> When you see an animal, choose which chest to search for treasure. </p>
            <img src='./assets/img/instructions/chooseChest.jpg' class='instructions-image'>","","instructions","","","","","","","","","","","",""
"revaluation","29","231439","0.0-3.0-6.0-0.0","spark_pilot_norest","10588","4","9","Female","","true","","","","","[]","./assets/img/space/animals/rabbit.jpg","[]","second stage practice","space","-5","{""ArrowUp,ArrowLeft"":3,""ArrowUp,ArrowRight"":36,""ArrowDown,ArrowLeft"":15,""ArrowDown,ArrowRight"":23}","false","ArrowDown","","","","","","",""
"html-keyboard-response","30","231944","0.0-3.0-6.0-1.0","spark_pilot_norest","10588","4","9","Female","","","","","","","null","<div style=""font-size:60px;"">+</div>","null","fixation","","","","","","","","","","","",""
"revaluation","31","235956","0.0-3.0-6.0-0.1","spark_pilot_norest","10588","4","9","Female","","false","","","","","[528.0999999642372]","./assets/img/space/animals/rabbit.jpg","[""ArrowRight""]","second stage practice","space","23","{""ArrowUp,ArrowLeft"":3,""ArrowUp,ArrowRight"":36,""ArrowDown,ArrowLeft"":15,""ArrowDown,ArrowRight"":23}","true","ArrowDown,ArrowRight","","","","","","",""
"html-keyboard-response","32","236458","0.0-3.0-6.0-1.1","spark_pilot_norest","10588","4","9","Female","","","","","","","null","<div style=""font-size:60px;"">+</div>","null","fixation","","","","","","","","","","","",""
"revaluation","33","240469","0.0-3.0-6.0-0.2","spark_pilot_norest","10588","4","9","Female","","false","","","","","[809.8000000119209]","./assets/img/space/animals/cat.jpg","[""ArrowRight""]","second stage practice","space","36","{""ArrowUp,ArrowLeft"":3,""ArrowUp,ArrowRight"":36,""ArrowDown,ArrowLeft"":15,""ArrowDown,ArrowRight"":23}","true","ArrowUp,ArrowRight","","","","","","",""
"html-keyboard-response","34","240982","0.0-3.0-6.0-1.2","spark_pilot_norest","10588","4","9","Female","","","","","","","null","<div style=""font-size:60px;"">+</div>","null","fixation","","","","","","","","","","","",""
"revaluation","35","245002","0.0-3.0-6.0-0.3","spark_pilot_norest","10588","4","9","Female","","false","","","","","[495.7999999523163]","./assets/img/space/animals/cat.jpg","[""ArrowLeft""]","second stage practice","space","3","{""ArrowUp,ArrowLeft"":3,""ArrowUp,ArrowRight"":36,""ArrowDown,ArrowLeft"":15,""ArrowDown,ArrowRight"":23}","false","ArrowUp,ArrowLeft","","","","","","",""
"html-keyboard-response","36","245519","0.0-3.0-6.0-1.3","spark_pilot_norest","10588","4","9","Female","","","","","","","null","<div style=""font-size:60px;"">+</div>","null","fixation","","","","","","","","","","","",""
"learning-instructions","37","264771","0.0-3.0-7.0-0.0","spark_pilot_norest","10588","4","9","Female","","","","","","","2416.5","<p> Great job. Now let’s try putting it together. </p>
            <p> On each turn, you will first see a picture to remind you of the place you are in, and you need to choose whether to go up or down. </p>
            <p> Then you will see an animal and choose which of its chests to search for treasure. </p>","","instructions","","","","","","","","","","","",""
"learning-instructions","38","273851","0.0-3.0-7.0-0.1","spark_pilot_norest","10588","4","9","Female","","","","","","","816","<p> When you choose whether to go up or down, try to go to the animal with the chest with the most treasure. </p>
            <p> Try practicing that now! </p>","","instructions","","","","","","","","","","","",""
"revaluation","39","279882","0.0-3.0-8.0-0.0","spark_pilot_norest","10588","4","9","Female","","false","","","","","[1415.699999988079,797.3999999761581]","./assets/img/space/6.jpg","[""ArrowDown"",""ArrowRight""]","full practice","space","23","{""ArrowUp,ArrowLeft"":3,""ArrowUp,ArrowRight"":36,""ArrowDown,ArrowLeft"":15,""ArrowDown,ArrowRight"":23}","false","ArrowDown,ArrowRight","false","","","","","",""
"html-keyboard-response","40","280392","0.0-3.0-8.0-1.0","spark_pilot_norest","10588","4","9","Female","","","","","","","null","<div style=""font-size:60px;"">+</div>","null","fixation","","","","","","","","","","","",""
"revaluation","41","286418","0.0-3.0-8.0-0.1","spark_pilot_norest","10588","4","9","Female","","false","","","","","[1399,858.6999999880791]","./assets/img/space/7.jpg","[""ArrowUp"",""ArrowLeft""]","full practice","space","3","{""ArrowUp,ArrowLeft"":3,""ArrowUp,ArrowRight"":36,""ArrowDown,ArrowLeft"":15,""ArrowDown,ArrowRight"":23}","false","ArrowUp,ArrowLeft","false","","","","","",""
"html-keyboard-response","42","286928","0.0-3.0-8.0-1.1","spark_pilot_norest","10588","4","9","Female","","","","","","","null","<div style=""font-size:60px;"">+</div>","null","fixation","","","","","","","","","","","",""
"revaluation","43","292966","0.0-3.0-8.0-0.2","spark_pilot_norest","10588","4","9","Female","","false","","","","","[1189.699999988079,967.0999999642372]","./assets/img/space/8.jpg","[""ArrowDown"",""ArrowLeft""]","full practice","space","15","{""ArrowUp,ArrowLeft"":3,""ArrowUp,ArrowRight"":36,""ArrowDown,ArrowLeft"":15,""ArrowDown,ArrowRight"":23}","false","ArrowDown,ArrowLeft","false","","","","","",""
"html-keyboard-response","44","293472","0.0-3.0-8.0-1.2","spark_pilot_norest","10588","4","9","Female","","","","","","","null","<div style=""font-size:60px;"">+</div>","null","fixation","","","","","","","","","","","",""
"revaluation","45","299505","0.0-3.0-8.0-0.3","spark_pilot_norest","10588","4","9","Female","","false","","","","","[895.6000000238419,293.5]","./assets/img/space/9.jpg","[""ArrowDown"",""ArrowRight""]","full practice","space","23","{""ArrowUp,ArrowLeft"":3,""ArrowUp,ArrowRight"":36,""ArrowDown,ArrowLeft"":15,""ArrowDown,ArrowRight"":23}","false","ArrowDown,ArrowRight","false","","","","","",""
"html-keyboard-response","46","300011","0.0-3.0-8.0-1.3","spark_pilot_norest","10588","4","9","Female","","","","","","","null","<div style=""font-size:60px;"">+</div>","null","fixation","","","","","","","","","","","",""
"revaluation","47","306039","0.0-3.0-8.0-0.4","spark_pilot_norest","10588","4","9","Female","","false","","","","","[831.0999999642372,388.30000001192093]","./assets/img/space/10.jpg","[""ArrowDown"",""ArrowLeft""]","full practice","space","15","{""ArrowUp,ArrowLeft"":3,""ArrowUp,ArrowRight"":36,""ArrowDown,ArrowLeft"":15,""ArrowDown,ArrowRight"":23}","false","ArrowDown,ArrowLeft","false","","","","","",""
"html-keyboard-response","48","306550","0.0-3.0-8.0-1.4","spark_pilot_norest","10588","4","9","Female","","","","","","","null","<div style=""font-size:60px;"">+</div>","null","fixation","","","","","","","","","","","",""
"learning-instructions","49","318698","0.0-3.0-9.0-0.0","spark_pilot_norest","10588","4","9","Female","","","","","","","1840","<p> One last thing: sometimes, you will see a robber. The robber can be anywhere in the picture. </p>
            <p> If you do not stop them, you will lose treasure. </p>
            <img src='./assets/img/instructions/robber.jpg' class='instructions-image'>","","instructions","","","","","","","","","","","",""
"learning-instructions","50","326541","0.0-3.0-9.0-0.1","spark_pilot_norest","10588","4","9","Female","","","","","","","673.1999999880791","<p> If you see the robber, you should <b>press the space bar</b> rather than using the arrow keys. </p>
            <p> Try practicing that now! </p>","","instructions","","","","","","","","","","","",""
"revaluation","51","330551","0.0-3.0-10.0-0.0","spark_pilot_norest","10588","4","9","Female","","false","","","","","[1422.699999988079]","./assets/img/space/catch/0.jpg","[""ArrowDown""]","catch practice","space","-10","{""ArrowUp,ArrowLeft"":3,""ArrowUp,ArrowRight"":36,""ArrowDown,ArrowLeft"":15,""ArrowDown,ArrowRight"":23}","false","ArrowDown","true","","","","","",""
"html-keyboard-response","52","331057","0.0-3.0-10.0-1.0","spark_pilot_norest","10588","4","9","Female","","","","","","","null","<div style=""font-size:60px;"">+</div>","null","fixation","","","","","","","","","","","",""
"revaluation","53","335075","0.0-3.0-10.0-0.1","spark_pilot_norest","10588","4","9","Female","","false","","","","","[1040.7000000476837]","./assets/img/space/catch/1.jpg","[""spaceBar""]","catch practice","space","0","{""ArrowUp,ArrowLeft"":3,""ArrowUp,ArrowRight"":36,""ArrowDown,ArrowLeft"":15,""ArrowDown,ArrowRight"":23}","true","spaceBar","true","","","","","",""
"html-keyboard-response","54","335579","0.0-3.0-10.0-1.1","spark_pilot_norest","10588","4","9","Female","","","","","","","null","<div style=""font-size:60px;"">+</div>","null","fixation","","","","","","","","","","","",""
"revaluation","55","339600","0.0-3.0-10.0-0.2","spark_pilot_norest","10588","4","9","Female","","false","","","","","[508.30000001192093]","./assets/img/space/catch/2.jpg","[""spaceBar""]","catch practice","space","0","{""ArrowUp,ArrowLeft"":3,""ArrowUp,ArrowRight"":36,""ArrowDown,ArrowLeft"":15,""ArrowDown,ArrowRight"":23}","true","spaceBar","true","","","","","",""
"html-keyboard-response","56","340113","0.0-3.0-10.0-1.2","spark_pilot_norest","10588","4","9","Female","","","","","","","null","<div style=""font-size:60px;"">+</div>","null","fixation","","","","","","","","","","","",""
"learning-instructions","57","346701","0.0-3.0-11.0-0.0-0.0","spark_pilot_norest","10588","4","9","Female","","","","","","","1322.8999999761581","<p> Now, you will practice a shortened version of the game to get a sense of how it all fits together. </p>","","instructions","","","","","","","","","","","",""
"learning-instructions","58","350766","0.0-3.0-11.0-0.0-0.1","spark_pilot_norest","10588","4","9","Female","","","","","","","867.3999999761581","<p>This time you are searching for treasure in outer space.</p>","","instructions","","","","","","","","","","","",""
"learning-instructions","59","366501","0.0-3.0-11.0-1.0-0.0","spark_pilot_norest","10588","4","9","Female","","","","","","","953.5","<p> Remember, when you see a picture of the place, use the up and down keys to <b>find an animal</b>.</p>
            <p> When you encounter an animal, you should use the left and right keys to <b>select a treasure chest</b>.</p>
            <p> Don't forget to look out for the robber! </p>","","instructions","","","","","","","","","","","",""
"revaluation","60","372530","0.0-3.0-11.0-2.0-0.0","spark_pilot_norest","10588","4","9","Female","","false","","","","","[1261.5,807.3999999761581]","./assets/img/space/11.jpg","[""ArrowDown"",""ArrowRight""]","practice block","space","23","{""ArrowUp,ArrowLeft"":3,""ArrowUp,ArrowRight"":36,""ArrowDown,ArrowLeft"":15,""ArrowDown,ArrowRight"":23}","false","ArrowDown,ArrowRight","false","","","","","",""
"html-keyboard-response","61","373032","0.0-3.0-11.0-2.0-1.0","spark_pilot_norest","10588","4","9","Female","","","","","","","null","<div style=""font-size:60px;"">+</div>","null","fixation","","","","","","","","","","","",""
"revaluation","62","379067","0.0-3.0-11.0-2.0-0.1","spark_pilot_norest","10588","4","9","Female","","false","","","","","[1132.199999988079,953.6999999880791]","./assets/img/space/12.jpg","[""ArrowUp"",""ArrowRight""]","practice block","space","36","{""ArrowUp,ArrowLeft"":3,""ArrowUp,ArrowRight"":36,""ArrowDown,ArrowLeft"":15,""ArrowDown,ArrowRight"":23}","true","ArrowUp,ArrowRight","false","","","","","",""
"html-keyboard-response","63","379574","0.0-3.0-11.0-2.0-1.1","spark_pilot_norest","10588","4","9","Female","","","","","","","null","<div style=""font-size:60px;"">+</div>","null","fixation","","","","","","","","","","","",""
"revaluation","64","385600","0.0-3.0-11.0-2.0-0.2","spark_pilot_norest","10588","4","9","Female","","false","","","","","[1434.5,570]","./assets/img/space/13.jpg","[""ArrowUp"",""ArrowLeft""]","practice block","space","3","{""ArrowUp,ArrowLeft"":3,""ArrowUp,ArrowRight"":36,""ArrowDown,ArrowLeft"":15,""ArrowDown,ArrowRight"":23}","false","ArrowUp,ArrowLeft","false","","","","","",""
"html-keyboard-response","65","386103","0.0-3.0-11.0-2.0-1.2","spark_pilot_norest","10588","4","9","Female","","","","","","","null","<div style=""font-size:60px;"">+</div>","null","fixation","","","","","","","","","","","",""
"revaluation","66","392136","0.0-3.0-11.0-2.0-0.3","spark_pilot_norest","10588","4","9","Female","","false","","","","","[876.6999999880791,520.0999999642372]","./assets/img/space/14.jpg","[""ArrowDown"",""ArrowRight""]","practice block","space","23","{""ArrowUp,ArrowLeft"":3,""ArrowUp,ArrowRight"":36,""ArrowDown,ArrowLeft"":15,""ArrowDown,ArrowRight"":23}","false","ArrowDown,ArrowRight","false","","","","","",""
"html-keyboard-response","67","392647","0.0-3.0-11.0-2.0-1.3","spark_pilot_norest","10588","4","9","Female","","","","","","","null","<div style=""font-size:60px;"">+</div>","null","fixation","","","","","","","","","","","",""
"revaluation","68","396667","0.0-3.0-11.0-2.0-0.4","spark_pilot_norest","10588","4","9","Female","","true","","","","","[]","./assets/img/space/11.jpg","[]","practice block","space","-5","{""ArrowUp,ArrowLeft"":3,""ArrowUp,ArrowRight"":36,""ArrowDown,ArrowLeft"":15,""ArrowDown,ArrowRight"":23}","false","","false","","","","","",""
"html-keyboard-response","69","397180","0.0-3.0-11.0-2.0-1.4","spark_pilot_norest","10588","4","9","Female","","","","","","","null","<div style=""font-size:60px;"">+</div>","null","fixation","","","","","","","","","","","",""
"revaluation","70","401227","0.0-3.0-11.0-2.0-0.5","spark_pilot_norest","10588","4","9","Female","","true","","","","","[]","./assets/img/space/12.jpg","[]","practice block","space","-5","{""ArrowUp,ArrowLeft"":3,""ArrowUp,ArrowRight"":36,""ArrowDown,ArrowLeft"":15,""ArrowDown,ArrowRight"":23}","false","","false","","","","","",""
"html-keyboard-response","71","401734","0.0-3.0-11.0-2.0-1.5","spark_pilot_norest","10588","4","9","Female","","","","","","","null","<div style=""font-size:60px;"">+</div>","null","fixation","","","","","","","","","","","",""
"revaluation","72","407757","0.0-3.0-11.0-2.0-0.6","spark_pilot_norest","10588","4","9","Female","","false","","","","","[1210,350.80000001192093]","./assets/img/space/13.jpg","[""ArrowUp"",""ArrowRight""]","practice block","space","36","{""ArrowUp,ArrowLeft"":3,""ArrowUp,ArrowRight"":36,""ArrowDown,ArrowLeft"":15,""ArrowDown,ArrowRight"":23}","true","ArrowUp,ArrowRight","false","","","","","",""
"html-keyboard-response","73","408286","0.0-3.0-11.0-2.0-1.6","spark_pilot_norest","10588","4","9","Female","","","","","","","null","<div style=""font-size:60px;"">+</div>","null","fixation","","","","","","","","","","","",""
"revaluation","74","414308","0.0-3.0-11.0-2.0-0.7","spark_pilot_norest","10588","4","9","Female","","false","","","","","[1175.3999999761581,341.5]","./assets/img/space/14.jpg","[""ArrowUp"",""ArrowRight""]","practice block","space","36","{""ArrowUp,ArrowLeft"":3,""ArrowUp,ArrowRight"":36,""ArrowDown,ArrowLeft"":15,""ArrowDown,ArrowRight"":23}","true","ArrowUp,ArrowRight","false","","","","","",""
"html-keyboard-response","75","414815","0.0-3.0-11.0-2.0-1.7","spark_pilot_norest","10588","4","9","Female","","","","","","","null","<div style=""font-size:60px;"">+</div>","null","fixation","","","","","","","","","","","",""
"revaluation","76","418841","0.0-3.0-11.0-2.0-0.8","spark_pilot_norest","10588","4","9","Female","","false","","","","","[1305.8999999761581]","./assets/img/space/catch/3.jpg","[""spaceBar""]","practice block","space","0","{""ArrowUp,ArrowLeft"":3,""ArrowUp,ArrowRight"":36,""ArrowDown,ArrowLeft"":15,""ArrowDown,ArrowRight"":23}","true","spaceBar","true","","","","","",""
"html-keyboard-response","77","419354","0.0-3.0-11.0-2.0-1.8","spark_pilot_norest","10588","4","9","Female","","","","","","","null","<div style=""font-size:60px;"">+</div>","null","fixation","","","","","","","","","","","",""
"learning-instructions","78","433617","0.0-3.0-11.0-3.0-0.0","spark_pilot_norest","10588","4","9","Female","","","","","","","1104.1000000238419","<p> Now, you will travel with a friend who will choose whether you go up or down first. </p>
            <p> On these turns, you will just see the animal that they found. You will still get to choose which chest to search for treasure.</p>","","instructions","","","","","","","","","","","",""
"revaluation","79","437631","0.0-3.0-11.0-4.0-0.0","spark_pilot_norest","10588","4","9","Female","","true","","","","","[]","./assets/img/space/animals/rabbit.jpg","[]","practice block","space","-5","{""ArrowUp,ArrowLeft"":3,""ArrowUp,ArrowRight"":36,""ArrowDown,ArrowLeft"":15,""ArrowDown,ArrowRight"":23}","false","ArrowDown","","","","","","",""
"html-keyboard-response","80","438133","0.0-3.0-11.0-4.0-1.0","spark_pilot_norest","10588","4","9","Female","","","","","","","null","<div style=""font-size:60px;"">+</div>","null","fixation","","","","","","","","","","","",""
"revaluation","81","442151","0.0-3.0-11.0-4.0-0.1","spark_pilot_norest","10588","4","9","Female","","false","","","","","[451.19999998807907]","./assets/img/space/animals/rabbit.jpg","[""ArrowRight""]","practice block","space","23","{""ArrowUp,ArrowLeft"":3,""ArrowUp,ArrowRight"":36,""ArrowDown,ArrowLeft"":15,""ArrowDown,ArrowRight"":23}","true","ArrowDown,ArrowRight","","","","","","",""
"html-keyboard-response","82","442667","0.0-3.0-11.0-4.0-1.1","spark_pilot_norest","10588","4","9","Female","","","","","","","null","<div style=""font-size:60px;"">+</div>","null","fixation","","","","","","","","","","","",""
"revaluation","83","446688","0.0-3.0-11.0-4.0-0.2","spark_pilot_norest","10588","4","9","Female","","false","","","","","[1651.2000000476837]","./assets/img/space/animals/cat.jpg","[""ArrowLeft""]","practice block","space","3","{""ArrowUp,ArrowLeft"":3,""ArrowUp,ArrowRight"":36,""ArrowDown,ArrowLeft"":15,""ArrowDown,ArrowRight"":23}","false","ArrowUp,ArrowLeft","","","","","","",""
"html-keyboard-response","84","447195","0.0-3.0-11.0-4.0-1.2","spark_pilot_norest","10588","4","9","Female","","","","","","","null","<div style=""font-size:60px;"">+</div>","null","fixation","","","","","","","","","","","",""
"revaluation","85","451216","0.0-3.0-11.0-4.0-0.3","spark_pilot_norest","10588","4","9","Female","","false","","","","","[369.19999998807907]","./assets/img/space/animals/cat.jpg","[""ArrowRight""]","practice block","space","36","{""ArrowUp,ArrowLeft"":3,""ArrowUp,ArrowRight"":36,""ArrowDown,ArrowLeft"":15,""ArrowDown,ArrowRight"":23}","true","ArrowUp,ArrowRight","","","","","","",""
"html-keyboard-response","86","451727","0.0-3.0-11.0-4.0-1.3","spark_pilot_norest","10588","4","9","Female","","","","","","","null","<div style=""font-size:60px;"">+</div>","null","fixation","","","","","","","","","","","",""
"learning-instructions","87","459873","0.0-3.0-11.0-5.0-0.0","spark_pilot_norest","10588","4","9","Female","","","","","","","null","<p> You have almost finished this part of the game! </p>
            <p> We are going to ask you to make a few more choices. </p>","","instructions","","","","","","","","","","","",""
"learning-instructions","88","475904","0.0-3.0-11.0-5.0-0.1","spark_pilot_norest","10588","4","9","Female","","","","","","","null","<p> First, you need to decide whether to go up or down. When you see each picture, use the arrow keys to make your choice. </p>
            <p><b>You will not see which animal you found, but try to get to the one that will give you the most treasure.</b></p>","","instructions","","","","","","","","","","","",""
"html-keyboard-response","89","476912","0.0-3.0-11.0-6.0-0.0","spark_pilot_norest","10588","4","9","Female","","","","","","","null","<div style=""font-size:100px;color:red;"">Starting in...</div>","null","","","","","","","","","","","","",""
"html-keyboard-response","90","477915","0.0-3.0-11.0-6.0-1.0","spark_pilot_norest","10588","4","9","Female","","","","","","","null","<div style=""font-size:200px;color:red;"">3</div>","null","","","","","","","","","","","","",""
"html-keyboard-response","91","478916","0.0-3.0-11.0-6.0-2.0","spark_pilot_norest","10588","4","9","Female","","","","","","","null","<div style=""font-size:200px;color:red;"">2</div>","null","","","","","","","","","","","","",""
"html-keyboard-response","92","479927","0.0-3.0-11.0-6.0-3.0","spark_pilot_norest","10588","4","9","Female","","","","","","","null","<div style=""font-size:200px;color:red;"">1</div>","null","","","","","","","","","","","","",""
"revaluation","93","481482","0.0-3.0-11.0-7.0","spark_pilot_norest","10588","4","9","Female","","false","","","","","[1551.5]","./assets/img/space/15.jpg","[""ArrowUp""]","practice block","space","0","{""ArrowUp,ArrowLeft"":3,""ArrowUp,ArrowRight"":36,""ArrowDown,ArrowLeft"":15,""ArrowDown,ArrowRight"":23}","true","ArrowUp","false","","","","","",""
"html-keyboard-response","94","481997","0.0-3.0-11.0-8.0","spark_pilot_norest","10588","4","9","Female","","","","","","","null","<div style=""font-size:60px;"">+</div>","null","fixation","","","","","","","","","","","",""
"learning-instructions","95","495400","0.0-3.0-11.0-9.0-0.0","spark_pilot_norest","10588","4","9","Female","","","","","","","null","<p> Now you will see the animals again and can search their chests for treasure. </p>
            <p> This time, you will not see how much treasure you earned, but you will earn more bonus money for making better choices. </p>","","instructions","","","","","","","","","","","",""
"html-keyboard-response","96","496415","0.0-3.0-11.0-10.0-0.0","spark_pilot_norest","10588","4","9","Female","","","","","","","null","<div style=""font-size:100px;color:red;"">Starting in...</div>","null","","","","","","","","","","","","",""
"html-keyboard-response","97","497428","0.0-3.0-11.0-10.0-1.0","spark_pilot_norest","10588","4","9","Female","","","","","","","null","<div style=""font-size:200px;color:red;"">3</div>","null","","","","","","","","","","","","",""
"html-keyboard-response","98","498442","0.0-3.0-11.0-10.0-2.0","spark_pilot_norest","10588","4","9","Female","","","","","","","null","<div style=""font-size:200px;color:red;"">2</div>","null","","","","","","","","","","","","",""
"html-keyboard-response","99","499444","0.0-3.0-11.0-10.0-3.0","spark_pilot_norest","10588","4","9","Female","","","","","","","null","<div style=""font-size:200px;color:red;"">1</div>","null","","","","","","","","","","","","",""
"revaluation","100","500706","0.0-3.0-11.0-11.0-0.0","spark_pilot_norest","10588","4","9","Female","","false","","","","","[1257.800000011921]","./assets/img/space/animals/cat.jpg","[""ArrowLeft""]","practice block","space","0","{""ArrowUp,ArrowLeft"":3,""ArrowUp,ArrowRight"":36,""ArrowDown,ArrowLeft"":15,""ArrowDown,ArrowRight"":23}","false","ArrowUp,ArrowLeft","","","","","","",""
"html-keyboard-response","101","501208","0.0-3.0-11.0-11.0-1.0","spark_pilot_norest","10588","4","9","Female","","","","","","","null","<div style=""font-size:60px;"">+</div>","null","fixation","","","","","","","","","","","",""
"revaluation","102","502508","0.0-3.0-11.0-11.0-0.1","spark_pilot_norest","10588","4","9","Female","","false","","","","","[1295.0999999642372]","./assets/img/space/animals/rabbit.jpg","[""ArrowLeft""]","practice block","space","0","{""ArrowUp,ArrowLeft"":3,""ArrowUp,ArrowRight"":36,""ArrowDown,ArrowLeft"":15,""ArrowDown,ArrowRight"":23}","false","ArrowDown,ArrowLeft","","","","","","",""
"html-keyboard-response","103","503018","0.0-3.0-11.0-11.0-1.1","spark_pilot_norest","10588","4","9","Female","","","","","","","null","<div style=""font-size:60px;"">+</div>","null","fixation","","","","","","","","","","","",""
"learning-instructions","104","508702","0.0-3.0-12.0-0.0","spark_pilot_norest","10588","4","9","Female","","","","","","","1100.3999999761581","<p> Before you start, we're going to ask you a few questions about how the game works. </p>","","instructions","","","","","","","","","","","",""
"comp-q","105","515863","0.0-3.0-13.0-0.0-0.0","spark_pilot_norest","10588","4","9","Female","","","","","","","1565.5","<p> <b> True or False? </b> </p>
            <p> There can be 50 pieces of treasure in a given animal's chest. </p>","1","comp_question","","","","true","","","","","","","",""
"comp-q","106","524327","0.0-3.0-13.0-0.0-1.0","spark_pilot_norest","10588","4","9","Female","","","","","","","1795.1000000238419","<p> <b> That's right! </b> The amount of treasure in each chest can range from 0 to 40 pieces. </p>","0","comp_answer","","","","","","","","","","","",""
"comp-q","107","533524","0.0-3.0-13.0-0.1-0.1","spark_pilot_norest","10588","4","9","Female","","","","","","","2070.800000011921","<p> <b> True or False? </b> </p><p> In this game, all animals have the same amount of treasure in their left and right chests. </p>","1","comp_question","","","","true","","","","","","","",""
"comp-q","108","540541","0.0-3.0-13.0-0.1-1.1","spark_pilot_norest","10588","4","9","Female","","","","","","","1778.199999988079","<p> <b> That's right! </b> Animals have different amounts of treasure in their treasure chests. </p>","0","comp_answer","","","","","","","","","","","",""
"comp-q","109","547373","0.0-3.0-13.0-0.2-0.2","spark_pilot_norest","10588","4","9","Female","","","","","","","980.5","<p> <b> True or False? </b> </p><p> The same animal will always be there if you go up in the same place. </p>","1","comp_question","","","","false","","","","","","","",""
"comp-q","110","554906","0.0-3.0-13.0-0.2-1.2","spark_pilot_norest","10588","4","9","Female","","","","","","","1224.800000011921","<p> <b>Incorrect.</b> One animal lives in the upper part and one lives in the lower part of every place. </p>","0","comp_answer","","","","","","","","","","","",""
"comp-q","111","561713","0.0-3.0-13.0-0.3-0.3","spark_pilot_norest","10588","4","9","Female","","","","","","","990.6999999880791","<p> <b> True or False? </b> </p><p> The same animal will always be there if you go up in the same place. </p>","0","comp_question","","","","true","","","","","","","",""
"comp-q","112","569623","0.0-3.0-13.0-0.3-1.3","spark_pilot_norest","10588","4","9","Female","","","","","","","1461.300000011921","<p> <b> That's right! </b> One animal lives in the upper part and one lives in the lower part of every place. </p>","0","comp_answer","","","","","","","","","","","",""
"comp-q","113","575969","0.0-3.0-13.0-0.4-0.4","spark_pilot_norest","10588","4","9","Female","","","","","","","806.3000000119209","<p> <b> True or False? </b> </p><p> If you see a different picture, it means you are in a new place. </p>","0","comp_question","","","","false","","","","","","","",""
"comp-q","114","589326","0.0-3.0-13.0-0.4-1.4","spark_pilot_norest","10588","4","9","Female","","","","","","","2252.7999999523163","<p> <b>Incorrect.</b> Lots of different images may show the same place. For example,  you may see three different images that all remind you that you are in outer space. </p>","0","comp_answer","","","","","","","","","","","",""
"comp-q","115","595769","0.0-3.0-13.0-0.5-0.5","spark_pilot_norest","10588","4","9","Female","","","","","","","936.1999999880791","<p> <b> True or False? </b> </p><p> If you see a different picture, it means you are in a new place. </p>","1","comp_question","","","","true","","","","","","","",""
"comp-q","116","609001","0.0-3.0-13.0-0.5-1.5","spark_pilot_norest","10588","4","9","Female","","","","","","","1997.5","<p> <b> That's right! </b> Lots of different images may show the same place. For example,  you may see three different images that all remind you that you are in outer space. </p>","0","comp_answer","","","","","","","","","","","",""
"learning-instructions","117","622637","0.0-3.0-14.0-0.0","spark_pilot_norest","10588","4","9","Female","","","","","","","3785.300000011921","<p> Good job. Remember to do your best because the amount of treasure you earn will be converted into bonus money. </p>
            <p> It’s time to start the real game! </p>","","instructions","","","","","","","","","","","",""
"learning-instructions","118","628678","0.0-4.0-0.0-0.0","spark_pilot_norest","10588","4","9","Female","","","","","","","3325.400000035763","<p> This time you are searching for treasure in the <b>ocean</b>.</p>","","instructions","","","","","","","","","","","",""
"learning-instructions","119","646802","0.0-4.0-0.0-0.1","spark_pilot_norest","10588","4","9","Female","","","","","","","790.1999999880791","<p><b>New</b> animals with <b>new</b> treasure chests live here. You need to explore to discover where the animal with the best treasure chest is.</p>
                    <p> Like before, once you figure out which animal has the chest with the most treasure, you should try to get to that animal and select that chest! </p>","","instructions","","","","","","","","","","","",""
"learning-instructions","120","662336","0.0-4.0-1.0-0.0","spark_pilot_norest","10588","4","9","Female","","","","","","","803.3000000119209","<p> Remember, when you see a picture of the place, use the up and down keys to <b>find an animal</b>.</p>
            <p> When you encounter an animal, you should use the left and right keys to <b>select a treasure chest</b>.</p>
            <p> Don't forget to look out for the robber! </p>","","instructions","","","","","","","","","","","",""
"revaluation","121","666362","0.0-4.0-2.0-0.0","spark_pilot_norest","10588","4","9","Female","","true","","","","","[]","./assets/img/ocean/memory/16.jpg","[]","value training","ocean","-5","{""ArrowUp,ArrowLeft"":26,""ArrowUp,ArrowRight"":10,""ArrowDown,ArrowLeft"":5,""ArrowDown,ArrowRight"":17}","false","","false","revaluation","1","0","","",""
"html-keyboard-response","122","666868","0.0-4.0-2.0-1.0","spark_pilot_norest","10588","4","9","Female","","","","","","","null","<div style=""font-size:60px;"">+</div>","null","fixation","","","","","","","","","1","","",""
"revaluation","123","670880","0.0-4.0-2.0-0.1","spark_pilot_norest","10588","4","9","Female","","true","","","","","[]","./assets/img/ocean/memory/31.jpg","[]","value training","ocean","-5","{""ArrowUp,ArrowLeft"":26,""ArrowUp,ArrowRight"":10,""ArrowDown,ArrowLeft"":5,""ArrowDown,ArrowRight"":17}","false","","false","revaluation","1","2","","",""
"html-keyboard-response","124","671387","0.0-4.0-2.0-1.1","spark_pilot_norest","10588","4","9","Female","","","","","","","null","<div style=""font-size:60px;"">+</div>","null","fixation","","","","","","","","","3","","",""
"revaluation","125","677417","0.0-4.0-2.0-0.2","spark_pilot_norest","10588","4","9","Female","","true","","","","","[757.5]","./assets/img/ocean/memory/15.jpg","[""ArrowDown""]","value training","ocean","-5","{""ArrowUp,ArrowLeft"":26,""ArrowUp,ArrowRight"":10,""ArrowDown,ArrowLeft"":5,""ArrowDown,ArrowRight"":17}","false","ArrowDown","false","revaluation","1","4","","",""
"html-keyboard-response","126","677928","0.0-4.0-2.0-1.2","spark_pilot_norest","10588","4","9","Female","","","","","","","null","<div style=""font-size:60px;"">+</div>","null","fixation","","","","","","","","","5","","",""
"revaluation","127","683954","0.0-4.0-2.0-0.3","spark_pilot_norest","10588","4","9","Female","","false","","","","","[911.3999999761581,329.5999999642372]","./assets/img/ocean/memory/40.jpg","[""ArrowDown"",""ArrowLeft""]","value training","ocean","5","{""ArrowUp,ArrowLeft"":26,""ArrowUp,ArrowRight"":10,""ArrowDown,ArrowLeft"":5,""ArrowDown,ArrowRight"":17}","false","ArrowDown,ArrowLeft","false","revaluation","1","6","","",""
"html-keyboard-response","128","684455","0.0-4.0-2.0-1.3","spark_pilot_norest","10588","4","9","Female","","","","","","","null","<div style=""font-size:60px;"">+</div>","null","fixation","","","","","","","","","7","","",""
"revaluation","129","690494","0.0-4.0-2.0-0.4","spark_pilot_norest","10588","4","9","Female","","false","","","","","[367.30000001192093,439.10000002384186]","./assets/img/ocean/memory/8.jpg","[""ArrowUp"",""ArrowRight""]","value training","ocean","10","{""ArrowUp,ArrowLeft"":26,""ArrowUp,ArrowRight"":10,""ArrowDown,ArrowLeft"":5,""ArrowDown,ArrowRight"":17}","false","ArrowUp,ArrowRight","false","revaluation","1","8","","",""
"html-keyboard-response","130","690997","0.0-4.0-2.0-1.4","spark_pilot_norest","10588","4","9","Female","","","","","","","null","<div style=""font-size:60px;"">+</div>","null","fixation","","","","","","","","","9","","",""
"revaluation","131","697032","0.0-4.0-2.0-0.5","spark_pilot_norest","10588","4","9","Female","","false","","","","","[505.60000002384186,1158.1000000238419]","./assets/img/ocean/memory/35.jpg","[""ArrowUp"",""ArrowRight""]","value training","ocean","10","{""ArrowUp,ArrowLeft"":26,""ArrowUp,ArrowRight"":10,""ArrowDown,ArrowLeft"":5,""ArrowDown,ArrowRight"":17}","false","ArrowUp,ArrowRight","false","revaluation","1","10","","",""
"html-keyboard-response","132","697539","0.0-4.0-2.0-1.5","spark_pilot_norest","10588","4","9","Female","","","","","","","null","<div style=""font-size:60px;"">+</div>","null","fixation","","","","","","","","","11","","",""
"revaluation","133","703564","0.0-4.0-2.0-0.6","spark_pilot_norest","10588","4","9","Female","","false","","","","","[1543.3999999761581,1118.5999999642372]","./assets/img/ocean/memory/29.jpg","[""ArrowDown"",""ArrowRight""]","value training","ocean","17","{""ArrowUp,ArrowLeft"":26,""ArrowUp,ArrowRight"":10,""ArrowDown,ArrowLeft"":5,""ArrowDown,ArrowRight"":17}","false","ArrowDown,ArrowRight","false","revaluation","1","12","","",""
"html-keyboard-response","134","704075","0.0-4.0-2.0-1.6","spark_pilot_norest","10588","4","9","Female","","","","","","","null","<div style=""font-size:60px;"">+</div>","null","fixation","","","","","","","","","13","","",""
"revaluation","135","708091","0.0-4.0-2.0-0.7","spark_pilot_norest","10588","4","9","Female","","false","","","","","[695.1000000238419]","./assets/img/ocean/catch/3.jpg","[""ArrowDown""]","value training","ocean","-10","{""ArrowUp,ArrowLeft"":26,""ArrowUp,ArrowRight"":10,""ArrowDown,ArrowLeft"":5,""ArrowDown,ArrowRight"":17}","false","ArrowDown","true","revaluation","1","14","","",""
"html-keyboard-response","136","708592","0.0-4.0-2.0-1.7","spark_pilot_norest","10588","4","9","Female","","","","","","","null","<div style=""font-size:60px;"">+</div>","null","fixation","","","","","","","","","15","","",""
"revaluation","137","712607","0.0-4.0-2.0-0.8","spark_pilot_norest","10588","4","9","Female","","true","","","","","[]","./assets/img/ocean/memory/18.jpg","[]","value training","ocean","-5","{""ArrowUp,ArrowLeft"":26,""ArrowUp,ArrowRight"":10,""ArrowDown,ArrowLeft"":5,""ArrowDown,ArrowRight"":17}","false","","false","revaluation","1","16","","",""
"html-keyboard-response","138","713110","0.0-4.0-2.0-1.8","spark_pilot_norest","10588","4","9","Female","","","","","","","null","<div style=""font-size:60px;"">+</div>","null","fixation","","","","","","","","","17","","",""
"revaluation","139","717130","0.0-4.0-2.0-0.9","spark_pilot_norest","10588","4","9","Female","","false","","","","","[25.899999976158142]","./assets/img/ocean/catch/1.jpg","[""ArrowDown""]","value training","ocean","-10","{""ArrowUp,ArrowLeft"":26,""ArrowUp,ArrowRight"":10,""ArrowDown,ArrowLeft"":5,""ArrowDown,ArrowRight"":17}","false","ArrowDown","true","revaluation","1","18","","",""
"html-keyboard-response","140","717639","0.0-4.0-2.0-1.9","spark_pilot_norest","10588","4","9","Female","","","","","","","null","<div style=""font-size:60px;"">+</div>","null","fixation","","","","","","","","","19","","",""
"revaluation","141","721659","0.0-4.0-2.0-0.10","spark_pilot_norest","10588","4","9","Female","","true","","","","","[]","./assets/img/ocean/memory/40.jpg","[]","value training","ocean","-5","{""ArrowUp,ArrowLeft"":26,""ArrowUp,ArrowRight"":10,""ArrowDown,ArrowLeft"":5,""ArrowDown,ArrowRight"":17}","false","","false","revaluation","1","20","","",""
"html-keyboard-response","142","722169","0.0-4.0-2.0-1.10","spark_pilot_norest","10588","4","9","Female","","","","","","","null","<div style=""font-size:60px;"">+</div>","null","fixation","","","","","","","","","21","","",""
"revaluation","143","726186","0.0-4.0-2.0-0.11","spark_pilot_norest","10588","4","9","Female","","false","","","","","[419.80000001192093]","./assets/img/ocean/catch/6.jpg","[""ArrowDown""]","value training","ocean","-10","{""ArrowUp,ArrowLeft"":26,""ArrowUp,ArrowRight"":10,""ArrowDown,ArrowLeft"":5,""ArrowDown,ArrowRight"":17}","false","ArrowDown","true","revaluation","1","22","","",""
"html-keyboard-response","144","726693","0.0-4.0-2.0-1.11","spark_pilot_norest","10588","4","9","Female","","","","","","","null","<div style=""font-size:60px;"">+</div>","null","fixation","","","","","","","","","23","","",""
"revaluation","145","732727","0.0-4.0-2.0-0.12","spark_pilot_norest","10588","4","9","Female","","true","","","","","[803.8000000119209]","./assets/img/ocean/memory/36.jpg","[""ArrowDown""]","value training","ocean","-5","{""ArrowUp,ArrowLeft"":26,""ArrowUp,ArrowRight"":10,""ArrowDown,ArrowLeft"":5,""ArrowDown,ArrowRight"":17}","false","ArrowDown","false","revaluation","1","24","","",""
"html-keyboard-response","146","733237","0.0-4.0-2.0-1.12","spark_pilot_norest","10588","4","9","Female","","","","","","","null","<div style=""font-size:60px;"">+</div>","null","fixation","","","","","","","","","25","","",""
"revaluation","147","739270","0.0-4.0-2.0-0.13","spark_pilot_norest","10588","4","9","Female","","false","","","","","[1309.699999988079,393.19999998807907]","./assets/img/ocean/memory/31.jpg","[""ArrowDown"",""ArrowRight""]","value training","ocean","17","{""ArrowUp,ArrowLeft"":26,""ArrowUp,ArrowRight"":10,""ArrowDown,ArrowLeft"":5,""ArrowDown,ArrowRight"":17}","false","ArrowDown,ArrowRight","false","revaluation","1","26","","",""
"html-keyboard-response","148","739779","0.0-4.0-2.0-1.13","spark_pilot_norest","10588","4","9","Female","","","","","","","null","<div style=""font-size:60px;"">+</div>","null","fixation","","","","","","","","","27","","",""
"revaluation","149","745798","0.0-4.0-2.0-0.14","spark_pilot_norest","10588","4","9","Female","","false","","","","","[1083.800000011921,739.6000000238419]","./assets/img/ocean/memory/38.jpg","[""ArrowDown"",""ArrowRight""]","value training","ocean","17","{""ArrowUp,ArrowLeft"":26,""ArrowUp,ArrowRight"":10,""ArrowDown,ArrowLeft"":5,""ArrowDown,ArrowRight"":17}","false","ArrowDown,ArrowRight","false","revaluation","1","28","","",""
"html-keyboard-response","150","746311","0.0-4.0-2.0-1.14","spark_pilot_norest","10588","4","9","Female","","","","","","","null","<div style=""font-size:60px;"">+</div>","null","fixation","","","","","","","","","29","","",""
"revaluation","151","752352","0.0-4.0-2.0-0.15","spark_pilot_norest","10588","4","9","Female","","false","","","","","[1252,583.8999999761581]","./assets/img/ocean/memory/29.jpg","[""ArrowDown"",""ArrowRight""]","value training","ocean","17","{""ArrowUp,ArrowLeft"":26,""ArrowUp,ArrowRight"":10,""ArrowDown,ArrowLeft"":5,""ArrowDown,ArrowRight"":17}","false","ArrowDown,ArrowRight","false","revaluation","1","30","","",""
"html-keyboard-response","152","752899","0.0-4.0-2.0-1.15","spark_pilot_norest","10588","4","9","Female","","","","","","","null","<div style=""font-size:60px;"">+</div>","null","fixation","","","","","","","","","31","","",""
"revaluation","153","758951","0.0-4.0-2.0-0.16","spark_pilot_norest","10588","4","9","Female","","false","","","","","[667.6999999880791,1130.2999999523163]","./assets/img/ocean/memory/9.jpg","[""ArrowDown"",""ArrowRight""]","value training","ocean","17","{""ArrowUp,ArrowLeft"":26,""ArrowUp,ArrowRight"":10,""ArrowDown,ArrowLeft"":5,""ArrowDown,ArrowRight"":17}","false","ArrowDown,ArrowRight","false","revaluation","1","32","","",""
"html-keyboard-response","154","759457","0.0-4.0-2.0-1.16","spark_pilot_norest","10588","4","9","Female","","","","","","","null","<div style=""font-size:60px;"">+</div>","null","fixation","","","","","","","","","33","","",""
"revaluation","155","765491","0.0-4.0-2.0-0.17","spark_pilot_norest","10588","4","9","Female","","false","","","","","[1573.5,883.9000000357628]","./assets/img/ocean/memory/2.jpg","[""ArrowUp"",""ArrowRight""]","value training","ocean","10","{""ArrowUp,ArrowLeft"":26,""ArrowUp,ArrowRight"":10,""ArrowDown,ArrowLeft"":5,""ArrowDown,ArrowRight"":17}","false","ArrowUp,ArrowRight","false","revaluation","1","34","","",""
"html-keyboard-response","156","765997","0.0-4.0-2.0-1.17","spark_pilot_norest","10588","4","9","Female","","","","","","","null","<div style=""font-size:60px;"">+</div>","null","fixation","","","","","","","","","35","","",""
"revaluation","157","772024","0.0-4.0-2.0-0.18","spark_pilot_norest","10588","4","9","Female","","false","","","","","[1309.2999999523163,905]","./assets/img/ocean/memory/9.jpg","[""ArrowDown"",""ArrowRight""]","value training","ocean","17","{""ArrowUp,ArrowLeft"":26,""ArrowUp,ArrowRight"":10,""ArrowDown,ArrowLeft"":5,""ArrowDown,ArrowRight"":17}","false","ArrowDown,ArrowRight","false","revaluation","1","36","","",""
"html-keyboard-response","158","772538","0.0-4.0-2.0-1.18","spark_pilot_norest","10588","4","9","Female","","","","","","","null","<div style=""font-size:60px;"">+</div>","null","fixation","","","","","","","","","37","","",""
"revaluation","159","778579","0.0-4.0-2.0-0.19","spark_pilot_norest","10588","4","9","Female","","false","","","","","[920.6000000238419,358.30000001192093]","./assets/img/ocean/memory/32.jpg","[""ArrowDown"",""ArrowRight""]","value training","ocean","17","{""ArrowUp,ArrowLeft"":26,""ArrowUp,ArrowRight"":10,""ArrowDown,ArrowLeft"":5,""ArrowDown,ArrowRight"":17}","false","ArrowDown,ArrowRight","false","revaluation","1","38","","",""
"html-keyboard-response","160","779084","0.0-4.0-2.0-1.19","spark_pilot_norest","10588","4","9","Female","","","","","","","null","<div style=""font-size:60px;"">+</div>","null","fixation","","","","","","","","","39","","",""
"revaluation","161","785134","0.0-4.0-2.0-0.20","spark_pilot_norest","10588","4","9","Female","","false","","","","","[548.8000000119209,429]","./assets/img/ocean/memory/12.jpg","[""ArrowDown"",""ArrowRight""]","value training","ocean","17","{""ArrowUp,ArrowLeft"":26,""ArrowUp,ArrowRight"":10,""ArrowDown,ArrowLeft"":5,""ArrowDown,ArrowRight"":17}","false","ArrowDown,ArrowRight","false","revaluation","1","40","","",""
"html-keyboard-response","162","785647","0.0-4.0-2.0-1.20","spark_pilot_norest","10588","4","9","Female","","","","","","","null","<div style=""font-size:60px;"">+</div>","null","fixation","","","","","","","","","41","","",""
"revaluation","163","791682","0.0-4.0-2.0-0.21","spark_pilot_norest","10588","4","9","Female","","false","","","","","[656.4000000357628,492.9000000357628]","./assets/img/ocean/memory/11.jpg","[""ArrowDown"",""ArrowRight""]","value training","ocean","17","{""ArrowUp,ArrowLeft"":26,""ArrowUp,ArrowRight"":10,""ArrowDown,ArrowLeft"":5,""ArrowDown,ArrowRight"":17}","false","ArrowDown,ArrowRight","false","revaluation","1","42","","",""
"html-keyboard-response","164","792195","0.0-4.0-2.0-1.21","spark_pilot_norest","10588","4","9","Female","","","","","","","null","<div style=""font-size:60px;"">+</div>","null","fixation","","","","","","","","","43","","",""
"revaluation","165","798251","0.0-4.0-2.0-0.22","spark_pilot_norest","10588","4","9","Female","","false","","","","","[982.1000000238419,1097.199999988079]","./assets/img/ocean/memory/38.jpg","[""ArrowUp"",""ArrowLeft""]","value training","ocean","26","{""ArrowUp,ArrowLeft"":26,""ArrowUp,ArrowRight"":10,""ArrowDown,ArrowLeft"":5,""ArrowDown,ArrowRight"":17}","true","ArrowUp,ArrowLeft","false","revaluation","1","44","","",""
"html-keyboard-response","166","798759","0.0-4.0-2.0-1.22","spark_pilot_norest","10588","4","9","Female","","","","","","","null","<div style=""font-size:60px;"">+</div>","null","fixation","","","","","","","","","45","","",""
"revaluation","167","802770","0.0-4.0-2.0-0.23","spark_pilot_norest","10588","4","9","Female","","false","","","","","[873.3000000119209]","./assets/img/ocean/catch/5.jpg","[""ArrowUp""]","value training","ocean","-10","{""ArrowUp,ArrowLeft"":26,""ArrowUp,ArrowRight"":10,""ArrowDown,ArrowLeft"":5,""ArrowDown,ArrowRight"":17}","false","ArrowUp","true","revaluation","1","46","","",""
"html-keyboard-response","168","803282","0.0-4.0-2.0-1.23","spark_pilot_norest","10588","4","9","Female","","","","","","","null","<div style=""font-size:60px;"">+</div>","null","fixation","","","","","","","","","47","","",""
"revaluation","169","809308","0.0-4.0-2.0-0.24","spark_pilot_norest","10588","4","9","Female","","false","","","","","[1534.9000000357628,905.3999999761581]","./assets/img/ocean/memory/12.jpg","[""ArrowUp"",""ArrowLeft""]","value training","ocean","26","{""ArrowUp,ArrowLeft"":26,""ArrowUp,ArrowRight"":10,""ArrowDown,ArrowLeft"":5,""ArrowDown,ArrowRight"":17}","true","ArrowUp,ArrowLeft","false","revaluation","1","48","","",""
"html-keyboard-response","170","809815","0.0-4.0-2.0-1.24","spark_pilot_norest","10588","4","9","Female","","","","","","","null","<div style=""font-size:60px;"">+</div>","null","fixation","","","","","","","","","49","","",""
"revaluation","171","815837","0.0-4.0-2.0-0.25","spark_pilot_norest","10588","4","9","Female","","false","","","","","[1070.7000000476837,1308.0999999642372]","./assets/img/ocean/memory/22.jpg","[""ArrowUp"",""ArrowLeft""]","value training","ocean","26","{""ArrowUp,ArrowLeft"":26,""ArrowUp,ArrowRight"":10,""ArrowDown,ArrowLeft"":5,""ArrowDown,ArrowRight"":17}","true","ArrowUp,ArrowLeft","false","revaluation","1","50","","",""
"html-keyboard-response","172","816375","0.0-4.0-2.0-1.25","spark_pilot_norest","10588","4","9","Female","","","","","","","null","<div style=""font-size:60px;"">+</div>","null","fixation","","","","","","","","","51","","",""
"revaluation","173","822397","0.0-4.0-2.0-0.26","spark_pilot_norest","10588","4","9","Female","","false","","","","","[825,679.5]","./assets/img/ocean/memory/8.jpg","[""ArrowUp"",""ArrowLeft""]","value training","ocean","26","{""ArrowUp,ArrowLeft"":26,""ArrowUp,ArrowRight"":10,""ArrowDown,ArrowLeft"":5,""ArrowDown,ArrowRight"":17}","true","ArrowUp,ArrowLeft","false","revaluation","1","52","","",""
"html-keyboard-response","174","822910","0.0-4.0-2.0-1.26","spark_pilot_norest","10588","4","9","Female","","","","","","","null","<div style=""font-size:60px;"">+</div>","null","fixation","","","","","","","","","53","","",""
"revaluation","175","828937","0.0-4.0-2.0-0.27","spark_pilot_norest","10588","4","9","Female","","false","","","","","[1158.5,568.0999999642372]","./assets/img/ocean/memory/35.jpg","[""ArrowUp"",""ArrowLeft""]","value training","ocean","26","{""ArrowUp,ArrowLeft"":26,""ArrowUp,ArrowRight"":10,""ArrowDown,ArrowLeft"":5,""ArrowDown,ArrowRight"":17}","true","ArrowUp,ArrowLeft","false","revaluation","1","54","","",""
"html-keyboard-response","176","829448","0.0-4.0-2.0-1.27","spark_pilot_norest","10588","4","9","Female","","","","","","","null","<div style=""font-size:60px;"">+</div>","null","fixation","","","","","","","","","55","","",""
"revaluation","177","835510","0.0-4.0-2.0-0.28","spark_pilot_norest","10588","4","9","Female","","false","","","","","[847.5,401.9000000357628]","./assets/img/ocean/memory/28.jpg","[""ArrowUp"",""ArrowLeft""]","value training","ocean","26","{""ArrowUp,ArrowLeft"":26,""ArrowUp,ArrowRight"":10,""ArrowDown,ArrowLeft"":5,""ArrowDown,ArrowRight"":17}","true","ArrowUp,ArrowLeft","false","revaluation","1","56","","",""
"html-keyboard-response","178","836019","0.0-4.0-2.0-1.28","spark_pilot_norest","10588","4","9","Female","","","","","","","null","<div style=""font-size:60px;"">+</div>","null","fixation","","","","","","","","","57","","",""
"revaluation","179","840039","0.0-4.0-2.0-0.29","spark_pilot_norest","10588","4","9","Female","","false","","","","","[1092.6000000238419]","./assets/img/ocean/catch/2.jpg","[""spaceBar""]","value training","ocean","0","{""ArrowUp,ArrowLeft"":26,""ArrowUp,ArrowRight"":10,""ArrowDown,ArrowLeft"":5,""ArrowDown,ArrowRight"":17}","true","spaceBar","true","revaluation","1","58","","",""
"html-keyboard-response","180","840542","0.0-4.0-2.0-1.29","spark_pilot_norest","10588","4","9","Female","","","","","","","null","<div style=""font-size:60px;"">+</div>","null","fixation","","","","","","","","","59","","",""
"revaluation","181","846570","0.0-4.0-2.0-0.30","spark_pilot_norest","10588","4","9","Female","","false","","","","","[1988.199999988079,916.8000000119209]","./assets/img/ocean/memory/15.jpg","[""ArrowUp"",""ArrowLeft""]","value training","ocean","26","{""ArrowUp,ArrowLeft"":26,""ArrowUp,ArrowRight"":10,""ArrowDown,ArrowLeft"":5,""ArrowDown,ArrowRight"":17}","true","ArrowUp,ArrowLeft","false","revaluation","1","60","","",""
"html-keyboard-response","182","847073","0.0-4.0-2.0-1.30","spark_pilot_norest","10588","4","9","Female","","","","","","","null","<div style=""font-size:60px;"">+</div>","null","fixation","","","","","","","","","61","","",""
"revaluation","183","853092","0.0-4.0-2.0-0.31","spark_pilot_norest","10588","4","9","Female","","false","","","","","[1288.5,379.80000001192093]","./assets/img/ocean/memory/36.jpg","[""ArrowUp"",""ArrowLeft""]","value training","ocean","26","{""ArrowUp,ArrowLeft"":26,""ArrowUp,ArrowRight"":10,""ArrowDown,ArrowLeft"":5,""ArrowDown,ArrowRight"":17}","true","ArrowUp,ArrowLeft","false","revaluation","1","62","","",""
"html-keyboard-response","184","853634","0.0-4.0-2.0-1.31","spark_pilot_norest","10588","4","9","Female","","","","","","","null","<div style=""font-size:60px;"">+</div>","null","fixation","","","","","","","","","63","","",""
"revaluation","185","859661","0.0-4.0-2.0-0.32","spark_pilot_norest","10588","4","9","Female","","false","","","","","[518.0999999642372,404.5]","./assets/img/ocean/memory/28.jpg","[""ArrowUp"",""ArrowLeft""]","value training","ocean","26","{""ArrowUp,ArrowLeft"":26,""ArrowUp,ArrowRight"":10,""ArrowDown,ArrowLeft"":5,""ArrowDown,ArrowRight"":17}","true","ArrowUp,ArrowLeft","false","revaluation","1","64","","",""
"html-keyboard-response","186","860163","0.0-4.0-2.0-1.32","spark_pilot_norest","10588","4","9","Female","","","","","","","null","<div style=""font-size:60px;"">+</div>","null","fixation","","","","","","","","","65","","",""
"revaluation","187","866184","0.0-4.0-2.0-0.33","spark_pilot_norest","10588","4","9","Female","","true","","","","","[1076.800000011921]","./assets/img/ocean/memory/14.jpg","[""ArrowUp""]","value training","ocean","-5","{""ArrowUp,ArrowLeft"":26,""ArrowUp,ArrowRight"":10,""ArrowDown,ArrowLeft"":5,""ArrowDown,ArrowRight"":17}","false","ArrowUp","false","revaluation","1","66","","",""
"html-keyboard-response","188","866707","0.0-4.0-2.0-1.33","spark_pilot_norest","10588","4","9","Female","","","","","","","null","<div style=""font-size:60px;"">+</div>","null","fixation","","","","","","","","","67","","",""
"revaluation","189","872740","0.0-4.0-2.0-0.34","spark_pilot_norest","10588","4","9","Female","","false","","","","","[729.1999999880791,804.4000000357628]","./assets/img/ocean/memory/5.jpg","[""ArrowUp"",""ArrowLeft""]","value training","ocean","26","{""ArrowUp,ArrowLeft"":26,""ArrowUp,ArrowRight"":10,""ArrowDown,ArrowLeft"":5,""ArrowDown,ArrowRight"":17}","true","ArrowUp,ArrowLeft","false","revaluation","1","68","","",""
"html-keyboard-response","190","873254","0.0-4.0-2.0-1.34","spark_pilot_norest","10588","4","9","Female","","","","","","","null","<div style=""font-size:60px;"">+</div>","null","fixation","","","","","","","","","69","","",""
"revaluation","191","877274","0.0-4.0-2.0-0.35","spark_pilot_norest","10588","4","9","Female","","false","","","","","[1605.7000000476837]","./assets/img/ocean/catch/4.jpg","[""spaceBar""]","value training","ocean","0","{""ArrowUp,ArrowLeft"":26,""ArrowUp,ArrowRight"":10,""ArrowDown,ArrowLeft"":5,""ArrowDown,ArrowRight"":17}","true","spaceBar","true","revaluation","1","70","","",""
"html-keyboard-response","192","877785","0.0-4.0-2.0-1.35","spark_pilot_norest","10588","4","9","Female","","","","","","","null","<div style=""font-size:60px;"">+</div>","null","fixation","","","","","","","","","71","","",""
"revaluation","193","883799","0.0-4.0-2.0-0.36","spark_pilot_norest","10588","4","9","Female","","false","","","","","[1239.3999999761581,383.5999999642372]","./assets/img/ocean/memory/18.jpg","[""ArrowUp"",""ArrowLeft""]","value training","ocean","26","{""ArrowUp,ArrowLeft"":26,""ArrowUp,ArrowRight"":10,""ArrowDown,ArrowLeft"":5,""ArrowDown,ArrowRight"":17}","true","ArrowUp,ArrowLeft","false","revaluation","1","72","","",""
"html-keyboard-response","194","884304","0.0-4.0-2.0-1.36","spark_pilot_norest","10588","4","9","Female","","","","","","","null","<div style=""font-size:60px;"">+</div>","null","fixation","","","","","","","","","73","","",""
"revaluation","195","890347","0.0-4.0-2.0-0.37","spark_pilot_norest","10588","4","9","Female","","false","","","","","[787.3000000119209,405.5]","./assets/img/ocean/memory/34.jpg","[""ArrowUp"",""ArrowLeft""]","value training","ocean","26","{""ArrowUp,ArrowLeft"":26,""ArrowUp,ArrowRight"":10,""ArrowDown,ArrowLeft"":5,""ArrowDown,ArrowRight"":17}","true","ArrowUp,ArrowLeft","false","revaluation","1","74","","",""
"html-keyboard-response","196","890856","0.0-4.0-2.0-1.37","spark_pilot_norest","10588","4","9","Female","","","","","","","null","<div style=""font-size:60px;"">+</div>","null","fixation","","","","","","","","","75","","",""
"revaluation","197","896883","0.0-4.0-2.0-0.38","spark_pilot_norest","10588","4","9","Female","","false","","","","","[1315.5999999642372,515.1999999880791]","./assets/img/ocean/memory/5.jpg","[""ArrowUp"",""ArrowLeft""]","value training","ocean","26","{""ArrowUp,ArrowLeft"":26,""ArrowUp,ArrowRight"":10,""ArrowDown,ArrowLeft"":5,""ArrowDown,ArrowRight"":17}","true","ArrowUp,ArrowLeft","false","revaluation","1","76","","",""
"html-keyboard-response","198","897402","0.0-4.0-2.0-1.38","spark_pilot_norest","10588","4","9","Female","","","","","","","null","<div style=""font-size:60px;"">+</div>","null","fixation","","","","","","","","","77","","",""
"revaluation","199","903425","0.0-4.0-2.0-0.39","spark_pilot_norest","10588","4","9","Female","","false","","","","","[861.6000000238419,679.6999999880791]","./assets/img/ocean/memory/14.jpg","[""ArrowUp"",""ArrowLeft""]","value training","ocean","26","{""ArrowUp,ArrowLeft"":26,""ArrowUp,ArrowRight"":10,""ArrowDown,ArrowLeft"":5,""ArrowDown,ArrowRight"":17}","true","ArrowUp,ArrowLeft","false","revaluation","1","78","","",""
"html-keyboard-response","200","903937","0.0-4.0-2.0-1.39","spark_pilot_norest","10588","4","9","Female","","","","","","","null","<div style=""font-size:60px;"">+</div>","null","fixation","","","","","","","","","79","","",""
"revaluation","201","909961","0.0-4.0-2.0-0.40","spark_pilot_norest","10588","4","9","Female","","false","","","","","[1089.5999999642372,876.1000000238419]","./assets/img/ocean/memory/34.jpg","[""ArrowUp"",""ArrowLeft""]","value training","ocean","26","{""ArrowUp,ArrowLeft"":26,""ArrowUp,ArrowRight"":10,""ArrowDown,ArrowLeft"":5,""ArrowDown,ArrowRight"":17}","true","ArrowUp,ArrowLeft","false","revaluation","1","80","","",""
"html-keyboard-response","202","910475","0.0-4.0-2.0-1.40","spark_pilot_norest","10588","4","9","Female","","","","","","","null","<div style=""font-size:60px;"">+</div>","null","fixation","","","","","","","","","81","","",""
"revaluation","203","916511","0.0-4.0-2.0-0.41","spark_pilot_norest","10588","4","9","Female","","false","","","","","[884.6000000238419,562.5]","./assets/img/ocean/memory/11.jpg","[""ArrowUp"",""ArrowLeft""]","value training","ocean","26","{""ArrowUp,ArrowLeft"":26,""ArrowUp,ArrowRight"":10,""ArrowDown,ArrowLeft"":5,""ArrowDown,ArrowRight"":17}","true","ArrowUp,ArrowLeft","false","revaluation","1","82","","",""
"html-keyboard-response","204","917018","0.0-4.0-2.0-1.41","spark_pilot_norest","10588","4","9","Female","","","","","","","null","<div style=""font-size:60px;"">+</div>","null","fixation","","","","","","","","","83","","",""
"revaluation","205","921040","0.0-4.0-2.0-0.42","spark_pilot_norest","10588","4","9","Female","","false","","","","","[1033.1000000238419]","./assets/img/ocean/catch/7.jpg","[""spaceBar""]","value training","ocean","0","{""ArrowUp,ArrowLeft"":26,""ArrowUp,ArrowRight"":10,""ArrowDown,ArrowLeft"":5,""ArrowDown,ArrowRight"":17}","true","spaceBar","true","revaluation","1","84","","",""
"html-keyboard-response","206","921546","0.0-4.0-2.0-1.42","spark_pilot_norest","10588","4","9","Female","","","","","","","null","<div style=""font-size:60px;"">+</div>","null","fixation","","","","","","","","","85","","",""
"revaluation","207","927573","0.0-4.0-2.0-0.43","spark_pilot_norest","10588","4","9","Female","","false","","","","","[981.1999999880791,573.5]","./assets/img/ocean/memory/22.jpg","[""ArrowUp"",""ArrowLeft""]","value training","ocean","26","{""ArrowUp,ArrowLeft"":26,""ArrowUp,ArrowRight"":10,""ArrowDown,ArrowLeft"":5,""ArrowDown,ArrowRight"":17}","true","ArrowUp,ArrowLeft","false","revaluation","1","86","","",""
"html-keyboard-response","208","928079","0.0-4.0-2.0-1.43","spark_pilot_norest","10588","4","9","Female","","","","","","","null","<div style=""font-size:60px;"">+</div>","null","fixation","","","","","","","","","87","","",""
"revaluation","209","934103","0.0-4.0-2.0-0.44","spark_pilot_norest","10588","4","9","Female","","false","","","","","[493.30000001192093,961.1999999880791]","./assets/img/ocean/memory/2.jpg","[""ArrowUp"",""ArrowLeft""]","value training","ocean","26","{""ArrowUp,ArrowLeft"":26,""ArrowUp,ArrowRight"":10,""ArrowDown,ArrowLeft"":5,""ArrowDown,ArrowRight"":17}","true","ArrowUp,ArrowLeft","false","revaluation","1","88","","",""
"html-keyboard-response","210","934611","0.0-4.0-2.0-1.44","spark_pilot_norest","10588","4","9","Female","","","","","","","null","<div style=""font-size:60px;"">+</div>","null","fixation","","","","","","","","","89","","",""
"revaluation","211","940625","0.0-4.0-2.0-0.45","spark_pilot_norest","10588","4","9","Female","","true","","","","","[923.9000000357628]","./assets/img/ocean/memory/1.jpg","[""ArrowUp""]","value training","ocean","-5","{""ArrowUp,ArrowLeft"":26,""ArrowUp,ArrowRight"":10,""ArrowDown,ArrowLeft"":5,""ArrowDown,ArrowRight"":17}","false","ArrowUp","false","revaluation","1","90","","",""
"html-keyboard-response","212","941137","0.0-4.0-2.0-1.45","spark_pilot_norest","10588","4","9","Female","","","","","","","null","<div style=""font-size:60px;"">+</div>","null","fixation","","","","","","","","","91","","",""
"revaluation","213","947157","0.0-4.0-2.0-0.46","spark_pilot_norest","10588","4","9","Female","","false","","","","","[1041.5,661]","./assets/img/ocean/memory/32.jpg","[""ArrowUp"",""ArrowLeft""]","value training","ocean","26","{""ArrowUp,ArrowLeft"":26,""ArrowUp,ArrowRight"":10,""ArrowDown,ArrowLeft"":5,""ArrowDown,ArrowRight"":17}","true","ArrowUp,ArrowLeft","false","revaluation","1","92","","",""
"html-keyboard-response","214","947681","0.0-4.0-2.0-1.46","spark_pilot_norest","10588","4","9","Female","","","","","","","null","<div style=""font-size:60px;"">+</div>","null","fixation","","","","","","","","","93","","",""
"revaluation","215","953708","0.0-4.0-2.0-0.47","spark_pilot_norest","10588","4","9","Female","","false","","","","","[772.3999999761581,321.10000002384186]","./assets/img/ocean/memory/1.jpg","[""ArrowUp"",""ArrowLeft""]","value training","ocean","26","{""ArrowUp,ArrowLeft"":26,""ArrowUp,ArrowRight"":10,""ArrowDown,ArrowLeft"":5,""ArrowDown,ArrowRight"":17}","true","ArrowUp,ArrowLeft","false","revaluation","1","94","","",""
"html-keyboard-response","216","954224","0.0-4.0-2.0-1.47","spark_pilot_norest","10588","4","9","Female","","","","","","","null","<div style=""font-size:60px;"">+</div>","null","fixation","","","","","","","","","95","","",""
"revaluation","217","958246","0.0-4.0-2.0-0.48","spark_pilot_norest","10588","4","9","Female","","false","","","","","[1672.2000000476837]","./assets/img/ocean/catch/0.jpg","[""spaceBar""]","value training","ocean","0","{""ArrowUp,ArrowLeft"":26,""ArrowUp,ArrowRight"":10,""ArrowDown,ArrowLeft"":5,""ArrowDown,ArrowRight"":17}","true","spaceBar","true","revaluation","1","96","","",""
"html-keyboard-response","218","958749","0.0-4.0-2.0-1.48","spark_pilot_norest","10588","4","9","Female","","","","","","","null","<div style=""font-size:60px;"">+</div>","null","fixation","","","","","","","","","97","","",""
"revaluation","219","964773","0.0-4.0-2.0-0.49","spark_pilot_norest","10588","4","9","Female","","false","","","","","[971.1999999880791,628.6000000238419]","./assets/img/ocean/memory/16.jpg","[""ArrowUp"",""ArrowLeft""]","value training","ocean","26","{""ArrowUp,ArrowLeft"":26,""ArrowUp,ArrowRight"":10,""ArrowDown,ArrowLeft"":5,""ArrowDown,ArrowRight"":17}","true","ArrowUp,ArrowLeft","false","revaluation","1","98","","",""
"html-keyboard-response","220","965276","0.0-4.0-2.0-1.49","spark_pilot_norest","10588","4","9","Female","","","","","","","null","<div style=""font-size:60px;"">+</div>","null","fixation","","","","","","","","","99","","",""
"learning-instructions","221","982567","0.0-4.0-3.0-0.0","spark_pilot_norest","10588","4","9","Female","","","","","","","4146.800000011921","<p> Now, you will travel with a friend who will choose whether you go up or down first. </p>
            <p> On these turns, you will just see the animal that they found. You will still get to choose which chest to search for treasure.</p>","","instructions","","","","","","","","","","","",""
"revaluation","222","986591","0.0-4.0-4.0-0.0","spark_pilot_norest","10588","4","9","Female","","false","","","","","[1556.3999999761581]","./assets/img/ocean/animals/octopus.jpg","[""ArrowRight""]","revaluation","ocean","27","{""ArrowUp,ArrowLeft"":2,""ArrowUp,ArrowRight"":11,""ArrowDown,ArrowLeft"":8,""ArrowDown,ArrowRight"":27}","true","ArrowDown,ArrowRight","","revaluation","1","0","","",""
"html-keyboard-response","223","987102","0.0-4.0-4.0-1.0","spark_pilot_norest","10588","4","9","Female","","","","","","","null","<div style=""font-size:60px;"">+</div>","null","fixation","","","","","","","","","1","","",""
"revaluation","224","991122","0.0-4.0-4.0-0.1","spark_pilot_norest","10588","4","9","Female","","false","","","","","[680.3999999761581]","./assets/img/ocean/animals/octopus.jpg","[""ArrowRight""]","revaluation","ocean","27","{""ArrowUp,ArrowLeft"":2,""ArrowUp,ArrowRight"":11,""ArrowDown,ArrowLeft"":8,""ArrowDown,ArrowRight"":27}","true","ArrowDown,ArrowRight","","revaluation","1","2","","",""
"html-keyboard-response","225","991630","0.0-4.0-4.0-1.1","spark_pilot_norest","10588","4","9","Female","","","","","","","null","<div style=""font-size:60px;"">+</div>","null","fixation","","","","","","","","","3","","",""
"revaluation","226","995666","0.0-4.0-4.0-0.2","spark_pilot_norest","10588","4","9","Female","","false","","","","","[1008.1999999880791]","./assets/img/ocean/animals/seahorse.jpg","[""ArrowRight""]","revaluation","ocean","11","{""ArrowUp,ArrowLeft"":2,""ArrowUp,ArrowRight"":11,""ArrowDown,ArrowLeft"":8,""ArrowDown,ArrowRight"":27}","true","ArrowUp,ArrowRight","","revaluation","1","4","","",""
"html-keyboard-response","227","996178","0.0-4.0-4.0-1.2","spark_pilot_norest","10588","4","9","Female","","","","","","","null","<div style=""font-size:60px;"">+</div>","null","fixation","","","","","","","","","5","","",""
"revaluation","228","1000200","0.0-4.0-4.0-0.3","spark_pilot_norest","10588","4","9","Female","","false","","","","","[1580.699999988079]","./assets/img/ocean/animals/seahorse.jpg","[""ArrowLeft""]","revaluation","ocean","2","{""ArrowUp,ArrowLeft"":2,""ArrowUp,ArrowRight"":11,""ArrowDown,ArrowLeft"":8,""ArrowDown,ArrowRight"":27}","false","ArrowUp,ArrowLeft","","revaluation","1","6","","",""
"html-keyboard-response","229","1000711","0.0-4.0-4.0-1.3","spark_pilot_norest","10588","4","9","Female","","","","","","","null","<div style=""font-size:60px;"">+</div>","null","fixation","","","","","","","","","7","","",""
"revaluation","230","1004731","0.0-4.0-4.0-0.4","spark_pilot_norest","10588","4","9","Female","","false","","","","","[454.89999997615814]","./assets/img/ocean/animals/seahorse.jpg","[""ArrowRight""]","revaluation","ocean","11","{""ArrowUp,ArrowLeft"":2,""ArrowUp,ArrowRight"":11,""ArrowDown,ArrowLeft"":8,""ArrowDown,ArrowRight"":27}","true","ArrowUp,ArrowRight","","revaluation","1","8","","",""
"html-keyboard-response","231","1005243","0.0-4.0-4.0-1.4","spark_pilot_norest","10588","4","9","Female","","","","","","","null","<div style=""font-size:60px;"">+</div>","null","fixation","","","","","","","","","9","","",""
"revaluation","232","1009270","0.0-4.0-4.0-0.5","spark_pilot_norest","10588","4","9","Female","","false","","","","","[956.6999999880791]","./assets/img/ocean/animals/seahorse.jpg","[""ArrowLeft""]","revaluation","ocean","2","{""ArrowUp,ArrowLeft"":2,""ArrowUp,ArrowRight"":11,""ArrowDown,ArrowLeft"":8,""ArrowDown,ArrowRight"":27}","false","ArrowUp,ArrowLeft","","revaluation","1","10","","",""
"html-keyboard-response","233","1009778","0.0-4.0-4.0-1.5","spark_pilot_norest","10588","4","9","Female","","","","","","","null","<div style=""font-size:60px;"">+</div>","null","fixation","","","","","","","","","11","","",""
"revaluation","234","1013819","0.0-4.0-4.0-0.6","spark_pilot_norest","10588","4","9","Female","","false","","","","","[388.69999998807907]","./assets/img/ocean/animals/seahorse.jpg","[""ArrowRight""]","revaluation","ocean","11","{""ArrowUp,ArrowLeft"":2,""ArrowUp,ArrowRight"":11,""ArrowDown,ArrowLeft"":8,""ArrowDown,ArrowRight"":27}","true","ArrowUp,ArrowRight","","revaluation","1","12","","",""
"html-keyboard-response","235","1014326","0.0-4.0-4.0-1.6","spark_pilot_norest","10588","4","9","Female","","","","","","","null","<div style=""font-size:60px;"">+</div>","null","fixation","","","","","","","","","13","","",""
"revaluation","236","1018363","0.0-4.0-4.0-0.7","spark_pilot_norest","10588","4","9","Female","","false","","","","","[936.3000000119209]","./assets/img/ocean/animals/octopus.jpg","[""ArrowRight""]","revaluation","ocean","27","{""ArrowUp,ArrowLeft"":2,""ArrowUp,ArrowRight"":11,""ArrowDown,ArrowLeft"":8,""ArrowDown,ArrowRight"":27}","true","ArrowDown,ArrowRight","","revaluation","1","14","","",""
"html-keyboard-response","237","1018897","0.0-4.0-4.0-1.7","spark_pilot_norest","10588","4","9","Female","","","","","","","null","<div style=""font-size:60px;"">+</div>","null","fixation","","","","","","","","","15","","",""
"revaluation","238","1022921","0.0-4.0-4.0-0.8","spark_pilot_norest","10588","4","9","Female","","false","","","","","[508.30000001192093]","./assets/img/ocean/animals/octopus.jpg","[""ArrowRight""]","revaluation","ocean","27","{""ArrowUp,ArrowLeft"":2,""ArrowUp,ArrowRight"":11,""ArrowDown,ArrowLeft"":8,""ArrowDown,ArrowRight"":27}","true","ArrowDown,ArrowRight","","revaluation","1","16","","",""
"html-keyboard-response","239","1023434","0.0-4.0-4.0-1.8","spark_pilot_norest","10588","4","9","Female","","","","","","","null","<div style=""font-size:60px;"">+</div>","null","fixation","","","","","","","","","17","","",""
"revaluation","240","1027505","0.0-4.0-4.0-0.9","spark_pilot_norest","10588","4","9","Female","","false","","","","","[464.7000000476837]","./assets/img/ocean/animals/seahorse.jpg","[""ArrowRight""]","revaluation","ocean","11","{""ArrowUp,ArrowLeft"":2,""ArrowUp,ArrowRight"":11,""ArrowDown,ArrowLeft"":8,""ArrowDown,ArrowRight"":27}","true","ArrowUp,ArrowRight","","revaluation","1","18","","",""
"html-keyboard-response","241","1028014","0.0-4.0-4.0-1.9","spark_pilot_norest","10588","4","9","Female","","","","","","","null","<div style=""font-size:60px;"">+</div>","null","fixation","","","","","","","","","19","","",""
"revaluation","242","1032031","0.0-4.0-4.0-0.10","spark_pilot_norest","10588","4","9","Female","","false","","","","","[538.5]","./assets/img/ocean/animals/octopus.jpg","[""ArrowRight""]","revaluation","ocean","27","{""ArrowUp,ArrowLeft"":2,""ArrowUp,ArrowRight"":11,""ArrowDown,ArrowLeft"":8,""ArrowDown,ArrowRight"":27}","true","ArrowDown,ArrowRight","","revaluation","1","20","","",""
"html-keyboard-response","243","1032537","0.0-4.0-4.0-1.10","spark_pilot_norest","10588","4","9","Female","","","","","","","null","<div style=""font-size:60px;"">+</div>","null","fixation","","","","","","","","","21","","",""
"revaluation","244","1036568","0.0-4.0-4.0-0.11","spark_pilot_norest","10588","4","9","Female","","false","","","","","[509.69999998807907]","./assets/img/ocean/animals/seahorse.jpg","[""ArrowRight""]","revaluation","ocean","11","{""ArrowUp,ArrowLeft"":2,""ArrowUp,ArrowRight"":11,""ArrowDown,ArrowLeft"":8,""ArrowDown,ArrowRight"":27}","true","ArrowUp,ArrowRight","","revaluation","1","22","","",""
"html-keyboard-response","245","1037079","0.0-4.0-4.0-1.11","spark_pilot_norest","10588","4","9","Female","","","","","","","null","<div style=""font-size:60px;"">+</div>","null","fixation","","","","","","","","","23","","",""
"revaluation","246","1041102","0.0-4.0-4.0-0.12","spark_pilot_norest","10588","4","9","Female","","false","","","","","[38.700000047683716]","./assets/img/ocean/animals/seahorse.jpg","[""ArrowRight""]","revaluation","ocean","11","{""ArrowUp,ArrowLeft"":2,""ArrowUp,ArrowRight"":11,""ArrowDown,ArrowLeft"":8,""ArrowDown,ArrowRight"":27}","true","ArrowUp,ArrowRight","","revaluation","1","24","","",""
"html-keyboard-response","247","1041611","0.0-4.0-4.0-1.12","spark_pilot_norest","10588","4","9","Female","","","","","","","null","<div style=""font-size:60px;"">+</div>","null","fixation","","","","","","","","","25","","",""
"revaluation","248","1045630","0.0-4.0-4.0-0.13","spark_pilot_norest","10588","4","9","Female","","false","","","","","[568.3000000119209]","./assets/img/ocean/animals/octopus.jpg","[""ArrowRight""]","revaluation","ocean","27","{""ArrowUp,ArrowLeft"":2,""ArrowUp,ArrowRight"":11,""ArrowDown,ArrowLeft"":8,""ArrowDown,ArrowRight"":27}","true","ArrowDown,ArrowRight","","revaluation","1","26","","",""
"html-keyboard-response","249","1046132","0.0-4.0-4.0-1.13","spark_pilot_norest","10588","4","9","Female","","","","","","","null","<div style=""font-size:60px;"">+</div>","null","fixation","","","","","","","","","27","","",""
"revaluation","250","1050159","0.0-4.0-4.0-0.14","spark_pilot_norest","10588","4","9","Female","","false","","","","","[625.3000000119209]","./assets/img/ocean/animals/seahorse.jpg","[""ArrowRight""]","revaluation","ocean","11","{""ArrowUp,ArrowLeft"":2,""ArrowUp,ArrowRight"":11,""ArrowDown,ArrowLeft"":8,""ArrowDown,ArrowRight"":27}","true","ArrowUp,ArrowRight","","revaluation","1","28","","",""
"html-keyboard-response","251","1050668","0.0-4.0-4.0-1.14","spark_pilot_norest","10588","4","9","Female","","","","","","","null","<div style=""font-size:60px;"">+</div>","null","fixation","","","","","","","","","29","","",""
"revaluation","252","1054679","0.0-4.0-4.0-0.15","spark_pilot_norest","10588","4","9","Female","","false","","","","","[599.1000000238419]","./assets/img/ocean/animals/octopus.jpg","[""ArrowRight""]","revaluation","ocean","27","{""ArrowUp,ArrowLeft"":2,""ArrowUp,ArrowRight"":11,""ArrowDown,ArrowLeft"":8,""ArrowDown,ArrowRight"":27}","true","ArrowDown,ArrowRight","","revaluation","1","30","","",""
"html-keyboard-response","253","1055184","0.0-4.0-4.0-1.15","spark_pilot_norest","10588","4","9","Female","","","","","","","null","<div style=""font-size:60px;"">+</div>","null","fixation","","","","","","","","","31","","",""
"revaluation","254","1059210","0.0-4.0-4.0-0.16","spark_pilot_norest","10588","4","9","Female","","false","","","","","[511.39999997615814]","./assets/img/ocean/animals/octopus.jpg","[""ArrowRight""]","revaluation","ocean","27","{""ArrowUp,ArrowLeft"":2,""ArrowUp,ArrowRight"":11,""ArrowDown,ArrowLeft"":8,""ArrowDown,ArrowRight"":27}","true","ArrowDown,ArrowRight","","revaluation","1","32","","",""
"html-keyboard-response","255","1059720","0.0-4.0-4.0-1.16","spark_pilot_norest","10588","4","9","Female","","","","","","","null","<div style=""font-size:60px;"">+</div>","null","fixation","","","","","","","","","33","","",""
"revaluation","256","1063756","0.0-4.0-4.0-0.17","spark_pilot_norest","10588","4","9","Female","","false","","","","","[411.60000002384186]","./assets/img/ocean/animals/octopus.jpg","[""ArrowRight""]","revaluation","ocean","27","{""ArrowUp,ArrowLeft"":2,""ArrowUp,ArrowRight"":11,""ArrowDown,ArrowLeft"":8,""ArrowDown,ArrowRight"":27}","true","ArrowDown,ArrowRight","","revaluation","1","34","","",""
"html-keyboard-response","257","1064299","0.0-4.0-4.0-1.17","spark_pilot_norest","10588","4","9","Female","","","","","","","null","<div style=""font-size:60px;"">+</div>","null","fixation","","","","","","","","","35","","",""
"learning-instructions","258","1072642","0.0-4.0-5.0-0.0","spark_pilot_norest","10588","4","9","Female","","","","","","","null","<p> You have almost finished this part of the game! </p>
            <p> We are going to ask you to make a few more choices. </p>","","instructions","","","","","","","","","","","",""
"learning-instructions","259","1088616","0.0-4.0-5.0-0.1","spark_pilot_norest","10588","4","9","Female","","","","","","","null","<p> First, you need to decide whether to go up or down. When you see each picture, use the arrow keys to make your choice. </p>
            <p><b>You will not see which animal you found, but try to get to the one that will give you the most treasure.</b></p>","","instructions","","","","","","","","","","","",""
"html-keyboard-response","260","1089619","0.0-4.0-6.0-0.0","spark_pilot_norest","10588","4","9","Female","","","","","","","null","<div style=""font-size:100px;color:red;"">Starting in...</div>","null","","","","","","","","","","","","",""
"html-keyboard-response","261","1090627","0.0-4.0-6.0-1.0","spark_pilot_norest","10588","4","9","Female","","","","","","","null","<div style=""font-size:200px;color:red;"">3</div>","null","","","","","","","","","","","","",""
"html-keyboard-response","262","1091640","0.0-4.0-6.0-2.0","spark_pilot_norest","10588","4","9","Female","","","","","","","null","<div style=""font-size:200px;color:red;"">2</div>","null","","","","","","","","","","","","",""
"html-keyboard-response","263","1092656","0.0-4.0-6.0-3.0","spark_pilot_norest","10588","4","9","Female","","","","","","","null","<div style=""font-size:200px;color:red;"">1</div>","null","","","","","","","","","","","","",""
"revaluation","264","1093333","0.0-4.0-7.0-0.0","spark_pilot_norest","10588","4","9","Female","","false","","","","","[672.2999999523163]","./assets/img/ocean/test/2.jpg","[""ArrowUp""]","first stage test","ocean","0","{""ArrowUp,ArrowLeft"":2,""ArrowUp,ArrowRight"":11,""ArrowDown,ArrowLeft"":8,""ArrowDown,ArrowRight"":27}","false","ArrowUp","false","revaluation","1","","","",""
"html-keyboard-response","265","1093849","0.0-4.0-7.0-1.0","spark_pilot_norest","10588","4","9","Female","","","","","","","null","<div style=""font-size:60px;"">+</div>","null","fixation","","","","","","","","","","","",""
"revaluation","266","1095241","0.0-4.0-7.0-0.1","spark_pilot_norest","10588","4","9","Female","","false","","","","","[1388.1000000238419]","./assets/img/ocean/test/0.jpg","[""ArrowUp""]","first stage test","ocean","0","{""ArrowUp,ArrowLeft"":2,""ArrowUp,ArrowRight"":11,""ArrowDown,ArrowLeft"":8,""ArrowDown,ArrowRight"":27}","false","ArrowUp","false","revaluation","1","","","",""
"html-keyboard-response","267","1095749","0.0-4.0-7.0-1.1","spark_pilot_norest","10588","4","9","Female","","","","","","","null","<div style=""font-size:60px;"">+</div>","null","fixation","","","","","","","","","","","",""
"revaluation","268","1096258","0.0-4.0-7.0-0.2","spark_pilot_norest","10588","4","9","Female","","false","","","","","[505.4000000357628]","./assets/img/ocean/test/1.jpg","[""ArrowUp""]","first stage test","ocean","0","{""ArrowUp,ArrowLeft"":2,""ArrowUp,ArrowRight"":11,""ArrowDown,ArrowLeft"":8,""ArrowDown,ArrowRight"":27}","false","ArrowUp","false","revaluation","1","","","",""
"html-keyboard-response","269","1096772","0.0-4.0-7.0-1.2","spark_pilot_norest","10588","4","9","Female","","","","","","","null","<div style=""font-size:60px;"">+</div>","null","fixation","","","","","","","","","","","",""
"revaluation","270","1097284","0.0-4.0-7.0-0.3","spark_pilot_norest","10588","4","9","Female","","false","","","","","[507.19999998807907]","./assets/img/ocean/test/3.jpg","[""ArrowUp""]","first stage test","ocean","0","{""ArrowUp,ArrowLeft"":2,""ArrowUp,ArrowRight"":11,""ArrowDown,ArrowLeft"":8,""ArrowDown,ArrowRight"":27}","false","ArrowUp","false","revaluation","1","","","",""
"html-keyboard-response","271","1097798","0.0-4.0-7.0-1.3","spark_pilot_norest","10588","4","9","Female","","","","","","","null","<div style=""font-size:60px;"">+</div>","null","fixation","","","","","","","","","","","",""
"learning-instructions","272","1111135","0.0-4.0-8.0-0.0","spark_pilot_norest","10588","4","9","Female","","","","","","","null","<p> Now you will see the animals again and can search their chests for treasure. </p>
            <p> This time, you will not see how much treasure you earned, but you will earn more bonus money for making better choices. </p>","","instructions","","","","","","","","","","","",""
"html-keyboard-response","273","1112143","0.0-4.0-9.0-0.0","spark_pilot_norest","10588","4","9","Female","","","","","","","null","<div style=""font-size:100px;color:red;"">Starting in...</div>","null","","","","","","","","","","","","",""
"html-keyboard-response","274","1113156","0.0-4.0-9.0-1.0","spark_pilot_norest","10588","4","9","Female","","","","","","","null","<div style=""font-size:200px;color:red;"">3</div>","null","","","","","","","","","","","","",""
"html-keyboard-response","275","1114167","0.0-4.0-9.0-2.0","spark_pilot_norest","10588","4","9","Female","","","","","","","null","<div style=""font-size:200px;color:red;"">2</div>","null","","","","","","","","","","","","",""
"html-keyboard-response","276","1115174","0.0-4.0-9.0-3.0","spark_pilot_norest","10588","4","9","Female","","","","","","","null","<div style=""font-size:200px;color:red;"">1</div>","null","","","","","","","","","","","","",""
"revaluation","277","1116779","0.0-4.0-10.0-0.0","spark_pilot_norest","10588","4","9","Female","","false","","","","","[1600.9000000357628]","./assets/img/ocean/animals/seahorse.jpg","[""ArrowRight""]","second stage test","ocean","0","{""ArrowUp,ArrowLeft"":2,""ArrowUp,ArrowRight"":11,""ArrowDown,ArrowLeft"":8,""ArrowDown,ArrowRight"":27}","true","ArrowUp,ArrowRight","","revaluation","1","","","",""
"html-keyboard-response","278","1117284","0.0-4.0-10.0-1.0","spark_pilot_norest","10588","4","9","Female","","","","","","","null","<div style=""font-size:60px;"">+</div>","null","fixation","","","","","","","","","","","",""
"revaluation","279","1118472","0.0-4.0-10.0-0.1","spark_pilot_norest","10588","4","9","Female","","false","","","","","[1183.800000011921]","./assets/img/ocean/animals/seahorse.jpg","[""ArrowRight""]","second stage test","ocean","0","{""ArrowUp,ArrowLeft"":2,""ArrowUp,ArrowRight"":11,""ArrowDown,ArrowLeft"":8,""ArrowDown,ArrowRight"":27}","true","ArrowUp,ArrowRight","","revaluation","1","","","",""
"html-keyboard-response","280","1118987","0.0-4.0-10.0-1.1","spark_pilot_norest","10588","4","9","Female","","","","","","","null","<div style=""font-size:60px;"">+</div>","null","fixation","","","","","","","","","","","",""
"revaluation","281","1119572","0.0-4.0-10.0-0.2","spark_pilot_norest","10588","4","9","Female","","false","","","","","[581.3000000119209]","./assets/img/ocean/animals/seahorse.jpg","[""ArrowRight""]","second stage test","ocean","0","{""ArrowUp,ArrowLeft"":2,""ArrowUp,ArrowRight"":11,""ArrowDown,ArrowLeft"":8,""ArrowDown,ArrowRight"":27}","true","ArrowUp,ArrowRight","","revaluation","1","","","",""
"html-keyboard-response","282","1120080","0.0-4.0-10.0-1.2","spark_pilot_norest","10588","4","9","Female","","","","","","","null","<div style=""font-size:60px;"">+</div>","null","fixation","","","","","","","","","","","",""
"revaluation","283","1120721","0.0-4.0-10.0-0.3","spark_pilot_norest","10588","4","9","Female","","false","","","","","[637.0999999642372]","./assets/img/ocean/animals/seahorse.jpg","[""ArrowRight""]","second stage test","ocean","0","{""ArrowUp,ArrowLeft"":2,""ArrowUp,ArrowRight"":11,""ArrowDown,ArrowLeft"":8,""ArrowDown,ArrowRight"":27}","true","ArrowUp,ArrowRight","","revaluation","1","","","",""
"html-keyboard-response","284","1121234","0.0-4.0-10.0-1.3","spark_pilot_norest","10588","4","9","Female","","","","","","","null","<div style=""font-size:60px;"">+</div>","null","fixation","","","","","","","","","","","",""
"revaluation","285","1122011","0.0-4.0-10.0-0.4","spark_pilot_norest","10588","4","9","Female","","false","","","","","[772.8999999761581]","./assets/img/ocean/animals/octopus.jpg","[""ArrowRight""]","second stage test","ocean","0","{""ArrowUp,ArrowLeft"":2,""ArrowUp,ArrowRight"":11,""ArrowDown,ArrowLeft"":8,""ArrowDown,ArrowRight"":27}","true","ArrowDown,ArrowRight","","revaluation","1","","","",""
"html-keyboard-response","286","1122518","0.0-4.0-10.0-1.4","spark_pilot_norest","10588","4","9","Female","","","","","","","null","<div style=""font-size:60px;"">+</div>","null","fixation","","","","","","","","","","","",""
"revaluation","287","1123253","0.0-4.0-10.0-0.5","spark_pilot_norest","10588","4","9","Female","","false","","","","","[731.3999999761581]","./assets/img/ocean/animals/octopus.jpg","[""ArrowRight""]","second stage test","ocean","0","{""ArrowUp,ArrowLeft"":2,""ArrowUp,ArrowRight"":11,""ArrowDown,ArrowLeft"":8,""ArrowDown,ArrowRight"":27}","true","ArrowDown,ArrowRight","","revaluation","1","","","",""
"html-keyboard-response","288","1123767","0.0-4.0-10.0-1.5","spark_pilot_norest","10588","4","9","Female","","","","","","","null","<div style=""font-size:60px;"">+</div>","null","fixation","","","","","","","","","","","",""
"revaluation","289","1124437","0.0-4.0-10.0-0.6","spark_pilot_norest","10588","4","9","Female","","false","","","","","[666.9000000357628]","./assets/img/ocean/animals/octopus.jpg","[""ArrowRight""]","second stage test","ocean","0","{""ArrowUp,ArrowLeft"":2,""ArrowUp,ArrowRight"":11,""ArrowDown,ArrowLeft"":8,""ArrowDown,ArrowRight"":27}","true","ArrowDown,ArrowRight","","revaluation","1","","","",""
"html-keyboard-response","290","1124944","0.0-4.0-10.0-1.6","spark_pilot_norest","10588","4","9","Female","","","","","","","null","<div style=""font-size:60px;"">+</div>","null","fixation","","","","","","","","","","","",""
"revaluation","291","1125523","0.0-4.0-10.0-0.7","spark_pilot_norest","10588","4","9","Female","","false","","","","","[575]","./assets/img/ocean/animals/octopus.jpg","[""ArrowRight""]","second stage test","ocean","0","{""ArrowUp,ArrowLeft"":2,""ArrowUp,ArrowRight"":11,""ArrowDown,ArrowLeft"":8,""ArrowDown,ArrowRight"":27}","true","ArrowDown,ArrowRight","","revaluation","1","","","",""
"html-keyboard-response","292","1126028","0.0-4.0-10.0-1.7","spark_pilot_norest","10588","4","9","Female","","","","","","","null","<div style=""font-size:60px;"">+</div>","null","fixation","","","","","","","","","","","",""
"learning-instructions","293","1134401","0.0-4.0-0.1-0.2","spark_pilot_norest","10588","4","9","Female","","","","","","","5593.800000011921","<p> This time you are searching for treasure in the <b>canyon</b>.</p>","","instructions","","","","","","","","","","","",""
"learning-instructions","294","1153149","0.0-4.0-0.1-0.3","spark_pilot_norest","10588","4","9","Female","","","","","","","1503.0999999642372","<p><b>New</b> animals with <b>new</b> treasure chests live here. You need to explore to discover where the animal with the best treasure chest is.</p>
                    <p> Like before, once you figure out which animal has the chest with the most treasure, you should try to get to that animal and select that chest! </p>","","instructions","","","","","","","","","","","",""
"learning-instructions","295","1169029","0.0-4.0-1.1-0.1","spark_pilot_norest","10588","4","9","Female","","","","","","","1142.9000000357628","<p> Remember, when you see a picture of the place, use the up and down keys to <b>find an animal</b>.</p>
            <p> When you encounter an animal, you should use the left and right keys to <b>select a treasure chest</b>.</p>
            <p> Don't forget to look out for the robber! </p>","","instructions","","","","","","","","","","","",""
"revaluation","296","1173061","0.0-4.0-2.1-0.50","spark_pilot_norest","10588","4","9","Female","","false","","","","","[1349.1000000238419]","./assets/img/canyon/catch/0.jpg","[""spaceBar""]","value training","canyon","0","{""ArrowUp,ArrowLeft"":23,""ArrowUp,ArrowRight"":10,""ArrowDown,ArrowLeft"":8,""ArrowDown,ArrowRight"":30}","true","spaceBar","true","original","2","0","","",""
"html-keyboard-response","297","1173570","0.0-4.0-2.1-1.50","spark_pilot_norest","10588","4","9","Female","","","","","","","null","<div style=""font-size:60px;"">+</div>","null","fixation","","","","","","","","","1","","",""
"revaluation","298","1177594","0.0-4.0-2.1-0.51","spark_pilot_norest","10588","4","9","Female","","true","","","","","[]","./assets/img/canyon/memory/5.jpg","[]","value training","canyon","-5","{""ArrowUp,ArrowLeft"":23,""ArrowUp,ArrowRight"":10,""ArrowDown,ArrowLeft"":8,""ArrowDown,ArrowRight"":30}","false","","false","original","2","2","","",""
"html-keyboard-response","299","1178099","0.0-4.0-2.1-1.51","spark_pilot_norest","10588","4","9","Female","","","","","","","null","<div style=""font-size:60px;"">+</div>","null","fixation","","","","","","","","","3","","",""
"revaluation","300","1182119","0.0-4.0-2.1-0.52","spark_pilot_norest","10588","4","9","Female","","false","","","","","[493]","./assets/img/canyon/catch/6.jpg","[""ArrowDown""]","value training","canyon","-10","{""ArrowUp,ArrowLeft"":23,""ArrowUp,ArrowRight"":10,""ArrowDown,ArrowLeft"":8,""ArrowDown,ArrowRight"":30}","false","ArrowDown","true","original","2","4","","",""
"html-keyboard-response","301","1182624","0.0-4.0-2.1-1.52","spark_pilot_norest","10588","4","9","Female","","","","","","","null","<div style=""font-size:60px;"">+</div>","null","fixation","","","","","","","","","5","","",""
"revaluation","302","1188655","0.0-4.0-2.1-0.53","spark_pilot_norest","10588","4","9","Female","","false","","","","","[1750.0999999642372,1492.199999988079]","./assets/img/canyon/memory/31.jpg","[""ArrowDown"",""ArrowRight""]","value training","canyon","30","{""ArrowUp,ArrowLeft"":23,""ArrowUp,ArrowRight"":10,""ArrowDown,ArrowLeft"":8,""ArrowDown,ArrowRight"":30}","true","ArrowDown,ArrowRight","false","original","2","6","","",""
"html-keyboard-response","303","1189162","0.0-4.0-2.1-1.53","spark_pilot_norest","10588","4","9","Female","","","","","","","null","<div style=""font-size:60px;"">+</div>","null","fixation","","","","","","","","","7","","",""
"revaluation","304","1195202","0.0-4.0-2.1-0.54","spark_pilot_norest","10588","4","9","Female","","false","","","","","[419.19999998807907,441.80000001192093]","./assets/img/canyon/memory/40.jpg","[""ArrowDown"",""ArrowRight""]","value training","canyon","30","{""ArrowUp,ArrowLeft"":23,""ArrowUp,ArrowRight"":10,""ArrowDown,ArrowLeft"":8,""ArrowDown,ArrowRight"":30}","true","ArrowDown,ArrowRight","false","original","2","8","","",""
"html-keyboard-response","305","1195703","0.0-4.0-2.1-1.54","spark_pilot_norest","10588","4","9","Female","","","","","","","null","<div style=""font-size:60px;"">+</div>","null","fixation","","","","","","","","","9","","",""
"revaluation","306","1201716","0.0-4.0-2.1-0.55","spark_pilot_norest","10588","4","9","Female","","false","","","","","[585.1999999880791,387.10000002384186]","./assets/img/canyon/memory/28.jpg","[""ArrowDown"",""ArrowRight""]","value training","canyon","30","{""ArrowUp,ArrowLeft"":23,""ArrowUp,ArrowRight"":10,""ArrowDown,ArrowLeft"":8,""ArrowDown,ArrowRight"":30}","true","ArrowDown,ArrowRight","false","original","2","10","","",""
"html-keyboard-response","307","1202225","0.0-4.0-2.1-1.55","spark_pilot_norest","10588","4","9","Female","","","","","","","null","<div style=""font-size:60px;"">+</div>","null","fixation","","","","","","","","","11","","",""
"revaluation","308","1208258","0.0-4.0-2.1-0.56","spark_pilot_norest","10588","4","9","Female","","false","","","","","[477.0999999642372,464.39999997615814]","./assets/img/canyon/memory/38.jpg","[""ArrowDown"",""ArrowRight""]","value training","canyon","30","{""ArrowUp,ArrowLeft"":23,""ArrowUp,ArrowRight"":10,""ArrowDown,ArrowLeft"":8,""ArrowDown,ArrowRight"":30}","true","ArrowDown,ArrowRight","false","original","2","12","","",""
"html-keyboard-response","309","1208762","0.0-4.0-2.1-1.56","spark_pilot_norest","10588","4","9","Female","","","","","","","null","<div style=""font-size:60px;"">+</div>","null","fixation","","","","","","","","","13","","",""
"revaluation","310","1214796","0.0-4.0-2.1-0.57","spark_pilot_norest","10588","4","9","Female","","false","","","","","[480.69999998807907,496.10000002384186]","./assets/img/canyon/memory/18.jpg","[""ArrowDown"",""ArrowRight""]","value training","canyon","30","{""ArrowUp,ArrowLeft"":23,""ArrowUp,ArrowRight"":10,""ArrowDown,ArrowLeft"":8,""ArrowDown,ArrowRight"":30}","true","ArrowDown,ArrowRight","false","original","2","14","","",""
"html-keyboard-response","311","1215304","0.0-4.0-2.1-1.57","spark_pilot_norest","10588","4","9","Female","","","","","","","null","<div style=""font-size:60px;"">+</div>","null","fixation","","","","","","","","","15","","",""
"revaluation","312","1221328","0.0-4.0-2.1-0.58","spark_pilot_norest","10588","4","9","Female","","false","","","","","[766.5,720.6000000238419]","./assets/img/canyon/memory/34.jpg","[""ArrowDown"",""ArrowRight""]","value training","canyon","30","{""ArrowUp,ArrowLeft"":23,""ArrowUp,ArrowRight"":10,""ArrowDown,ArrowLeft"":8,""ArrowDown,ArrowRight"":30}","true","ArrowDown,ArrowRight","false","original","2","16","","",""
"html-keyboard-response","313","1221830","0.0-4.0-2.1-1.58","spark_pilot_norest","10588","4","9","Female","","","","","","","null","<div style=""font-size:60px;"">+</div>","null","fixation","","","","","","","","","17","","",""
