"trial_type","trial_index","time_elapsed","internal_node_id","task_version","subject_id","assigned_condition","age","gender","browser_interaction","success","timeout","failed_images","failed_audio","failed_video","rt","stimulus","response","task_part","environment","score","rewardMap","correct","fullState","isCatch","condition","order","trial_num","key_press","ground_truth","bonus"
"pavlovia","0","2786","0.0-0.0","spark_pilot_norest","8610","7","13","Male","[{""event"":""blur"",""trial"":1,""time"":11177},{""event"":""focus"",""trial"":1,""time"":34186},{""event"":""blur"",""trial"":1,""time"":38089},{""event"":""focus"",""trial"":2,""time"":94706},{""event"":""fullscreenenter"",""trial"":2,""time"":96838},{""event"":""blur"",""trial"":505,""time"":1873952},{""event"":""focus"",""trial"":505,""time"":1873953},{""event"":""blur"",""trial"":515,""time"":1881999},{""event"":""focus"",""trial"":515,""time"":1881999},{""event"":""blur"",""trial"":516,""time"":1882695},{""event"":""focus"",""trial"":516,""time"":1882695},{""event"":""blur"",""trial"":520,""time"":1885414},{""event"":""focus"",""trial"":520,""time"":1885415},{""event"":""blur"",""trial"":526,""time"":1890718},{""event"":""focus"",""trial"":526,""time"":1890719},{""event"":""blur"",""trial"":530,""time"":1893335},{""event"":""focus"",""trial"":530,""time"":1893335},{""event"":""blur"",""trial"":654,""time"":2006807},{""event"":""focus"",""trial"":654,""time"":2006808}]","","","","","","","","","","","","","","","","","","","","",""
"preload","1","57833","0.0-1.0","spark_pilot_norest","8610","7","13","Male","[{""event"":""blur"",""trial"":1,""time"":11177},{""event"":""focus"",""trial"":1,""time"":34186},{""event"":""blur"",""trial"":1,""time"":38089},{""event"":""focus"",""trial"":2,""time"":94706},{""event"":""fullscreenenter"",""trial"":2,""time"":96838},{""event"":""blur"",""trial"":505,""time"":1873952},{""event"":""focus"",""trial"":505,""time"":1873953},{""event"":""blur"",""trial"":515,""time"":1881999},{""event"":""focus"",""trial"":515,""time"":1881999},{""event"":""blur"",""trial"":516,""time"":1882695},{""event"":""focus"",""trial"":516,""time"":1882695},{""event"":""blur"",""trial"":520,""time"":1885414},{""event"":""focus"",""trial"":520,""time"":1885415},{""event"":""blur"",""trial"":526,""time"":1890718},{""event"":""focus"",""trial"":526,""time"":1890719},{""event"":""blur"",""trial"":530,""time"":1893335},{""event"":""focus"",""trial"":530,""time"":1893335},{""event"":""blur"",""trial"":654,""time"":2006807},{""event"":""focus"",""trial"":654,""time"":2006808}]","true","false","[]","[]","[]","","","","","","","","","","","","","","","",""
"fullscreen","2","97798","0.0-2.0","spark_pilot_norest","8610","7","13","Male","","true","","","","","","","","","","","","","","","","","","","",""
"audio-button-response","3","99416","0.0-3.0-0.0-0.0","spark_pilot_norest","8610","7","13","Male","","","","","","","1541","./assets/audio/audiotest/turtle.mp3","2","audio_test","","","","","","","","","","","",""
"learning-instructions","4","108408","0.0-3.0-1.0-0.0","spark_pilot_norest","8610","7","13","Male","","","","","","","1997.5","<p> Welcome! Please remember to stay in fullscreen mode and don't click away from the experiment. </p>","","instructions","","","","","","","","","","","",""
"learning-instructions","5","121951","0.0-3.0-1.0-0.1","spark_pilot_norest","8610","7","13","Male","","","","","","","5114.300000011921","<p> Today you will be playing a game to earn treasure. </p>
            <p> At the end of the experiment, you will earn a bonus based on how much treasure you find. </p>
            <img src='./assets/img/instructions/treasure.jpg' class='instructions-image'>","","instructions","","","","","","","","","","","",""
"learning-instructions","6","131463","0.0-3.0-1.0-0.2","spark_pilot_norest","8610","7","13","Male","","","","","","","1226.300000011921","<p> Animals have hidden treasure in treasure chests. </p>
            <p> You need to first find an animal and then choose which of their treasure chests to search. </p>
            <img src='./assets/img/space/animals/cat.jpg' class='instructions-image'>","","instructions","","","","","","","","","","","",""
"learning-instructions","7","147711","0.0-3.0-1.0-0.3","spark_pilot_norest","8610","7","13","Male","","","","","","","3063.899999976158","<p> In each round, you will search for treasure in a different place. In the real game, there will be two rounds. </p>
            <p> You will begin with a separate, practice round where you will search for treasure in outer space. </p>
            <img src='./assets/img/space/0.jpg' class='instructions-image'>","","instructions","","","","","","","","","","","",""
"learning-instructions","8","171711","0.0-3.0-1.0-0.4","spark_pilot_norest","8610","7","13","Male","","","","","","","12554.199999988079","<p> On every turn, you will see a picture of the place that you are in, but the specific image may be different each time. </p>
            <p> For example, both of these images mean you are in outer space. </p>
            <img src='./assets/img/instructions/outerspace.jpg' class='instructions-image'>","","instructions","","","","","","","","","","","",""
"learning-instructions","9","187752","0.0-3.0-1.0-0.5","spark_pilot_norest","8610","7","13","Male","","","","","","","8194.300000011921","<p> You need to decide which direction to travel in. </p>
            <p> You can choose between going <b>up or down</b> by using the arrow keys. </p>
            <img src='./assets/img/instructions/updown.jpg' class='instructions-image'>","","instructions","","","","","","","","","","","",""
"learning-instructions","10","202136","0.0-3.0-1.0-0.6","spark_pilot_norest","8610","7","13","Male","","","","","","","5528.199999988079","<p> You will have <b>2 seconds</b> to make your choice. </p>
            <p> If you do not make a choice within 2 seconds, you will not find an animal or earn treasure. </p>
            <img src='./assets/img/instructions/2seconds.jpg' class='instructions-image'>","","instructions","","","","","","","","","","","",""
"learning-instructions","11","211120","0.0-3.0-1.0-0.7","spark_pilot_norest","8610","7","13","Male","","","","","","","1932.2000000476837","<p> Let’s try practicing that now! </p>
            <p> When you see a picture of the place you are in, press the <b>up</b> key to travel up. </p>
            <img src='./assets/img/instructions/pressUp.jpg' class='instructions-image'>","","instructions","","","","","","","","","","","",""
"revaluation","12","215162","0.0-3.0-2.0-0.0","spark_pilot_norest","8610","7","13","Male","","","false","","","","[1678.5]","./assets/img/space/0.jpg","[""ArrowUp""]","first stage practice","space","0","null","null","ArrowUp","false","","","","","",""
"html-keyboard-response","13","215664","0.0-3.0-2.0-1.0","spark_pilot_norest","8610","7","13","Male","","","","","","","null","<div style=""font-size:60px;"">+</div>","null","fixation","","","","","","","","","","","",""
"revaluation","14","219685","0.0-3.0-2.0-0.1","spark_pilot_norest","8610","7","13","Male","","","false","","","","[188]","./assets/img/space/1.jpg","[""ArrowUp""]","first stage practice","space","0","null","null","ArrowUp","false","","","","","",""
"html-keyboard-response","15","220193","0.0-3.0-2.0-1.1","spark_pilot_norest","8610","7","13","Male","","","","","","","null","<div style=""font-size:60px;"">+</div>","null","fixation","","","","","","","","","","","",""
"revaluation","16","224204","0.0-3.0-2.0-0.2","spark_pilot_norest","8610","7","13","Male","","","false","","","","[3.199999988079071]","./assets/img/space/2.jpg","[""ArrowUp""]","first stage practice","space","0","null","null","ArrowUp","false","","","","","",""
"html-keyboard-response","17","224714","0.0-3.0-2.0-1.2","spark_pilot_norest","8610","7","13","Male","","","","","","","null","<div style=""font-size:60px;"">+</div>","null","fixation","","","","","","","","","","","",""
"learning-instructions","18","234251","0.0-3.0-3.0-0.0","spark_pilot_norest","8610","7","13","Male","","","","","","","4833.800000011921","<p> Great job! Now try pressing the <b>down</b> key to travel down. </p>
            <img src='./assets/img/instructions/pressDown.jpg' class='instructions-image'>","","instructions","","","","","","","","","","","",""
"revaluation","19","238264","0.0-3.0-4.0-0.0","spark_pilot_norest","8610","7","13","Male","","","false","","","","[1362]","./assets/img/space/3.jpg","[""ArrowDown""]","first stage practice","space","0","null","null","ArrowDown","false","","","","","",""
"html-keyboard-response","20","238775","0.0-3.0-4.0-1.0","spark_pilot_norest","8610","7","13","Male","","","","","","","null","<div style=""font-size:60px;"">+</div>","null","fixation","","","","","","","","","","","",""
"revaluation","21","242794","0.0-3.0-4.0-0.1","spark_pilot_norest","8610","7","13","Male","","","false","","","","[277]","./assets/img/space/4.jpg","[""ArrowDown""]","first stage practice","space","0","null","null","ArrowDown","false","","","","","",""
"html-keyboard-response","22","243302","0.0-3.0-4.0-1.1","spark_pilot_norest","8610","7","13","Male","","","","","","","null","<div style=""font-size:60px;"">+</div>","null","fixation","","","","","","","","","","","",""
"revaluation","23","247311","0.0-3.0-4.0-0.2","spark_pilot_norest","8610","7","13","Male","","","false","","","","[221.9000000357628]","./assets/img/space/5.jpg","[""ArrowDown""]","first stage practice","space","0","null","null","ArrowDown","false","","","","","",""
"html-keyboard-response","24","247820","0.0-3.0-4.0-1.2","spark_pilot_norest","8610","7","13","Male","","","","","","","null","<div style=""font-size:60px;"">+</div>","null","fixation","","","","","","","","","","","",""
"learning-instructions","25","261391","0.0-3.0-5.0-0.0","spark_pilot_norest","8610","7","13","Male","","","","","","","3704.199999988079","<p> The animals don’t move, so the animal in the upper part of a place will stay in the upper part of a place, and the animal in the lower part of a place will stay in the lower part of a place. </p>","","instructions","","","","","","","","","","","",""
"learning-instructions","26","272423","0.0-3.0-5.0-0.1","spark_pilot_norest","8610","7","13","Male","","","","","","","1876.6000000238419","<p> Each animal has two treasure chests for you to choose from. </p>
            <p> The amount of treasure in each chest can range from <b> 0 to 40 pieces.</b></p>","","instructions","","","","","","","","","","","",""
"learning-instructions","27","286815","0.0-3.0-5.0-0.2","spark_pilot_norest","8610","7","13","Male","","","","","","","3188.399999976158","<p> You should decide which chest to search for treasure by using the <b>left</b> and <b>right</b> arrow keys. </p>
            <p><b> Pay attention to which animal is on the screen, as the animals have different treasure chests. </b></p>
            <img src='./assets/img/instructions/leftright.jpg' class='instructions-image'>","","instructions","","","","","","","","","","","",""
"learning-instructions","28","297295","0.0-3.0-5.0-0.3","spark_pilot_norest","8610","7","13","Male","","","","","","","4098.300000011921","<p> Let’s try practicing that now. </p>
            <p> When you see an animal, choose which chest to search for treasure. </p>
            <img src='./assets/img/instructions/chooseChest.jpg' class='instructions-image'>","","instructions","","","","","","","","","","","",""
"revaluation","29","301319","0.0-3.0-6.0-0.0","spark_pilot_norest","8610","7","13","Male","","","false","","","","[1214.199999988079]","./assets/img/space/animals/rabbit.jpg","[""ArrowRight""]","second stage practice","space","23","{""ArrowUp,ArrowLeft"":3,""ArrowUp,ArrowRight"":36,""ArrowDown,ArrowLeft"":15,""ArrowDown,ArrowRight"":23}","true","ArrowDown,ArrowRight","","","","","","",""
"html-keyboard-response","30","301827","0.0-3.0-6.0-1.0","spark_pilot_norest","8610","7","13","Male","","","","","","","null","<div style=""font-size:60px;"">+</div>","null","fixation","","","","","","","","","","","",""
"revaluation","31","305846","0.0-3.0-6.0-0.1","spark_pilot_norest","8610","7","13","Male","","","false","","","","[255.39999997615814]","./assets/img/space/animals/rabbit.jpg","[""ArrowLeft""]","second stage practice","space","15","{""ArrowUp,ArrowLeft"":3,""ArrowUp,ArrowRight"":36,""ArrowDown,ArrowLeft"":15,""ArrowDown,ArrowRight"":23}","false","ArrowDown,ArrowLeft","","","","","","",""
"html-keyboard-response","32","306352","0.0-3.0-6.0-1.1","spark_pilot_norest","8610","7","13","Male","","","","","","","null","<div style=""font-size:60px;"">+</div>","null","fixation","","","","","","","","","","","",""
"revaluation","33","310385","0.0-3.0-6.0-0.2","spark_pilot_norest","8610","7","13","Male","","","false","","","","[180.10000002384186]","./assets/img/space/animals/cat.jpg","[""ArrowRight""]","second stage practice","space","36","{""ArrowUp,ArrowLeft"":3,""ArrowUp,ArrowRight"":36,""ArrowDown,ArrowLeft"":15,""ArrowDown,ArrowRight"":23}","true","ArrowUp,ArrowRight","","","","","","",""
"html-keyboard-response","34","310893","0.0-3.0-6.0-1.2","spark_pilot_norest","8610","7","13","Male","","","","","","","null","<div style=""font-size:60px;"">+</div>","null","fixation","","","","","","","","","","","",""
"revaluation","35","314900","0.0-3.0-6.0-0.3","spark_pilot_norest","8610","7","13","Male","","","false","","","","[150.60000002384186]","./assets/img/space/animals/cat.jpg","[""ArrowRight""]","second stage practice","space","36","{""ArrowUp,ArrowLeft"":3,""ArrowUp,ArrowRight"":36,""ArrowDown,ArrowLeft"":15,""ArrowDown,ArrowRight"":23}","true","ArrowUp,ArrowRight","","","","","","",""
"html-keyboard-response","36","315407","0.0-3.0-6.0-1.3","spark_pilot_norest","8610","7","13","Male","","","","","","","null","<div style=""font-size:60px;"">+</div>","null","fixation","","","","","","","","","","","",""
"learning-instructions","37","336614","0.0-3.0-7.0-0.0","spark_pilot_norest","8610","7","13","Male","","","","","","","4378.299999952316","<p> Great job. Now let’s try putting it together. </p>
            <p> On each turn, you will first see a picture to remind you of the place you are in, and you need to choose whether to go up or down. </p>
            <p> Then you will see an animal and choose which of its chests to search for treasure. </p>","","instructions","","","","","","","","","","","",""
"learning-instructions","38","347455","0.0-3.0-7.0-0.1","spark_pilot_norest","8610","7","13","Male","","","","","","","2568.899999976158","<p> When you choose whether to go up or down, try to go to the animal with the chest with the most treasure. </p>
            <p> Try practicing that now! </p>","","instructions","","","","","","","","","","","",""
"revaluation","39","353478","0.0-3.0-8.0-0.0","spark_pilot_norest","8610","7","13","Male","","","false","","","","[1381.7999999523163,582.3000000119209]","./assets/img/space/6.jpg","[""ArrowDown"",""ArrowLeft""]","full practice","space","15","{""ArrowUp,ArrowLeft"":3,""ArrowUp,ArrowRight"":36,""ArrowDown,ArrowLeft"":15,""ArrowDown,ArrowRight"":23}","false","ArrowDown,ArrowLeft","false","","","","","",""
"html-keyboard-response","40","353987","0.0-3.0-8.0-1.0","spark_pilot_norest","8610","7","13","Male","","","","","","","null","<div style=""font-size:60px;"">+</div>","null","fixation","","","","","","","","","","","",""
"revaluation","41","360000","0.0-3.0-8.0-0.1","spark_pilot_norest","8610","7","13","Male","","","false","","","","[192.5999999642372,112.19999998807907]","./assets/img/space/7.jpg","[""ArrowUp"",""ArrowLeft""]","full practice","space","3","{""ArrowUp,ArrowLeft"":3,""ArrowUp,ArrowRight"":36,""ArrowDown,ArrowLeft"":15,""ArrowDown,ArrowRight"":23}","false","ArrowUp,ArrowLeft","false","","","","","",""
"html-keyboard-response","42","360509","0.0-3.0-8.0-1.1","spark_pilot_norest","8610","7","13","Male","","","","","","","null","<div style=""font-size:60px;"">+</div>","null","fixation","","","","","","","","","","","",""
"revaluation","43","366529","0.0-3.0-8.0-0.2","spark_pilot_norest","8610","7","13","Male","","","false","","","","[54.89999997615814,32.80000001192093]","./assets/img/space/8.jpg","[""ArrowUp"",""ArrowRight""]","full practice","space","36","{""ArrowUp,ArrowLeft"":3,""ArrowUp,ArrowRight"":36,""ArrowDown,ArrowLeft"":15,""ArrowDown,ArrowRight"":23}","true","ArrowUp,ArrowRight","false","","","","","",""
"html-keyboard-response","44","367037","0.0-3.0-8.0-1.2","spark_pilot_norest","8610","7","13","Male","","","","","","","null","<div style=""font-size:60px;"">+</div>","null","fixation","","","","","","","","","","","",""
"revaluation","45","373058","0.0-3.0-8.0-0.3","spark_pilot_norest","8610","7","13","Male","","","false","","","","[47.5,525.6999999880791]","./assets/img/space/9.jpg","[""ArrowUp"",""ArrowLeft""]","full practice","space","3","{""ArrowUp,ArrowLeft"":3,""ArrowUp,ArrowRight"":36,""ArrowDown,ArrowLeft"":15,""ArrowDown,ArrowRight"":23}","false","ArrowUp,ArrowLeft","false","","","","","",""
"html-keyboard-response","46","373567","0.0-3.0-8.0-1.3","spark_pilot_norest","8610","7","13","Male","","","","","","","null","<div style=""font-size:60px;"">+</div>","null","fixation","","","","","","","","","","","",""
"revaluation","47","379571","0.0-3.0-8.0-0.4","spark_pilot_norest","8610","7","13","Male","","","false","","","","[877.8999999761581,661.3000000119209]","./assets/img/space/10.jpg","[""ArrowUp"",""ArrowRight""]","full practice","space","36","{""ArrowUp,ArrowLeft"":3,""ArrowUp,ArrowRight"":36,""ArrowDown,ArrowLeft"":15,""ArrowDown,ArrowRight"":23}","true","ArrowUp,ArrowRight","false","","","","","",""
"html-keyboard-response","48","380072","0.0-3.0-8.0-1.4","spark_pilot_norest","8610","7","13","Male","","","","","","","null","<div style=""font-size:60px;"">+</div>","null","fixation","","","","","","","","","","","",""
"learning-instructions","49","392175","0.0-3.0-9.0-0.0","spark_pilot_norest","8610","7","13","Male","","","","","","","1733.300000011921","<p> One last thing: sometimes, you will see a robber. The robber can be anywhere in the picture. </p>
            <p> If you do not stop them, you will lose treasure. </p>
            <img src='./assets/img/instructions/robber.jpg' class='instructions-image'>","","instructions","","","","","","","","","","","",""
"learning-instructions","50","400630","0.0-3.0-9.0-0.1","spark_pilot_norest","8610","7","13","Male","","","","","","","1279.2999999523163","<p> If you see the robber, you should <b>press the space bar</b> rather than using the arrow keys. </p>
            <p> Try practicing that now! </p>","","instructions","","","","","","","","","","","",""
"revaluation","51","404641","0.0-3.0-10.0-0.0","spark_pilot_norest","8610","7","13","Male","","","true","","","","[]","./assets/img/space/catch/0.jpg","[]","catch practice","space","-5","{""ArrowUp,ArrowLeft"":3,""ArrowUp,ArrowRight"":36,""ArrowDown,ArrowLeft"":15,""ArrowDown,ArrowRight"":23}","false","","true","","","","","",""
"html-keyboard-response","52","405149","0.0-3.0-10.0-1.0","spark_pilot_norest","8610","7","13","Male","","","","","","","null","<div style=""font-size:60px;"">+</div>","null","fixation","","","","","","","","","","","",""
"revaluation","53","409163","0.0-3.0-10.0-0.1","spark_pilot_norest","8610","7","13","Male","","","false","","","","[687.6000000238419]","./assets/img/space/catch/1.jpg","[""spaceBar""]","catch practice","space","0","{""ArrowUp,ArrowLeft"":3,""ArrowUp,ArrowRight"":36,""ArrowDown,ArrowLeft"":15,""ArrowDown,ArrowRight"":23}","true","spaceBar","true","","","","","",""
"html-keyboard-response","54","409669","0.0-3.0-10.0-1.1","spark_pilot_norest","8610","7","13","Male","","","","","","","null","<div style=""font-size:60px;"">+</div>","null","fixation","","","","","","","","","","","",""
"revaluation","55","413678","0.0-3.0-10.0-0.2","spark_pilot_norest","8610","7","13","Male","","","false","","","","[807.6000000238419]","./assets/img/space/catch/2.jpg","[""spaceBar""]","catch practice","space","0","{""ArrowUp,ArrowLeft"":3,""ArrowUp,ArrowRight"":36,""ArrowDown,ArrowLeft"":15,""ArrowDown,ArrowRight"":23}","true","spaceBar","true","","","","","",""
"html-keyboard-response","56","414187","0.0-3.0-10.0-1.2","spark_pilot_norest","8610","7","13","Male","","","","","","","null","<div style=""font-size:60px;"">+</div>","null","fixation","","","","","","","","","","","",""
"learning-instructions","57","421918","0.0-3.0-11.0-0.0-0.0","spark_pilot_norest","8610","7","13","Male","","","","","","","2477.300000011921","<p> Now, you will practice a shortened version of the game to get a sense of how it all fits together. </p>","","instructions","","","","","","","","","","","",""
"learning-instructions","58","426974","0.0-3.0-11.0-0.0-0.1","spark_pilot_norest","8610","7","13","Male","","","","","","","1863.199999988079","<p>This time you are searching for treasure in outer space.</p>","","instructions","","","","","","","","","","","",""
"learning-instructions","59","443238","0.0-3.0-11.0-1.0-0.0","spark_pilot_norest","8610","7","13","Male","","","","","","","1487.199999988079","<p> Remember, when you see a picture of the place, use the up and down keys to <b>find an animal</b>.</p>
            <p> When you encounter an animal, you should use the left and right keys to <b>select a treasure chest</b>.</p>
            <p> Don't forget to look out for the robber! </p>","","instructions","","","","","","","","","","","",""
"revaluation","60","449273","0.0-3.0-11.0-2.0-0.0","spark_pilot_norest","8610","7","13","Male","","","false","","","","[1294.6000000238419,775.8000000119209]","./assets/img/space/11.jpg","[""ArrowUp"",""ArrowRight""]","practice block","space","36","{""ArrowUp,ArrowLeft"":3,""ArrowUp,ArrowRight"":36,""ArrowDown,ArrowLeft"":15,""ArrowDown,ArrowRight"":23}","true","ArrowUp,ArrowRight","false","","","","","",""
"html-keyboard-response","61","449785","0.0-3.0-11.0-2.0-1.0","spark_pilot_norest","8610","7","13","Male","","","","","","","null","<div style=""font-size:60px;"">+</div>","null","fixation","","","","","","","","","","","",""
"revaluation","62","455808","0.0-3.0-11.0-2.0-0.1","spark_pilot_norest","8610","7","13","Male","","","false","","","","[802,485.30000001192093]","./assets/img/space/12.jpg","[""ArrowUp"",""ArrowRight""]","practice block","space","36","{""ArrowUp,ArrowLeft"":3,""ArrowUp,ArrowRight"":36,""ArrowDown,ArrowLeft"":15,""ArrowDown,ArrowRight"":23}","true","ArrowUp,ArrowRight","false","","","","","",""
"html-keyboard-response","63","456317","0.0-3.0-11.0-2.0-1.1","spark_pilot_norest","8610","7","13","Male","","","","","","","null","<div style=""font-size:60px;"">+</div>","null","fixation","","","","","","","","","","","",""
"revaluation","64","462331","0.0-3.0-11.0-2.0-0.2","spark_pilot_norest","8610","7","13","Male","","","false","","","","[703.3000000119209,500.5]","./assets/img/space/13.jpg","[""ArrowUp"",""ArrowRight""]","practice block","space","36","{""ArrowUp,ArrowLeft"":3,""ArrowUp,ArrowRight"":36,""ArrowDown,ArrowLeft"":15,""ArrowDown,ArrowRight"":23}","true","ArrowUp,ArrowRight","false","","","","","",""
"html-keyboard-response","65","462838","0.0-3.0-11.0-2.0-1.2","spark_pilot_norest","8610","7","13","Male","","","","","","","null","<div style=""font-size:60px;"">+</div>","null","fixation","","","","","","","","","","","",""
"revaluation","66","468867","0.0-3.0-11.0-2.0-0.3","spark_pilot_norest","8610","7","13","Male","","","false","","","","[773.5,367.19999998807907]","./assets/img/space/14.jpg","[""ArrowUp"",""ArrowRight""]","practice block","space","36","{""ArrowUp,ArrowLeft"":3,""ArrowUp,ArrowRight"":36,""ArrowDown,ArrowLeft"":15,""ArrowDown,ArrowRight"":23}","true","ArrowUp,ArrowRight","false","","","","","",""
"html-keyboard-response","67","469377","0.0-3.0-11.0-2.0-1.3","spark_pilot_norest","8610","7","13","Male","","","","","","","null","<div style=""font-size:60px;"">+</div>","null","fixation","","","","","","","","","","","",""
"revaluation","68","475389","0.0-3.0-11.0-2.0-0.4","spark_pilot_norest","8610","7","13","Male","","","false","","","","[1106.800000011921,442.30000001192093]","./assets/img/space/11.jpg","[""ArrowUp"",""ArrowRight""]","practice block","space","36","{""ArrowUp,ArrowLeft"":3,""ArrowUp,ArrowRight"":36,""ArrowDown,ArrowLeft"":15,""ArrowDown,ArrowRight"":23}","true","ArrowUp,ArrowRight","false","","","","","",""
"html-keyboard-response","69","475890","0.0-3.0-11.0-2.0-1.4","spark_pilot_norest","8610","7","13","Male","","","","","","","null","<div style=""font-size:60px;"">+</div>","null","fixation","","","","","","","","","","","",""
"revaluation","70","481893","0.0-3.0-11.0-2.0-0.5","spark_pilot_norest","8610","7","13","Male","","","false","","","","[946.1999999880791,393.30000001192093]","./assets/img/space/12.jpg","[""ArrowUp"",""ArrowRight""]","practice block","space","36","{""ArrowUp,ArrowLeft"":3,""ArrowUp,ArrowRight"":36,""ArrowDown,ArrowLeft"":15,""ArrowDown,ArrowRight"":23}","true","ArrowUp,ArrowRight","false","","","","","",""
"html-keyboard-response","71","482394","0.0-3.0-11.0-2.0-1.5","spark_pilot_norest","8610","7","13","Male","","","","","","","null","<div style=""font-size:60px;"">+</div>","null","fixation","","","","","","","","","","","",""
"revaluation","72","488399","0.0-3.0-11.0-2.0-0.6","spark_pilot_norest","8610","7","13","Male","","","false","","","","[625.2000000476837,327.5]","./assets/img/space/13.jpg","[""ArrowUp"",""ArrowRight""]","practice block","space","36","{""ArrowUp,ArrowLeft"":3,""ArrowUp,ArrowRight"":36,""ArrowDown,ArrowLeft"":15,""ArrowDown,ArrowRight"":23}","true","ArrowUp,ArrowRight","false","","","","","",""
"html-keyboard-response","73","488900","0.0-3.0-11.0-2.0-1.6","spark_pilot_norest","8610","7","13","Male","","","","","","","null","<div style=""font-size:60px;"">+</div>","null","fixation","","","","","","","","","","","",""
"revaluation","74","494905","0.0-3.0-11.0-2.0-0.7","spark_pilot_norest","8610","7","13","Male","","","false","","","","[1014.8999999761581,30.19999998807907]","./assets/img/space/14.jpg","[""ArrowUp"",""ArrowRight""]","practice block","space","36","{""ArrowUp,ArrowLeft"":3,""ArrowUp,ArrowRight"":36,""ArrowDown,ArrowLeft"":15,""ArrowDown,ArrowRight"":23}","true","ArrowUp,ArrowRight","false","","","","","",""
"html-keyboard-response","75","495406","0.0-3.0-11.0-2.0-1.7","spark_pilot_norest","8610","7","13","Male","","","","","","","null","<div style=""font-size:60px;"">+</div>","null","fixation","","","","","","","","","","","",""
"revaluation","76","499409","0.0-3.0-11.0-2.0-0.8","spark_pilot_norest","8610","7","13","Male","","","false","","","","[1190.800000011921]","./assets/img/space/catch/3.jpg","[""spaceBar""]","practice block","space","0","{""ArrowUp,ArrowLeft"":3,""ArrowUp,ArrowRight"":36,""ArrowDown,ArrowLeft"":15,""ArrowDown,ArrowRight"":23}","true","spaceBar","true","","","","","",""
"html-keyboard-response","77","499911","0.0-3.0-11.0-2.0-1.8","spark_pilot_norest","8610","7","13","Male","","","","","","","null","<div style=""font-size:60px;"">+</div>","null","fixation","","","","","","","","","","","",""
"learning-instructions","78","515502","0.0-3.0-11.0-3.0-0.0","spark_pilot_norest","8610","7","13","Male","","","","","","","2649.5","<p> Now, you will travel with a friend who will choose whether you go up or down first. </p>
            <p> On these turns, you will just see the animal that they found. You will still get to choose which chest to search for treasure.</p>","","instructions","","","","","","","","","","","",""
"revaluation","79","519508","0.0-3.0-11.0-4.0-0.0","spark_pilot_norest","8610","7","13","Male","","","false","","","","[990.8000000119209]","./assets/img/space/animals/cat.jpg","[""ArrowRight""]","practice block","space","36","{""ArrowUp,ArrowLeft"":3,""ArrowUp,ArrowRight"":36,""ArrowDown,ArrowLeft"":15,""ArrowDown,ArrowRight"":23}","true","ArrowUp,ArrowRight","","","","","","",""
"html-keyboard-response","80","520015","0.0-3.0-11.0-4.0-1.0","spark_pilot_norest","8610","7","13","Male","","","","","","","null","<div style=""font-size:60px;"">+</div>","null","fixation","","","","","","","","","","","",""
"revaluation","81","524026","0.0-3.0-11.0-4.0-0.1","spark_pilot_norest","8610","7","13","Male","","","false","","","","[989.0999999642372]","./assets/img/space/animals/rabbit.jpg","[""ArrowLeft""]","practice block","space","15","{""ArrowUp,ArrowLeft"":3,""ArrowUp,ArrowRight"":36,""ArrowDown,ArrowLeft"":15,""ArrowDown,ArrowRight"":23}","false","ArrowDown,ArrowLeft","","","","","","",""
"html-keyboard-response","82","524537","0.0-3.0-11.0-4.0-1.1","spark_pilot_norest","8610","7","13","Male","","","","","","","null","<div style=""font-size:60px;"">+</div>","null","fixation","","","","","","","","","","","",""
"revaluation","83","528558","0.0-3.0-11.0-4.0-0.2","spark_pilot_norest","8610","7","13","Male","","","false","","","","[323.4000000357628]","./assets/img/space/animals/rabbit.jpg","[""ArrowRight""]","practice block","space","23","{""ArrowUp,ArrowLeft"":3,""ArrowUp,ArrowRight"":36,""ArrowDown,ArrowLeft"":15,""ArrowDown,ArrowRight"":23}","true","ArrowDown,ArrowRight","","","","","","",""
"html-keyboard-response","84","529066","0.0-3.0-11.0-4.0-1.2","spark_pilot_norest","8610","7","13","Male","","","","","","","null","<div style=""font-size:60px;"">+</div>","null","fixation","","","","","","","","","","","",""
"revaluation","85","533082","0.0-3.0-11.0-4.0-0.3","spark_pilot_norest","8610","7","13","Male","","","false","","","","[186.39999997615814]","./assets/img/space/animals/cat.jpg","[""ArrowRight""]","practice block","space","36","{""ArrowUp,ArrowLeft"":3,""ArrowUp,ArrowRight"":36,""ArrowDown,ArrowLeft"":15,""ArrowDown,ArrowRight"":23}","true","ArrowUp,ArrowRight","","","","","","",""
"html-keyboard-response","86","533589","0.0-3.0-11.0-4.0-1.3","spark_pilot_norest","8610","7","13","Male","","","","","","","null","<div style=""font-size:60px;"">+</div>","null","fixation","","","","","","","","","","","",""
"learning-instructions","87","541712","0.0-3.0-11.0-5.0-0.0","spark_pilot_norest","8610","7","13","Male","","","","","","","null","<p> You have almost finished this part of the game! </p>
            <p> We are going to ask you to make a few more choices. </p>","","instructions","","","","","","","","","","","",""
"learning-instructions","88","557723","0.0-3.0-11.0-5.0-0.1","spark_pilot_norest","8610","7","13","Male","","","","","","","null","<p> First, you need to decide whether to go up or down. When you see each picture, use the arrow keys to make your choice. </p>
            <p><b>You will not see which animal you found, but try to get to the one that will give you the most treasure.</b></p>","","instructions","","","","","","","","","","","",""
"html-keyboard-response","89","558739","0.0-3.0-11.0-6.0-0.0","spark_pilot_norest","8610","7","13","Male","","","","","","","null","<div style=""font-size:100px;color:red;"">Starting in...</div>","null","","","","","","","","","","","","",""
"html-keyboard-response","90","559755","0.0-3.0-11.0-6.0-1.0","spark_pilot_norest","8610","7","13","Male","","","","","","","null","<div style=""font-size:200px;color:red;"">3</div>","null","","","","","","","","","","","","",""
"html-keyboard-response","91","560760","0.0-3.0-11.0-6.0-2.0","spark_pilot_norest","8610","7","13","Male","","","","","","","null","<div style=""font-size:200px;color:red;"">2</div>","null","","","","","","","","","","","","",""
"html-keyboard-response","92","561774","0.0-3.0-11.0-6.0-3.0","spark_pilot_norest","8610","7","13","Male","","","","","","","null","<div style=""font-size:200px;color:red;"">1</div>","null","","","","","","","","","","","","",""
"revaluation","93","562286","0.0-3.0-11.0-7.0","spark_pilot_norest","8610","7","13","Male","","","false","","","","[509.80000001192093]","./assets/img/space/15.jpg","[""ArrowUp""]","practice block","space","0","{""ArrowUp,ArrowLeft"":3,""ArrowUp,ArrowRight"":36,""ArrowDown,ArrowLeft"":15,""ArrowDown,ArrowRight"":23}","true","ArrowUp","false","","","","","",""
"html-keyboard-response","94","562792","0.0-3.0-11.0-8.0","spark_pilot_norest","8610","7","13","Male","","","","","","","null","<div style=""font-size:60px;"">+</div>","null","fixation","","","","","","","","","","","",""
"learning-instructions","95","576187","0.0-3.0-11.0-9.0-0.0","spark_pilot_norest","8610","7","13","Male","","","","","","","null","<p> Now you will see the animals again and can search their chests for treasure. </p>
            <p> This time, you will not see how much treasure you earned, but you will earn more bonus money for making better choices. </p>","","instructions","","","","","","","","","","","",""
"html-keyboard-response","96","577188","0.0-3.0-11.0-10.0-0.0","spark_pilot_norest","8610","7","13","Male","","","","","","","null","<div style=""font-size:100px;color:red;"">Starting in...</div>","null","","","","","","","","","","","","",""
"html-keyboard-response","97","578195","0.0-3.0-11.0-10.0-1.0","spark_pilot_norest","8610","7","13","Male","","","","","","","null","<div style=""font-size:200px;color:red;"">3</div>","null","","","","","","","","","","","","",""
"html-keyboard-response","98","579199","0.0-3.0-11.0-10.0-2.0","spark_pilot_norest","8610","7","13","Male","","","","","","","null","<div style=""font-size:200px;color:red;"">2</div>","null","","","","","","","","","","","","",""
"html-keyboard-response","99","580204","0.0-3.0-11.0-10.0-3.0","spark_pilot_norest","8610","7","13","Male","","","","","","","null","<div style=""font-size:200px;color:red;"">1</div>","null","","","","","","","","","","","","",""
"revaluation","100","580918","0.0-3.0-11.0-11.0-0.0","spark_pilot_norest","8610","7","13","Male","","","false","","","","[711.2000000476837]","./assets/img/space/animals/cat.jpg","[""ArrowRight""]","practice block","space","0","{""ArrowUp,ArrowLeft"":3,""ArrowUp,ArrowRight"":36,""ArrowDown,ArrowLeft"":15,""ArrowDown,ArrowRight"":23}","true","ArrowUp,ArrowRight","","","","","","",""
"html-keyboard-response","101","581419","0.0-3.0-11.0-11.0-1.0","spark_pilot_norest","8610","7","13","Male","","","","","","","null","<div style=""font-size:60px;"">+</div>","null","fixation","","","","","","","","","","","",""
"revaluation","102","581934","0.0-3.0-11.0-11.0-0.1","spark_pilot_norest","8610","7","13","Male","","","false","","","","[512.5]","./assets/img/space/animals/rabbit.jpg","[""ArrowRight""]","practice block","space","0","{""ArrowUp,ArrowLeft"":3,""ArrowUp,ArrowRight"":36,""ArrowDown,ArrowLeft"":15,""ArrowDown,ArrowRight"":23}","true","ArrowDown,ArrowRight","","","","","","",""
"html-keyboard-response","103","582440","0.0-3.0-11.0-11.0-1.1","spark_pilot_norest","8610","7","13","Male","","","","","","","null","<div style=""font-size:60px;"">+</div>","null","fixation","","","","","","","","","","","",""
"learning-instructions","104","589006","0.0-3.0-12.0-0.0","spark_pilot_norest","8610","7","13","Male","","","","","","","1993.7000000476837","<p> Before you start, we're going to ask you a few questions about how the game works. </p>","","instructions","","","","","","","","","","","",""
"comp-q","105","595542","0.0-3.0-13.0-0.0-0.0","spark_pilot_norest","8610","7","13","Male","","","","","","","957.7999999523163","<p> <b> True or False? </b> </p>
            <p> There can be 50 pieces of treasure in a given animal's chest. </p>","1","comp_question","","","","true","","","","","","","",""
"comp-q","106","604621","0.0-3.0-13.0-0.0-1.0","spark_pilot_norest","8610","7","13","Male","","","","","","","2429.600000023842","<p> <b> That's right! </b> The amount of treasure in each chest can range from 0 to 40 pieces. </p>","0","comp_answer","","","","","","","","","","","",""
"comp-q","107","613149","0.0-3.0-13.0-0.1-0.1","spark_pilot_norest","8610","7","13","Male","","","","","","","1417.5","<p> <b> True or False? </b> </p><p> In this game, all animals have the same amount of treasure in their left and right chests. </p>","1","comp_question","","","","true","","","","","","","",""
"comp-q","108","622445","0.0-3.0-13.0-0.1-1.1","spark_pilot_norest","8610","7","13","Male","","","","","","","4073.400000035763","<p> <b> That's right! </b> Animals have different amounts of treasure in their treasure chests. </p>","0","comp_answer","","","","","","","","","","","",""
"comp-q","109","631053","0.0-3.0-13.0-0.2-0.2","spark_pilot_norest","8610","7","13","Male","","","","","","","2761.5","<p> <b> True or False? </b> </p><p> The same animal will always be there if you go up in the same place. </p>","1","comp_question","","","","false","","","","","","","",""
"comp-q","110","638165","0.0-3.0-13.0-0.2-1.2","spark_pilot_norest","8610","7","13","Male","","","","","","","813.5999999642372","<p> <b>Incorrect.</b> One animal lives in the upper part and one lives in the lower part of every place. </p>","0","comp_answer","","","","","","","","","","","",""
"comp-q","111","646774","0.0-3.0-13.0-0.3-0.3","spark_pilot_norest","8610","7","13","Male","","","","","","","2791.400000035763","<p> <b> True or False? </b> </p><p> The same animal will always be there if you go up in the same place. </p>","0","comp_question","","","","true","","","","","","","",""
"comp-q","112","657077","0.0-3.0-13.0-0.3-1.3","spark_pilot_norest","8610","7","13","Male","","","","","","","3855.399999976158","<p> <b> That's right! </b> One animal lives in the upper part and one lives in the lower part of every place. </p>","0","comp_answer","","","","","","","","","","","",""
"comp-q","113","662989","0.0-3.0-13.0-0.4-0.4","spark_pilot_norest","8610","7","13","Male","","","","","","","397.5","<p> <b> True or False? </b> </p><p> If you see a different picture, it means you are in a new place. </p>","0","comp_question","","","","false","","","","","","","",""
"comp-q","114","676797","0.0-3.0-13.0-0.4-1.4","spark_pilot_norest","8610","7","13","Male","","","","","","","2705.5","<p> <b>Incorrect.</b> Lots of different images may show the same place. For example,  you may see three different images that all remind you that you are in outer space. </p>","0","comp_answer","","","","","","","","","","","",""
"comp-q","115","682732","0.0-3.0-13.0-0.5-0.5","spark_pilot_norest","8610","7","13","Male","","","","","","","431.39999997615814","<p> <b> True or False? </b> </p><p> If you see a different picture, it means you are in a new place. </p>","1","comp_question","","","","true","","","","","","","",""
"comp-q","116","699116","0.0-3.0-13.0-0.5-1.5","spark_pilot_norest","8610","7","13","Male","","","","","","","5165.5","<p> <b> That's right! </b> Lots of different images may show the same place. For example,  you may see three different images that all remind you that you are in outer space. </p>","0","comp_answer","","","","","","","","","","","",""
"learning-instructions","117","710324","0.0-3.0-14.0-0.0","spark_pilot_norest","8610","7","13","Male","","","","","","","1353.4000000357628","<p> Good job. Remember to do your best because the amount of treasure you earn will be converted into bonus money. </p>
            <p> It’s time to start the real game! </p>","","instructions","","","","","","","","","","","",""
"learning-instructions","118","714908","0.0-4.0-0.0-0.0","spark_pilot_norest","8610","7","13","Male","","","","","","","1817.5","<p> This time you are searching for treasure in the <b>canyon</b>.</p>","","instructions","","","","","","","","","","","",""
"learning-instructions","119","732948","0.0-4.0-0.0-0.1","spark_pilot_norest","8610","7","13","Male","","","","","","","737.5","<p><b>New</b> animals with <b>new</b> treasure chests live here. You need to explore to discover where the animal with the best treasure chest is.</p>
                    <p> Like before, once you figure out which animal has the chest with the most treasure, you should try to get to that animal and select that chest! </p>","","instructions","","","","","","","","","","","",""
"learning-instructions","120","748957","0.0-4.0-1.0-0.0","spark_pilot_norest","8610","7","13","Male","","","","","","","1285.5","<p> Remember, when you see a picture of the place, use the up and down keys to <b>find an animal</b>.</p>
            <p> When you encounter an animal, you should use the left and right keys to <b>select a treasure chest</b>.</p>
            <p> Don't forget to look out for the robber! </p>","","instructions","","","","","","","","","","","",""
"revaluation","121","754969","0.0-4.0-2.0-0.0","spark_pilot_norest","8610","7","13","Male","","","false","","","","[1341.5,453.19999998807907]","./assets/img/canyon/memory/35.jpg","[""ArrowUp"",""ArrowRight""]","value training","canyon","10","{""ArrowUp,ArrowLeft"":23,""ArrowUp,ArrowRight"":10,""ArrowDown,ArrowLeft"":8,""ArrowDown,ArrowRight"":30}","false","ArrowUp,ArrowRight","false","original","1","0","","",""
"html-keyboard-response","122","755482","0.0-4.0-2.0-1.0","spark_pilot_norest","8610","7","13","Male","","","","","","","null","<div style=""font-size:60px;"">+</div>","null","fixation","","","","","","","","","1","","",""
"revaluation","123","761506","0.0-4.0-2.0-0.1","spark_pilot_norest","8610","7","13","Male","","","false","","","","[536.6000000238419,543.6999999880791]","./assets/img/canyon/memory/34.jpg","[""ArrowDown"",""ArrowRight""]","value training","canyon","30","{""ArrowUp,ArrowLeft"":23,""ArrowUp,ArrowRight"":10,""ArrowDown,ArrowLeft"":8,""ArrowDown,ArrowRight"":30}","true","ArrowDown,ArrowRight","false","original","1","2","","",""
"html-keyboard-response","124","762015","0.0-4.0-2.0-1.1","spark_pilot_norest","8610","7","13","Male","","","","","","","null","<div style=""font-size:60px;"">+</div>","null","fixation","","","","","","","","","3","","",""
"revaluation","125","766029","0.0-4.0-2.0-0.2","spark_pilot_norest","8610","7","13","Male","","","false","","","","[339.9000000357628]","./assets/img/canyon/catch/4.jpg","[""ArrowUp""]","value training","canyon","-10","{""ArrowUp,ArrowLeft"":23,""ArrowUp,ArrowRight"":10,""ArrowDown,ArrowLeft"":8,""ArrowDown,ArrowRight"":30}","false","ArrowUp","true","original","1","4","","",""
"html-keyboard-response","126","766538","0.0-4.0-2.0-1.2","spark_pilot_norest","8610","7","13","Male","","","","","","","null","<div style=""font-size:60px;"">+</div>","null","fixation","","","","","","","","","5","","",""
"revaluation","127","772563","0.0-4.0-2.0-0.3","spark_pilot_norest","8610","7","13","Male","","","false","","","","[817,361.69999998807907]","./assets/img/canyon/memory/10.jpg","[""ArrowUp"",""ArrowLeft""]","value training","canyon","23","{""ArrowUp,ArrowLeft"":23,""ArrowUp,ArrowRight"":10,""ArrowDown,ArrowLeft"":8,""ArrowDown,ArrowRight"":30}","false","ArrowUp,ArrowLeft","false","original","1","6","","",""
"html-keyboard-response","128","773071","0.0-4.0-2.0-1.3","spark_pilot_norest","8610","7","13","Male","","","","","","","null","<div style=""font-size:60px;"">+</div>","null","fixation","","","","","","","","","7","","",""
"revaluation","129","779085","0.0-4.0-2.0-0.4","spark_pilot_norest","8610","7","13","Male","","","false","","","","[756.4000000357628,559.6999999880791]","./assets/img/canyon/memory/18.jpg","[""ArrowDown"",""ArrowLeft""]","value training","canyon","8","{""ArrowUp,ArrowLeft"":23,""ArrowUp,ArrowRight"":10,""ArrowDown,ArrowLeft"":8,""ArrowDown,ArrowRight"":30}","false","ArrowDown,ArrowLeft","false","original","1","8","","",""
"html-keyboard-response","130","779587","0.0-4.0-2.0-1.4","spark_pilot_norest","8610","7","13","Male","","","","","","","null","<div style=""font-size:60px;"">+</div>","null","fixation","","","","","","","","","9","","",""
"revaluation","131","783589","0.0-4.0-2.0-0.5","spark_pilot_norest","8610","7","13","Male","","","false","","","","[552.0999999642372]","./assets/img/canyon/catch/6.jpg","[""spaceBar""]","value training","canyon","0","{""ArrowUp,ArrowLeft"":23,""ArrowUp,ArrowRight"":10,""ArrowDown,ArrowLeft"":8,""ArrowDown,ArrowRight"":30}","true","spaceBar","true","original","1","10","","",""
"html-keyboard-response","132","784091","0.0-4.0-2.0-1.5","spark_pilot_norest","8610","7","13","Male","","","","","","","null","<div style=""font-size:60px;"">+</div>","null","fixation","","","","","","","","","11","","",""
"revaluation","133","790096","0.0-4.0-2.0-0.6","spark_pilot_norest","8610","7","13","Male","","","false","","","","[752.3000000119209,46.60000002384186]","./assets/img/canyon/memory/34.jpg","[""ArrowDown"",""ArrowRight""]","value training","canyon","30","{""ArrowUp,ArrowLeft"":23,""ArrowUp,ArrowRight"":10,""ArrowDown,ArrowLeft"":8,""ArrowDown,ArrowRight"":30}","true","ArrowDown,ArrowRight","false","original","1","12","","",""
"html-keyboard-response","134","790597","0.0-4.0-2.0-1.6","spark_pilot_norest","8610","7","13","Male","","","","","","","null","<div style=""font-size:60px;"">+</div>","null","fixation","","","","","","","","","13","","",""
"revaluation","135","796602","0.0-4.0-2.0-0.7","spark_pilot_norest","8610","7","13","Male","","","false","","","","[597.5,332.89999997615814]","./assets/img/canyon/memory/8.jpg","[""ArrowDown"",""ArrowRight""]","value training","canyon","30","{""ArrowUp,ArrowLeft"":23,""ArrowUp,ArrowRight"":10,""ArrowDown,ArrowLeft"":8,""ArrowDown,ArrowRight"":30}","true","ArrowDown,ArrowRight","false","original","1","14","","",""
"html-keyboard-response","136","797104","0.0-4.0-2.0-1.7","spark_pilot_norest","8610","7","13","Male","","","","","","","null","<div style=""font-size:60px;"">+</div>","null","fixation","","","","","","","","","15","","",""
"revaluation","137","803107","0.0-4.0-2.0-0.8","spark_pilot_norest","8610","7","13","Male","","","false","","","","[467.10000002384186,489.89999997615814]","./assets/img/canyon/memory/39.jpg","[""ArrowDown"",""ArrowRight""]","value training","canyon","30","{""ArrowUp,ArrowLeft"":23,""ArrowUp,ArrowRight"":10,""ArrowDown,ArrowLeft"":8,""ArrowDown,ArrowRight"":30}","true","ArrowDown,ArrowRight","false","original","1","16","","",""
"html-keyboard-response","138","803608","0.0-4.0-2.0-1.8","spark_pilot_norest","8610","7","13","Male","","","","","","","null","<div style=""font-size:60px;"">+</div>","null","fixation","","","","","","","","","17","","",""
"revaluation","139","809612","0.0-4.0-2.0-0.9","spark_pilot_norest","8610","7","13","Male","","","false","","","","[706.2999999523163,585.0999999642372]","./assets/img/canyon/memory/24.jpg","[""ArrowDown"",""ArrowRight""]","value training","canyon","30","{""ArrowUp,ArrowLeft"":23,""ArrowUp,ArrowRight"":10,""ArrowDown,ArrowLeft"":8,""ArrowDown,ArrowRight"":30}","true","ArrowDown,ArrowRight","false","original","1","18","","",""
"html-keyboard-response","140","810113","0.0-4.0-2.0-1.9","spark_pilot_norest","8610","7","13","Male","","","","","","","null","<div style=""font-size:60px;"">+</div>","null","fixation","","","","","","","","","19","","",""
"revaluation","141","814116","0.0-4.0-2.0-0.10","spark_pilot_norest","8610","7","13","Male","","","false","","","","[233.30000001192093]","./assets/img/canyon/catch/1.jpg","[""ArrowDown""]","value training","canyon","-10","{""ArrowUp,ArrowLeft"":23,""ArrowUp,ArrowRight"":10,""ArrowDown,ArrowLeft"":8,""ArrowDown,ArrowRight"":30}","false","ArrowDown","true","original","1","20","","",""
"html-keyboard-response","142","814618","0.0-4.0-2.0-1.10","spark_pilot_norest","8610","7","13","Male","","","","","","","null","<div style=""font-size:60px;"">+</div>","null","fixation","","","","","","","","","21","","",""
"revaluation","143","820622","0.0-4.0-2.0-0.11","spark_pilot_norest","8610","7","13","Male","","","false","","","","[1088.699999988079,792.5]","./assets/img/canyon/memory/1.jpg","[""ArrowDown"",""ArrowRight""]","value training","canyon","30","{""ArrowUp,ArrowLeft"":23,""ArrowUp,ArrowRight"":10,""ArrowDown,ArrowLeft"":8,""ArrowDown,ArrowRight"":30}","true","ArrowDown,ArrowRight","false","original","1","22","","",""
"html-keyboard-response","144","821123","0.0-4.0-2.0-1.11","spark_pilot_norest","8610","7","13","Male","","","","","","","null","<div style=""font-size:60px;"">+</div>","null","fixation","","","","","","","","","23","","",""
"revaluation","145","827127","0.0-4.0-2.0-0.12","spark_pilot_norest","8610","7","13","Male","","","false","","","","[679,302.69999998807907]","./assets/img/canyon/memory/1.jpg","[""ArrowDown"",""ArrowRight""]","value training","canyon","30","{""ArrowUp,ArrowLeft"":23,""ArrowUp,ArrowRight"":10,""ArrowDown,ArrowLeft"":8,""ArrowDown,ArrowRight"":30}","true","ArrowDown,ArrowRight","false","original","1","24","","",""
"html-keyboard-response","146","827627","0.0-4.0-2.0-1.12","spark_pilot_norest","8610","7","13","Male","","","","","","","null","<div style=""font-size:60px;"">+</div>","null","fixation","","","","","","","","","25","","",""
"revaluation","147","833632","0.0-4.0-2.0-0.13","spark_pilot_norest","8610","7","13","Male","","","false","","","","[510.69999998807907,334.30000001192093]","./assets/img/canyon/memory/35.jpg","[""ArrowDown"",""ArrowRight""]","value training","canyon","30","{""ArrowUp,ArrowLeft"":23,""ArrowUp,ArrowRight"":10,""ArrowDown,ArrowLeft"":8,""ArrowDown,ArrowRight"":30}","true","ArrowDown,ArrowRight","false","original","1","26","","",""
"html-keyboard-response","148","834134","0.0-4.0-2.0-1.13","spark_pilot_norest","8610","7","13","Male","","","","","","","null","<div style=""font-size:60px;"">+</div>","null","fixation","","","","","","","","","27","","",""
"revaluation","149","840139","0.0-4.0-2.0-0.14","spark_pilot_norest","8610","7","13","Male","","","false","","","","[675.8000000119209,250.80000001192093]","./assets/img/canyon/memory/13.jpg","[""ArrowDown"",""ArrowRight""]","value training","canyon","30","{""ArrowUp,ArrowLeft"":23,""ArrowUp,ArrowRight"":10,""ArrowDown,ArrowLeft"":8,""ArrowDown,ArrowRight"":30}","true","ArrowDown,ArrowRight","false","original","1","28","","",""
"html-keyboard-response","150","840640","0.0-4.0-2.0-1.14","spark_pilot_norest","8610","7","13","Male","","","","","","","null","<div style=""font-size:60px;"">+</div>","null","fixation","","","","","","","","","29","","",""
"revaluation","151","844644","0.0-4.0-2.0-0.15","spark_pilot_norest","8610","7","13","Male","","","false","","","","[610.3000000119209]","./assets/img/canyon/catch/3.jpg","[""spaceBar""]","value training","canyon","0","{""ArrowUp,ArrowLeft"":23,""ArrowUp,ArrowRight"":10,""ArrowDown,ArrowLeft"":8,""ArrowDown,ArrowRight"":30}","true","spaceBar","true","original","1","30","","",""
"html-keyboard-response","152","845145","0.0-4.0-2.0-1.15","spark_pilot_norest","8610","7","13","Male","","","","","","","null","<div style=""font-size:60px;"">+</div>","null","fixation","","","","","","","","","31","","",""
"revaluation","153","851149","0.0-4.0-2.0-0.16","spark_pilot_norest","8610","7","13","Male","","","false","","","","[361.19999998807907,112.09999996423721]","./assets/img/canyon/memory/25.jpg","[""ArrowDown"",""ArrowRight""]","value training","canyon","30","{""ArrowUp,ArrowLeft"":23,""ArrowUp,ArrowRight"":10,""ArrowDown,ArrowLeft"":8,""ArrowDown,ArrowRight"":30}","true","ArrowDown,ArrowRight","false","original","1","32","","",""
"html-keyboard-response","154","851650","0.0-4.0-2.0-1.16","spark_pilot_norest","8610","7","13","Male","","","","","","","null","<div style=""font-size:60px;"">+</div>","null","fixation","","","","","","","","","33","","",""
"revaluation","155","857654","0.0-4.0-2.0-0.17","spark_pilot_norest","8610","7","13","Male","","","false","","","","[624.5,423.5999999642372]","./assets/img/canyon/memory/39.jpg","[""ArrowDown"",""ArrowRight""]","value training","canyon","30","{""ArrowUp,ArrowLeft"":23,""ArrowUp,ArrowRight"":10,""ArrowDown,ArrowLeft"":8,""ArrowDown,ArrowRight"":30}","true","ArrowDown,ArrowRight","false","original","1","34","","",""
"html-keyboard-response","156","858155","0.0-4.0-2.0-1.17","spark_pilot_norest","8610","7","13","Male","","","","","","","null","<div style=""font-size:60px;"">+</div>","null","fixation","","","","","","","","","35","","",""
"revaluation","157","864160","0.0-4.0-2.0-0.18","spark_pilot_norest","8610","7","13","Male","","","false","","","","[831.1000000238419,318.2000000476837]","./assets/img/canyon/memory/30.jpg","[""ArrowDown"",""ArrowRight""]","value training","canyon","30","{""ArrowUp,ArrowLeft"":23,""ArrowUp,ArrowRight"":10,""ArrowDown,ArrowLeft"":8,""ArrowDown,ArrowRight"":30}","true","ArrowDown,ArrowRight","false","original","1","36","","",""
"html-keyboard-response","158","864660","0.0-4.0-2.0-1.18","spark_pilot_norest","8610","7","13","Male","","","","","","","null","<div style=""font-size:60px;"">+</div>","null","fixation","","","","","","","","","37","","",""
"revaluation","159","870664","0.0-4.0-2.0-0.19","spark_pilot_norest","8610","7","13","Male","","","false","","","","[1061.6000000238419,493.30000001192093]","./assets/img/canyon/memory/41.jpg","[""ArrowDown"",""ArrowRight""]","value training","canyon","30","{""ArrowUp,ArrowLeft"":23,""ArrowUp,ArrowRight"":10,""ArrowDown,ArrowLeft"":8,""ArrowDown,ArrowRight"":30}","true","ArrowDown,ArrowRight","false","original","1","38","","",""
"html-keyboard-response","160","871166","0.0-4.0-2.0-1.19","spark_pilot_norest","8610","7","13","Male","","","","","","","null","<div style=""font-size:60px;"">+</div>","null","fixation","","","","","","","","","39","","",""
"revaluation","161","877170","0.0-4.0-2.0-0.20","spark_pilot_norest","8610","7","13","Male","","","false","","","","[500.69999998807907,515.7000000476837]","./assets/img/canyon/memory/38.jpg","[""ArrowDown"",""ArrowRight""]","value training","canyon","30","{""ArrowUp,ArrowLeft"":23,""ArrowUp,ArrowRight"":10,""ArrowDown,ArrowLeft"":8,""ArrowDown,ArrowRight"":30}","true","ArrowDown,ArrowRight","false","original","1","40","","",""
"html-keyboard-response","162","877672","0.0-4.0-2.0-1.20","spark_pilot_norest","8610","7","13","Male","","","","","","","null","<div style=""font-size:60px;"">+</div>","null","fixation","","","","","","","","","41","","",""
"revaluation","163","883678","0.0-4.0-2.0-0.21","spark_pilot_norest","8610","7","13","Male","","","false","","","","[528.6000000238419,327.60000002384186]","./assets/img/canyon/memory/8.jpg","[""ArrowDown"",""ArrowRight""]","value training","canyon","30","{""ArrowUp,ArrowLeft"":23,""ArrowUp,ArrowRight"":10,""ArrowDown,ArrowLeft"":8,""ArrowDown,ArrowRight"":30}","true","ArrowDown,ArrowRight","false","original","1","42","","",""
"html-keyboard-response","164","884179","0.0-4.0-2.0-1.21","spark_pilot_norest","8610","7","13","Male","","","","","","","null","<div style=""font-size:60px;"">+</div>","null","fixation","","","","","","","","","43","","",""
"revaluation","165","890183","0.0-4.0-2.0-0.22","spark_pilot_norest","8610","7","13","Male","","","false","","","","[487,750.6999999880791]","./assets/img/canyon/memory/23.jpg","[""ArrowDown"",""ArrowRight""]","value training","canyon","30","{""ArrowUp,ArrowLeft"":23,""ArrowUp,ArrowRight"":10,""ArrowDown,ArrowLeft"":8,""ArrowDown,ArrowRight"":30}","true","ArrowDown,ArrowRight","false","original","1","44","","",""
"html-keyboard-response","166","890685","0.0-4.0-2.0-1.22","spark_pilot_norest","8610","7","13","Male","","","","","","","null","<div style=""font-size:60px;"">+</div>","null","fixation","","","","","","","","","45","","",""
"revaluation","167","896688","0.0-4.0-2.0-0.23","spark_pilot_norest","8610","7","13","Male","","","false","","","","[805.2999999523163,1005.3000000119209]","./assets/img/canyon/memory/41.jpg","[""ArrowDown"",""ArrowRight""]","value training","canyon","30","{""ArrowUp,ArrowLeft"":23,""ArrowUp,ArrowRight"":10,""ArrowDown,ArrowLeft"":8,""ArrowDown,ArrowRight"":30}","true","ArrowDown,ArrowRight","false","original","1","46","","",""
"html-keyboard-response","168","897190","0.0-4.0-2.0-1.23","spark_pilot_norest","8610","7","13","Male","","","","","","","null","<div style=""font-size:60px;"">+</div>","null","fixation","","","","","","","","","47","","",""
"revaluation","169","903194","0.0-4.0-2.0-0.24","spark_pilot_norest","8610","7","13","Male","","","false","","","","[300.30000001192093,492.2000000476837]","./assets/img/canyon/memory/20.jpg","[""ArrowDown"",""ArrowRight""]","value training","canyon","30","{""ArrowUp,ArrowLeft"":23,""ArrowUp,ArrowRight"":10,""ArrowDown,ArrowLeft"":8,""ArrowDown,ArrowRight"":30}","true","ArrowDown,ArrowRight","false","original","1","48","","",""
"html-keyboard-response","170","903695","0.0-4.0-2.0-1.24","spark_pilot_norest","8610","7","13","Male","","","","","","","null","<div style=""font-size:60px;"">+</div>","null","fixation","","","","","","","","","49","","",""
"revaluation","171","909699","0.0-4.0-2.0-0.25","spark_pilot_norest","8610","7","13","Male","","","false","","","","[475.10000002384186,370.60000002384186]","./assets/img/canyon/memory/25.jpg","[""ArrowDown"",""ArrowRight""]","value training","canyon","30","{""ArrowUp,ArrowLeft"":23,""ArrowUp,ArrowRight"":10,""ArrowDown,ArrowLeft"":8,""ArrowDown,ArrowRight"":30}","true","ArrowDown,ArrowRight","false","original","1","50","","",""
"html-keyboard-response","172","910199","0.0-4.0-2.0-1.25","spark_pilot_norest","8610","7","13","Male","","","","","","","null","<div style=""font-size:60px;"">+</div>","null","fixation","","","","","","","","","51","","",""
"revaluation","173","916204","0.0-4.0-2.0-0.26","spark_pilot_norest","8610","7","13","Male","","","false","","","","[634.7999999523163,417.69999998807907]","./assets/img/canyon/memory/11.jpg","[""ArrowDown"",""ArrowRight""]","value training","canyon","30","{""ArrowUp,ArrowLeft"":23,""ArrowUp,ArrowRight"":10,""ArrowDown,ArrowLeft"":8,""ArrowDown,ArrowRight"":30}","true","ArrowDown,ArrowRight","false","original","1","52","","",""
"html-keyboard-response","174","916706","0.0-4.0-2.0-1.26","spark_pilot_norest","8610","7","13","Male","","","","","","","null","<div style=""font-size:60px;"">+</div>","null","fixation","","","","","","","","","53","","",""
"revaluation","175","920708","0.0-4.0-2.0-0.27","spark_pilot_norest","8610","7","13","Male","","","false","","","","[1105]","./assets/img/canyon/catch/0.jpg","[""spaceBar""]","value training","canyon","0","{""ArrowUp,ArrowLeft"":23,""ArrowUp,ArrowRight"":10,""ArrowDown,ArrowLeft"":8,""ArrowDown,ArrowRight"":30}","true","spaceBar","true","original","1","54","","",""
"html-keyboard-response","176","921209","0.0-4.0-2.0-1.27","spark_pilot_norest","8610","7","13","Male","","","","","","","null","<div style=""font-size:60px;"">+</div>","null","fixation","","","","","","","","","55","","",""
"revaluation","177","927214","0.0-4.0-2.0-0.28","spark_pilot_norest","8610","7","13","Male","","","false","","","","[521.0999999642372,1671.3999999761581]","./assets/img/canyon/memory/13.jpg","[""ArrowDown"",""ArrowRight""]","value training","canyon","30","{""ArrowUp,ArrowLeft"":23,""ArrowUp,ArrowRight"":10,""ArrowDown,ArrowLeft"":8,""ArrowDown,ArrowRight"":30}","true","ArrowDown,ArrowRight","false","original","1","56","","",""
"html-keyboard-response","178","927715","0.0-4.0-2.0-1.28","spark_pilot_norest","8610","7","13","Male","","","","","","","null","<div style=""font-size:60px;"">+</div>","null","fixation","","","","","","","","","57","","",""
"revaluation","179","933718","0.0-4.0-2.0-0.29","spark_pilot_norest","8610","7","13","Male","","","false","","","","[463,726.5]","./assets/img/canyon/memory/37.jpg","[""ArrowDown"",""ArrowRight""]","value training","canyon","30","{""ArrowUp,ArrowLeft"":23,""ArrowUp,ArrowRight"":10,""ArrowDown,ArrowLeft"":8,""ArrowDown,ArrowRight"":30}","true","ArrowDown,ArrowRight","false","original","1","58","","",""
"html-keyboard-response","180","934219","0.0-4.0-2.0-1.29","spark_pilot_norest","8610","7","13","Male","","","","","","","null","<div style=""font-size:60px;"">+</div>","null","fixation","","","","","","","","","59","","",""
"revaluation","181","940223","0.0-4.0-2.0-0.30","spark_pilot_norest","8610","7","13","Male","","","false","","","","[582.5,581.5999999642372]","./assets/img/canyon/memory/29.jpg","[""ArrowDown"",""ArrowRight""]","value training","canyon","30","{""ArrowUp,ArrowLeft"":23,""ArrowUp,ArrowRight"":10,""ArrowDown,ArrowLeft"":8,""ArrowDown,ArrowRight"":30}","true","ArrowDown,ArrowRight","false","original","1","60","","",""
"html-keyboard-response","182","940724","0.0-4.0-2.0-1.30","spark_pilot_norest","8610","7","13","Male","","","","","","","null","<div style=""font-size:60px;"">+</div>","null","fixation","","","","","","","","","61","","",""
"revaluation","183","946727","0.0-4.0-2.0-0.31","spark_pilot_norest","8610","7","13","Male","","","false","","","","[590.3999999761581,453.2000000476837]","./assets/img/canyon/memory/10.jpg","[""ArrowDown"",""ArrowRight""]","value training","canyon","30","{""ArrowUp,ArrowLeft"":23,""ArrowUp,ArrowRight"":10,""ArrowDown,ArrowLeft"":8,""ArrowDown,ArrowRight"":30}","true","ArrowDown,ArrowRight","false","original","1","62","","",""
"html-keyboard-response","184","947228","0.0-4.0-2.0-1.31","spark_pilot_norest","8610","7","13","Male","","","","","","","null","<div style=""font-size:60px;"">+</div>","null","fixation","","","","","","","","","63","","",""
"revaluation","185","953233","0.0-4.0-2.0-0.32","spark_pilot_norest","8610","7","13","Male","","","false","","","","[830,733]","./assets/img/canyon/memory/18.jpg","[""ArrowDown"",""ArrowRight""]","value training","canyon","30","{""ArrowUp,ArrowLeft"":23,""ArrowUp,ArrowRight"":10,""ArrowDown,ArrowLeft"":8,""ArrowDown,ArrowRight"":30}","true","ArrowDown,ArrowRight","false","original","1","64","","",""
"html-keyboard-response","186","953734","0.0-4.0-2.0-1.32","spark_pilot_norest","8610","7","13","Male","","","","","","","null","<div style=""font-size:60px;"">+</div>","null","fixation","","","","","","","","","65","","",""
"revaluation","187","959739","0.0-4.0-2.0-0.33","spark_pilot_norest","8610","7","13","Male","","","false","","","","[539.5999999642372,810.6000000238419]","./assets/img/canyon/memory/38.jpg","[""ArrowDown"",""ArrowRight""]","value training","canyon","30","{""ArrowUp,ArrowLeft"":23,""ArrowUp,ArrowRight"":10,""ArrowDown,ArrowLeft"":8,""ArrowDown,ArrowRight"":30}","true","ArrowDown,ArrowRight","false","original","1","66","","",""
"html-keyboard-response","188","960241","0.0-4.0-2.0-1.33","spark_pilot_norest","8610","7","13","Male","","","","","","","null","<div style=""font-size:60px;"">+</div>","null","fixation","","","","","","","","","67","","",""
"revaluation","189","966245","0.0-4.0-2.0-0.34","spark_pilot_norest","8610","7","13","Male","","","false","","","","[568.5,495.60000002384186]","./assets/img/canyon/memory/36.jpg","[""ArrowDown"",""ArrowRight""]","value training","canyon","30","{""ArrowUp,ArrowLeft"":23,""ArrowUp,ArrowRight"":10,""ArrowDown,ArrowLeft"":8,""ArrowDown,ArrowRight"":30}","true","ArrowDown,ArrowRight","false","original","1","68","","",""
"html-keyboard-response","190","966747","0.0-4.0-2.0-1.34","spark_pilot_norest","8610","7","13","Male","","","","","","","null","<div style=""font-size:60px;"">+</div>","null","fixation","","","","","","","","","69","","",""
"revaluation","191","970750","0.0-4.0-2.0-0.35","spark_pilot_norest","8610","7","13","Male","","","false","","","","[470.69999998807907]","./assets/img/canyon/catch/5.jpg","[""ArrowDown""]","value training","canyon","-10","{""ArrowUp,ArrowLeft"":23,""ArrowUp,ArrowRight"":10,""ArrowDown,ArrowLeft"":8,""ArrowDown,ArrowRight"":30}","false","ArrowDown","true","original","1","70","","",""
"html-keyboard-response","192","971251","0.0-4.0-2.0-1.35","spark_pilot_norest","8610","7","13","Male","","","","","","","null","<div style=""font-size:60px;"">+</div>","null","fixation","","","","","","","","","71","","",""
"revaluation","193","977256","0.0-4.0-2.0-0.36","spark_pilot_norest","8610","7","13","Male","","","false","","","","[926.5999999642372,588.8999999761581]","./assets/img/canyon/memory/20.jpg","[""ArrowDown"",""ArrowRight""]","value training","canyon","30","{""ArrowUp,ArrowLeft"":23,""ArrowUp,ArrowRight"":10,""ArrowDown,ArrowLeft"":8,""ArrowDown,ArrowRight"":30}","true","ArrowDown,ArrowRight","false","original","1","72","","",""
"html-keyboard-response","194","977758","0.0-4.0-2.0-1.36","spark_pilot_norest","8610","7","13","Male","","","","","","","null","<div style=""font-size:60px;"">+</div>","null","fixation","","","","","","","","","73","","",""
"revaluation","195","983761","0.0-4.0-2.0-0.37","spark_pilot_norest","8610","7","13","Male","","","false","","","","[1011.6999999880791,507.5999999642372]","./assets/img/canyon/memory/0.jpg","[""ArrowDown"",""ArrowRight""]","value training","canyon","30","{""ArrowUp,ArrowLeft"":23,""ArrowUp,ArrowRight"":10,""ArrowDown,ArrowLeft"":8,""ArrowDown,ArrowRight"":30}","true","ArrowDown,ArrowRight","false","original","1","74","","",""
"html-keyboard-response","196","984263","0.0-4.0-2.0-1.37","spark_pilot_norest","8610","7","13","Male","","","","","","","null","<div style=""font-size:60px;"">+</div>","null","fixation","","","","","","","","","75","","",""
"revaluation","197","990266","0.0-4.0-2.0-0.38","spark_pilot_norest","8610","7","13","Male","","","false","","","","[715.1000000238419,362.5999999642372]","./assets/img/canyon/memory/37.jpg","[""ArrowDown"",""ArrowRight""]","value training","canyon","30","{""ArrowUp,ArrowLeft"":23,""ArrowUp,ArrowRight"":10,""ArrowDown,ArrowLeft"":8,""ArrowDown,ArrowRight"":30}","true","ArrowDown,ArrowRight","false","original","1","76","","",""
"html-keyboard-response","198","990766","0.0-4.0-2.0-1.38","spark_pilot_norest","8610","7","13","Male","","","","","","","null","<div style=""font-size:60px;"">+</div>","null","fixation","","","","","","","","","77","","",""
"revaluation","199","996772","0.0-4.0-2.0-0.39","spark_pilot_norest","8610","7","13","Male","","","false","","","","[483.4000000357628,593.8000000119209]","./assets/img/canyon/memory/23.jpg","[""ArrowDown"",""ArrowRight""]","value training","canyon","30","{""ArrowUp,ArrowLeft"":23,""ArrowUp,ArrowRight"":10,""ArrowDown,ArrowLeft"":8,""ArrowDown,ArrowRight"":30}","true","ArrowDown,ArrowRight","false","original","1","78","","",""
"html-keyboard-response","200","997273","0.0-4.0-2.0-1.39","spark_pilot_norest","8610","7","13","Male","","","","","","","null","<div style=""font-size:60px;"">+</div>","null","fixation","","","","","","","","","79","","",""
"revaluation","201","1003277","0.0-4.0-2.0-0.40","spark_pilot_norest","8610","7","13","Male","","","false","","","","[1200.8999999761581,408.19999998807907]","./assets/img/canyon/memory/31.jpg","[""ArrowDown"",""ArrowRight""]","value training","canyon","30","{""ArrowUp,ArrowLeft"":23,""ArrowUp,ArrowRight"":10,""ArrowDown,ArrowLeft"":8,""ArrowDown,ArrowRight"":30}","true","ArrowDown,ArrowRight","false","original","1","80","","",""
"html-keyboard-response","202","1003778","0.0-4.0-2.0-1.40","spark_pilot_norest","8610","7","13","Male","","","","","","","null","<div style=""font-size:60px;"">+</div>","null","fixation","","","","","","","","","81","","",""
"revaluation","203","1009784","0.0-4.0-2.0-0.41","spark_pilot_norest","8610","7","13","Male","","","false","","","","[678.3999999761581,781.3000000119209]","./assets/img/canyon/memory/0.jpg","[""ArrowDown"",""ArrowRight""]","value training","canyon","30","{""ArrowUp,ArrowLeft"":23,""ArrowUp,ArrowRight"":10,""ArrowDown,ArrowLeft"":8,""ArrowDown,ArrowRight"":30}","true","ArrowDown,ArrowRight","false","original","1","82","","",""
"html-keyboard-response","204","1010284","0.0-4.0-2.0-1.41","spark_pilot_norest","8610","7","13","Male","","","","","","","null","<div style=""font-size:60px;"">+</div>","null","fixation","","","","","","","","","83","","",""
"revaluation","205","1016289","0.0-4.0-2.0-0.42","spark_pilot_norest","8610","7","13","Male","","","false","","","","[725,700.1999999880791]","./assets/img/canyon/memory/31.jpg","[""ArrowDown"",""ArrowRight""]","value training","canyon","30","{""ArrowUp,ArrowLeft"":23,""ArrowUp,ArrowRight"":10,""ArrowDown,ArrowLeft"":8,""ArrowDown,ArrowRight"":30}","true","ArrowDown,ArrowRight","false","original","1","84","","",""
"html-keyboard-response","206","1016790","0.0-4.0-2.0-1.42","spark_pilot_norest","8610","7","13","Male","","","","","","","null","<div style=""font-size:60px;"">+</div>","null","fixation","","","","","","","","","85","","",""
"revaluation","207","1020795","0.0-4.0-2.0-0.43","spark_pilot_norest","8610","7","13","Male","","","false","","","","[675.5]","./assets/img/canyon/catch/7.jpg","[""spaceBar""]","value training","canyon","0","{""ArrowUp,ArrowLeft"":23,""ArrowUp,ArrowRight"":10,""ArrowDown,ArrowLeft"":8,""ArrowDown,ArrowRight"":30}","true","spaceBar","true","original","1","86","","",""
"html-keyboard-response","208","1021296","0.0-4.0-2.0-1.43","spark_pilot_norest","8610","7","13","Male","","","","","","","null","<div style=""font-size:60px;"">+</div>","null","fixation","","","","","","","","","87","","",""
"revaluation","209","1027301","0.0-4.0-2.0-0.44","spark_pilot_norest","8610","7","13","Male","","","false","","","","[440.80000001192093,392.4000000357628]","./assets/img/canyon/memory/30.jpg","[""ArrowDown"",""ArrowRight""]","value training","canyon","30","{""ArrowUp,ArrowLeft"":23,""ArrowUp,ArrowRight"":10,""ArrowDown,ArrowLeft"":8,""ArrowDown,ArrowRight"":30}","true","ArrowDown,ArrowRight","false","original","1","88","","",""
"html-keyboard-response","210","1027802","0.0-4.0-2.0-1.44","spark_pilot_norest","8610","7","13","Male","","","","","","","null","<div style=""font-size:60px;"">+</div>","null","fixation","","","","","","","","","89","","",""
"revaluation","211","1033806","0.0-4.0-2.0-0.45","spark_pilot_norest","8610","7","13","Male","","","false","","","","[855.1999999880791,639.0999999642372]","./assets/img/canyon/memory/29.jpg","[""ArrowDown"",""ArrowRight""]","value training","canyon","30","{""ArrowUp,ArrowLeft"":23,""ArrowUp,ArrowRight"":10,""ArrowDown,ArrowLeft"":8,""ArrowDown,ArrowRight"":30}","true","ArrowDown,ArrowRight","false","original","1","90","","",""
"html-keyboard-response","212","1034307","0.0-4.0-2.0-1.45","spark_pilot_norest","8610","7","13","Male","","","","","","","null","<div style=""font-size:60px;"">+</div>","null","fixation","","","","","","","","","91","","",""
"revaluation","213","1040313","0.0-4.0-2.0-0.46","spark_pilot_norest","8610","7","13","Male","","","false","","","","[557.3999999761581,764.5999999642372]","./assets/img/canyon/memory/36.jpg","[""ArrowDown"",""ArrowRight""]","value training","canyon","30","{""ArrowUp,ArrowLeft"":23,""ArrowUp,ArrowRight"":10,""ArrowDown,ArrowLeft"":8,""ArrowDown,ArrowRight"":30}","true","ArrowDown,ArrowRight","false","original","1","92","","",""
"html-keyboard-response","214","1040814","0.0-4.0-2.0-1.46","spark_pilot_norest","8610","7","13","Male","","","","","","","null","<div style=""font-size:60px;"">+</div>","null","fixation","","","","","","","","","93","","",""
"revaluation","215","1046820","0.0-4.0-2.0-0.47","spark_pilot_norest","8610","7","13","Male","","","false","","","","[457.89999997615814,472.89999997615814]","./assets/img/canyon/memory/11.jpg","[""ArrowDown"",""ArrowRight""]","value training","canyon","30","{""ArrowUp,ArrowLeft"":23,""ArrowUp,ArrowRight"":10,""ArrowDown,ArrowLeft"":8,""ArrowDown,ArrowRight"":30}","true","ArrowDown,ArrowRight","false","original","1","94","","",""
"html-keyboard-response","216","1047321","0.0-4.0-2.0-1.47","spark_pilot_norest","8610","7","13","Male","","","","","","","null","<div style=""font-size:60px;"">+</div>","null","fixation","","","","","","","","","95","","",""
"revaluation","217","1051324","0.0-4.0-2.0-0.48","spark_pilot_norest","8610","7","13","Male","","","false","","","","[568.6000000238419]","./assets/img/canyon/catch/2.jpg","[""ArrowDown""]","value training","canyon","-10","{""ArrowUp,ArrowLeft"":23,""ArrowUp,ArrowRight"":10,""ArrowDown,ArrowLeft"":8,""ArrowDown,ArrowRight"":30}","false","ArrowDown","true","original","1","96","","",""
"html-keyboard-response","218","1051825","0.0-4.0-2.0-1.48","spark_pilot_norest","8610","7","13","Male","","","","","","","null","<div style=""font-size:60px;"">+</div>","null","fixation","","","","","","","","","97","","",""
"revaluation","219","1057830","0.0-4.0-2.0-0.49","spark_pilot_norest","8610","7","13","Male","","","false","","","","[1751.5,582.6999999880791]","./assets/img/canyon/memory/24.jpg","[""ArrowDown"",""ArrowRight""]","value training","canyon","30","{""ArrowUp,ArrowLeft"":23,""ArrowUp,ArrowRight"":10,""ArrowDown,ArrowLeft"":8,""ArrowDown,ArrowRight"":30}","true","ArrowDown,ArrowRight","false","original","1","98","","",""
"html-keyboard-response","220","1058331","0.0-4.0-2.0-1.49","spark_pilot_norest","8610","7","13","Male","","","","","","","null","<div style=""font-size:60px;"">+</div>","null","fixation","","","","","","","","","99","","",""
"learning-instructions","221","1074899","0.0-4.0-3.0-0.0","spark_pilot_norest","8610","7","13","Male","","","","","","","3651.899999976158","<p> Now, you will travel with a friend who will choose whether you go up or down first. </p>
            <p> On these turns, you will just see the animal that they found. You will still get to choose which chest to search for treasure.</p>","","instructions","","","","","","","","","","","",""
"revaluation","222","1078908","0.0-4.0-4.0-0.0","spark_pilot_norest","8610","7","13","Male","","","false","","","","[1734.9000000357628]","./assets/img/canyon/animals/lion.jpg","[""ArrowLeft""]","revaluation","canyon","23","{""ArrowUp,ArrowLeft"":23,""ArrowUp,ArrowRight"":10,""ArrowDown,ArrowLeft"":8,""ArrowDown,ArrowRight"":30}","true","ArrowUp,ArrowLeft","","original","1","0","","",""
"html-keyboard-response","223","1079418","0.0-4.0-4.0-1.0","spark_pilot_norest","8610","7","13","Male","","","","","","","null","<div style=""font-size:60px;"">+</div>","null","fixation","","","","","","","","","1","","",""
"revaluation","224","1083432","0.0-4.0-4.0-0.1","spark_pilot_norest","8610","7","13","Male","","","false","","","","[951.6000000238419]","./assets/img/canyon/animals/giraffe.jpg","[""ArrowRight""]","revaluation","canyon","30","{""ArrowUp,ArrowLeft"":23,""ArrowUp,ArrowRight"":10,""ArrowDown,ArrowLeft"":8,""ArrowDown,ArrowRight"":30}","true","ArrowDown,ArrowRight","","original","1","2","","",""
"html-keyboard-response","225","1083940","0.0-4.0-4.0-1.1","spark_pilot_norest","8610","7","13","Male","","","","","","","null","<div style=""font-size:60px;"">+</div>","null","fixation","","","","","","","","","3","","",""
"revaluation","226","1087953","0.0-4.0-4.0-0.2","spark_pilot_norest","8610","7","13","Male","","","false","","","","[980.8000000119209]","./assets/img/canyon/animals/lion.jpg","[""ArrowLeft""]","revaluation","canyon","23","{""ArrowUp,ArrowLeft"":23,""ArrowUp,ArrowRight"":10,""ArrowDown,ArrowLeft"":8,""ArrowDown,ArrowRight"":30}","true","ArrowUp,ArrowLeft","","original","1","4","","",""
"html-keyboard-response","227","1088462","0.0-4.0-4.0-1.2","spark_pilot_norest","8610","7","13","Male","","","","","","","null","<div style=""font-size:60px;"">+</div>","null","fixation","","","","","","","","","5","","",""
"revaluation","228","1092472","0.0-4.0-4.0-0.3","spark_pilot_norest","8610","7","13","Male","","","false","","","","[499.30000001192093]","./assets/img/canyon/animals/giraffe.jpg","[""ArrowRight""]","revaluation","canyon","30","{""ArrowUp,ArrowLeft"":23,""ArrowUp,ArrowRight"":10,""ArrowDown,ArrowLeft"":8,""ArrowDown,ArrowRight"":30}","true","ArrowDown,ArrowRight","","original","1","6","","",""
"html-keyboard-response","229","1092980","0.0-4.0-4.0-1.3","spark_pilot_norest","8610","7","13","Male","","","","","","","null","<div style=""font-size:60px;"">+</div>","null","fixation","","","","","","","","","7","","",""
"revaluation","230","1096992","0.0-4.0-4.0-0.4","spark_pilot_norest","8610","7","13","Male","","","false","","","","[541.5]","./assets/img/canyon/animals/giraffe.jpg","[""ArrowRight""]","revaluation","canyon","30","{""ArrowUp,ArrowLeft"":23,""ArrowUp,ArrowRight"":10,""ArrowDown,ArrowLeft"":8,""ArrowDown,ArrowRight"":30}","true","ArrowDown,ArrowRight","","original","1","8","","",""
"html-keyboard-response","231","1097502","0.0-4.0-4.0-1.4","spark_pilot_norest","8610","7","13","Male","","","","","","","null","<div style=""font-size:60px;"">+</div>","null","fixation","","","","","","","","","9","","",""
"revaluation","232","1101517","0.0-4.0-4.0-0.5","spark_pilot_norest","8610","7","13","Male","","","false","","","","[578.8000000119209]","./assets/img/canyon/animals/giraffe.jpg","[""ArrowRight""]","revaluation","canyon","30","{""ArrowUp,ArrowLeft"":23,""ArrowUp,ArrowRight"":10,""ArrowDown,ArrowLeft"":8,""ArrowDown,ArrowRight"":30}","true","ArrowDown,ArrowRight","","original","1","10","","",""
"html-keyboard-response","233","1102018","0.0-4.0-4.0-1.5","spark_pilot_norest","8610","7","13","Male","","","","","","","null","<div style=""font-size:60px;"">+</div>","null","fixation","","","","","","","","","11","","",""
"revaluation","234","1106022","0.0-4.0-4.0-0.6","spark_pilot_norest","8610","7","13","Male","","","false","","","","[318.30000001192093]","./assets/img/canyon/animals/giraffe.jpg","[""ArrowRight""]","revaluation","canyon","30","{""ArrowUp,ArrowLeft"":23,""ArrowUp,ArrowRight"":10,""ArrowDown,ArrowLeft"":8,""ArrowDown,ArrowRight"":30}","true","ArrowDown,ArrowRight","","original","1","12","","",""
"html-keyboard-response","235","1106523","0.0-4.0-4.0-1.6","spark_pilot_norest","8610","7","13","Male","","","","","","","null","<div style=""font-size:60px;"">+</div>","null","fixation","","","","","","","","","13","","",""
"revaluation","236","1110527","0.0-4.0-4.0-0.7","spark_pilot_norest","8610","7","13","Male","","","false","","","","[157.69999998807907]","./assets/img/canyon/animals/lion.jpg","[""ArrowRight""]","revaluation","canyon","10","{""ArrowUp,ArrowLeft"":23,""ArrowUp,ArrowRight"":10,""ArrowDown,ArrowLeft"":8,""ArrowDown,ArrowRight"":30}","false","ArrowUp,ArrowRight","","original","1","14","","",""
"html-keyboard-response","237","1111028","0.0-4.0-4.0-1.7","spark_pilot_norest","8610","7","13","Male","","","","","","","null","<div style=""font-size:60px;"">+</div>","null","fixation","","","","","","","","","15","","",""
"revaluation","238","1115032","0.0-4.0-4.0-0.8","spark_pilot_norest","8610","7","13","Male","","","false","","","","[1084.699999988079]","./assets/img/canyon/animals/giraffe.jpg","[""ArrowRight""]","revaluation","canyon","30","{""ArrowUp,ArrowLeft"":23,""ArrowUp,ArrowRight"":10,""ArrowDown,ArrowLeft"":8,""ArrowDown,ArrowRight"":30}","true","ArrowDown,ArrowRight","","original","1","16","","",""
"html-keyboard-response","239","1115533","0.0-4.0-4.0-1.8","spark_pilot_norest","8610","7","13","Male","","","","","","","null","<div style=""font-size:60px;"">+</div>","null","fixation","","","","","","","","","17","","",""
"revaluation","240","1119538","0.0-4.0-4.0-0.9","spark_pilot_norest","8610","7","13","Male","","","false","","","","[635.9000000357628]","./assets/img/canyon/animals/lion.jpg","[""ArrowLeft""]","revaluation","canyon","23","{""ArrowUp,ArrowLeft"":23,""ArrowUp,ArrowRight"":10,""ArrowDown,ArrowLeft"":8,""ArrowDown,ArrowRight"":30}","true","ArrowUp,ArrowLeft","","original","1","18","","",""
"html-keyboard-response","241","1120039","0.0-4.0-4.0-1.9","spark_pilot_norest","8610","7","13","Male","","","","","","","null","<div style=""font-size:60px;"">+</div>","null","fixation","","","","","","","","","19","","",""
"revaluation","242","1124042","0.0-4.0-4.0-0.10","spark_pilot_norest","8610","7","13","Male","","","false","","","","[417.60000002384186]","./assets/img/canyon/animals/giraffe.jpg","[""ArrowRight""]","revaluation","canyon","30","{""ArrowUp,ArrowLeft"":23,""ArrowUp,ArrowRight"":10,""ArrowDown,ArrowLeft"":8,""ArrowDown,ArrowRight"":30}","true","ArrowDown,ArrowRight","","original","1","20","","",""
"html-keyboard-response","243","1124542","0.0-4.0-4.0-1.10","spark_pilot_norest","8610","7","13","Male","","","","","","","null","<div style=""font-size:60px;"">+</div>","null","fixation","","","","","","","","","21","","",""
"revaluation","244","1128548","0.0-4.0-4.0-0.11","spark_pilot_norest","8610","7","13","Male","","","false","","","","[817.3000000119209]","./assets/img/canyon/animals/lion.jpg","[""ArrowLeft""]","revaluation","canyon","23","{""ArrowUp,ArrowLeft"":23,""ArrowUp,ArrowRight"":10,""ArrowDown,ArrowLeft"":8,""ArrowDown,ArrowRight"":30}","true","ArrowUp,ArrowLeft","","original","1","22","","",""
"html-keyboard-response","245","1129049","0.0-4.0-4.0-1.11","spark_pilot_norest","8610","7","13","Male","","","","","","","null","<div style=""font-size:60px;"">+</div>","null","fixation","","","","","","","","","23","","",""
"revaluation","246","1133051","0.0-4.0-4.0-0.12","spark_pilot_norest","8610","7","13","Male","","","false","","","","[952.3999999761581]","./assets/img/canyon/animals/giraffe.jpg","[""ArrowRight""]","revaluation","canyon","30","{""ArrowUp,ArrowLeft"":23,""ArrowUp,ArrowRight"":10,""ArrowDown,ArrowLeft"":8,""ArrowDown,ArrowRight"":30}","true","ArrowDown,ArrowRight","","original","1","24","","",""
"html-keyboard-response","247","1133553","0.0-4.0-4.0-1.12","spark_pilot_norest","8610","7","13","Male","","","","","","","null","<div style=""font-size:60px;"">+</div>","null","fixation","","","","","","","","","25","","",""
"revaluation","248","1137556","0.0-4.0-4.0-0.13","spark_pilot_norest","8610","7","13","Male","","","false","","","","[424.0999999642372]","./assets/img/canyon/animals/giraffe.jpg","[""ArrowLeft""]","revaluation","canyon","8","{""ArrowUp,ArrowLeft"":23,""ArrowUp,ArrowRight"":10,""ArrowDown,ArrowLeft"":8,""ArrowDown,ArrowRight"":30}","false","ArrowDown,ArrowLeft","","original","1","26","","",""
"html-keyboard-response","249","1138057","0.0-4.0-4.0-1.13","spark_pilot_norest","8610","7","13","Male","","","","","","","null","<div style=""font-size:60px;"">+</div>","null","fixation","","","","","","","","","27","","",""
"revaluation","250","1142061","0.0-4.0-4.0-0.14","spark_pilot_norest","8610","7","13","Male","","","false","","","","[735]","./assets/img/canyon/animals/lion.jpg","[""ArrowLeft""]","revaluation","canyon","23","{""ArrowUp,ArrowLeft"":23,""ArrowUp,ArrowRight"":10,""ArrowDown,ArrowLeft"":8,""ArrowDown,ArrowRight"":30}","true","ArrowUp,ArrowLeft","","original","1","28","","",""
"html-keyboard-response","251","1142563","0.0-4.0-4.0-1.14","spark_pilot_norest","8610","7","13","Male","","","","","","","null","<div style=""font-size:60px;"">+</div>","null","fixation","","","","","","","","","29","","",""
"revaluation","252","1146566","0.0-4.0-4.0-0.15","spark_pilot_norest","8610","7","13","Male","","","false","","","","[453.60000002384186]","./assets/img/canyon/animals/lion.jpg","[""ArrowRight""]","revaluation","canyon","10","{""ArrowUp,ArrowLeft"":23,""ArrowUp,ArrowRight"":10,""ArrowDown,ArrowLeft"":8,""ArrowDown,ArrowRight"":30}","false","ArrowUp,ArrowRight","","original","1","30","","",""
"html-keyboard-response","253","1147067","0.0-4.0-4.0-1.15","spark_pilot_norest","8610","7","13","Male","","","","","","","null","<div style=""font-size:60px;"">+</div>","null","fixation","","","","","","","","","31","","",""
"revaluation","254","1151070","0.0-4.0-4.0-0.16","spark_pilot_norest","8610","7","13","Male","","","false","","","","[934.4000000357628]","./assets/img/canyon/animals/lion.jpg","[""ArrowRight""]","revaluation","canyon","10","{""ArrowUp,ArrowLeft"":23,""ArrowUp,ArrowRight"":10,""ArrowDown,ArrowLeft"":8,""ArrowDown,ArrowRight"":30}","false","ArrowUp,ArrowRight","","original","1","32","","",""
"html-keyboard-response","255","1151571","0.0-4.0-4.0-1.16","spark_pilot_norest","8610","7","13","Male","","","","","","","null","<div style=""font-size:60px;"">+</div>","null","fixation","","","","","","","","","33","","",""
"revaluation","256","1155575","0.0-4.0-4.0-0.17","spark_pilot_norest","8610","7","13","Male","","","false","","","","[1517.300000011921]","./assets/img/canyon/animals/lion.jpg","[""ArrowLeft""]","revaluation","canyon","23","{""ArrowUp,ArrowLeft"":23,""ArrowUp,ArrowRight"":10,""ArrowDown,ArrowLeft"":8,""ArrowDown,ArrowRight"":30}","true","ArrowUp,ArrowLeft","","original","1","34","","",""
"html-keyboard-response","257","1156077","0.0-4.0-4.0-1.17","spark_pilot_norest","8610","7","13","Male","","","","","","","null","<div style=""font-size:60px;"">+</div>","null","fixation","","","","","","","","","35","","",""
"learning-instructions","258","1164229","0.0-4.0-5.0-0.0","spark_pilot_norest","8610","7","13","Male","","","","","","","null","<p> You have almost finished this part of the game! </p>
            <p> We are going to ask you to make a few more choices. </p>","","instructions","","","","","","","","","","","",""
"learning-instructions","259","1180209","0.0-4.0-5.0-0.1","spark_pilot_norest","8610","7","13","Male","","","","","","","null","<p> First, you need to decide whether to go up or down. When you see each picture, use the arrow keys to make your choice. </p>
            <p><b>You will not see which animal you found, but try to get to the one that will give you the most treasure.</b></p>","","instructions","","","","","","","","","","","",""
"html-keyboard-response","260","1181210","0.0-4.0-6.0-0.0","spark_pilot_norest","8610","7","13","Male","","","","","","","null","<div style=""font-size:100px;color:red;"">Starting in...</div>","null","","","","","","","","","","","","",""
"html-keyboard-response","261","1182226","0.0-4.0-6.0-1.0","spark_pilot_norest","8610","7","13","Male","","","","","","","null","<div style=""font-size:200px;color:red;"">3</div>","null","","","","","","","","","","","","",""
"html-keyboard-response","262","1183242","0.0-4.0-6.0-2.0","spark_pilot_norest","8610","7","13","Male","","","","","","","null","<div style=""font-size:200px;color:red;"">2</div>","null","","","","","","","","","","","","",""
"html-keyboard-response","263","1184244","0.0-4.0-6.0-3.0","spark_pilot_norest","8610","7","13","Male","","","","","","","null","<div style=""font-size:200px;color:red;"">1</div>","null","","","","","","","","","","","","",""
"revaluation","264","1188235","0.0-4.0-7.0-0.0","spark_pilot_norest","8610","7","13","Male","","","false","","","","[3988.199999988079]","./assets/img/canyon/test/2.jpg","[""ArrowDown""]","first stage test","canyon","0","{""ArrowUp,ArrowLeft"":23,""ArrowUp,ArrowRight"":10,""ArrowDown,ArrowLeft"":8,""ArrowDown,ArrowRight"":30}","true","ArrowDown","false","original","1","","","",""
"html-keyboard-response","265","1188742","0.0-4.0-7.0-1.0","spark_pilot_norest","8610","7","13","Male","","","","","","","null","<div style=""font-size:60px;"">+</div>","null","fixation","","","","","","","","","","","",""
"revaluation","266","1189515","0.0-4.0-7.0-0.1","spark_pilot_norest","8610","7","13","Male","","","false","","","","[769.8000000119209]","./assets/img/canyon/test/0.jpg","[""ArrowDown""]","first stage test","canyon","0","{""ArrowUp,ArrowLeft"":23,""ArrowUp,ArrowRight"":10,""ArrowDown,ArrowLeft"":8,""ArrowDown,ArrowRight"":30}","true","ArrowDown","false","original","1","","","",""
"html-keyboard-response","267","1190023","0.0-4.0-7.0-1.1","spark_pilot_norest","8610","7","13","Male","","","","","","","null","<div style=""font-size:60px;"">+</div>","null","fixation","","","","","","","","","","","",""
"revaluation","268","1190634","0.0-4.0-7.0-0.2","spark_pilot_norest","8610","7","13","Male","","","false","","","","[609.7999999523163]","./assets/img/canyon/test/1.jpg","[""ArrowDown""]","first stage test","canyon","0","{""ArrowUp,ArrowLeft"":23,""ArrowUp,ArrowRight"":10,""ArrowDown,ArrowLeft"":8,""ArrowDown,ArrowRight"":30}","true","ArrowDown","false","original","1","","","",""
"html-keyboard-response","269","1191142","0.0-4.0-7.0-1.2","spark_pilot_norest","8610","7","13","Male","","","","","","","null","<div style=""font-size:60px;"">+</div>","null","fixation","","","","","","","","","","","",""
"revaluation","270","1191554","0.0-4.0-7.0-0.3","spark_pilot_norest","8610","7","13","Male","","","false","","","","[410.19999998807907]","./assets/img/canyon/test/3.jpg","[""ArrowDown""]","first stage test","canyon","0","{""ArrowUp,ArrowLeft"":23,""ArrowUp,ArrowRight"":10,""ArrowDown,ArrowLeft"":8,""ArrowDown,ArrowRight"":30}","true","ArrowDown","false","original","1","","","",""
"html-keyboard-response","271","1192070","0.0-4.0-7.0-1.3","spark_pilot_norest","8610","7","13","Male","","","","","","","null","<div style=""font-size:60px;"">+</div>","null","fixation","","","","","","","","","","","",""
"learning-instructions","272","1205422","0.0-4.0-8.0-0.0","spark_pilot_norest","8610","7","13","Male","","","","","","","null","<p> Now you will see the animals again and can search their chests for treasure. </p>
            <p> This time, you will not see how much treasure you earned, but you will earn more bonus money for making better choices. </p>","","instructions","","","","","","","","","","","",""
"html-keyboard-response","273","1206425","0.0-4.0-9.0-0.0","spark_pilot_norest","8610","7","13","Male","","","","","","","null","<div style=""font-size:100px;color:red;"">Starting in...</div>","null","","","","","","","","","","","","",""
"html-keyboard-response","274","1207428","0.0-4.0-9.0-1.0","spark_pilot_norest","8610","7","13","Male","","","","","","","null","<div style=""font-size:200px;color:red;"">3</div>","null","","","","","","","","","","","","",""
"html-keyboard-response","275","1208430","0.0-4.0-9.0-2.0","spark_pilot_norest","8610","7","13","Male","","","","","","","null","<div style=""font-size:200px;color:red;"">2</div>","null","","","","","","","","","","","","",""
"html-keyboard-response","276","1209436","0.0-4.0-9.0-3.0","spark_pilot_norest","8610","7","13","Male","","","","","","","null","<div style=""font-size:200px;color:red;"">1</div>","null","","","","","","","","","","","","",""
"revaluation","277","1210962","0.0-4.0-10.0-0.0","spark_pilot_norest","8610","7","13","Male","","","false","","","","[1524.699999988079]","./assets/img/canyon/animals/lion.jpg","[""ArrowLeft""]","second stage test","canyon","0","{""ArrowUp,ArrowLeft"":23,""ArrowUp,ArrowRight"":10,""ArrowDown,ArrowLeft"":8,""ArrowDown,ArrowRight"":30}","true","ArrowUp,ArrowLeft","","original","1","","","",""
"html-keyboard-response","278","1211471","0.0-4.0-10.0-1.0","spark_pilot_norest","8610","7","13","Male","","","","","","","null","<div style=""font-size:60px;"">+</div>","null","fixation","","","","","","","","","","","",""
"revaluation","279","1212074","0.0-4.0-10.0-0.1","spark_pilot_norest","8610","7","13","Male","","","false","","","","[601.6999999880791]","./assets/img/canyon/animals/lion.jpg","[""ArrowLeft""]","second stage test","canyon","0","{""ArrowUp,ArrowLeft"":23,""ArrowUp,ArrowRight"":10,""ArrowDown,ArrowLeft"":8,""ArrowDown,ArrowRight"":30}","true","ArrowUp,ArrowLeft","","original","1","","","",""
"html-keyboard-response","280","1212580","0.0-4.0-10.0-1.1","spark_pilot_norest","8610","7","13","Male","","","","","","","null","<div style=""font-size:60px;"">+</div>","null","fixation","","","","","","","","","","","",""
"revaluation","281","1212962","0.0-4.0-10.0-0.2","spark_pilot_norest","8610","7","13","Male","","","false","","","","[380.69999998807907]","./assets/img/canyon/animals/lion.jpg","[""ArrowLeft""]","second stage test","canyon","0","{""ArrowUp,ArrowLeft"":23,""ArrowUp,ArrowRight"":10,""ArrowDown,ArrowLeft"":8,""ArrowDown,ArrowRight"":30}","true","ArrowUp,ArrowLeft","","original","1","","","",""
"html-keyboard-response","282","1213472","0.0-4.0-10.0-1.2","spark_pilot_norest","8610","7","13","Male","","","","","","","null","<div style=""font-size:60px;"">+</div>","null","fixation","","","","","","","","","","","",""
"revaluation","283","1213794","0.0-4.0-10.0-0.3","spark_pilot_norest","8610","7","13","Male","","","false","","","","[320.39999997615814]","./assets/img/canyon/animals/lion.jpg","[""ArrowLeft""]","second stage test","canyon","0","{""ArrowUp,ArrowLeft"":23,""ArrowUp,ArrowRight"":10,""ArrowDown,ArrowLeft"":8,""ArrowDown,ArrowRight"":30}","true","ArrowUp,ArrowLeft","","original","1","","","",""
"html-keyboard-response","284","1214307","0.0-4.0-10.0-1.3","spark_pilot_norest","8610","7","13","Male","","","","","","","null","<div style=""font-size:60px;"">+</div>","null","fixation","","","","","","","","","","","",""
"revaluation","285","1214898","0.0-4.0-10.0-0.4","spark_pilot_norest","8610","7","13","Male","","","false","","","","[589.8999999761581]","./assets/img/canyon/animals/giraffe.jpg","[""ArrowLeft""]","second stage test","canyon","0","{""ArrowUp,ArrowLeft"":23,""ArrowUp,ArrowRight"":10,""ArrowDown,ArrowLeft"":8,""ArrowDown,ArrowRight"":30}","false","ArrowDown,ArrowLeft","","original","1","","","",""
"html-keyboard-response","286","1215400","0.0-4.0-10.0-1.4","spark_pilot_norest","8610","7","13","Male","","","","","","","null","<div style=""font-size:60px;"">+</div>","null","fixation","","","","","","","","","","","",""
"revaluation","287","1215882","0.0-4.0-10.0-0.5","spark_pilot_norest","8610","7","13","Male","","","false","","","","[480.5]","./assets/img/canyon/animals/giraffe.jpg","[""ArrowRight""]","second stage test","canyon","0","{""ArrowUp,ArrowLeft"":23,""ArrowUp,ArrowRight"":10,""ArrowDown,ArrowLeft"":8,""ArrowDown,ArrowRight"":30}","true","ArrowDown,ArrowRight","","original","1","","","",""
"html-keyboard-response","288","1216385","0.0-4.0-10.0-1.5","spark_pilot_norest","8610","7","13","Male","","","","","","","null","<div style=""font-size:60px;"">+</div>","null","fixation","","","","","","","","","","","",""
"revaluation","289","1216778","0.0-4.0-10.0-0.6","spark_pilot_norest","8610","7","13","Male","","","false","","","","[391.69999998807907]","./assets/img/canyon/animals/giraffe.jpg","[""ArrowRight""]","second stage test","canyon","0","{""ArrowUp,ArrowLeft"":23,""ArrowUp,ArrowRight"":10,""ArrowDown,ArrowLeft"":8,""ArrowDown,ArrowRight"":30}","true","ArrowDown,ArrowRight","","original","1","","","",""
"html-keyboard-response","290","1217280","0.0-4.0-10.0-1.6","spark_pilot_norest","8610","7","13","Male","","","","","","","null","<div style=""font-size:60px;"">+</div>","null","fixation","","","","","","","","","","","",""
"revaluation","291","1217722","0.0-4.0-10.0-0.7","spark_pilot_norest","8610","7","13","Male","","","false","","","","[440.2999999523163]","./assets/img/canyon/animals/giraffe.jpg","[""ArrowRight""]","second stage test","canyon","0","{""ArrowUp,ArrowLeft"":23,""ArrowUp,ArrowRight"":10,""ArrowDown,ArrowLeft"":8,""ArrowDown,ArrowRight"":30}","true","ArrowDown,ArrowRight","","original","1","","","",""
"html-keyboard-response","292","1218238","0.0-4.0-10.0-1.7","spark_pilot_norest","8610","7","13","Male","","","","","","","null","<div style=""font-size:60px;"">+</div>","null","fixation","","","","","","","","","","","",""
"learning-instructions","293","1223858","0.0-4.0-0.1-0.2","spark_pilot_norest","8610","7","13","Male","","","","","","","2921.099999964237","<p> This time you are searching for treasure in the <b>ocean</b>.</p>","","instructions","","","","","","","","","","","",""
"learning-instructions","294","1244058","0.0-4.0-0.1-0.3","spark_pilot_norest","8610","7","13","Male","","","","","","","2951.099999964237","<p><b>New</b> animals with <b>new</b> treasure chests live here. You need to explore to discover where the animal with the best treasure chest is.</p>
                    <p> Like before, once you figure out which animal has the chest with the most treasure, you should try to get to that animal and select that chest! </p>","","instructions","","","","","","","","","","","",""
"learning-instructions","295","1262537","0.0-4.0-1.1-0.1","spark_pilot_norest","8610","7","13","Male","","","","","","","3751.100000023842","<p> Remember, when you see a picture of the place, use the up and down keys to <b>find an animal</b>.</p>
            <p> When you encounter an animal, you should use the left and right keys to <b>select a treasure chest</b>.</p>
            <p> Don't forget to look out for the robber! </p>","","instructions","","","","","","","","","","","",""
"revaluation","296","1266567","0.0-4.0-2.1-0.50","spark_pilot_norest","8610","7","13","Male","","","false","","","","[1775]","./assets/img/ocean/catch/3.jpg","[""spaceBar""]","value training","ocean","0","{""ArrowUp,ArrowLeft"":26,""ArrowUp,ArrowRight"":10,""ArrowDown,ArrowLeft"":5,""ArrowDown,ArrowRight"":17}","true","spaceBar","true","revaluation","2","0","","",""
"html-keyboard-response","297","1267076","0.0-4.0-2.1-1.50","spark_pilot_norest","8610","7","13","Male","","","","","","","null","<div style=""font-size:60px;"">+</div>","null","fixation","","","","","","","","","1","","",""
"revaluation","298","1273097","0.0-4.0-2.1-0.51","spark_pilot_norest","8610","7","13","Male","","","false","","","","[643.2000000476837,706.5]","./assets/img/ocean/memory/24.jpg","[""ArrowDown"",""ArrowRight""]","value training","ocean","17","{""ArrowUp,ArrowLeft"":26,""ArrowUp,ArrowRight"":10,""ArrowDown,ArrowLeft"":5,""ArrowDown,ArrowRight"":17}","false","ArrowDown,ArrowRight","false","revaluation","2","2","","",""
"html-keyboard-response","299","1273602","0.0-4.0-2.1-1.51","spark_pilot_norest","8610","7","13","Male","","","","","","","null","<div style=""font-size:60px;"">+</div>","null","fixation","","","","","","","","","3","","",""
"revaluation","300","1279620","0.0-4.0-2.1-0.52","spark_pilot_norest","8610","7","13","Male","","","false","","","","[429.69999998807907,391.39999997615814]","./assets/img/ocean/memory/38.jpg","[""ArrowDown"",""ArrowLeft""]","value training","ocean","5","{""ArrowUp,ArrowLeft"":26,""ArrowUp,ArrowRight"":10,""ArrowDown,ArrowLeft"":5,""ArrowDown,ArrowRight"":17}","false","ArrowDown,ArrowLeft","false","revaluation","2","4","","",""
"html-keyboard-response","301","1280131","0.0-4.0-2.1-1.52","spark_pilot_norest","8610","7","13","Male","","","","","","","null","<div style=""font-size:60px;"">+</div>","null","fixation","","","","","","","","","5","","",""
"revaluation","302","1286160","0.0-4.0-2.1-0.53","spark_pilot_norest","8610","7","13","Male","","","false","","","","[588.6000000238419,613.5]","./assets/img/ocean/memory/23.jpg","[""ArrowUp"",""ArrowRight""]","value training","ocean","10","{""ArrowUp,ArrowLeft"":26,""ArrowUp,ArrowRight"":10,""ArrowDown,ArrowLeft"":5,""ArrowDown,ArrowRight"":17}","false","ArrowUp,ArrowRight","false","revaluation","2","6","","",""
"html-keyboard-response","303","1286667","0.0-4.0-2.1-1.53","spark_pilot_norest","8610","7","13","Male","","","","","","","null","<div style=""font-size:60px;"">+</div>","null","fixation","","","","","","","","","7","","",""
"revaluation","304","1292682","0.0-4.0-2.1-0.54","spark_pilot_norest","8610","7","13","Male","","","false","","","","[748.8999999761581,521.5]","./assets/img/ocean/memory/18.jpg","[""ArrowUp"",""ArrowLeft""]","value training","ocean","26","{""ArrowUp,ArrowLeft"":26,""ArrowUp,ArrowRight"":10,""ArrowDown,ArrowLeft"":5,""ArrowDown,ArrowRight"":17}","true","ArrowUp,ArrowLeft","false","revaluation","2","8","","",""
"html-keyboard-response","305","1293184","0.0-4.0-2.1-1.54","spark_pilot_norest","8610","7","13","Male","","","","","","","null","<div style=""font-size:60px;"">+</div>","null","fixation","","","","","","","","","9","","",""
"revaluation","306","1299187","0.0-4.0-2.1-0.55","spark_pilot_norest","8610","7","13","Male","","","false","","","","[552.3999999761581,824.1000000238419]","./assets/img/ocean/memory/39.jpg","[""ArrowUp"",""ArrowLeft""]","value training","ocean","26","{""ArrowUp,ArrowLeft"":26,""ArrowUp,ArrowRight"":10,""ArrowDown,ArrowLeft"":5,""ArrowDown,ArrowRight"":17}","true","ArrowUp,ArrowLeft","false","revaluation","2","10","","",""
"html-keyboard-response","307","1299688","0.0-4.0-2.1-1.55","spark_pilot_norest","8610","7","13","Male","","","","","","","null","<div style=""font-size:60px;"">+</div>","null","fixation","","","","","","","","","11","","",""
