"trial_type","trial_index","time_elapsed","internal_node_id","task_version","subject_id","assigned_condition","age","gender","browser_interaction","success","timeout","failed_images","failed_audio","failed_video","rt","stimulus","response","task_part","environment","score","rewardMap","correct","fullState","isCatch","condition","order","trial_num","key_press","ground_truth","bonus"
"pavlovia","0","1548","0.0-0.0","spark_pilot_norest","8449","3","17","Female","[{""event"":""blur"",""trial"":1,""time"":4194},{""event"":""focus"",""trial"":1,""time"":4721},{""event"":""fullscreenenter"",""trial"":2,""time"":29026},{""event"":""blur"",""trial"":49,""time"":288236},{""event"":""focus"",""trial"":49,""time"":289916},{""event"":""blur"",""trial"":606,""time"":1907048},{""event"":""focus"",""trial"":608,""time"":1910788}]","","","","","","","","","","","","","","","","","","","","",""
"preload","1","23824","0.0-1.0","spark_pilot_norest","8449","3","17","Female","[{""event"":""blur"",""trial"":1,""time"":4194},{""event"":""focus"",""trial"":1,""time"":4721},{""event"":""fullscreenenter"",""trial"":2,""time"":29026},{""event"":""blur"",""trial"":49,""time"":288236},{""event"":""focus"",""trial"":49,""time"":289916},{""event"":""blur"",""trial"":606,""time"":1907048},{""event"":""focus"",""trial"":608,""time"":1910788}]","true","false","[]","[]","[]","","","","","","","","","","","","","","","",""
"fullscreen","2","29981","0.0-2.0","spark_pilot_norest","8449","3","17","Female","","true","","","","","","","","","","","","","","","","","","","",""
"audio-button-response","3","31991","0.0-3.0-0.0-0.0","spark_pilot_norest","8449","3","17","Female","","","","","","","2000","./assets/audio/audiotest/turtle.mp3","2","audio_test","","","","","","","","","","","",""
"learning-instructions","4","44026","0.0-3.0-1.0-0.0","spark_pilot_norest","8449","3","17","Female","","","","","","","5036","<p> Welcome! Please remember to stay in fullscreen mode and don't click away from the experiment. </p>","","instructions","","","","","","","","","","","",""
"learning-instructions","5","55448","0.0-3.0-1.0-0.1","spark_pilot_norest","8449","3","17","Female","","","","","","","2988.5","<p> Today you will be playing a game to earn treasure. </p>
            <p> At the end of the experiment, you will earn a bonus based on how much treasure you find. </p>
            <img src='./assets/img/instructions/treasure.jpg' class='instructions-image'>","","instructions","","","","","","","","","","","",""
"learning-instructions","6","67272","0.0-3.0-1.0-0.2","spark_pilot_norest","8449","3","17","Female","","","","","","","3552","<p> Animals have hidden treasure in treasure chests. </p>
            <p> You need to first find an animal and then choose which of their treasure chests to search. </p>
            <img src='./assets/img/space/animals/cat.jpg' class='instructions-image'>","","instructions","","","","","","","","","","","",""
"learning-instructions","7","83436","0.0-3.0-1.0-0.3","spark_pilot_norest","8449","3","17","Female","","","","","","","2996.70000000007","<p> In each round, you will search for treasure in a different place. In the real game, there will be two rounds. </p>
            <p> You will begin with a separate, practice round where you will search for treasure in outer space. </p>
            <img src='./assets/img/space/0.jpg' class='instructions-image'>","","instructions","","","","","","","","","","","",""
"learning-instructions","8","96714","0.0-3.0-1.0-0.4","spark_pilot_norest","8449","3","17","Female","","","","","","","1835.0999999999767","<p> On every turn, you will see a picture of the place that you are in, but the specific image may be different each time. </p>
            <p> For example, both of these images mean you are in outer space. </p>
            <img src='./assets/img/instructions/outerspace.jpg' class='instructions-image'>","","instructions","","","","","","","","","","","",""
"learning-instructions","9","106916","0.0-3.0-1.0-0.5","spark_pilot_norest","8449","3","17","Female","","","","","","","2356.6999999999534","<p> You need to decide which direction to travel in. </p>
            <p> You can choose between going <b>up or down</b> by using the arrow keys. </p>
            <img src='./assets/img/instructions/updown.jpg' class='instructions-image'>","","instructions","","","","","","","","","","","",""
"learning-instructions","10","117589","0.0-3.0-1.0-0.6","spark_pilot_norest","8449","3","17","Female","","","","","","","1839.5999999999767","<p> You will have <b>2 seconds</b> to make your choice. </p>
            <p> If you do not make a choice within 2 seconds, you will not find an animal or earn treasure. </p>
            <img src='./assets/img/instructions/2seconds.jpg' class='instructions-image'>","","instructions","","","","","","","","","","","",""
"learning-instructions","11","126764","0.0-3.0-1.0-0.7","spark_pilot_norest","8449","3","17","Female","","","","","","","2124.70000000007","<p> Let’s try practicing that now! </p>
            <p> When you see a picture of the place you are in, press the <b>up</b> key to travel up. </p>
            <img src='./assets/img/instructions/pressUp.jpg' class='instructions-image'>","","instructions","","","","","","","","","","","",""
"revaluation","12","130809","0.0-3.0-2.0-0.0","spark_pilot_norest","8449","3","17","Female","","","false","","","","[1841.2999999999302]","./assets/img/space/0.jpg","[""ArrowUp""]","first stage practice","space","0","null","null","ArrowUp","false","","","","","",""
"html-keyboard-response","13","131314","0.0-3.0-2.0-1.0","spark_pilot_norest","8449","3","17","Female","","","","","","","null","<div style=""font-size:60px;"">+</div>","null","fixation","","","","","","","","","","","",""
"revaluation","14","135336","0.0-3.0-2.0-0.1","spark_pilot_norest","8449","3","17","Female","","","false","","","","[1109.5999999999767]","./assets/img/space/1.jpg","[""ArrowUp""]","first stage practice","space","0","null","null","ArrowUp","false","","","","","",""
"html-keyboard-response","15","135838","0.0-3.0-2.0-1.1","spark_pilot_norest","8449","3","17","Female","","","","","","","null","<div style=""font-size:60px;"">+</div>","null","fixation","","","","","","","","","","","",""
"revaluation","16","139845","0.0-3.0-2.0-0.2","spark_pilot_norest","8449","3","17","Female","","","false","","","","[1074.0999999999767]","./assets/img/space/2.jpg","[""ArrowUp""]","first stage practice","space","0","null","null","ArrowUp","false","","","","","",""
"html-keyboard-response","17","140351","0.0-3.0-2.0-1.2","spark_pilot_norest","8449","3","17","Female","","","","","","","null","<div style=""font-size:60px;"">+</div>","null","fixation","","","","","","","","","","","",""
"learning-instructions","18","147677","0.0-3.0-3.0-0.0","spark_pilot_norest","8449","3","17","Female","","","","","","","2478.9000000000233","<p> Great job! Now try pressing the <b>down</b> key to travel down. </p>
            <img src='./assets/img/instructions/pressDown.jpg' class='instructions-image'>","","instructions","","","","","","","","","","","",""
"revaluation","19","151711","0.0-3.0-4.0-0.0","spark_pilot_norest","8449","3","17","Female","","","false","","","","[1939.5999999999767]","./assets/img/space/3.jpg","[""ArrowDown""]","first stage practice","space","0","null","null","ArrowDown","false","","","","","",""
"html-keyboard-response","20","152215","0.0-3.0-4.0-1.0","spark_pilot_norest","8449","3","17","Female","","","","","","","null","<div style=""font-size:60px;"">+</div>","null","fixation","","","","","","","","","","","",""
"revaluation","21","156240","0.0-3.0-4.0-0.1","spark_pilot_norest","8449","3","17","Female","","","false","","","","[629.4000000000233]","./assets/img/space/4.jpg","[""ArrowDown""]","first stage practice","space","0","null","null","ArrowDown","false","","","","","",""
"html-keyboard-response","22","156751","0.0-3.0-4.0-1.1","spark_pilot_norest","8449","3","17","Female","","","","","","","null","<div style=""font-size:60px;"">+</div>","null","fixation","","","","","","","","","","","",""
"revaluation","23","160781","0.0-3.0-4.0-0.2","spark_pilot_norest","8449","3","17","Female","","","false","","","","[661.3000000000466]","./assets/img/space/5.jpg","[""ArrowDown""]","first stage practice","space","0","null","null","ArrowDown","false","","","","","",""
"html-keyboard-response","24","161288","0.0-3.0-4.0-1.2","spark_pilot_norest","8449","3","17","Female","","","","","","","null","<div style=""font-size:60px;"">+</div>","null","fixation","","","","","","","","","","","",""
"learning-instructions","25","173947","0.0-3.0-5.0-0.0","spark_pilot_norest","8449","3","17","Female","","","","","","","2788.8000000000466","<p> The animals don’t move, so the animal in the upper part of a place will stay in the upper part of a place, and the animal in the lower part of a place will stay in the lower part of a place. </p>","","instructions","","","","","","","","","","","",""
"learning-instructions","26","185133","0.0-3.0-5.0-0.1","spark_pilot_norest","8449","3","17","Female","","","","","","","2023.9000000000233","<p> Each animal has two treasure chests for you to choose from. </p>
            <p> The amount of treasure in each chest can range from <b> 0 to 40 pieces.</b></p>","","instructions","","","","","","","","","","","",""
"learning-instructions","27","198035","0.0-3.0-5.0-0.2","spark_pilot_norest","8449","3","17","Female","","","","","","","1686.7999999999302","<p> You should decide which chest to search for treasure by using the <b>left</b> and <b>right</b> arrow keys. </p>
            <p><b> Pay attention to which animal is on the screen, as the animals have different treasure chests. </b></p>
            <img src='./assets/img/instructions/leftright.jpg' class='instructions-image'>","","instructions","","","","","","","","","","","",""
"learning-instructions","28","205713","0.0-3.0-5.0-0.3","spark_pilot_norest","8449","3","17","Female","","","","","","","1294.7000000000698","<p> Let’s try practicing that now. </p>
            <p> When you see an animal, choose which chest to search for treasure. </p>
            <img src='./assets/img/instructions/chooseChest.jpg' class='instructions-image'>","","instructions","","","","","","","","","","","",""
"revaluation","29","209732","0.0-3.0-6.0-0.0","spark_pilot_norest","8449","3","17","Female","","","false","","","","[939.4000000000233]","./assets/img/space/animals/cat.jpg","[""ArrowLeft""]","second stage practice","space","3","{""ArrowUp,ArrowLeft"":3,""ArrowUp,ArrowRight"":36,""ArrowDown,ArrowLeft"":15,""ArrowDown,ArrowRight"":23}","false","ArrowUp,ArrowLeft","","","","","","",""
"html-keyboard-response","30","210241","0.0-3.0-6.0-1.0","spark_pilot_norest","8449","3","17","Female","","","","","","","null","<div style=""font-size:60px;"">+</div>","null","fixation","","","","","","","","","","","",""
"revaluation","31","214262","0.0-3.0-6.0-0.1","spark_pilot_norest","8449","3","17","Female","","","true","","","","[]","./assets/img/space/animals/rabbit.jpg","[]","second stage practice","space","-5","{""ArrowUp,ArrowLeft"":3,""ArrowUp,ArrowRight"":36,""ArrowDown,ArrowLeft"":15,""ArrowDown,ArrowRight"":23}","false","ArrowDown","","","","","","",""
"html-keyboard-response","32","214773","0.0-3.0-6.0-1.1","spark_pilot_norest","8449","3","17","Female","","","","","","","null","<div style=""font-size:60px;"">+</div>","null","fixation","","","","","","","","","","","",""
"revaluation","33","218784","0.0-3.0-6.0-0.2","spark_pilot_norest","8449","3","17","Female","","","false","","","","[837]","./assets/img/space/animals/cat.jpg","[""ArrowLeft""]","second stage practice","space","3","{""ArrowUp,ArrowLeft"":3,""ArrowUp,ArrowRight"":36,""ArrowDown,ArrowLeft"":15,""ArrowDown,ArrowRight"":23}","false","ArrowUp,ArrowLeft","","","","","","",""
"html-keyboard-response","34","219289","0.0-3.0-6.0-1.2","spark_pilot_norest","8449","3","17","Female","","","","","","","null","<div style=""font-size:60px;"">+</div>","null","fixation","","","","","","","","","","","",""
"revaluation","35","223312","0.0-3.0-6.0-0.3","spark_pilot_norest","8449","3","17","Female","","","false","","","","[702.6999999999534]","./assets/img/space/animals/rabbit.jpg","[""ArrowLeft""]","second stage practice","space","15","{""ArrowUp,ArrowLeft"":3,""ArrowUp,ArrowRight"":36,""ArrowDown,ArrowLeft"":15,""ArrowDown,ArrowRight"":23}","false","ArrowDown,ArrowLeft","","","","","","",""
"html-keyboard-response","36","223822","0.0-3.0-6.0-1.3","spark_pilot_norest","8449","3","17","Female","","","","","","","null","<div style=""font-size:60px;"">+</div>","null","fixation","","","","","","","","","","","",""
"learning-instructions","37","243331","0.0-3.0-7.0-0.0","spark_pilot_norest","8449","3","17","Female","","","","","","","2662.20000000007","<p> Great job. Now let’s try putting it together. </p>
            <p> On each turn, you will first see a picture to remind you of the place you are in, and you need to choose whether to go up or down. </p>
            <p> Then you will see an animal and choose which of its chests to search for treasure. </p>","","instructions","","","","","","","","","","","",""
"learning-instructions","38","252642","0.0-3.0-7.0-0.1","spark_pilot_norest","8449","3","17","Female","","","","","","","1022.1000000000931","<p> When you choose whether to go up or down, try to go to the animal with the chest with the most treasure. </p>
            <p> Try practicing that now! </p>","","instructions","","","","","","","","","","","",""
"revaluation","39","258664","0.0-3.0-8.0-0.0","spark_pilot_norest","8449","3","17","Female","","","false","","","","[1319.5,771]","./assets/img/space/6.jpg","[""ArrowUp"",""ArrowRight""]","full practice","space","36","{""ArrowUp,ArrowLeft"":3,""ArrowUp,ArrowRight"":36,""ArrowDown,ArrowLeft"":15,""ArrowDown,ArrowRight"":23}","true","ArrowUp,ArrowRight","false","","","","","",""
"html-keyboard-response","40","259165","0.0-3.0-8.0-1.0","spark_pilot_norest","8449","3","17","Female","","","","","","","null","<div style=""font-size:60px;"">+</div>","null","fixation","","","","","","","","","","","",""
"revaluation","41","265189","0.0-3.0-8.0-0.1","spark_pilot_norest","8449","3","17","Female","","","false","","","","[844.4000000000233,488.19999999995343]","./assets/img/space/7.jpg","[""ArrowDown"",""ArrowRight""]","full practice","space","23","{""ArrowUp,ArrowLeft"":3,""ArrowUp,ArrowRight"":36,""ArrowDown,ArrowLeft"":15,""ArrowDown,ArrowRight"":23}","false","ArrowDown,ArrowRight","false","","","","","",""
"html-keyboard-response","42","265697","0.0-3.0-8.0-1.1","spark_pilot_norest","8449","3","17","Female","","","","","","","null","<div style=""font-size:60px;"">+</div>","null","fixation","","","","","","","","","","","",""
"revaluation","43","271739","0.0-3.0-8.0-0.2","spark_pilot_norest","8449","3","17","Female","","","false","","","","[1170.8000000000466,677]","./assets/img/space/8.jpg","[""ArrowDown"",""ArrowLeft""]","full practice","space","15","{""ArrowUp,ArrowLeft"":3,""ArrowUp,ArrowRight"":36,""ArrowDown,ArrowLeft"":15,""ArrowDown,ArrowRight"":23}","false","ArrowDown,ArrowLeft","false","","","","","",""
"html-keyboard-response","44","272245","0.0-3.0-8.0-1.2","spark_pilot_norest","8449","3","17","Female","","","","","","","null","<div style=""font-size:60px;"">+</div>","null","fixation","","","","","","","","","","","",""
"revaluation","45","278276","0.0-3.0-8.0-0.3","spark_pilot_norest","8449","3","17","Female","","","false","","","","[547.6999999999534,744.5999999999767]","./assets/img/space/9.jpg","[""ArrowUp"",""ArrowLeft""]","full practice","space","3","{""ArrowUp,ArrowLeft"":3,""ArrowUp,ArrowRight"":36,""ArrowDown,ArrowLeft"":15,""ArrowDown,ArrowRight"":23}","false","ArrowUp,ArrowLeft","false","","","","","",""
"html-keyboard-response","46","278787","0.0-3.0-8.0-1.3","spark_pilot_norest","8449","3","17","Female","","","","","","","null","<div style=""font-size:60px;"">+</div>","null","fixation","","","","","","","","","","","",""
"revaluation","47","284807","0.0-3.0-8.0-0.4","spark_pilot_norest","8449","3","17","Female","","","false","","","","[1062.9000000000233,806.5]","./assets/img/space/10.jpg","[""ArrowUp"",""ArrowRight""]","full practice","space","36","{""ArrowUp,ArrowLeft"":3,""ArrowUp,ArrowRight"":36,""ArrowDown,ArrowLeft"":15,""ArrowDown,ArrowRight"":23}","true","ArrowUp,ArrowRight","false","","","","","",""
"html-keyboard-response","48","285308","0.0-3.0-8.0-1.4","spark_pilot_norest","8449","3","17","Female","[{""event"":""blur"",""trial"":1,""time"":4194},{""event"":""focus"",""trial"":1,""time"":4721},{""event"":""fullscreenenter"",""trial"":2,""time"":29026},{""event"":""blur"",""trial"":49,""time"":288236},{""event"":""focus"",""trial"":49,""time"":289916},{""event"":""blur"",""trial"":606,""time"":1907048},{""event"":""focus"",""trial"":608,""time"":1910788}]","","","","","","null","<div style=""font-size:60px;"">+</div>","null","fixation","","","","","","","","","","","",""
"learning-instructions","49","298174","0.0-3.0-9.0-0.0","spark_pilot_norest","8449","3","17","Female","","","","","","","2557","<p> One last thing: sometimes, you will see a robber. The robber can be anywhere in the picture. </p>
            <p> If you do not stop them, you will lose treasure. </p>
            <img src='./assets/img/instructions/robber.jpg' class='instructions-image'>","","instructions","","","","","","","","","","","",""
"learning-instructions","50","309185","0.0-3.0-9.0-0.1","spark_pilot_norest","8449","3","17","Female","","","","","","","3839.4000000000233","<p> If you see the robber, you should <b>press the space bar</b> rather than using the arrow keys. </p>
            <p> Try practicing that now! </p>","","instructions","","","","","","","","","","","",""
"revaluation","51","313202","0.0-3.0-10.0-0.0","spark_pilot_norest","8449","3","17","Female","","","false","","","","[1063.8000000000466]","./assets/img/space/catch/0.jpg","[""ArrowUp""]","catch practice","space","-10","{""ArrowUp,ArrowLeft"":3,""ArrowUp,ArrowRight"":36,""ArrowDown,ArrowLeft"":15,""ArrowDown,ArrowRight"":23}","false","ArrowUp","true","","","","","",""
"html-keyboard-response","52","313717","0.0-3.0-10.0-1.0","spark_pilot_norest","8449","3","17","Female","","","","","","","null","<div style=""font-size:60px;"">+</div>","null","fixation","","","","","","","","","","","",""
"revaluation","53","317741","0.0-3.0-10.0-0.1","spark_pilot_norest","8449","3","17","Female","","","false","","","","[459.79999999993015]","./assets/img/space/catch/1.jpg","[""ArrowUp""]","catch practice","space","-10","{""ArrowUp,ArrowLeft"":3,""ArrowUp,ArrowRight"":36,""ArrowDown,ArrowLeft"":15,""ArrowDown,ArrowRight"":23}","false","ArrowUp","true","","","","","",""
"html-keyboard-response","54","318256","0.0-3.0-10.0-1.1","spark_pilot_norest","8449","3","17","Female","","","","","","","null","<div style=""font-size:60px;"">+</div>","null","fixation","","","","","","","","","","","",""
"revaluation","55","322282","0.0-3.0-10.0-0.2","spark_pilot_norest","8449","3","17","Female","","","false","","","","[644.3000000000466]","./assets/img/space/catch/2.jpg","[""spaceBar""]","catch practice","space","0","{""ArrowUp,ArrowLeft"":3,""ArrowUp,ArrowRight"":36,""ArrowDown,ArrowLeft"":15,""ArrowDown,ArrowRight"":23}","true","spaceBar","true","","","","","",""
"html-keyboard-response","56","322796","0.0-3.0-10.0-1.2","spark_pilot_norest","8449","3","17","Female","","","","","","","null","<div style=""font-size:60px;"">+</div>","null","fixation","","","","","","","","","","","",""
"learning-instructions","57","329026","0.0-3.0-11.0-0.0-0.0","spark_pilot_norest","8449","3","17","Female","","","","","","","959.7000000000698","<p> Now, you will practice a shortened version of the game to get a sense of how it all fits together. </p>","","instructions","","","","","","","","","","","",""
"learning-instructions","58","334172","0.0-3.0-11.0-0.0-0.1","spark_pilot_norest","8449","3","17","Female","","","","","","","1957.0999999999767","<p>This time you are searching for treasure in outer space.</p>","","instructions","","","","","","","","","","","",""
"learning-instructions","59","352872","0.0-3.0-11.0-1.0-0.0","spark_pilot_norest","8449","3","17","Female","","","","","","","3895.9000000000233","<p> Remember, when you see a picture of the place, use the up and down keys to <b>find an animal</b>.</p>
            <p> When you encounter an animal, you should use the left and right keys to <b>select a treasure chest</b>.</p>
            <p> Don't forget to look out for the robber! </p>","","instructions","","","","","","","","","","","",""
"revaluation","60","358902","0.0-3.0-11.0-2.0-0.0","spark_pilot_norest","8449","3","17","Female","","","false","","","","[918.0999999999767,700.4000000000233]","./assets/img/space/11.jpg","[""ArrowUp"",""ArrowLeft""]","practice block","space","3","{""ArrowUp,ArrowLeft"":3,""ArrowUp,ArrowRight"":36,""ArrowDown,ArrowLeft"":15,""ArrowDown,ArrowRight"":23}","false","ArrowUp,ArrowLeft","false","","","","","",""
"html-keyboard-response","61","359415","0.0-3.0-11.0-2.0-1.0","spark_pilot_norest","8449","3","17","Female","","","","","","","null","<div style=""font-size:60px;"">+</div>","null","fixation","","","","","","","","","","","",""
"revaluation","62","365451","0.0-3.0-11.0-2.0-0.1","spark_pilot_norest","8449","3","17","Female","","","false","","","","[1134.4000000000233,984.1999999999534]","./assets/img/space/12.jpg","[""ArrowUp"",""ArrowRight""]","practice block","space","36","{""ArrowUp,ArrowLeft"":3,""ArrowUp,ArrowRight"":36,""ArrowDown,ArrowLeft"":15,""ArrowDown,ArrowRight"":23}","true","ArrowUp,ArrowRight","false","","","","","",""
"html-keyboard-response","63","365962","0.0-3.0-11.0-2.0-1.1","spark_pilot_norest","8449","3","17","Female","","","","","","","null","<div style=""font-size:60px;"">+</div>","null","fixation","","","","","","","","","","","",""
"revaluation","64","371990","0.0-3.0-11.0-2.0-0.2","spark_pilot_norest","8449","3","17","Female","","","false","","","","[1017.3999999999069,589.1999999999534]","./assets/img/space/13.jpg","[""ArrowUp"",""ArrowRight""]","practice block","space","36","{""ArrowUp,ArrowLeft"":3,""ArrowUp,ArrowRight"":36,""ArrowDown,ArrowLeft"":15,""ArrowDown,ArrowRight"":23}","true","ArrowUp,ArrowRight","false","","","","","",""
"html-keyboard-response","65","372505","0.0-3.0-11.0-2.0-1.2","spark_pilot_norest","8449","3","17","Female","","","","","","","null","<div style=""font-size:60px;"">+</div>","null","fixation","","","","","","","","","","","",""
"revaluation","66","378536","0.0-3.0-11.0-2.0-0.3","spark_pilot_norest","8449","3","17","Female","","","false","","","","[918.9000000000233,700.2999999999302]","./assets/img/space/14.jpg","[""ArrowUp"",""ArrowRight""]","practice block","space","36","{""ArrowUp,ArrowLeft"":3,""ArrowUp,ArrowRight"":36,""ArrowDown,ArrowLeft"":15,""ArrowDown,ArrowRight"":23}","true","ArrowUp,ArrowRight","false","","","","","",""
"html-keyboard-response","67","379053","0.0-3.0-11.0-2.0-1.3","spark_pilot_norest","8449","3","17","Female","","","","","","","null","<div style=""font-size:60px;"">+</div>","null","fixation","","","","","","","","","","","",""
"revaluation","68","383059","0.0-3.0-11.0-2.0-0.4","spark_pilot_norest","8449","3","17","Female","","","true","","","","[]","./assets/img/space/11.jpg","[]","practice block","space","-5","{""ArrowUp,ArrowLeft"":3,""ArrowUp,ArrowRight"":36,""ArrowDown,ArrowLeft"":15,""ArrowDown,ArrowRight"":23}","false","","false","","","","","",""
"html-keyboard-response","69","383560","0.0-3.0-11.0-2.0-1.4","spark_pilot_norest","8449","3","17","Female","","","","","","","null","<div style=""font-size:60px;"">+</div>","null","fixation","","","","","","","","","","","",""
"revaluation","70","389566","0.0-3.0-11.0-2.0-0.5","spark_pilot_norest","8449","3","17","Female","","","false","","","","[564.3000000000466,1561.8999999999069]","./assets/img/space/12.jpg","[""ArrowUp"",""ArrowLeft""]","practice block","space","3","{""ArrowUp,ArrowLeft"":3,""ArrowUp,ArrowRight"":36,""ArrowDown,ArrowLeft"":15,""ArrowDown,ArrowRight"":23}","false","ArrowUp,ArrowLeft","false","","","","","",""
"html-keyboard-response","71","390068","0.0-3.0-11.0-2.0-1.5","spark_pilot_norest","8449","3","17","Female","","","","","","","null","<div style=""font-size:60px;"">+</div>","null","fixation","","","","","","","","","","","",""
"revaluation","72","396074","0.0-3.0-11.0-2.0-0.6","spark_pilot_norest","8449","3","17","Female","","","false","","","","[1306.4000000000233,436]","./assets/img/space/13.jpg","[""ArrowUp"",""ArrowRight""]","practice block","space","36","{""ArrowUp,ArrowLeft"":3,""ArrowUp,ArrowRight"":36,""ArrowDown,ArrowLeft"":15,""ArrowDown,ArrowRight"":23}","true","ArrowUp,ArrowRight","false","","","","","",""
"html-keyboard-response","73","396587","0.0-3.0-11.0-2.0-1.6","spark_pilot_norest","8449","3","17","Female","","","","","","","null","<div style=""font-size:60px;"">+</div>","null","fixation","","","","","","","","","","","",""
"revaluation","74","402598","0.0-3.0-11.0-2.0-0.7","spark_pilot_norest","8449","3","17","Female","","","false","","","","[741.1000000000931,373.89999999990687]","./assets/img/space/14.jpg","[""ArrowUp"",""ArrowRight""]","practice block","space","36","{""ArrowUp,ArrowLeft"":3,""ArrowUp,ArrowRight"":36,""ArrowDown,ArrowLeft"":15,""ArrowDown,ArrowRight"":23}","true","ArrowUp,ArrowRight","false","","","","","",""
"html-keyboard-response","75","403099","0.0-3.0-11.0-2.0-1.7","spark_pilot_norest","8449","3","17","Female","","","","","","","null","<div style=""font-size:60px;"">+</div>","null","fixation","","","","","","","","","","","",""
"revaluation","76","407105","0.0-3.0-11.0-2.0-0.8","spark_pilot_norest","8449","3","17","Female","","","false","","","","[930.6999999999534]","./assets/img/space/catch/3.jpg","[""spaceBar""]","practice block","space","0","{""ArrowUp,ArrowLeft"":3,""ArrowUp,ArrowRight"":36,""ArrowDown,ArrowLeft"":15,""ArrowDown,ArrowRight"":23}","true","spaceBar","true","","","","","",""
"html-keyboard-response","77","407613","0.0-3.0-11.0-2.0-1.8","spark_pilot_norest","8449","3","17","Female","","","","","","","null","<div style=""font-size:60px;"">+</div>","null","fixation","","","","","","","","","","","",""
"learning-instructions","78","422753","0.0-3.0-11.0-3.0-0.0","spark_pilot_norest","8449","3","17","Female","","","","","","","2118.8000000000466","<p> Now, you will travel with a friend who will choose whether you go up or down first. </p>
            <p> On these turns, you will just see the animal that they found. You will still get to choose which chest to search for treasure.</p>","","instructions","","","","","","","","","","","",""
"revaluation","79","426778","0.0-3.0-11.0-4.0-0.0","spark_pilot_norest","8449","3","17","Female","","","false","","","","[849.5]","./assets/img/space/animals/cat.jpg","[""ArrowRight""]","practice block","space","36","{""ArrowUp,ArrowLeft"":3,""ArrowUp,ArrowRight"":36,""ArrowDown,ArrowLeft"":15,""ArrowDown,ArrowRight"":23}","true","ArrowUp,ArrowRight","","","","","","",""
"html-keyboard-response","80","427294","0.0-3.0-11.0-4.0-1.0","spark_pilot_norest","8449","3","17","Female","","","","","","","null","<div style=""font-size:60px;"">+</div>","null","fixation","","","","","","","","","","","",""
"revaluation","81","431326","0.0-3.0-11.0-4.0-0.1","spark_pilot_norest","8449","3","17","Female","","","false","","","","[775.2000000001863]","./assets/img/space/animals/rabbit.jpg","[""ArrowRight""]","practice block","space","23","{""ArrowUp,ArrowLeft"":3,""ArrowUp,ArrowRight"":36,""ArrowDown,ArrowLeft"":15,""ArrowDown,ArrowRight"":23}","true","ArrowDown,ArrowRight","","","","","","",""
"html-keyboard-response","82","431841","0.0-3.0-11.0-4.0-1.1","spark_pilot_norest","8449","3","17","Female","","","","","","","null","<div style=""font-size:60px;"">+</div>","null","fixation","","","","","","","","","","","",""
"revaluation","83","435867","0.0-3.0-11.0-4.0-0.2","spark_pilot_norest","8449","3","17","Female","","","false","","","","[928.5]","./assets/img/space/animals/rabbit.jpg","[""ArrowRight""]","practice block","space","23","{""ArrowUp,ArrowLeft"":3,""ArrowUp,ArrowRight"":36,""ArrowDown,ArrowLeft"":15,""ArrowDown,ArrowRight"":23}","true","ArrowDown,ArrowRight","","","","","","",""
"html-keyboard-response","84","436382","0.0-3.0-11.0-4.0-1.2","spark_pilot_norest","8449","3","17","Female","","","","","","","null","<div style=""font-size:60px;"">+</div>","null","fixation","","","","","","","","","","","",""
"revaluation","85","440406","0.0-3.0-11.0-4.0-0.3","spark_pilot_norest","8449","3","17","Female","","","false","","","","[961]","./assets/img/space/animals/cat.jpg","[""ArrowLeft""]","practice block","space","3","{""ArrowUp,ArrowLeft"":3,""ArrowUp,ArrowRight"":36,""ArrowDown,ArrowLeft"":15,""ArrowDown,ArrowRight"":23}","false","ArrowUp,ArrowLeft","","","","","","",""
"html-keyboard-response","86","440920","0.0-3.0-11.0-4.0-1.3","spark_pilot_norest","8449","3","17","Female","","","","","","","null","<div style=""font-size:60px;"">+</div>","null","fixation","","","","","","","","","","","",""
"learning-instructions","87","449047","0.0-3.0-11.0-5.0-0.0","spark_pilot_norest","8449","3","17","Female","","","","","","","null","<p> You have almost finished this part of the game! </p>
            <p> We are going to ask you to make a few more choices. </p>","","instructions","","","","","","","","","","","",""
"learning-instructions","88","465071","0.0-3.0-11.0-5.0-0.1","spark_pilot_norest","8449","3","17","Female","","","","","","","null","<p> First, you need to decide whether to go up or down. When you see each picture, use the arrow keys to make your choice. </p>
            <p><b>You will not see which animal you found, but try to get to the one that will give you the most treasure.</b></p>","","instructions","","","","","","","","","","","",""
"html-keyboard-response","89","466082","0.0-3.0-11.0-6.0-0.0","spark_pilot_norest","8449","3","17","Female","","","","","","","null","<div style=""font-size:100px;color:red;"">Starting in...</div>","null","","","","","","","","","","","","",""
"html-keyboard-response","90","467089","0.0-3.0-11.0-6.0-1.0","spark_pilot_norest","8449","3","17","Female","","","","","","","null","<div style=""font-size:200px;color:red;"">3</div>","null","","","","","","","","","","","","",""
"html-keyboard-response","91","468106","0.0-3.0-11.0-6.0-2.0","spark_pilot_norest","8449","3","17","Female","","","","","","","null","<div style=""font-size:200px;color:red;"">2</div>","null","","","","","","","","","","","","",""
"html-keyboard-response","92","469117","0.0-3.0-11.0-6.0-3.0","spark_pilot_norest","8449","3","17","Female","","","","","","","null","<div style=""font-size:200px;color:red;"">1</div>","null","","","","","","","","","","","","",""
"revaluation","93","470602","0.0-3.0-11.0-7.0","spark_pilot_norest","8449","3","17","Female","","","false","","","","[1477.2000000001863]","./assets/img/space/15.jpg","[""ArrowUp""]","practice block","space","0","{""ArrowUp,ArrowLeft"":3,""ArrowUp,ArrowRight"":36,""ArrowDown,ArrowLeft"":15,""ArrowDown,ArrowRight"":23}","true","ArrowUp","false","","","","","",""
"html-keyboard-response","94","471109","0.0-3.0-11.0-8.0","spark_pilot_norest","8449","3","17","Female","","","","","","","null","<div style=""font-size:60px;"">+</div>","null","fixation","","","","","","","","","","","",""
"learning-instructions","95","484518","0.0-3.0-11.0-9.0-0.0","spark_pilot_norest","8449","3","17","Female","","","","","","","null","<p> Now you will see the animals again and can search their chests for treasure. </p>
            <p> This time, you will not see how much treasure you earned, but you will earn more bonus money for making better choices. </p>","","instructions","","","","","","","","","","","",""
"html-keyboard-response","96","485530","0.0-3.0-11.0-10.0-0.0","spark_pilot_norest","8449","3","17","Female","","","","","","","null","<div style=""font-size:100px;color:red;"">Starting in...</div>","null","","","","","","","","","","","","",""
"html-keyboard-response","97","486544","0.0-3.0-11.0-10.0-1.0","spark_pilot_norest","8449","3","17","Female","","","","","","","null","<div style=""font-size:200px;color:red;"">3</div>","null","","","","","","","","","","","","",""
"html-keyboard-response","98","487555","0.0-3.0-11.0-10.0-2.0","spark_pilot_norest","8449","3","17","Female","","","","","","","null","<div style=""font-size:200px;color:red;"">2</div>","null","","","","","","","","","","","","",""
"html-keyboard-response","99","488568","0.0-3.0-11.0-10.0-3.0","spark_pilot_norest","8449","3","17","Female","","","","","","","null","<div style=""font-size:200px;color:red;"">1</div>","null","","","","","","","","","","","","",""
"revaluation","100","489385","0.0-3.0-11.0-11.0-0.0","spark_pilot_norest","8449","3","17","Female","","","false","","","","[808.8999999999069]","./assets/img/space/animals/cat.jpg","[""ArrowRight""]","practice block","space","0","{""ArrowUp,ArrowLeft"":3,""ArrowUp,ArrowRight"":36,""ArrowDown,ArrowLeft"":15,""ArrowDown,ArrowRight"":23}","true","ArrowUp,ArrowRight","","","","","","",""
"html-keyboard-response","101","489889","0.0-3.0-11.0-11.0-1.0","spark_pilot_norest","8449","3","17","Female","","","","","","","null","<div style=""font-size:60px;"">+</div>","null","fixation","","","","","","","","","","","",""
"revaluation","102","490754","0.0-3.0-11.0-11.0-0.1","spark_pilot_norest","8449","3","17","Female","","","false","","","","[860]","./assets/img/space/animals/rabbit.jpg","[""ArrowLeft""]","practice block","space","0","{""ArrowUp,ArrowLeft"":3,""ArrowUp,ArrowRight"":36,""ArrowDown,ArrowLeft"":15,""ArrowDown,ArrowRight"":23}","false","ArrowDown,ArrowLeft","","","","","","",""
"html-keyboard-response","103","491271","0.0-3.0-11.0-11.0-1.1","spark_pilot_norest","8449","3","17","Female","","","","","","","null","<div style=""font-size:60px;"">+</div>","null","fixation","","","","","","","","","","","",""
"learning-instructions","104","500697","0.0-3.0-12.0-0.0","spark_pilot_norest","8449","3","17","Female","","","","","","","4833.300000000047","<p> Before you start, we're going to ask you a few questions about how the game works. </p>","","instructions","","","","","","","","","","","",""
"comp-q","105","509271","0.0-3.0-13.0-0.0-0.0","spark_pilot_norest","8449","3","17","Female","","","","","","","2981","<p> <b> True or False? </b> </p>
            <p> There can be 50 pieces of treasure in a given animal's chest. </p>","0","comp_question","","","","false","","","","","","","",""
"comp-q","106","517692","0.0-3.0-13.0-0.0-1.0","spark_pilot_norest","8449","3","17","Female","","","","","","","1894.2000000001863","<p> <b>Incorrect.</b> The amount of treasure in each chest can range from 0 to 40 pieces. </p>","0","comp_answer","","","","","","","","","","","",""
"comp-q","107","523999","0.0-3.0-13.0-0.1-0.1","spark_pilot_norest","8449","3","17","Female","","","","","","","745.3000000000466","<p> <b> True or False? </b> </p>
            <p> There can be 50 pieces of treasure in a given animal's chest. </p>","1","comp_question","","","","true","","","","","","","",""
"comp-q","108","532762","0.0-3.0-13.0-0.1-1.1","spark_pilot_norest","8449","3","17","Female","","","","","","","2097.7000000001863","<p> <b> That's right! </b> The amount of treasure in each chest can range from 0 to 40 pieces. </p>","0","comp_answer","","","","","","","","","","","",""
"comp-q","109","540913","0.0-3.0-13.0-0.2-0.2","spark_pilot_norest","8449","3","17","Female","","","","","","","1028.6999999999534","<p> <b> True or False? </b> </p><p> In this game, all animals have the same amount of treasure in their left and right chests. </p>","1","comp_question","","","","true","","","","","","","",""
"comp-q","110","547707","0.0-3.0-13.0-0.2-1.2","spark_pilot_norest","8449","3","17","Female","","","","","","","1562.9000000001397","<p> <b> That's right! </b> Animals have different amounts of treasure in their treasure chests. </p>","0","comp_answer","","","","","","","","","","","",""
"comp-q","111","555706","0.0-3.0-13.0-0.3-0.3","spark_pilot_norest","8449","3","17","Female","","","","","","","2152.100000000093","<p> <b> True or False? </b> </p><p> The same animal will always be there if you go up in the same place. </p>","0","comp_question","","","","true","","","","","","","",""
"comp-q","112","564821","0.0-3.0-13.0-0.3-1.3","spark_pilot_norest","8449","3","17","Female","","","","","","","2666.5","<p> <b> That's right! </b> One animal lives in the upper part and one lives in the lower part of every place. </p>","0","comp_answer","","","","","","","","","","","",""
"comp-q","113","571765","0.0-3.0-13.0-0.4-0.4","spark_pilot_norest","8449","3","17","Female","","","","","","","1410.3000000000466","<p> <b> True or False? </b> </p><p> If you see a different picture, it means you are in a new place. </p>","0","comp_question","","","","false","","","","","","","",""
"comp-q","114","584910","0.0-3.0-13.0-0.4-1.4","spark_pilot_norest","8449","3","17","Female","","","","","","","2035.6000000000931","<p> <b>Incorrect.</b> Lots of different images may show the same place. For example,  you may see three different images that all remind you that you are in outer space. </p>","0","comp_answer","","","","","","","","","","","",""
"comp-q","115","591493","0.0-3.0-13.0-0.5-0.5","spark_pilot_norest","8449","3","17","Female","","","","","","","1089.3000000000466","<p> <b> True or False? </b> </p><p> If you see a different picture, it means you are in a new place. </p>","1","comp_question","","","","true","","","","","","","",""
"comp-q","116","607341","0.0-3.0-13.0-0.5-1.5","spark_pilot_norest","8449","3","17","Female","","","","","","","4616.899999999907","<p> <b> That's right! </b> Lots of different images may show the same place. For example,  you may see three different images that all remind you that you are in outer space. </p>","0","comp_answer","","","","","","","","","","","",""
"learning-instructions","117","620495","0.0-3.0-14.0-0.0","spark_pilot_norest","8449","3","17","Female","","","","","","","3300.100000000093","<p> Good job. Remember to do your best because the amount of treasure you earn will be converted into bonus money. </p>
            <p> It’s time to start the real game! </p>","","instructions","","","","","","","","","","","",""
"learning-instructions","118","625848","0.0-4.0-0.0-0.0","spark_pilot_norest","8449","3","17","Female","","","","","","","2643.8000000000466","<p> This time you are searching for treasure in the <b>ocean</b>.</p>","","instructions","","","","","","","","","","","",""
"learning-instructions","119","645803","0.0-4.0-0.0-0.1","spark_pilot_norest","8449","3","17","Female","","","","","","","2648.399999999907","<p><b>New</b> animals with <b>new</b> treasure chests live here. You need to explore to discover where the animal with the best treasure chest is.</p>
                    <p> Like before, once you figure out which animal has the chest with the most treasure, you should try to get to that animal and select that chest! </p>","","instructions","","","","","","","","","","","",""
"learning-instructions","120","661854","0.0-4.0-1.0-0.0","spark_pilot_norest","8449","3","17","Female","","","","","","","1310.5","<p> Remember, when you see a picture of the place, use the up and down keys to <b>find an animal</b>.</p>
            <p> When you encounter an animal, you should use the left and right keys to <b>select a treasure chest</b>.</p>
            <p> Don't forget to look out for the robber! </p>","","instructions","","","","","","","","","","","",""
"revaluation","121","665865","0.0-4.0-2.0-0.0","spark_pilot_norest","8449","3","17","Female","","","true","","","","[]","./assets/img/ocean/memory/11.jpg","[]","value training","ocean","-5","{""ArrowUp,ArrowLeft"":23,""ArrowUp,ArrowRight"":10,""ArrowDown,ArrowLeft"":8,""ArrowDown,ArrowRight"":30}","false","","false","original","1","0","","",""
"html-keyboard-response","122","666383","0.0-4.0-2.0-1.0","spark_pilot_norest","8449","3","17","Female","","","","","","","null","<div style=""font-size:60px;"">+</div>","null","fixation","","","","","","","","","1","","",""
"revaluation","123","672419","0.0-4.0-2.0-0.1","spark_pilot_norest","8449","3","17","Female","","","false","","","","[764.8000000000466,1372.7999999998137]","./assets/img/ocean/memory/23.jpg","[""ArrowDown"",""ArrowRight""]","value training","ocean","30","{""ArrowUp,ArrowLeft"":23,""ArrowUp,ArrowRight"":10,""ArrowDown,ArrowLeft"":8,""ArrowDown,ArrowRight"":30}","true","ArrowDown,ArrowRight","false","original","1","2","","",""
"html-keyboard-response","124","672933","0.0-4.0-2.0-1.1","spark_pilot_norest","8449","3","17","Female","","","","","","","null","<div style=""font-size:60px;"">+</div>","null","fixation","","","","","","","","","3","","",""
"revaluation","125","678965","0.0-4.0-2.0-0.2","spark_pilot_norest","8449","3","17","Female","","","false","","","","[878.9000000001397,541.8999999999069]","./assets/img/ocean/memory/33.jpg","[""ArrowDown"",""ArrowRight""]","value training","ocean","30","{""ArrowUp,ArrowLeft"":23,""ArrowUp,ArrowRight"":10,""ArrowDown,ArrowLeft"":8,""ArrowDown,ArrowRight"":30}","true","ArrowDown,ArrowRight","false","original","1","4","","",""
"html-keyboard-response","126","679468","0.0-4.0-2.0-1.2","spark_pilot_norest","8449","3","17","Female","","","","","","","null","<div style=""font-size:60px;"">+</div>","null","fixation","","","","","","","","","5","","",""
"revaluation","127","685493","0.0-4.0-2.0-0.3","spark_pilot_norest","8449","3","17","Female","","","false","","","","[761.7000000001863,989.4000000001397]","./assets/img/ocean/memory/2.jpg","[""ArrowDown"",""ArrowRight""]","value training","ocean","30","{""ArrowUp,ArrowLeft"":23,""ArrowUp,ArrowRight"":10,""ArrowDown,ArrowLeft"":8,""ArrowDown,ArrowRight"":30}","true","ArrowDown,ArrowRight","false","original","1","6","","",""
"html-keyboard-response","128","686005","0.0-4.0-2.0-1.3","spark_pilot_norest","8449","3","17","Female","","","","","","","null","<div style=""font-size:60px;"">+</div>","null","fixation","","","","","","","","","7","","",""
"revaluation","129","692023","0.0-4.0-2.0-0.4","spark_pilot_norest","8449","3","17","Female","","","false","","","","[838,1648.6000000000931]","./assets/img/ocean/memory/23.jpg","[""ArrowDown"",""ArrowLeft""]","value training","ocean","8","{""ArrowUp,ArrowLeft"":23,""ArrowUp,ArrowRight"":10,""ArrowDown,ArrowLeft"":8,""ArrowDown,ArrowRight"":30}","false","ArrowDown,ArrowLeft","false","original","1","8","","",""
"html-keyboard-response","130","692525","0.0-4.0-2.0-1.4","spark_pilot_norest","8449","3","17","Female","","","","","","","null","<div style=""font-size:60px;"">+</div>","null","fixation","","","","","","","","","9","","",""
"revaluation","131","696530","0.0-4.0-2.0-0.5","spark_pilot_norest","8449","3","17","Female","","","false","","","","[1651.1000000000931]","./assets/img/ocean/catch/7.jpg","[""spaceBar""]","value training","ocean","0","{""ArrowUp,ArrowLeft"":23,""ArrowUp,ArrowRight"":10,""ArrowDown,ArrowLeft"":8,""ArrowDown,ArrowRight"":30}","true","spaceBar","true","original","1","10","","",""
"html-keyboard-response","132","697033","0.0-4.0-2.0-1.5","spark_pilot_norest","8449","3","17","Female","","","","","","","null","<div style=""font-size:60px;"">+</div>","null","fixation","","","","","","","","","11","","",""
"revaluation","133","703042","0.0-4.0-2.0-0.6","spark_pilot_norest","8449","3","17","Female","","","false","","","","[1326.1999999999534,514.1999999999534]","./assets/img/ocean/memory/6.jpg","[""ArrowDown"",""ArrowRight""]","value training","ocean","30","{""ArrowUp,ArrowLeft"":23,""ArrowUp,ArrowRight"":10,""ArrowDown,ArrowLeft"":8,""ArrowDown,ArrowRight"":30}","true","ArrowDown,ArrowRight","false","original","1","12","","",""
"html-keyboard-response","134","703545","0.0-4.0-2.0-1.6","spark_pilot_norest","8449","3","17","Female","","","","","","","null","<div style=""font-size:60px;"">+</div>","null","fixation","","","","","","","","","13","","",""
"revaluation","135","709553","0.0-4.0-2.0-0.7","spark_pilot_norest","8449","3","17","Female","","","false","","","","[623.7000000001863,419]","./assets/img/ocean/memory/25.jpg","[""ArrowDown"",""ArrowRight""]","value training","ocean","30","{""ArrowUp,ArrowLeft"":23,""ArrowUp,ArrowRight"":10,""ArrowDown,ArrowLeft"":8,""ArrowDown,ArrowRight"":30}","true","ArrowDown,ArrowRight","false","original","1","14","","",""
"html-keyboard-response","136","710056","0.0-4.0-2.0-1.7","spark_pilot_norest","8449","3","17","Female","","","","","","","null","<div style=""font-size:60px;"">+</div>","null","fixation","","","","","","","","","15","","",""
"revaluation","137","716063","0.0-4.0-2.0-0.8","spark_pilot_norest","8449","3","17","Female","","","false","","","","[893,576]","./assets/img/ocean/memory/4.jpg","[""ArrowDown"",""ArrowRight""]","value training","ocean","30","{""ArrowUp,ArrowLeft"":23,""ArrowUp,ArrowRight"":10,""ArrowDown,ArrowLeft"":8,""ArrowDown,ArrowRight"":30}","true","ArrowDown,ArrowRight","false","original","1","16","","",""
"html-keyboard-response","138","716569","0.0-4.0-2.0-1.8","spark_pilot_norest","8449","3","17","Female","","","","","","","null","<div style=""font-size:60px;"">+</div>","null","fixation","","","","","","","","","17","","",""
"revaluation","139","722576","0.0-4.0-2.0-0.9","spark_pilot_norest","8449","3","17","Female","","","false","","","","[511.19999999995343,498.19999999995343]","./assets/img/ocean/memory/40.jpg","[""ArrowDown"",""ArrowRight""]","value training","ocean","30","{""ArrowUp,ArrowLeft"":23,""ArrowUp,ArrowRight"":10,""ArrowDown,ArrowLeft"":8,""ArrowDown,ArrowRight"":30}","true","ArrowDown,ArrowRight","false","original","1","18","","",""
"html-keyboard-response","140","723077","0.0-4.0-2.0-1.9","spark_pilot_norest","8449","3","17","Female","","","","","","","null","<div style=""font-size:60px;"">+</div>","null","fixation","","","","","","","","","19","","",""
"revaluation","141","727086","0.0-4.0-2.0-0.10","spark_pilot_norest","8449","3","17","Female","","","false","","","","[912]","./assets/img/ocean/catch/2.jpg","[""spaceBar""]","value training","ocean","0","{""ArrowUp,ArrowLeft"":23,""ArrowUp,ArrowRight"":10,""ArrowDown,ArrowLeft"":8,""ArrowDown,ArrowRight"":30}","true","spaceBar","true","original","1","20","","",""
"html-keyboard-response","142","727588","0.0-4.0-2.0-1.10","spark_pilot_norest","8449","3","17","Female","","","","","","","null","<div style=""font-size:60px;"">+</div>","null","fixation","","","","","","","","","21","","",""
"revaluation","143","733597","0.0-4.0-2.0-0.11","spark_pilot_norest","8449","3","17","Female","","","false","","","","[736.5,717.1000000000931]","./assets/img/ocean/memory/27.jpg","[""ArrowDown"",""ArrowRight""]","value training","ocean","30","{""ArrowUp,ArrowLeft"":23,""ArrowUp,ArrowRight"":10,""ArrowDown,ArrowLeft"":8,""ArrowDown,ArrowRight"":30}","true","ArrowDown,ArrowRight","false","original","1","22","","",""
"html-keyboard-response","144","734100","0.0-4.0-2.0-1.11","spark_pilot_norest","8449","3","17","Female","","","","","","","null","<div style=""font-size:60px;"">+</div>","null","fixation","","","","","","","","","23","","",""
"revaluation","145","738109","0.0-4.0-2.0-0.12","spark_pilot_norest","8449","3","17","Female","","","false","","","","[1083.3999999999069]","./assets/img/ocean/catch/3.jpg","[""spaceBar""]","value training","ocean","0","{""ArrowUp,ArrowLeft"":23,""ArrowUp,ArrowRight"":10,""ArrowDown,ArrowLeft"":8,""ArrowDown,ArrowRight"":30}","true","spaceBar","true","original","1","24","","",""
"html-keyboard-response","146","738612","0.0-4.0-2.0-1.12","spark_pilot_norest","8449","3","17","Female","","","","","","","null","<div style=""font-size:60px;"">+</div>","null","fixation","","","","","","","","","25","","",""
"revaluation","147","744631","0.0-4.0-2.0-0.13","spark_pilot_norest","8449","3","17","Female","","","false","","","","[715.6000000000931,1272.9000000001397]","./assets/img/ocean/memory/37.jpg","[""ArrowDown"",""ArrowRight""]","value training","ocean","30","{""ArrowUp,ArrowLeft"":23,""ArrowUp,ArrowRight"":10,""ArrowDown,ArrowLeft"":8,""ArrowDown,ArrowRight"":30}","true","ArrowDown,ArrowRight","false","original","1","26","","",""
"html-keyboard-response","148","745133","0.0-4.0-2.0-1.13","spark_pilot_norest","8449","3","17","Female","","","","","","","null","<div style=""font-size:60px;"">+</div>","null","fixation","","","","","","","","","27","","",""
"revaluation","149","751138","0.0-4.0-2.0-0.14","spark_pilot_norest","8449","3","17","Female","","","false","","","","[915,632.1000000000931]","./assets/img/ocean/memory/40.jpg","[""ArrowDown"",""ArrowRight""]","value training","ocean","30","{""ArrowUp,ArrowLeft"":23,""ArrowUp,ArrowRight"":10,""ArrowDown,ArrowLeft"":8,""ArrowDown,ArrowRight"":30}","true","ArrowDown,ArrowRight","false","original","1","28","","",""
"html-keyboard-response","150","751640","0.0-4.0-2.0-1.14","spark_pilot_norest","8449","3","17","Female","","","","","","","null","<div style=""font-size:60px;"">+</div>","null","fixation","","","","","","","","","29","","",""
"revaluation","151","757650","0.0-4.0-2.0-0.15","spark_pilot_norest","8449","3","17","Female","","","false","","","","[1013.8000000000466,626.6999999999534]","./assets/img/ocean/memory/15.jpg","[""ArrowDown"",""ArrowRight""]","value training","ocean","30","{""ArrowUp,ArrowLeft"":23,""ArrowUp,ArrowRight"":10,""ArrowDown,ArrowLeft"":8,""ArrowDown,ArrowRight"":30}","true","ArrowDown,ArrowRight","false","original","1","30","","",""
"html-keyboard-response","152","758153","0.0-4.0-2.0-1.15","spark_pilot_norest","8449","3","17","Female","","","","","","","null","<div style=""font-size:60px;"">+</div>","null","fixation","","","","","","","","","31","","",""
"revaluation","153","764162","0.0-4.0-2.0-0.16","spark_pilot_norest","8449","3","17","Female","","","false","","","","[936.8000000000466,692]","./assets/img/ocean/memory/16.jpg","[""ArrowDown"",""ArrowRight""]","value training","ocean","30","{""ArrowUp,ArrowLeft"":23,""ArrowUp,ArrowRight"":10,""ArrowDown,ArrowLeft"":8,""ArrowDown,ArrowRight"":30}","true","ArrowDown,ArrowRight","false","original","1","32","","",""
"html-keyboard-response","154","764672","0.0-4.0-2.0-1.16","spark_pilot_norest","8449","3","17","Female","","","","","","","null","<div style=""font-size:60px;"">+</div>","null","fixation","","","","","","","","","33","","",""
"revaluation","155","770679","0.0-4.0-2.0-0.17","spark_pilot_norest","8449","3","17","Female","","","true","","","","[668.1999999999534]","./assets/img/ocean/memory/3.jpg","[""ArrowDown""]","value training","ocean","-5","{""ArrowUp,ArrowLeft"":23,""ArrowUp,ArrowRight"":10,""ArrowDown,ArrowLeft"":8,""ArrowDown,ArrowRight"":30}","false","ArrowDown","false","original","1","34","","",""
"html-keyboard-response","156","771181","0.0-4.0-2.0-1.17","spark_pilot_norest","8449","3","17","Female","","","","","","","null","<div style=""font-size:60px;"">+</div>","null","fixation","","","","","","","","","35","","",""
"revaluation","157","777189","0.0-4.0-2.0-0.18","spark_pilot_norest","8449","3","17","Female","","","false","","","","[477.80000000004657,435.0999999998603]","./assets/img/ocean/memory/25.jpg","[""ArrowDown"",""ArrowRight""]","value training","ocean","30","{""ArrowUp,ArrowLeft"":23,""ArrowUp,ArrowRight"":10,""ArrowDown,ArrowLeft"":8,""ArrowDown,ArrowRight"":30}","true","ArrowDown,ArrowRight","false","original","1","36","","",""
"html-keyboard-response","158","777692","0.0-4.0-2.0-1.18","spark_pilot_norest","8449","3","17","Female","","","","","","","null","<div style=""font-size:60px;"">+</div>","null","fixation","","","","","","","","","37","","",""
"revaluation","159","783709","0.0-4.0-2.0-0.19","spark_pilot_norest","8449","3","17","Female","","","false","","","","[818.8000000000466,379.89999999990687]","./assets/img/ocean/memory/21.jpg","[""ArrowDown"",""ArrowRight""]","value training","ocean","30","{""ArrowUp,ArrowLeft"":23,""ArrowUp,ArrowRight"":10,""ArrowDown,ArrowLeft"":8,""ArrowDown,ArrowRight"":30}","true","ArrowDown,ArrowRight","false","original","1","38","","",""
"html-keyboard-response","160","784211","0.0-4.0-2.0-1.19","spark_pilot_norest","8449","3","17","Female","","","","","","","null","<div style=""font-size:60px;"">+</div>","null","fixation","","","","","","","","","39","","",""
"revaluation","161","790219","0.0-4.0-2.0-0.20","spark_pilot_norest","8449","3","17","Female","","","false","","","","[918.5,785.3999999999069]","./assets/img/ocean/memory/36.jpg","[""ArrowDown"",""ArrowRight""]","value training","ocean","30","{""ArrowUp,ArrowLeft"":23,""ArrowUp,ArrowRight"":10,""ArrowDown,ArrowLeft"":8,""ArrowDown,ArrowRight"":30}","true","ArrowDown,ArrowRight","false","original","1","40","","",""
"html-keyboard-response","162","790722","0.0-4.0-2.0-1.20","spark_pilot_norest","8449","3","17","Female","","","","","","","null","<div style=""font-size:60px;"">+</div>","null","fixation","","","","","","","","","41","","",""
"revaluation","163","796731","0.0-4.0-2.0-0.21","spark_pilot_norest","8449","3","17","Female","","","false","","","","[793.7000000001863,558.5]","./assets/img/ocean/memory/29.jpg","[""ArrowDown"",""ArrowRight""]","value training","ocean","30","{""ArrowUp,ArrowLeft"":23,""ArrowUp,ArrowRight"":10,""ArrowDown,ArrowLeft"":8,""ArrowDown,ArrowRight"":30}","true","ArrowDown,ArrowRight","false","original","1","42","","",""
"html-keyboard-response","164","797233","0.0-4.0-2.0-1.21","spark_pilot_norest","8449","3","17","Female","","","","","","","null","<div style=""font-size:60px;"">+</div>","null","fixation","","","","","","","","","43","","",""
"revaluation","165","801242","0.0-4.0-2.0-0.22","spark_pilot_norest","8449","3","17","Female","","","false","","","","[1147.3000000000466]","./assets/img/ocean/catch/6.jpg","[""spaceBar""]","value training","ocean","0","{""ArrowUp,ArrowLeft"":23,""ArrowUp,ArrowRight"":10,""ArrowDown,ArrowLeft"":8,""ArrowDown,ArrowRight"":30}","true","spaceBar","true","original","1","44","","",""
"html-keyboard-response","166","801744","0.0-4.0-2.0-1.22","spark_pilot_norest","8449","3","17","Female","","","","","","","null","<div style=""font-size:60px;"">+</div>","null","fixation","","","","","","","","","45","","",""
"revaluation","167","807752","0.0-4.0-2.0-0.23","spark_pilot_norest","8449","3","17","Female","","","false","","","","[698,473.60000000009313]","./assets/img/ocean/memory/37.jpg","[""ArrowDown"",""ArrowRight""]","value training","ocean","30","{""ArrowUp,ArrowLeft"":23,""ArrowUp,ArrowRight"":10,""ArrowDown,ArrowLeft"":8,""ArrowDown,ArrowRight"":30}","true","ArrowDown,ArrowRight","false","original","1","46","","",""
"html-keyboard-response","168","808254","0.0-4.0-2.0-1.23","spark_pilot_norest","8449","3","17","Female","","","","","","","null","<div style=""font-size:60px;"">+</div>","null","fixation","","","","","","","","","47","","",""
"revaluation","169","814261","0.0-4.0-2.0-0.24","spark_pilot_norest","8449","3","17","Female","","","false","","","","[688.5,1611.6000000000931]","./assets/img/ocean/memory/15.jpg","[""ArrowUp"",""ArrowRight""]","value training","ocean","10","{""ArrowUp,ArrowLeft"":23,""ArrowUp,ArrowRight"":10,""ArrowDown,ArrowLeft"":8,""ArrowDown,ArrowRight"":30}","false","ArrowUp,ArrowRight","false","original","1","48","","",""
"html-keyboard-response","170","814764","0.0-4.0-2.0-1.24","spark_pilot_norest","8449","3","17","Female","","","","","","","null","<div style=""font-size:60px;"">+</div>","null","fixation","","","","","","","","","49","","",""
"revaluation","171","820772","0.0-4.0-2.0-0.25","spark_pilot_norest","8449","3","17","Female","","","false","","","","[752.9000000001397,398.69999999995343]","./assets/img/ocean/memory/21.jpg","[""ArrowUp"",""ArrowLeft""]","value training","ocean","23","{""ArrowUp,ArrowLeft"":23,""ArrowUp,ArrowRight"":10,""ArrowDown,ArrowLeft"":8,""ArrowDown,ArrowRight"":30}","false","ArrowUp,ArrowLeft","false","original","1","50","","",""
"html-keyboard-response","172","821275","0.0-4.0-2.0-1.25","spark_pilot_norest","8449","3","17","Female","","","","","","","null","<div style=""font-size:60px;"">+</div>","null","fixation","","","","","","","","","51","","",""
"revaluation","173","827285","0.0-4.0-2.0-0.26","spark_pilot_norest","8449","3","17","Female","","","false","","","","[881.1000000000931,490.0999999998603]","./assets/img/ocean/memory/6.jpg","[""ArrowDown"",""ArrowRight""]","value training","ocean","30","{""ArrowUp,ArrowLeft"":23,""ArrowUp,ArrowRight"":10,""ArrowDown,ArrowLeft"":8,""ArrowDown,ArrowRight"":30}","true","ArrowDown,ArrowRight","false","original","1","52","","",""
"html-keyboard-response","174","827788","0.0-4.0-2.0-1.26","spark_pilot_norest","8449","3","17","Female","","","","","","","null","<div style=""font-size:60px;"">+</div>","null","fixation","","","","","","","","","53","","",""
"revaluation","175","833795","0.0-4.0-2.0-0.27","spark_pilot_norest","8449","3","17","Female","","","false","","","","[1019.4000000001397,622.6999999999534]","./assets/img/ocean/memory/22.jpg","[""ArrowUp"",""ArrowLeft""]","value training","ocean","23","{""ArrowUp,ArrowLeft"":23,""ArrowUp,ArrowRight"":10,""ArrowDown,ArrowLeft"":8,""ArrowDown,ArrowRight"":30}","false","ArrowUp,ArrowLeft","false","original","1","54","","",""
"html-keyboard-response","176","834298","0.0-4.0-2.0-1.27","spark_pilot_norest","8449","3","17","Female","","","","","","","null","<div style=""font-size:60px;"">+</div>","null","fixation","","","","","","","","","55","","",""
"revaluation","177","838305","0.0-4.0-2.0-0.28","spark_pilot_norest","8449","3","17","Female","","","false","","","","[1178.3000000000466]","./assets/img/ocean/catch/5.jpg","[""spaceBar""]","value training","ocean","0","{""ArrowUp,ArrowLeft"":23,""ArrowUp,ArrowRight"":10,""ArrowDown,ArrowLeft"":8,""ArrowDown,ArrowRight"":30}","true","spaceBar","true","original","1","56","","",""
"html-keyboard-response","178","838807","0.0-4.0-2.0-1.28","spark_pilot_norest","8449","3","17","Female","","","","","","","null","<div style=""font-size:60px;"">+</div>","null","fixation","","","","","","","","","57","","",""
"revaluation","179","842814","0.0-4.0-2.0-0.29","spark_pilot_norest","8449","3","17","Female","","","true","","","","[]","./assets/img/ocean/catch/0.jpg","[]","value training","ocean","-5","{""ArrowUp,ArrowLeft"":23,""ArrowUp,ArrowRight"":10,""ArrowDown,ArrowLeft"":8,""ArrowDown,ArrowRight"":30}","false","","true","original","1","58","","",""
"html-keyboard-response","180","843315","0.0-4.0-2.0-1.29","spark_pilot_norest","8449","3","17","Female","","","","","","","null","<div style=""font-size:60px;"">+</div>","null","fixation","","","","","","","","","59","","",""
"revaluation","181","849323","0.0-4.0-2.0-0.30","spark_pilot_norest","8449","3","17","Female","","","false","","","","[1765.6999999999534,928.6999999999534]","./assets/img/ocean/memory/4.jpg","[""ArrowDown"",""ArrowRight""]","value training","ocean","30","{""ArrowUp,ArrowLeft"":23,""ArrowUp,ArrowRight"":10,""ArrowDown,ArrowLeft"":8,""ArrowDown,ArrowRight"":30}","true","ArrowDown,ArrowRight","false","original","1","60","","",""
"html-keyboard-response","182","849826","0.0-4.0-2.0-1.30","spark_pilot_norest","8449","3","17","Female","","","","","","","null","<div style=""font-size:60px;"">+</div>","null","fixation","","","","","","","","","61","","",""
"revaluation","183","855836","0.0-4.0-2.0-0.31","spark_pilot_norest","8449","3","17","Female","","","false","","","","[1279.0999999998603,1918]","./assets/img/ocean/memory/29.jpg","[""ArrowUp"",""ArrowLeft""]","value training","ocean","23","{""ArrowUp,ArrowLeft"":23,""ArrowUp,ArrowRight"":10,""ArrowDown,ArrowLeft"":8,""ArrowDown,ArrowRight"":30}","false","ArrowUp,ArrowLeft","false","original","1","62","","",""
"html-keyboard-response","184","856339","0.0-4.0-2.0-1.31","spark_pilot_norest","8449","3","17","Female","","","","","","","null","<div style=""font-size:60px;"">+</div>","null","fixation","","","","","","","","","63","","",""
"revaluation","185","862348","0.0-4.0-2.0-0.32","spark_pilot_norest","8449","3","17","Female","","","false","","","","[1356.5,940.8000000000466]","./assets/img/ocean/memory/3.jpg","[""ArrowUp"",""ArrowLeft""]","value training","ocean","23","{""ArrowUp,ArrowLeft"":23,""ArrowUp,ArrowRight"":10,""ArrowDown,ArrowLeft"":8,""ArrowDown,ArrowRight"":30}","false","ArrowUp,ArrowLeft","false","original","1","64","","",""
"html-keyboard-response","186","862850","0.0-4.0-2.0-1.32","spark_pilot_norest","8449","3","17","Female","","","","","","","null","<div style=""font-size:60px;"">+</div>","null","fixation","","","","","","","","","65","","",""
"revaluation","187","868864","0.0-4.0-2.0-0.33","spark_pilot_norest","8449","3","17","Female","","","false","","","","[746.2000000001863,282.39999999990687]","./assets/img/ocean/memory/35.jpg","[""ArrowDown"",""ArrowRight""]","value training","ocean","30","{""ArrowUp,ArrowLeft"":23,""ArrowUp,ArrowRight"":10,""ArrowDown,ArrowLeft"":8,""ArrowDown,ArrowRight"":30}","true","ArrowDown,ArrowRight","false","original","1","66","","",""
"html-keyboard-response","188","869366","0.0-4.0-2.0-1.33","spark_pilot_norest","8449","3","17","Female","","","","","","","null","<div style=""font-size:60px;"">+</div>","null","fixation","","","","","","","","","67","","",""
"revaluation","189","875377","0.0-4.0-2.0-0.34","spark_pilot_norest","8449","3","17","Female","","","false","","","","[677.1000000000931,1000.9000000001397]","./assets/img/ocean/memory/38.jpg","[""ArrowUp"",""ArrowLeft""]","value training","ocean","23","{""ArrowUp,ArrowLeft"":23,""ArrowUp,ArrowRight"":10,""ArrowDown,ArrowLeft"":8,""ArrowDown,ArrowRight"":30}","false","ArrowUp,ArrowLeft","false","original","1","68","","",""
"html-keyboard-response","190","875879","0.0-4.0-2.0-1.34","spark_pilot_norest","8449","3","17","Female","","","","","","","null","<div style=""font-size:60px;"">+</div>","null","fixation","","","","","","","","","69","","",""
"revaluation","191","881890","0.0-4.0-2.0-0.35","spark_pilot_norest","8449","3","17","Female","","","false","","","","[1112.1000000000931,288.5999999998603]","./assets/img/ocean/memory/38.jpg","[""ArrowUp"",""ArrowRight""]","value training","ocean","10","{""ArrowUp,ArrowLeft"":23,""ArrowUp,ArrowRight"":10,""ArrowDown,ArrowLeft"":8,""ArrowDown,ArrowRight"":30}","false","ArrowUp,ArrowRight","false","original","1","70","","",""
"html-keyboard-response","192","882393","0.0-4.0-2.0-1.35","spark_pilot_norest","8449","3","17","Female","","","","","","","null","<div style=""font-size:60px;"">+</div>","null","fixation","","","","","","","","","71","","",""
"revaluation","193","888402","0.0-4.0-2.0-0.36","spark_pilot_norest","8449","3","17","Female","","","false","","","","[452.5999999998603,339.89999999990687]","./assets/img/ocean/memory/22.jpg","[""ArrowDown"",""ArrowRight""]","value training","ocean","30","{""ArrowUp,ArrowLeft"":23,""ArrowUp,ArrowRight"":10,""ArrowDown,ArrowLeft"":8,""ArrowDown,ArrowRight"":30}","true","ArrowDown,ArrowRight","false","original","1","72","","",""
"html-keyboard-response","194","888905","0.0-4.0-2.0-1.36","spark_pilot_norest","8449","3","17","Female","","","","","","","null","<div style=""font-size:60px;"">+</div>","null","fixation","","","","","","","","","73","","",""
"revaluation","195","894914","0.0-4.0-2.0-0.37","spark_pilot_norest","8449","3","17","Female","","","false","","","","[730.2000000001863,372.5999999998603]","./assets/img/ocean/memory/36.jpg","[""ArrowUp"",""ArrowLeft""]","value training","ocean","23","{""ArrowUp,ArrowLeft"":23,""ArrowUp,ArrowRight"":10,""ArrowDown,ArrowLeft"":8,""ArrowDown,ArrowRight"":30}","false","ArrowUp,ArrowLeft","false","original","1","74","","",""
"html-keyboard-response","196","895416","0.0-4.0-2.0-1.37","spark_pilot_norest","8449","3","17","Female","","","","","","","null","<div style=""font-size:60px;"">+</div>","null","fixation","","","","","","","","","75","","",""
"revaluation","197","899423","0.0-4.0-2.0-0.38","spark_pilot_norest","8449","3","17","Female","","","false","","","","[903.6000000000931]","./assets/img/ocean/catch/1.jpg","[""spaceBar""]","value training","ocean","0","{""ArrowUp,ArrowLeft"":23,""ArrowUp,ArrowRight"":10,""ArrowDown,ArrowLeft"":8,""ArrowDown,ArrowRight"":30}","true","spaceBar","true","original","1","76","","",""
"html-keyboard-response","198","899925","0.0-4.0-2.0-1.38","spark_pilot_norest","8449","3","17","Female","","","","","","","null","<div style=""font-size:60px;"">+</div>","null","fixation","","","","","","","","","77","","",""
"revaluation","199","905935","0.0-4.0-2.0-0.39","spark_pilot_norest","8449","3","17","Female","","","false","","","","[848.7000000001863,1041.2000000001863]","./assets/img/ocean/memory/33.jpg","[""ArrowUp"",""ArrowLeft""]","value training","ocean","23","{""ArrowUp,ArrowLeft"":23,""ArrowUp,ArrowRight"":10,""ArrowDown,ArrowLeft"":8,""ArrowDown,ArrowRight"":30}","false","ArrowUp,ArrowLeft","false","original","1","78","","",""
"html-keyboard-response","200","906437","0.0-4.0-2.0-1.39","spark_pilot_norest","8449","3","17","Female","","","","","","","null","<div style=""font-size:60px;"">+</div>","null","fixation","","","","","","","","","79","","",""
"revaluation","201","912447","0.0-4.0-2.0-0.40","spark_pilot_norest","8449","3","17","Female","","","false","","","","[422.9000000001397,327.29999999981374]","./assets/img/ocean/memory/16.jpg","[""ArrowDown"",""ArrowRight""]","value training","ocean","30","{""ArrowUp,ArrowLeft"":23,""ArrowUp,ArrowRight"":10,""ArrowDown,ArrowLeft"":8,""ArrowDown,ArrowRight"":30}","true","ArrowDown,ArrowRight","false","original","1","80","","",""
"html-keyboard-response","202","912949","0.0-4.0-2.0-1.40","spark_pilot_norest","8449","3","17","Female","","","","","","","null","<div style=""font-size:60px;"">+</div>","null","fixation","","","","","","","","","81","","",""
"revaluation","203","918956","0.0-4.0-2.0-0.41","spark_pilot_norest","8449","3","17","Female","","","false","","","","[554.1999999999534,73.0999999998603]","./assets/img/ocean/memory/35.jpg","[""ArrowUp"",""ArrowLeft""]","value training","ocean","23","{""ArrowUp,ArrowLeft"":23,""ArrowUp,ArrowRight"":10,""ArrowDown,ArrowLeft"":8,""ArrowDown,ArrowRight"":30}","false","ArrowUp,ArrowLeft","false","original","1","82","","",""
"html-keyboard-response","204","919459","0.0-4.0-2.0-1.41","spark_pilot_norest","8449","3","17","Female","","","","","","","null","<div style=""font-size:60px;"">+</div>","null","fixation","","","","","","","","","83","","",""
"revaluation","205","925468","0.0-4.0-2.0-0.42","spark_pilot_norest","8449","3","17","Female","","","false","","","","[406.70000000018626,786.1000000000931]","./assets/img/ocean/memory/11.jpg","[""ArrowDown"",""ArrowRight""]","value training","ocean","30","{""ArrowUp,ArrowLeft"":23,""ArrowUp,ArrowRight"":10,""ArrowDown,ArrowLeft"":8,""ArrowDown,ArrowRight"":30}","true","ArrowDown,ArrowRight","false","original","1","84","","",""
"html-keyboard-response","206","925969","0.0-4.0-2.0-1.42","spark_pilot_norest","8449","3","17","Female","","","","","","","null","<div style=""font-size:60px;"">+</div>","null","fixation","","","","","","","","","85","","",""
"revaluation","207","931976","0.0-4.0-2.0-0.43","spark_pilot_norest","8449","3","17","Female","","","false","","","","[1241.3000000000466,1239.0999999998603]","./assets/img/ocean/memory/20.jpg","[""ArrowUp"",""ArrowLeft""]","value training","ocean","23","{""ArrowUp,ArrowLeft"":23,""ArrowUp,ArrowRight"":10,""ArrowDown,ArrowLeft"":8,""ArrowDown,ArrowRight"":30}","false","ArrowUp,ArrowLeft","false","original","1","86","","",""
"html-keyboard-response","208","932478","0.0-4.0-2.0-1.43","spark_pilot_norest","8449","3","17","Female","","","","","","","null","<div style=""font-size:60px;"">+</div>","null","fixation","","","","","","","","","87","","",""
"revaluation","209","938487","0.0-4.0-2.0-0.44","spark_pilot_norest","8449","3","17","Female","","","false","","","","[782.6999999999534,820.1999999999534]","./assets/img/ocean/memory/27.jpg","[""ArrowDown"",""ArrowRight""]","value training","ocean","30","{""ArrowUp,ArrowLeft"":23,""ArrowUp,ArrowRight"":10,""ArrowDown,ArrowLeft"":8,""ArrowDown,ArrowRight"":30}","true","ArrowDown,ArrowRight","false","original","1","88","","",""
"html-keyboard-response","210","938988","0.0-4.0-2.0-1.44","spark_pilot_norest","8449","3","17","Female","","","","","","","null","<div style=""font-size:60px;"">+</div>","null","fixation","","","","","","","","","89","","",""
"revaluation","211","944997","0.0-4.0-2.0-0.45","spark_pilot_norest","8449","3","17","Female","","","false","","","","[591.1999999999534,631.8000000000466]","./assets/img/ocean/memory/2.jpg","[""ArrowUp"",""ArrowLeft""]","value training","ocean","23","{""ArrowUp,ArrowLeft"":23,""ArrowUp,ArrowRight"":10,""ArrowDown,ArrowLeft"":8,""ArrowDown,ArrowRight"":30}","false","ArrowUp,ArrowLeft","false","original","1","90","","",""
"html-keyboard-response","212","945500","0.0-4.0-2.0-1.45","spark_pilot_norest","8449","3","17","Female","","","","","","","null","<div style=""font-size:60px;"">+</div>","null","fixation","","","","","","","","","91","","",""
"revaluation","213","949517","0.0-4.0-2.0-0.46","spark_pilot_norest","8449","3","17","Female","","","false","","","","[832.3999999999069]","./assets/img/ocean/catch/4.jpg","[""spaceBar""]","value training","ocean","0","{""ArrowUp,ArrowLeft"":23,""ArrowUp,ArrowRight"":10,""ArrowDown,ArrowLeft"":8,""ArrowDown,ArrowRight"":30}","true","spaceBar","true","original","1","92","","",""
"html-keyboard-response","214","950019","0.0-4.0-2.0-1.46","spark_pilot_norest","8449","3","17","Female","","","","","","","null","<div style=""font-size:60px;"">+</div>","null","fixation","","","","","","","","","93","","",""
"revaluation","215","956028","0.0-4.0-2.0-0.47","spark_pilot_norest","8449","3","17","Female","","","false","","","","[1189.9000000001397,513.8999999999069]","./assets/img/ocean/memory/34.jpg","[""ArrowDown"",""ArrowRight""]","value training","ocean","30","{""ArrowUp,ArrowLeft"":23,""ArrowUp,ArrowRight"":10,""ArrowDown,ArrowLeft"":8,""ArrowDown,ArrowRight"":30}","true","ArrowDown,ArrowRight","false","original","1","94","","",""
"html-keyboard-response","216","956531","0.0-4.0-2.0-1.47","spark_pilot_norest","8449","3","17","Female","","","","","","","null","<div style=""font-size:60px;"">+</div>","null","fixation","","","","","","","","","95","","",""
"revaluation","217","962537","0.0-4.0-2.0-0.48","spark_pilot_norest","8449","3","17","Female","","","false","","","","[507.39999999990687,923.1000000000931]","./assets/img/ocean/memory/34.jpg","[""ArrowUp"",""ArrowLeft""]","value training","ocean","23","{""ArrowUp,ArrowLeft"":23,""ArrowUp,ArrowRight"":10,""ArrowDown,ArrowLeft"":8,""ArrowDown,ArrowRight"":30}","false","ArrowUp,ArrowLeft","false","original","1","96","","",""
"html-keyboard-response","218","963040","0.0-4.0-2.0-1.48","spark_pilot_norest","8449","3","17","Female","","","","","","","null","<div style=""font-size:60px;"">+</div>","null","fixation","","","","","","","","","97","","",""
"revaluation","219","969049","0.0-4.0-2.0-0.49","spark_pilot_norest","8449","3","17","Female","","","false","","","","[904.6999999999534,553.3000000000466]","./assets/img/ocean/memory/20.jpg","[""ArrowDown"",""ArrowRight""]","value training","ocean","30","{""ArrowUp,ArrowLeft"":23,""ArrowUp,ArrowRight"":10,""ArrowDown,ArrowLeft"":8,""ArrowDown,ArrowRight"":30}","true","ArrowDown,ArrowRight","false","original","1","98","","",""
"html-keyboard-response","220","969552","0.0-4.0-2.0-1.49","spark_pilot_norest","8449","3","17","Female","","","","","","","null","<div style=""font-size:60px;"">+</div>","null","fixation","","","","","","","","","99","","",""
"learning-instructions","221","985494","0.0-4.0-3.0-0.0","spark_pilot_norest","8449","3","17","Female","","","","","","","2970.2000000001863","<p> Now, you will travel with a friend who will choose whether you go up or down first. </p>
            <p> On these turns, you will just see the animal that they found. You will still get to choose which chest to search for treasure.</p>","","instructions","","","","","","","","","","","",""
"revaluation","222","989512","0.0-4.0-4.0-0.0","spark_pilot_norest","8449","3","17","Female","","","false","","","","[1073.3000000000466]","./assets/img/ocean/animals/octopus.jpg","[""ArrowLeft""]","revaluation","ocean","23","{""ArrowUp,ArrowLeft"":23,""ArrowUp,ArrowRight"":10,""ArrowDown,ArrowLeft"":8,""ArrowDown,ArrowRight"":30}","true","ArrowUp,ArrowLeft","","original","1","0","","",""
"html-keyboard-response","223","990024","0.0-4.0-4.0-1.0","spark_pilot_norest","8449","3","17","Female","","","","","","","null","<div style=""font-size:60px;"">+</div>","null","fixation","","","","","","","","","1","","",""
"revaluation","224","994041","0.0-4.0-4.0-0.1","spark_pilot_norest","8449","3","17","Female","","","false","","","","[427.4000000001397]","./assets/img/ocean/animals/seahorse.jpg","[""ArrowRight""]","revaluation","ocean","30","{""ArrowUp,ArrowLeft"":23,""ArrowUp,ArrowRight"":10,""ArrowDown,ArrowLeft"":8,""ArrowDown,ArrowRight"":30}","true","ArrowDown,ArrowRight","","original","1","2","","",""
"html-keyboard-response","225","994556","0.0-4.0-4.0-1.1","spark_pilot_norest","8449","3","17","Female","","","","","","","null","<div style=""font-size:60px;"">+</div>","null","fixation","","","","","","","","","3","","",""
"revaluation","226","998573","0.0-4.0-4.0-0.2","spark_pilot_norest","8449","3","17","Female","","","false","","","","[659.6999999999534]","./assets/img/ocean/animals/seahorse.jpg","[""ArrowRight""]","revaluation","ocean","30","{""ArrowUp,ArrowLeft"":23,""ArrowUp,ArrowRight"":10,""ArrowDown,ArrowLeft"":8,""ArrowDown,ArrowRight"":30}","true","ArrowDown,ArrowRight","","original","1","4","","",""
"html-keyboard-response","227","999087","0.0-4.0-4.0-1.2","spark_pilot_norest","8449","3","17","Female","","","","","","","null","<div style=""font-size:60px;"">+</div>","null","fixation","","","","","","","","","5","","",""
"revaluation","228","1003110","0.0-4.0-4.0-0.3","spark_pilot_norest","8449","3","17","Female","","","false","","","","[604.3000000000466]","./assets/img/ocean/animals/octopus.jpg","[""ArrowLeft""]","revaluation","ocean","23","{""ArrowUp,ArrowLeft"":23,""ArrowUp,ArrowRight"":10,""ArrowDown,ArrowLeft"":8,""ArrowDown,ArrowRight"":30}","true","ArrowUp,ArrowLeft","","original","1","6","","",""
"html-keyboard-response","229","1003622","0.0-4.0-4.0-1.3","spark_pilot_norest","8449","3","17","Female","","","","","","","null","<div style=""font-size:60px;"">+</div>","null","fixation","","","","","","","","","7","","",""
"revaluation","230","1007651","0.0-4.0-4.0-0.4","spark_pilot_norest","8449","3","17","Female","","","false","","","","[613.5]","./assets/img/ocean/animals/octopus.jpg","[""ArrowRight""]","revaluation","ocean","10","{""ArrowUp,ArrowLeft"":23,""ArrowUp,ArrowRight"":10,""ArrowDown,ArrowLeft"":8,""ArrowDown,ArrowRight"":30}","false","ArrowUp,ArrowRight","","original","1","8","","",""
"html-keyboard-response","231","1008169","0.0-4.0-4.0-1.4","spark_pilot_norest","8449","3","17","Female","","","","","","","null","<div style=""font-size:60px;"">+</div>","null","fixation","","","","","","","","","9","","",""
"revaluation","232","1012179","0.0-4.0-4.0-0.5","spark_pilot_norest","8449","3","17","Female","","","false","","","","[851.5999999998603]","./assets/img/ocean/animals/seahorse.jpg","[""ArrowRight""]","revaluation","ocean","30","{""ArrowUp,ArrowLeft"":23,""ArrowUp,ArrowRight"":10,""ArrowDown,ArrowLeft"":8,""ArrowDown,ArrowRight"":30}","true","ArrowDown,ArrowRight","","original","1","10","","",""
"html-keyboard-response","233","1012681","0.0-4.0-4.0-1.5","spark_pilot_norest","8449","3","17","Female","","","","","","","null","<div style=""font-size:60px;"">+</div>","null","fixation","","","","","","","","","11","","",""
"revaluation","234","1016688","0.0-4.0-4.0-0.6","spark_pilot_norest","8449","3","17","Female","","","false","","","","[479.80000000004657]","./assets/img/ocean/animals/octopus.jpg","[""ArrowLeft""]","revaluation","ocean","23","{""ArrowUp,ArrowLeft"":23,""ArrowUp,ArrowRight"":10,""ArrowDown,ArrowLeft"":8,""ArrowDown,ArrowRight"":30}","true","ArrowUp,ArrowLeft","","original","1","12","","",""
"html-keyboard-response","235","1017190","0.0-4.0-4.0-1.6","spark_pilot_norest","8449","3","17","Female","","","","","","","null","<div style=""font-size:60px;"">+</div>","null","fixation","","","","","","","","","13","","",""
"revaluation","236","1021197","0.0-4.0-4.0-0.7","spark_pilot_norest","8449","3","17","Female","","","false","","","","[803.8000000000466]","./assets/img/ocean/animals/octopus.jpg","[""ArrowLeft""]","revaluation","ocean","23","{""ArrowUp,ArrowLeft"":23,""ArrowUp,ArrowRight"":10,""ArrowDown,ArrowLeft"":8,""ArrowDown,ArrowRight"":30}","true","ArrowUp,ArrowLeft","","original","1","14","","",""
"html-keyboard-response","237","1021700","0.0-4.0-4.0-1.7","spark_pilot_norest","8449","3","17","Female","","","","","","","null","<div style=""font-size:60px;"">+</div>","null","fixation","","","","","","","","","15","","",""
"revaluation","238","1025708","0.0-4.0-4.0-0.8","spark_pilot_norest","8449","3","17","Female","","","false","","","","[638.8000000000466]","./assets/img/ocean/animals/seahorse.jpg","[""ArrowRight""]","revaluation","ocean","30","{""ArrowUp,ArrowLeft"":23,""ArrowUp,ArrowRight"":10,""ArrowDown,ArrowLeft"":8,""ArrowDown,ArrowRight"":30}","true","ArrowDown,ArrowRight","","original","1","16","","",""
"html-keyboard-response","239","1026210","0.0-4.0-4.0-1.8","spark_pilot_norest","8449","3","17","Female","","","","","","","null","<div style=""font-size:60px;"">+</div>","null","fixation","","","","","","","","","17","","",""
"revaluation","240","1030218","0.0-4.0-4.0-0.9","spark_pilot_norest","8449","3","17","Female","","","false","","","","[943.6999999999534]","./assets/img/ocean/animals/octopus.jpg","[""ArrowLeft""]","revaluation","ocean","23","{""ArrowUp,ArrowLeft"":23,""ArrowUp,ArrowRight"":10,""ArrowDown,ArrowLeft"":8,""ArrowDown,ArrowRight"":30}","true","ArrowUp,ArrowLeft","","original","1","18","","",""
"html-keyboard-response","241","1030719","0.0-4.0-4.0-1.9","spark_pilot_norest","8449","3","17","Female","","","","","","","null","<div style=""font-size:60px;"">+</div>","null","fixation","","","","","","","","","19","","",""
"revaluation","242","1034726","0.0-4.0-4.0-0.10","spark_pilot_norest","8449","3","17","Female","","","false","","","","[859.8000000000466]","./assets/img/ocean/animals/seahorse.jpg","[""ArrowRight""]","revaluation","ocean","30","{""ArrowUp,ArrowLeft"":23,""ArrowUp,ArrowRight"":10,""ArrowDown,ArrowLeft"":8,""ArrowDown,ArrowRight"":30}","true","ArrowDown,ArrowRight","","original","1","20","","",""
"html-keyboard-response","243","1035228","0.0-4.0-4.0-1.10","spark_pilot_norest","8449","3","17","Female","","","","","","","null","<div style=""font-size:60px;"">+</div>","null","fixation","","","","","","","","","21","","",""
"revaluation","244","1039232","0.0-4.0-4.0-0.11","spark_pilot_norest","8449","3","17","Female","","","false","","","","[1444.5999999998603]","./assets/img/ocean/animals/octopus.jpg","[""ArrowLeft""]","revaluation","ocean","23","{""ArrowUp,ArrowLeft"":23,""ArrowUp,ArrowRight"":10,""ArrowDown,ArrowLeft"":8,""ArrowDown,ArrowRight"":30}","true","ArrowUp,ArrowLeft","","original","1","22","","",""
"html-keyboard-response","245","1039732","0.0-4.0-4.0-1.11","spark_pilot_norest","8449","3","17","Female","","","","","","","null","<div style=""font-size:60px;"">+</div>","null","fixation","","","","","","","","","23","","",""
"revaluation","246","1043740","0.0-4.0-4.0-0.12","spark_pilot_norest","8449","3","17","Female","","","false","","","","[878.9000000001397]","./assets/img/ocean/animals/octopus.jpg","[""ArrowLeft""]","revaluation","ocean","23","{""ArrowUp,ArrowLeft"":23,""ArrowUp,ArrowRight"":10,""ArrowDown,ArrowLeft"":8,""ArrowDown,ArrowRight"":30}","true","ArrowUp,ArrowLeft","","original","1","24","","",""
"html-keyboard-response","247","1044242","0.0-4.0-4.0-1.12","spark_pilot_norest","8449","3","17","Female","","","","","","","null","<div style=""font-size:60px;"">+</div>","null","fixation","","","","","","","","","25","","",""
"revaluation","248","1048246","0.0-4.0-4.0-0.13","spark_pilot_norest","8449","3","17","Female","","","false","","","","[812.1999999999534]","./assets/img/ocean/animals/seahorse.jpg","[""ArrowRight""]","revaluation","ocean","30","{""ArrowUp,ArrowLeft"":23,""ArrowUp,ArrowRight"":10,""ArrowDown,ArrowLeft"":8,""ArrowDown,ArrowRight"":30}","true","ArrowDown,ArrowRight","","original","1","26","","",""
"html-keyboard-response","249","1048748","0.0-4.0-4.0-1.13","spark_pilot_norest","8449","3","17","Female","","","","","","","null","<div style=""font-size:60px;"">+</div>","null","fixation","","","","","","","","","27","","",""
"revaluation","250","1052757","0.0-4.0-4.0-0.14","spark_pilot_norest","8449","3","17","Female","","","false","","","","[710.7000000001863]","./assets/img/ocean/animals/seahorse.jpg","[""ArrowRight""]","revaluation","ocean","30","{""ArrowUp,ArrowLeft"":23,""ArrowUp,ArrowRight"":10,""ArrowDown,ArrowLeft"":8,""ArrowDown,ArrowRight"":30}","true","ArrowDown,ArrowRight","","original","1","28","","",""
"html-keyboard-response","251","1053260","0.0-4.0-4.0-1.14","spark_pilot_norest","8449","3","17","Female","","","","","","","null","<div style=""font-size:60px;"">+</div>","null","fixation","","","","","","","","","29","","",""
"revaluation","252","1057269","0.0-4.0-4.0-0.15","spark_pilot_norest","8449","3","17","Female","","","false","","","","[728.9000000001397]","./assets/img/ocean/animals/octopus.jpg","[""ArrowLeft""]","revaluation","ocean","23","{""ArrowUp,ArrowLeft"":23,""ArrowUp,ArrowRight"":10,""ArrowDown,ArrowLeft"":8,""ArrowDown,ArrowRight"":30}","true","ArrowUp,ArrowLeft","","original","1","30","","",""
"html-keyboard-response","253","1057773","0.0-4.0-4.0-1.15","spark_pilot_norest","8449","3","17","Female","","","","","","","null","<div style=""font-size:60px;"">+</div>","null","fixation","","","","","","","","","31","","",""
"revaluation","254","1061777","0.0-4.0-4.0-0.16","spark_pilot_norest","8449","3","17","Female","","","false","","","","[904.3999999999069]","./assets/img/ocean/animals/seahorse.jpg","[""ArrowRight""]","revaluation","ocean","30","{""ArrowUp,ArrowLeft"":23,""ArrowUp,ArrowRight"":10,""ArrowDown,ArrowLeft"":8,""ArrowDown,ArrowRight"":30}","true","ArrowDown,ArrowRight","","original","1","32","","",""
"html-keyboard-response","255","1062279","0.0-4.0-4.0-1.16","spark_pilot_norest","8449","3","17","Female","","","","","","","null","<div style=""font-size:60px;"">+</div>","null","fixation","","","","","","","","","33","","",""
"revaluation","256","1066286","0.0-4.0-4.0-0.17","spark_pilot_norest","8449","3","17","Female","","","false","","","","[780.8999999999069]","./assets/img/ocean/animals/seahorse.jpg","[""ArrowRight""]","revaluation","ocean","30","{""ArrowUp,ArrowLeft"":23,""ArrowUp,ArrowRight"":10,""ArrowDown,ArrowLeft"":8,""ArrowDown,ArrowRight"":30}","true","ArrowDown,ArrowRight","","original","1","34","","",""
"html-keyboard-response","257","1066787","0.0-4.0-4.0-1.17","spark_pilot_norest","8449","3","17","Female","","","","","","","null","<div style=""font-size:60px;"">+</div>","null","fixation","","","","","","","","","35","","",""
"learning-instructions","258","1074971","0.0-4.0-5.0-0.0","spark_pilot_norest","8449","3","17","Female","","","","","","","null","<p> You have almost finished this part of the game! </p>
            <p> We are going to ask you to make a few more choices. </p>","","instructions","","","","","","","","","","","",""
"learning-instructions","259","1090952","0.0-4.0-5.0-0.1","spark_pilot_norest","8449","3","17","Female","","","","","","","null","<p> First, you need to decide whether to go up or down. When you see each picture, use the arrow keys to make your choice. </p>
            <p><b>You will not see which animal you found, but try to get to the one that will give you the most treasure.</b></p>","","instructions","","","","","","","","","","","",""
"html-keyboard-response","260","1091965","0.0-4.0-6.0-0.0","spark_pilot_norest","8449","3","17","Female","","","","","","","null","<div style=""font-size:100px;color:red;"">Starting in...</div>","null","","","","","","","","","","","","",""
"html-keyboard-response","261","1092981","0.0-4.0-6.0-1.0","spark_pilot_norest","8449","3","17","Female","","","","","","","null","<div style=""font-size:200px;color:red;"">3</div>","null","","","","","","","","","","","","",""
"html-keyboard-response","262","1093993","0.0-4.0-6.0-2.0","spark_pilot_norest","8449","3","17","Female","","","","","","","null","<div style=""font-size:200px;color:red;"">2</div>","null","","","","","","","","","","","","",""
"html-keyboard-response","263","1095011","0.0-4.0-6.0-3.0","spark_pilot_norest","8449","3","17","Female","","","","","","","null","<div style=""font-size:200px;color:red;"">1</div>","null","","","","","","","","","","","","",""
"revaluation","264","1096165","0.0-4.0-7.0-0.0","spark_pilot_norest","8449","3","17","Female","","","false","","","","[1149]","./assets/img/ocean/test/2.jpg","[""ArrowDown""]","first stage test","ocean","0","{""ArrowUp,ArrowLeft"":23,""ArrowUp,ArrowRight"":10,""ArrowDown,ArrowLeft"":8,""ArrowDown,ArrowRight"":30}","true","ArrowDown","false","original","1","","","",""
"html-keyboard-response","265","1096680","0.0-4.0-7.0-1.0","spark_pilot_norest","8449","3","17","Female","","","","","","","null","<div style=""font-size:60px;"">+</div>","null","fixation","","","","","","","","","","","",""
"revaluation","266","1098310","0.0-4.0-7.0-0.1","spark_pilot_norest","8449","3","17","Female","","","false","","","","[1624.7000000001863]","./assets/img/ocean/test/3.jpg","[""ArrowDown""]","first stage test","ocean","0","{""ArrowUp,ArrowLeft"":23,""ArrowUp,ArrowRight"":10,""ArrowDown,ArrowLeft"":8,""ArrowDown,ArrowRight"":30}","true","ArrowDown","false","original","1","","","",""
"html-keyboard-response","267","1098815","0.0-4.0-7.0-1.1","spark_pilot_norest","8449","3","17","Female","","","","","","","null","<div style=""font-size:60px;"">+</div>","null","fixation","","","","","","","","","","","",""
"revaluation","268","1099370","0.0-4.0-7.0-0.2","spark_pilot_norest","8449","3","17","Female","","","false","","","","[549.3000000000466]","./assets/img/ocean/test/1.jpg","[""ArrowUp""]","first stage test","ocean","0","{""ArrowUp,ArrowLeft"":23,""ArrowUp,ArrowRight"":10,""ArrowDown,ArrowLeft"":8,""ArrowDown,ArrowRight"":30}","false","ArrowUp","false","original","1","","","",""
"html-keyboard-response","269","1099877","0.0-4.0-7.0-1.2","spark_pilot_norest","8449","3","17","Female","","","","","","","null","<div style=""font-size:60px;"">+</div>","null","fixation","","","","","","","","","","","",""
"revaluation","270","1101188","0.0-4.0-7.0-0.3","spark_pilot_norest","8449","3","17","Female","","","false","","","","[1305.6999999999534]","./assets/img/ocean/test/0.jpg","[""ArrowDown""]","first stage test","ocean","0","{""ArrowUp,ArrowLeft"":23,""ArrowUp,ArrowRight"":10,""ArrowDown,ArrowLeft"":8,""ArrowDown,ArrowRight"":30}","true","ArrowDown","false","original","1","","","",""
"html-keyboard-response","271","1101696","0.0-4.0-7.0-1.3","spark_pilot_norest","8449","3","17","Female","","","","","","","null","<div style=""font-size:60px;"">+</div>","null","fixation","","","","","","","","","","","",""
"learning-instructions","272","1115031","0.0-4.0-8.0-0.0","spark_pilot_norest","8449","3","17","Female","","","","","","","null","<p> Now you will see the animals again and can search their chests for treasure. </p>
            <p> This time, you will not see how much treasure you earned, but you will earn more bonus money for making better choices. </p>","","instructions","","","","","","","","","","","",""
"html-keyboard-response","273","1116045","0.0-4.0-9.0-0.0","spark_pilot_norest","8449","3","17","Female","","","","","","","null","<div style=""font-size:100px;color:red;"">Starting in...</div>","null","","","","","","","","","","","","",""
"html-keyboard-response","274","1117062","0.0-4.0-9.0-1.0","spark_pilot_norest","8449","3","17","Female","","","","","","","null","<div style=""font-size:200px;color:red;"">3</div>","null","","","","","","","","","","","","",""
"html-keyboard-response","275","1118072","0.0-4.0-9.0-2.0","spark_pilot_norest","8449","3","17","Female","","","","","","","null","<div style=""font-size:200px;color:red;"">2</div>","null","","","","","","","","","","","","",""
"html-keyboard-response","276","1119085","0.0-4.0-9.0-3.0","spark_pilot_norest","8449","3","17","Female","","","","","","","null","<div style=""font-size:200px;color:red;"">1</div>","null","","","","","","","","","","","","",""
"revaluation","277","1119830","0.0-4.0-10.0-0.0","spark_pilot_norest","8449","3","17","Female","","","false","","","","[737.8000000000466]","./assets/img/ocean/animals/octopus.jpg","[""ArrowLeft""]","second stage test","ocean","0","{""ArrowUp,ArrowLeft"":23,""ArrowUp,ArrowRight"":10,""ArrowDown,ArrowLeft"":8,""ArrowDown,ArrowRight"":30}","true","ArrowUp,ArrowLeft","","original","1","","","",""
"html-keyboard-response","278","1120338","0.0-4.0-10.0-1.0","spark_pilot_norest","8449","3","17","Female","","","","","","","null","<div style=""font-size:60px;"">+</div>","null","fixation","","","","","","","","","","","",""
"revaluation","279","1120882","0.0-4.0-10.0-0.1","spark_pilot_norest","8449","3","17","Female","","","false","","","","[540.4000000001397]","./assets/img/ocean/animals/octopus.jpg","[""ArrowLeft""]","second stage test","ocean","0","{""ArrowUp,ArrowLeft"":23,""ArrowUp,ArrowRight"":10,""ArrowDown,ArrowLeft"":8,""ArrowDown,ArrowRight"":30}","true","ArrowUp,ArrowLeft","","original","1","","","",""
"html-keyboard-response","280","1121384","0.0-4.0-10.0-1.1","spark_pilot_norest","8449","3","17","Female","","","","","","","null","<div style=""font-size:60px;"">+</div>","null","fixation","","","","","","","","","","","",""
"revaluation","281","1121850","0.0-4.0-10.0-0.2","spark_pilot_norest","8449","3","17","Female","","","false","","","","[459.89999999990687]","./assets/img/ocean/animals/octopus.jpg","[""ArrowLeft""]","second stage test","ocean","0","{""ArrowUp,ArrowLeft"":23,""ArrowUp,ArrowRight"":10,""ArrowDown,ArrowLeft"":8,""ArrowDown,ArrowRight"":30}","true","ArrowUp,ArrowLeft","","original","1","","","",""
"html-keyboard-response","282","1122364","0.0-4.0-10.0-1.2","spark_pilot_norest","8449","3","17","Female","","","","","","","null","<div style=""font-size:60px;"">+</div>","null","fixation","","","","","","","","","","","",""
"revaluation","283","1122791","0.0-4.0-10.0-0.3","spark_pilot_norest","8449","3","17","Female","","","false","","","","[421.9000000001397]","./assets/img/ocean/animals/octopus.jpg","[""ArrowLeft""]","second stage test","ocean","0","{""ArrowUp,ArrowLeft"":23,""ArrowUp,ArrowRight"":10,""ArrowDown,ArrowLeft"":8,""ArrowDown,ArrowRight"":30}","true","ArrowUp,ArrowLeft","","original","1","","","",""
"html-keyboard-response","284","1123295","0.0-4.0-10.0-1.3","spark_pilot_norest","8449","3","17","Female","","","","","","","null","<div style=""font-size:60px;"">+</div>","null","fixation","","","","","","","","","","","",""
"revaluation","285","1123756","0.0-4.0-10.0-0.4","spark_pilot_norest","8449","3","17","Female","","","false","","","","[454.0999999998603]","./assets/img/ocean/animals/seahorse.jpg","[""ArrowRight""]","second stage test","ocean","0","{""ArrowUp,ArrowLeft"":23,""ArrowUp,ArrowRight"":10,""ArrowDown,ArrowLeft"":8,""ArrowDown,ArrowRight"":30}","true","ArrowDown,ArrowRight","","original","1","","","",""
"html-keyboard-response","286","1124266","0.0-4.0-10.0-1.4","spark_pilot_norest","8449","3","17","Female","","","","","","","null","<div style=""font-size:60px;"">+</div>","null","fixation","","","","","","","","","","","",""
"revaluation","287","1124704","0.0-4.0-10.0-0.5","spark_pilot_norest","8449","3","17","Female","","","false","","","","[434.5999999998603]","./assets/img/ocean/animals/seahorse.jpg","[""ArrowRight""]","second stage test","ocean","0","{""ArrowUp,ArrowLeft"":23,""ArrowUp,ArrowRight"":10,""ArrowDown,ArrowLeft"":8,""ArrowDown,ArrowRight"":30}","true","ArrowDown,ArrowRight","","original","1","","","",""
"html-keyboard-response","288","1125220","0.0-4.0-10.0-1.5","spark_pilot_norest","8449","3","17","Female","","","","","","","null","<div style=""font-size:60px;"">+</div>","null","fixation","","","","","","","","","","","",""
"revaluation","289","1125590","0.0-4.0-10.0-0.6","spark_pilot_norest","8449","3","17","Female","","","false","","","","[366.69999999995343]","./assets/img/ocean/animals/seahorse.jpg","[""ArrowRight""]","second stage test","ocean","0","{""ArrowUp,ArrowLeft"":23,""ArrowUp,ArrowRight"":10,""ArrowDown,ArrowLeft"":8,""ArrowDown,ArrowRight"":30}","true","ArrowDown,ArrowRight","","original","1","","","",""
"html-keyboard-response","290","1126096","0.0-4.0-10.0-1.6","spark_pilot_norest","8449","3","17","Female","","","","","","","null","<div style=""font-size:60px;"">+</div>","null","fixation","","","","","","","","","","","",""
"revaluation","291","1126563","0.0-4.0-10.0-0.7","spark_pilot_norest","8449","3","17","Female","","","false","","","","[460.9000000001397]","./assets/img/ocean/animals/seahorse.jpg","[""ArrowRight""]","second stage test","ocean","0","{""ArrowUp,ArrowLeft"":23,""ArrowUp,ArrowRight"":10,""ArrowDown,ArrowLeft"":8,""ArrowDown,ArrowRight"":30}","true","ArrowDown,ArrowRight","","original","1","","","",""
"html-keyboard-response","292","1127076","0.0-4.0-10.0-1.7","spark_pilot_norest","8449","3","17","Female","","","","","","","null","<div style=""font-size:60px;"">+</div>","null","fixation","","","","","","","","","","","",""
"learning-instructions","293","1132284","0.0-4.0-0.1-0.2","spark_pilot_norest","8449","3","17","Female","","","","","","","2434.5","<p> This time you are searching for treasure in the <b>canyon</b>.</p>","","instructions","","","","","","","","","","","",""
"learning-instructions","294","1151951","0.0-4.0-0.1-0.3","spark_pilot_norest","8449","3","17","Female","","","","","","","2420.6999999999534","<p><b>New</b> animals with <b>new</b> treasure chests live here. You need to explore to discover where the animal with the best treasure chest is.</p>
                    <p> Like before, once you figure out which animal has the chest with the most treasure, you should try to get to that animal and select that chest! </p>","","instructions","","","","","","","","","","","",""
"learning-instructions","295","1168283","0.0-4.0-1.1-0.1","spark_pilot_norest","8449","3","17","Female","","","","","","","1591","<p> Remember, when you see a picture of the place, use the up and down keys to <b>find an animal</b>.</p>
            <p> When you encounter an animal, you should use the left and right keys to <b>select a treasure chest</b>.</p>
            <p> Don't forget to look out for the robber! </p>","","instructions","","","","","","","","","","","",""
"revaluation","296","1172306","0.0-4.0-2.1-0.50","spark_pilot_norest","8449","3","17","Female","","","false","","","","[1926.1000000000931]","./assets/img/canyon/catch/0.jpg","[""ArrowDown""]","value training","canyon","-10","{""ArrowUp,ArrowLeft"":26,""ArrowUp,ArrowRight"":10,""ArrowDown,ArrowLeft"":5,""ArrowDown,ArrowRight"":17}","false","ArrowDown","true","revaluation","2","0","","",""
"html-keyboard-response","297","1172820","0.0-4.0-2.1-1.50","spark_pilot_norest","8449","3","17","Female","","","","","","","null","<div style=""font-size:60px;"">+</div>","null","fixation","","","","","","","","","1","","",""
"revaluation","298","1178857","0.0-4.0-2.1-0.51","spark_pilot_norest","8449","3","17","Female","","","false","","","","[976.6999999999534,963.5999999998603]","./assets/img/canyon/memory/15.jpg","[""ArrowDown"",""ArrowRight""]","value training","canyon","17","{""ArrowUp,ArrowLeft"":26,""ArrowUp,ArrowRight"":10,""ArrowDown,ArrowLeft"":5,""ArrowDown,ArrowRight"":17}","false","ArrowDown,ArrowRight","false","revaluation","2","2","","",""
"html-keyboard-response","299","1179371","0.0-4.0-2.1-1.51","spark_pilot_norest","8449","3","17","Female","","","","","","","null","<div style=""font-size:60px;"">+</div>","null","fixation","","","","","","","","","3","","",""
"revaluation","300","1183398","0.0-4.0-2.1-0.52","spark_pilot_norest","8449","3","17","Female","","","true","","","","[]","./assets/img/canyon/memory/29.jpg","[]","value training","canyon","-5","{""ArrowUp,ArrowLeft"":26,""ArrowUp,ArrowRight"":10,""ArrowDown,ArrowLeft"":5,""ArrowDown,ArrowRight"":17}","false","","false","revaluation","2","4","","",""
"html-keyboard-response","301","1183911","0.0-4.0-2.1-1.52","spark_pilot_norest","8449","3","17","Female","","","","","","","null","<div style=""font-size:60px;"">+</div>","null","fixation","","","","","","","","","5","","",""
"revaluation","302","1189941","0.0-4.0-2.1-0.53","spark_pilot_norest","8449","3","17","Female","","","false","","","","[450.69999999995343,727.3999999999069]","./assets/img/canyon/memory/16.jpg","[""ArrowUp"",""ArrowLeft""]","value training","canyon","26","{""ArrowUp,ArrowLeft"":26,""ArrowUp,ArrowRight"":10,""ArrowDown,ArrowLeft"":5,""ArrowDown,ArrowRight"":17}","true","ArrowUp,ArrowLeft","false","revaluation","2","6","","",""
"html-keyboard-response","303","1190458","0.0-4.0-2.1-1.53","spark_pilot_norest","8449","3","17","Female","","","","","","","null","<div style=""font-size:60px;"">+</div>","null","fixation","","","","","","","","","7","","",""
"revaluation","304","1196486","0.0-4.0-2.1-0.54","spark_pilot_norest","8449","3","17","Female","","","false","","","","[1156.1000000000931,457.60000000009313]","./assets/img/canyon/memory/37.jpg","[""ArrowDown"",""ArrowLeft""]","value training","canyon","5","{""ArrowUp,ArrowLeft"":26,""ArrowUp,ArrowRight"":10,""ArrowDown,ArrowLeft"":5,""ArrowDown,ArrowRight"":17}","false","ArrowDown,ArrowLeft","false","revaluation","2","8","","",""
"html-keyboard-response","305","1196989","0.0-4.0-2.1-1.54","spark_pilot_norest","8449","3","17","Female","","","","","","","null","<div style=""font-size:60px;"">+</div>","null","fixation","","","","","","","","","9","","",""
"revaluation","306","1202994","0.0-4.0-2.1-0.55","spark_pilot_norest","8449","3","17","Female","","","false","","","","[569.5,340.69999999995343]","./assets/img/canyon/memory/38.jpg","[""ArrowUp"",""ArrowLeft""]","value training","canyon","26","{""ArrowUp,ArrowLeft"":26,""ArrowUp,ArrowRight"":10,""ArrowDown,ArrowLeft"":5,""ArrowDown,ArrowRight"":17}","true","ArrowUp,ArrowLeft","false","revaluation","2","10","","",""
"html-keyboard-response","307","1203496","0.0-4.0-2.1-1.55","spark_pilot_norest","8449","3","17","Female","","","","","","","null","<div style=""font-size:60px;"">+</div>","null","fixation","","","","","","","","","11","","",""
"revaluation","308","1209502","0.0-4.0-2.1-0.56","spark_pilot_norest","8449","3","17","Female","","","false","","","","[846.5,401.80000000004657]","./assets/img/canyon/memory/6.jpg","[""ArrowDown"",""ArrowRight""]","value training","canyon","17","{""ArrowUp,ArrowLeft"":26,""ArrowUp,ArrowRight"":10,""ArrowDown,ArrowLeft"":5,""ArrowDown,ArrowRight"":17}","false","ArrowDown,ArrowRight","false","revaluation","2","12","","",""
"html-keyboard-response","309","1210004","0.0-4.0-2.1-1.56","spark_pilot_norest","8449","3","17","Female","","","","","","","null","<div style=""font-size:60px;"">+</div>","null","fixation","","","","","","","","","13","","",""
