"trial_type","trial_index","time_elapsed","internal_node_id","task_version","subject_id","assigned_condition","age","gender","success","timeout","failed_images","failed_audio","failed_video","browser_interaction","rt","stimulus","response","task_part","environment","score","rewardMap","correct","fullState","isCatch","condition","order","trial_num","key_press","ground_truth","bonus"
"pavlovia","0","1311","0.0-0.0","spark_pilot_norest","10045","2","21","Male","","","","","","","","","","","","","","","","","","","","","",""
"preload","1","8591","0.0-1.0","spark_pilot_norest","10045","2","21","Male","true","false","[]","[]","[]","[{""event"":""fullscreenenter"",""trial"":2,""time"":10494},{""event"":""blur"",""trial"":4,""time"":21527},{""event"":""focus"",""trial"":4,""time"":24485}]","","","","","","","","","","","","","","","",""
"fullscreen","2","11483","0.0-2.0","spark_pilot_norest","10045","2","21","Male","true","","","","","","","","","","","","","","","","","","","","",""
"audio-button-response","3","13100","0.0-3.0-0.0-0.0","spark_pilot_norest","10045","2","21","Male","","","","","","[{""event"":""fullscreenenter"",""trial"":2,""time"":10494},{""event"":""blur"",""trial"":4,""time"":21527},{""event"":""focus"",""trial"":4,""time"":24485}]","1509","./assets/audio/audiotest/turtle.mp3","2","audio_test","","","","","","","","","","","",""
"learning-instructions","4","27085","0.0-3.0-1.0-0.0","spark_pilot_norest","10045","2","21","Male","","","","","","","7003.799999952316","<p> Welcome! Please remember to stay in fullscreen mode and don't click away from the experiment. </p>","","instructions","","","","","","","","","","","",""
"learning-instructions","5","39163","0.0-3.0-1.0-0.1","spark_pilot_norest","10045","2","21","Male","","","","","","","3681.899999976158","<p> Today you will be playing a game to earn treasure. </p>
            <p> At the end of the experiment, you will earn a bonus based on how much treasure you find. </p>
            <img src='./assets/img/instructions/treasure.jpg' class='instructions-image'>","","instructions","","","","","","","","","","","",""
"learning-instructions","6","48393","0.0-3.0-1.0-0.2","spark_pilot_norest","10045","2","21","Male","","","","","","","992.1000000238419","<p> Animals have hidden treasure in treasure chests. </p>
            <p> You need to first find an animal and then choose which of their treasure chests to search. </p>
            <img src='./assets/img/space/animals/cat.jpg' class='instructions-image'>","","instructions","","","","","","","","","","","",""
"learning-instructions","7","62435","0.0-3.0-1.0-0.3","spark_pilot_norest","10045","2","21","Male","","","","","","","913.3999999761581","<p> In each round, you will search for treasure in a different place. In the real game, there will be two rounds. </p>
            <p> You will begin with a separate, practice round where you will search for treasure in outer space. </p>
            <img src='./assets/img/space/0.jpg' class='instructions-image'>","","instructions","","","","","","","","","","","",""
"learning-instructions","8","74627","0.0-3.0-1.0-0.4","spark_pilot_norest","10045","2","21","Male","","","","","","","795.5999999642372","<p> On every turn, you will see a picture of the place that you are in, but the specific image may be different each time. </p>
            <p> For example, both of these images mean you are in outer space. </p>
            <img src='./assets/img/instructions/outerspace.jpg' class='instructions-image'>","","instructions","","","","","","","","","","","",""
"learning-instructions","9","84017","0.0-3.0-1.0-0.5","spark_pilot_norest","10045","2","21","Male","","","","","","","1574.6000000238419","<p> You need to decide which direction to travel in. </p>
            <p> You can choose between going <b>up or down</b> by using the arrow keys. </p>
            <img src='./assets/img/instructions/updown.jpg' class='instructions-image'>","","instructions","","","","","","","","","","","",""
"learning-instructions","10","93797","0.0-3.0-1.0-0.6","spark_pilot_norest","10045","2","21","Male","","","","","","","975.1000000238419","<p> You will have <b>2 seconds</b> to make your choice. </p>
            <p> If you do not make a choice within 2 seconds, you will not find an animal or earn treasure. </p>
            <img src='./assets/img/instructions/2seconds.jpg' class='instructions-image'>","","instructions","","","","","","","","","","","",""
"learning-instructions","11","101686","0.0-3.0-1.0-0.7","spark_pilot_norest","10045","2","21","Male","","","","","","","863.9000000357628","<p> Let’s try practicing that now! </p>
            <p> When you see a picture of the place you are in, press the <b>up</b> key to travel up. </p>
            <img src='./assets/img/instructions/pressUp.jpg' class='instructions-image'>","","instructions","","","","","","","","","","","",""
"revaluation","12","105712","0.0-3.0-2.0-0.0","spark_pilot_norest","10045","2","21","Male","","false","","","","","[1443.5]","./assets/img/space/0.jpg","[""ArrowUp""]","first stage practice","space","0","null","null","ArrowUp","false","","","","","",""
"html-keyboard-response","13","106227","0.0-3.0-2.0-1.0","spark_pilot_norest","10045","2","21","Male","","","","","","","null","<div style=""font-size:60px;"">+</div>","null","fixation","","","","","","","","","","","",""
"revaluation","14","110258","0.0-3.0-2.0-0.1","spark_pilot_norest","10045","2","21","Male","","true","","","","","[]","./assets/img/space/1.jpg","[]","first stage practice","space","-5","null","null","","false","","","","","",""
"html-keyboard-response","15","110767","0.0-3.0-2.0-1.1","spark_pilot_norest","10045","2","21","Male","","","","","","","null","<div style=""font-size:60px;"">+</div>","null","fixation","","","","","","","","","","","",""
"revaluation","16","114779","0.0-3.0-2.0-0.2","spark_pilot_norest","10045","2","21","Male","","false","","","","","[720.3000000119209]","./assets/img/space/2.jpg","[""ArrowUp""]","first stage practice","space","0","null","null","ArrowUp","false","","","","","",""
"html-keyboard-response","17","115292","0.0-3.0-2.0-1.2","spark_pilot_norest","10045","2","21","Male","","","","","","","null","<div style=""font-size:60px;"">+</div>","null","fixation","","","","","","","","","","","",""
"learning-instructions","18","120912","0.0-3.0-3.0-0.0","spark_pilot_norest","10045","2","21","Male","","","","","","","930.8000000119209","<p> Great job! Now try pressing the <b>down</b> key to travel down. </p>
            <img src='./assets/img/instructions/pressDown.jpg' class='instructions-image'>","","instructions","","","","","","","","","","","",""
"revaluation","19","124940","0.0-3.0-4.0-0.0","spark_pilot_norest","10045","2","21","Male","","false","","","","","[690.9000000357628]","./assets/img/space/3.jpg","[""ArrowDown""]","first stage practice","space","0","null","null","ArrowDown","false","","","","","",""
"html-keyboard-response","20","125451","0.0-3.0-4.0-1.0","spark_pilot_norest","10045","2","21","Male","","","","","","","null","<div style=""font-size:60px;"">+</div>","null","fixation","","","","","","","","","","","",""
"revaluation","21","129476","0.0-3.0-4.0-0.1","spark_pilot_norest","10045","2","21","Male","","false","","","","","[306]","./assets/img/space/4.jpg","[""ArrowDown""]","first stage practice","space","0","null","null","ArrowDown","false","","","","","",""
"html-keyboard-response","22","129990","0.0-3.0-4.0-1.1","spark_pilot_norest","10045","2","21","Male","","","","","","","null","<div style=""font-size:60px;"">+</div>","null","fixation","","","","","","","","","","","",""
"revaluation","23","134009","0.0-3.0-4.0-0.2","spark_pilot_norest","10045","2","21","Male","","false","","","","","[1080.2000000476837]","./assets/img/space/5.jpg","[""ArrowDown""]","first stage practice","space","0","null","null","ArrowDown","false","","","","","",""
"html-keyboard-response","24","134522","0.0-3.0-4.0-1.2","spark_pilot_norest","10045","2","21","Male","","","","","","","null","<div style=""font-size:60px;"">+</div>","null","fixation","","","","","","","","","","","",""
"learning-instructions","25","145503","0.0-3.0-5.0-0.0","spark_pilot_norest","10045","2","21","Male","","","","","","","1151.5999999642372","<p> The animals don’t move, so the animal in the upper part of a place will stay in the upper part of a place, and the animal in the lower part of a place will stay in the lower part of a place. </p>","","instructions","","","","","","","","","","","",""
"learning-instructions","26","156347","0.0-3.0-5.0-0.1","spark_pilot_norest","10045","2","21","Male","","","","","","","1717.0999999642372","<p> Each animal has two treasure chests for you to choose from. </p>
            <p> The amount of treasure in each chest can range from <b> 0 to 40 pieces.</b></p>","","instructions","","","","","","","","","","","",""
"learning-instructions","27","168218","0.0-3.0-5.0-0.2","spark_pilot_norest","10045","2","21","Male","","","","","","","697.0999999642372","<p> You should decide which chest to search for treasure by using the <b>left</b> and <b>right</b> arrow keys. </p>
            <p><b> Pay attention to which animal is on the screen, as the animals have different treasure chests. </b></p>
            <img src='./assets/img/instructions/leftright.jpg' class='instructions-image'>","","instructions","","","","","","","","","","","",""
"learning-instructions","28","176226","0.0-3.0-5.0-0.3","spark_pilot_norest","10045","2","21","Male","","","","","","","1644.199999988079","<p> Let’s try practicing that now. </p>
            <p> When you see an animal, choose which chest to search for treasure. </p>
            <img src='./assets/img/instructions/chooseChest.jpg' class='instructions-image'>","","instructions","","","","","","","","","","","",""
"revaluation","29","180250","0.0-3.0-6.0-0.0","spark_pilot_norest","10045","2","21","Male","","false","","","","","[1145.0999999642372]","./assets/img/space/animals/cat.jpg","[""ArrowRight""]","second stage practice","space","36","{""ArrowUp,ArrowLeft"":3,""ArrowUp,ArrowRight"":36,""ArrowDown,ArrowLeft"":15,""ArrowDown,ArrowRight"":23}","true","ArrowUp,ArrowRight","","","","","","",""
"html-keyboard-response","30","180757","0.0-3.0-6.0-1.0","spark_pilot_norest","10045","2","21","Male","","","","","","","null","<div style=""font-size:60px;"">+</div>","null","fixation","","","","","","","","","","","",""
"revaluation","31","184766","0.0-3.0-6.0-0.1","spark_pilot_norest","10045","2","21","Male","","false","","","","","[382.30000001192093]","./assets/img/space/animals/rabbit.jpg","[""ArrowRight""]","second stage practice","space","23","{""ArrowUp,ArrowLeft"":3,""ArrowUp,ArrowRight"":36,""ArrowDown,ArrowLeft"":15,""ArrowDown,ArrowRight"":23}","true","ArrowDown,ArrowRight","","","","","","",""
"html-keyboard-response","32","185278","0.0-3.0-6.0-1.1","spark_pilot_norest","10045","2","21","Male","","","","","","","null","<div style=""font-size:60px;"">+</div>","null","fixation","","","","","","","","","","","",""
"revaluation","33","189306","0.0-3.0-6.0-0.2","spark_pilot_norest","10045","2","21","Male","","false","","","","","[429.5]","./assets/img/space/animals/cat.jpg","[""ArrowLeft""]","second stage practice","space","3","{""ArrowUp,ArrowLeft"":3,""ArrowUp,ArrowRight"":36,""ArrowDown,ArrowLeft"":15,""ArrowDown,ArrowRight"":23}","false","ArrowUp,ArrowLeft","","","","","","",""
"html-keyboard-response","34","189817","0.0-3.0-6.0-1.2","spark_pilot_norest","10045","2","21","Male","","","","","","","null","<div style=""font-size:60px;"">+</div>","null","fixation","","","","","","","","","","","",""
"revaluation","35","193839","0.0-3.0-6.0-0.3","spark_pilot_norest","10045","2","21","Male","","false","","","","","[659.5]","./assets/img/space/animals/rabbit.jpg","[""ArrowLeft""]","second stage practice","space","15","{""ArrowUp,ArrowLeft"":3,""ArrowUp,ArrowRight"":36,""ArrowDown,ArrowLeft"":15,""ArrowDown,ArrowRight"":23}","false","ArrowDown,ArrowLeft","","","","","","",""
"html-keyboard-response","36","194349","0.0-3.0-6.0-1.3","spark_pilot_norest","10045","2","21","Male","","","","","","","null","<div style=""font-size:60px;"">+</div>","null","fixation","","","","","","","","","","","",""
"learning-instructions","37","212846","0.0-3.0-7.0-0.0","spark_pilot_norest","10045","2","21","Male","","","","","","","1705","<p> Great job. Now let’s try putting it together. </p>
            <p> On each turn, you will first see a picture to remind you of the place you are in, and you need to choose whether to go up or down. </p>
            <p> Then you will see an animal and choose which of its chests to search for treasure. </p>","","instructions","","","","","","","","","","","",""
"learning-instructions","38","221804","0.0-3.0-7.0-0.1","spark_pilot_norest","10045","2","21","Male","","","","","","","702.3000000119209","<p> When you choose whether to go up or down, try to go to the animal with the chest with the most treasure. </p>
            <p> Try practicing that now! </p>","","instructions","","","","","","","","","","","",""
"revaluation","39","227840","0.0-3.0-8.0-0.0","spark_pilot_norest","10045","2","21","Male","","false","","","","","[1270.5999999642372,498.2999999523163]","./assets/img/space/6.jpg","[""ArrowDown"",""ArrowRight""]","full practice","space","23","{""ArrowUp,ArrowLeft"":3,""ArrowUp,ArrowRight"":36,""ArrowDown,ArrowLeft"":15,""ArrowDown,ArrowRight"":23}","false","ArrowDown,ArrowRight","false","","","","","",""
"html-keyboard-response","40","228352","0.0-3.0-8.0-1.0","spark_pilot_norest","10045","2","21","Male","","","","","","","null","<div style=""font-size:60px;"">+</div>","null","fixation","","","","","","","","","","","",""
"revaluation","41","234386","0.0-3.0-8.0-0.1","spark_pilot_norest","10045","2","21","Male","","false","","","","","[674.1999999880791,581.5]","./assets/img/space/7.jpg","[""ArrowUp"",""ArrowRight""]","full practice","space","36","{""ArrowUp,ArrowLeft"":3,""ArrowUp,ArrowRight"":36,""ArrowDown,ArrowLeft"":15,""ArrowDown,ArrowRight"":23}","true","ArrowUp,ArrowRight","false","","","","","",""
"html-keyboard-response","42","234898","0.0-3.0-8.0-1.1","spark_pilot_norest","10045","2","21","Male","","","","","","","null","<div style=""font-size:60px;"">+</div>","null","fixation","","","","","","","","","","","",""
"revaluation","43","240919","0.0-3.0-8.0-0.2","spark_pilot_norest","10045","2","21","Male","","false","","","","","[307.30000001192093,278.19999998807907]","./assets/img/space/8.jpg","[""ArrowUp"",""ArrowRight""]","full practice","space","36","{""ArrowUp,ArrowLeft"":3,""ArrowUp,ArrowRight"":36,""ArrowDown,ArrowLeft"":15,""ArrowDown,ArrowRight"":23}","true","ArrowUp,ArrowRight","false","","","","","",""
"html-keyboard-response","44","241431","0.0-3.0-8.0-1.2","spark_pilot_norest","10045","2","21","Male","","","","","","","null","<div style=""font-size:60px;"">+</div>","null","fixation","","","","","","","","","","","",""
"revaluation","45","247461","0.0-3.0-8.0-0.3","spark_pilot_norest","10045","2","21","Male","","false","","","","","[351.5,422.0999999642372]","./assets/img/space/9.jpg","[""ArrowUp"",""ArrowRight""]","full practice","space","36","{""ArrowUp,ArrowLeft"":3,""ArrowUp,ArrowRight"":36,""ArrowDown,ArrowLeft"":15,""ArrowDown,ArrowRight"":23}","true","ArrowUp,ArrowRight","false","","","","","",""
"html-keyboard-response","46","247968","0.0-3.0-8.0-1.3","spark_pilot_norest","10045","2","21","Male","","","","","","","null","<div style=""font-size:60px;"">+</div>","null","fixation","","","","","","","","","","","",""
"revaluation","47","253981","0.0-3.0-8.0-0.4","spark_pilot_norest","10045","2","21","Male","","false","","","","","[936.3000000119209,600]","./assets/img/space/10.jpg","[""ArrowUp"",""ArrowRight""]","full practice","space","36","{""ArrowUp,ArrowLeft"":3,""ArrowUp,ArrowRight"":36,""ArrowDown,ArrowLeft"":15,""ArrowDown,ArrowRight"":23}","true","ArrowUp,ArrowRight","false","","","","","",""
"html-keyboard-response","48","254482","0.0-3.0-8.0-1.4","spark_pilot_norest","10045","2","21","Male","","","","","","","null","<div style=""font-size:60px;"">+</div>","null","fixation","","","","","","","","","","","",""
"learning-instructions","49","266938","0.0-3.0-9.0-0.0","spark_pilot_norest","10045","2","21","Male","","","","","","","2172.400000035763","<p> One last thing: sometimes, you will see a robber. The robber can be anywhere in the picture. </p>
            <p> If you do not stop them, you will lose treasure. </p>
            <img src='./assets/img/instructions/robber.jpg' class='instructions-image'>","","instructions","","","","","","","","","","","",""
"learning-instructions","50","277948","0.0-3.0-9.0-0.1","spark_pilot_norest","10045","2","21","Male","","","","","","","3852.599999964237","<p> If you see the robber, you should <b>press the space bar</b> rather than using the arrow keys. </p>
            <p> Try practicing that now! </p>","","instructions","","","","","","","","","","","",""
"revaluation","51","281975","0.0-3.0-10.0-0.0","spark_pilot_norest","10045","2","21","Male","","false","","","","","[1049.3999999761581]","./assets/img/space/catch/0.jpg","[""ArrowUp""]","catch practice","space","-10","{""ArrowUp,ArrowLeft"":3,""ArrowUp,ArrowRight"":36,""ArrowDown,ArrowLeft"":15,""ArrowDown,ArrowRight"":23}","false","ArrowUp","true","","","","","",""
"html-keyboard-response","52","282487","0.0-3.0-10.0-1.0","spark_pilot_norest","10045","2","21","Male","","","","","","","null","<div style=""font-size:60px;"">+</div>","null","fixation","","","","","","","","","","","",""
"revaluation","53","286507","0.0-3.0-10.0-0.1","spark_pilot_norest","10045","2","21","Male","","false","","","","","[850.8999999761581]","./assets/img/space/catch/1.jpg","[""spaceBar""]","catch practice","space","0","{""ArrowUp,ArrowLeft"":3,""ArrowUp,ArrowRight"":36,""ArrowDown,ArrowLeft"":15,""ArrowDown,ArrowRight"":23}","true","spaceBar","true","","","","","",""
"html-keyboard-response","54","287017","0.0-3.0-10.0-1.1","spark_pilot_norest","10045","2","21","Male","","","","","","","null","<div style=""font-size:60px;"">+</div>","null","fixation","","","","","","","","","","","",""
"revaluation","55","291047","0.0-3.0-10.0-0.2","spark_pilot_norest","10045","2","21","Male","","false","","","","","[751.8999999761581]","./assets/img/space/catch/2.jpg","[""spaceBar""]","catch practice","space","0","{""ArrowUp,ArrowLeft"":3,""ArrowUp,ArrowRight"":36,""ArrowDown,ArrowLeft"":15,""ArrowDown,ArrowRight"":23}","true","spaceBar","true","","","","","",""
"html-keyboard-response","56","291557","0.0-3.0-10.0-1.2","spark_pilot_norest","10045","2","21","Male","","","","","","","null","<div style=""font-size:60px;"">+</div>","null","fixation","","","","","","","","","","","",""
"learning-instructions","57","298777","0.0-3.0-11.0-0.0-0.0","spark_pilot_norest","10045","2","21","Male","","","","","","","1971.7000000476837","<p> Now, you will practice a shortened version of the game to get a sense of how it all fits together. </p>","","instructions","","","","","","","","","","","",""
"learning-instructions","58","303568","0.0-3.0-11.0-0.0-0.1","spark_pilot_norest","10045","2","21","Male","","","","","","","1602.699999988079","<p>This time you are searching for treasure in outer space.</p>","","instructions","","","","","","","","","","","",""
"learning-instructions","59","319378","0.0-3.0-11.0-1.0-0.0","spark_pilot_norest","10045","2","21","Male","","","","","","","1053.1000000238419","<p> Remember, when you see a picture of the place, use the up and down keys to <b>find an animal</b>.</p>
            <p> When you encounter an animal, you should use the left and right keys to <b>select a treasure chest</b>.</p>
            <p> Don't forget to look out for the robber! </p>","","instructions","","","","","","","","","","","",""
"revaluation","60","325414","0.0-3.0-11.0-2.0-0.0","spark_pilot_norest","10045","2","21","Male","","false","","","","","[1590.3999999761581,717]","./assets/img/space/11.jpg","[""ArrowUp"",""ArrowRight""]","practice block","space","36","{""ArrowUp,ArrowLeft"":3,""ArrowUp,ArrowRight"":36,""ArrowDown,ArrowLeft"":15,""ArrowDown,ArrowRight"":23}","true","ArrowUp,ArrowRight","false","","","","","",""
"html-keyboard-response","61","325927","0.0-3.0-11.0-2.0-1.0","spark_pilot_norest","10045","2","21","Male","","","","","","","null","<div style=""font-size:60px;"">+</div>","null","fixation","","","","","","","","","","","",""
"revaluation","62","331942","0.0-3.0-11.0-2.0-0.1","spark_pilot_norest","10045","2","21","Male","","false","","","","","[927.8999999761581,412.4000000357628]","./assets/img/space/12.jpg","[""ArrowUp"",""ArrowRight""]","practice block","space","36","{""ArrowUp,ArrowLeft"":3,""ArrowUp,ArrowRight"":36,""ArrowDown,ArrowLeft"":15,""ArrowDown,ArrowRight"":23}","true","ArrowUp,ArrowRight","false","","","","","",""
"html-keyboard-response","63","332453","0.0-3.0-11.0-2.0-1.1","spark_pilot_norest","10045","2","21","Male","","","","","","","null","<div style=""font-size:60px;"">+</div>","null","fixation","","","","","","","","","","","",""
"revaluation","64","338495","0.0-3.0-11.0-2.0-0.2","spark_pilot_norest","10045","2","21","Male","","false","","","","","[1223.4000000357628,633.5]","./assets/img/space/13.jpg","[""ArrowUp"",""ArrowLeft""]","practice block","space","3","{""ArrowUp,ArrowLeft"":3,""ArrowUp,ArrowRight"":36,""ArrowDown,ArrowLeft"":15,""ArrowDown,ArrowRight"":23}","false","ArrowUp,ArrowLeft","false","","","","","",""
"html-keyboard-response","65","339006","0.0-3.0-11.0-2.0-1.2","spark_pilot_norest","10045","2","21","Male","","","","","","","null","<div style=""font-size:60px;"">+</div>","null","fixation","","","","","","","","","","","",""
"revaluation","66","345038","0.0-3.0-11.0-2.0-0.3","spark_pilot_norest","10045","2","21","Male","","false","","","","","[913.2999999523163,842.6999999880791]","./assets/img/space/14.jpg","[""ArrowDown"",""ArrowRight""]","practice block","space","23","{""ArrowUp,ArrowLeft"":3,""ArrowUp,ArrowRight"":36,""ArrowDown,ArrowLeft"":15,""ArrowDown,ArrowRight"":23}","false","ArrowDown,ArrowRight","false","","","","","",""
"html-keyboard-response","67","345551","0.0-3.0-11.0-2.0-1.3","spark_pilot_norest","10045","2","21","Male","","","","","","","null","<div style=""font-size:60px;"">+</div>","null","fixation","","","","","","","","","","","",""
"revaluation","68","351566","0.0-3.0-11.0-2.0-0.4","spark_pilot_norest","10045","2","21","Male","","false","","","","","[1061.8999999761581,384.80000001192093]","./assets/img/space/11.jpg","[""ArrowUp"",""ArrowRight""]","practice block","space","36","{""ArrowUp,ArrowLeft"":3,""ArrowUp,ArrowRight"":36,""ArrowDown,ArrowLeft"":15,""ArrowDown,ArrowRight"":23}","true","ArrowUp,ArrowRight","false","","","","","",""
"html-keyboard-response","69","352067","0.0-3.0-11.0-2.0-1.4","spark_pilot_norest","10045","2","21","Male","","","","","","","null","<div style=""font-size:60px;"">+</div>","null","fixation","","","","","","","","","","","",""
"revaluation","70","358071","0.0-3.0-11.0-2.0-0.5","spark_pilot_norest","10045","2","21","Male","","false","","","","","[776.8999999761581,365.0999999642372]","./assets/img/space/12.jpg","[""ArrowUp"",""ArrowRight""]","practice block","space","36","{""ArrowUp,ArrowLeft"":3,""ArrowUp,ArrowRight"":36,""ArrowDown,ArrowLeft"":15,""ArrowDown,ArrowRight"":23}","true","ArrowUp,ArrowRight","false","","","","","",""
"html-keyboard-response","71","358571","0.0-3.0-11.0-2.0-1.5","spark_pilot_norest","10045","2","21","Male","","","","","","","null","<div style=""font-size:60px;"">+</div>","null","fixation","","","","","","","","","","","",""
"revaluation","72","364574","0.0-3.0-11.0-2.0-0.6","spark_pilot_norest","10045","2","21","Male","","false","","","","","[796.6999999880791,386.30000001192093]","./assets/img/space/13.jpg","[""ArrowUp"",""ArrowRight""]","practice block","space","36","{""ArrowUp,ArrowLeft"":3,""ArrowUp,ArrowRight"":36,""ArrowDown,ArrowLeft"":15,""ArrowDown,ArrowRight"":23}","true","ArrowUp,ArrowRight","false","","","","","",""
"html-keyboard-response","73","365076","0.0-3.0-11.0-2.0-1.6","spark_pilot_norest","10045","2","21","Male","","","","","","","null","<div style=""font-size:60px;"">+</div>","null","fixation","","","","","","","","","","","",""
"revaluation","74","371080","0.0-3.0-11.0-2.0-0.7","spark_pilot_norest","10045","2","21","Male","","false","","","","","[927.9000000357628,713.1999999880791]","./assets/img/space/14.jpg","[""ArrowUp"",""ArrowRight""]","practice block","space","36","{""ArrowUp,ArrowLeft"":3,""ArrowUp,ArrowRight"":36,""ArrowDown,ArrowLeft"":15,""ArrowDown,ArrowRight"":23}","true","ArrowUp,ArrowRight","false","","","","","",""
"html-keyboard-response","75","371580","0.0-3.0-11.0-2.0-1.7","spark_pilot_norest","10045","2","21","Male","","","","","","","null","<div style=""font-size:60px;"">+</div>","null","fixation","","","","","","","","","","","",""
"revaluation","76","375582","0.0-3.0-11.0-2.0-0.8","spark_pilot_norest","10045","2","21","Male","","false","","","","","[850.6000000238419]","./assets/img/space/catch/3.jpg","[""spaceBar""]","practice block","space","0","{""ArrowUp,ArrowLeft"":3,""ArrowUp,ArrowRight"":36,""ArrowDown,ArrowLeft"":15,""ArrowDown,ArrowRight"":23}","true","spaceBar","true","","","","","",""
"html-keyboard-response","77","376084","0.0-3.0-11.0-2.0-1.8","spark_pilot_norest","10045","2","21","Male","","","","","","","null","<div style=""font-size:60px;"">+</div>","null","fixation","","","","","","","","","","","",""
"learning-instructions","78","390739","0.0-3.0-11.0-3.0-0.0","spark_pilot_norest","10045","2","21","Male","","","","","","","1692.8999999761581","<p> Now, you will travel with a friend who will choose whether you go up or down first. </p>
            <p> On these turns, you will just see the animal that they found. You will still get to choose which chest to search for treasure.</p>","","instructions","","","","","","","","","","","",""
"revaluation","79","394768","0.0-3.0-11.0-4.0-0.0","spark_pilot_norest","10045","2","21","Male","","false","","","","","[1522.800000011921]","./assets/img/space/animals/cat.jpg","[""ArrowRight""]","practice block","space","36","{""ArrowUp,ArrowLeft"":3,""ArrowUp,ArrowRight"":36,""ArrowDown,ArrowLeft"":15,""ArrowDown,ArrowRight"":23}","true","ArrowUp,ArrowRight","","","","","","",""
"html-keyboard-response","80","395278","0.0-3.0-11.0-4.0-1.0","spark_pilot_norest","10045","2","21","Male","","","","","","","null","<div style=""font-size:60px;"">+</div>","null","fixation","","","","","","","","","","","",""
"revaluation","81","399288","0.0-3.0-11.0-4.0-0.1","spark_pilot_norest","10045","2","21","Male","","false","","","","","[1022.3999999761581]","./assets/img/space/animals/rabbit.jpg","[""ArrowRight""]","practice block","space","23","{""ArrowUp,ArrowLeft"":3,""ArrowUp,ArrowRight"":36,""ArrowDown,ArrowLeft"":15,""ArrowDown,ArrowRight"":23}","true","ArrowDown,ArrowRight","","","","","","",""
"html-keyboard-response","82","399797","0.0-3.0-11.0-4.0-1.1","spark_pilot_norest","10045","2","21","Male","","","","","","","null","<div style=""font-size:60px;"">+</div>","null","fixation","","","","","","","","","","","",""
"revaluation","83","403812","0.0-3.0-11.0-4.0-0.2","spark_pilot_norest","10045","2","21","Male","","false","","","","","[533.0999999642372]","./assets/img/space/animals/rabbit.jpg","[""ArrowLeft""]","practice block","space","15","{""ArrowUp,ArrowLeft"":3,""ArrowUp,ArrowRight"":36,""ArrowDown,ArrowLeft"":15,""ArrowDown,ArrowRight"":23}","false","ArrowDown,ArrowLeft","","","","","","",""
"html-keyboard-response","84","404324","0.0-3.0-11.0-4.0-1.2","spark_pilot_norest","10045","2","21","Male","","","","","","","null","<div style=""font-size:60px;"">+</div>","null","fixation","","","","","","","","","","","",""
"revaluation","85","408346","0.0-3.0-11.0-4.0-0.3","spark_pilot_norest","10045","2","21","Male","","false","","","","","[518.9000000357628]","./assets/img/space/animals/cat.jpg","[""ArrowRight""]","practice block","space","36","{""ArrowUp,ArrowLeft"":3,""ArrowUp,ArrowRight"":36,""ArrowDown,ArrowLeft"":15,""ArrowDown,ArrowRight"":23}","true","ArrowUp,ArrowRight","","","","","","",""
"html-keyboard-response","86","408856","0.0-3.0-11.0-4.0-1.3","spark_pilot_norest","10045","2","21","Male","","","","","","","null","<div style=""font-size:60px;"">+</div>","null","fixation","","","","","","","","","","","",""
"learning-instructions","87","416973","0.0-3.0-11.0-5.0-0.0","spark_pilot_norest","10045","2","21","Male","","","","","","","null","<p> You have almost finished this part of the game! </p>
            <p> We are going to ask you to make a few more choices. </p>","","instructions","","","","","","","","","","","",""
"learning-instructions","88","432970","0.0-3.0-11.0-5.0-0.1","spark_pilot_norest","10045","2","21","Male","","","","","","","null","<p> First, you need to decide whether to go up or down. When you see each picture, use the arrow keys to make your choice. </p>
            <p><b>You will not see which animal you found, but try to get to the one that will give you the most treasure.</b></p>","","instructions","","","","","","","","","","","",""
"html-keyboard-response","89","433978","0.0-3.0-11.0-6.0-0.0","spark_pilot_norest","10045","2","21","Male","","","","","","","null","<div style=""font-size:100px;color:red;"">Starting in...</div>","null","","","","","","","","","","","","",""
"html-keyboard-response","90","434982","0.0-3.0-11.0-6.0-1.0","spark_pilot_norest","10045","2","21","Male","","","","","","","null","<div style=""font-size:200px;color:red;"">3</div>","null","","","","","","","","","","","","",""
"html-keyboard-response","91","435991","0.0-3.0-11.0-6.0-2.0","spark_pilot_norest","10045","2","21","Male","","","","","","","null","<div style=""font-size:200px;color:red;"">2</div>","null","","","","","","","","","","","","",""
"html-keyboard-response","92","437000","0.0-3.0-11.0-6.0-3.0","spark_pilot_norest","10045","2","21","Male","","","","","","","null","<div style=""font-size:200px;color:red;"">1</div>","null","","","","","","","","","","","","",""
"revaluation","93","437922","0.0-3.0-11.0-7.0","spark_pilot_norest","10045","2","21","Male","","false","","","","","[921.5]","./assets/img/space/15.jpg","[""ArrowUp""]","practice block","space","0","{""ArrowUp,ArrowLeft"":3,""ArrowUp,ArrowRight"":36,""ArrowDown,ArrowLeft"":15,""ArrowDown,ArrowRight"":23}","true","ArrowUp","false","","","","","",""
"html-keyboard-response","94","438424","0.0-3.0-11.0-8.0","spark_pilot_norest","10045","2","21","Male","","","","","","","null","<div style=""font-size:60px;"">+</div>","null","fixation","","","","","","","","","","","",""
"learning-instructions","95","451786","0.0-3.0-11.0-9.0-0.0","spark_pilot_norest","10045","2","21","Male","","","","","","","null","<p> Now you will see the animals again and can search their chests for treasure. </p>
            <p> This time, you will not see how much treasure you earned, but you will earn more bonus money for making better choices. </p>","","instructions","","","","","","","","","","","",""
"html-keyboard-response","96","452788","0.0-3.0-11.0-10.0-0.0","spark_pilot_norest","10045","2","21","Male","","","","","","","null","<div style=""font-size:100px;color:red;"">Starting in...</div>","null","","","","","","","","","","","","",""
"html-keyboard-response","97","453796","0.0-3.0-11.0-10.0-1.0","spark_pilot_norest","10045","2","21","Male","","","","","","","null","<div style=""font-size:200px;color:red;"">3</div>","null","","","","","","","","","","","","",""
"html-keyboard-response","98","454803","0.0-3.0-11.0-10.0-2.0","spark_pilot_norest","10045","2","21","Male","","","","","","","null","<div style=""font-size:200px;color:red;"">2</div>","null","","","","","","","","","","","","",""
"html-keyboard-response","99","455808","0.0-3.0-11.0-10.0-3.0","spark_pilot_norest","10045","2","21","Male","","","","","","","null","<div style=""font-size:200px;color:red;"">1</div>","null","","","","","","","","","","","","",""
"revaluation","100","456344","0.0-3.0-11.0-11.0-0.0","spark_pilot_norest","10045","2","21","Male","","false","","","","","[534.8999999761581]","./assets/img/space/animals/cat.jpg","[""ArrowRight""]","practice block","space","0","{""ArrowUp,ArrowLeft"":3,""ArrowUp,ArrowRight"":36,""ArrowDown,ArrowLeft"":15,""ArrowDown,ArrowRight"":23}","true","ArrowUp,ArrowRight","","","","","","",""
"html-keyboard-response","101","456851","0.0-3.0-11.0-11.0-1.0","spark_pilot_norest","10045","2","21","Male","","","","","","","null","<div style=""font-size:60px;"">+</div>","null","fixation","","","","","","","","","","","",""
"revaluation","102","457587","0.0-3.0-11.0-11.0-0.1","spark_pilot_norest","10045","2","21","Male","","false","","","","","[735.1000000238419]","./assets/img/space/animals/rabbit.jpg","[""ArrowRight""]","practice block","space","0","{""ArrowUp,ArrowLeft"":3,""ArrowUp,ArrowRight"":36,""ArrowDown,ArrowLeft"":15,""ArrowDown,ArrowRight"":23}","true","ArrowDown,ArrowRight","","","","","","",""
"html-keyboard-response","103","458101","0.0-3.0-11.0-11.0-1.1","spark_pilot_norest","10045","2","21","Male","","","","","","","null","<div style=""font-size:60px;"">+</div>","null","fixation","","","","","","","","","","","",""
"learning-instructions","104","464145","0.0-3.0-12.0-0.0","spark_pilot_norest","10045","2","21","Male","","","","","","","1479.3999999761581","<p> Before you start, we're going to ask you a few questions about how the game works. </p>","","instructions","","","","","","","","","","","",""
"comp-q","105","470937","0.0-3.0-13.0-0.0-0.0","spark_pilot_norest","10045","2","21","Male","","","","","","","1220.5","<p> <b> True or False? </b> </p>
            <p> There can be 50 pieces of treasure in a given animal's chest. </p>","1","comp_question","","","","true","","","","","","","",""
"comp-q","106","479599","0.0-3.0-13.0-0.0-1.0","spark_pilot_norest","10045","2","21","Male","","","","","","","2013.300000011921","<p> <b> That's right! </b> The amount of treasure in each chest can range from 0 to 40 pieces. </p>","0","comp_answer","","","","","","","","","","","",""
"comp-q","107","487403","0.0-3.0-13.0-0.1-0.1","spark_pilot_norest","10045","2","21","Male","","","","","","","697.8000000119209","<p> <b> True or False? </b> </p><p> In this game, all animals have the same amount of treasure in their left and right chests. </p>","1","comp_question","","","","true","","","","","","","",""
"comp-q","108","495055","0.0-3.0-13.0-0.1-1.1","spark_pilot_norest","10045","2","21","Male","","","","","","","2430.100000023842","<p> <b> That's right! </b> Animals have different amounts of treasure in their treasure chests. </p>","0","comp_answer","","","","","","","","","","","",""
"comp-q","109","501474","0.0-3.0-13.0-0.2-0.2","spark_pilot_norest","10045","2","21","Male","","","","","","","588.5","<p> <b> True or False? </b> </p><p> The same animal will always be there if you go up in the same place. </p>","0","comp_question","","","","true","","","","","","","",""
"comp-q","110","509705","0.0-3.0-13.0-0.2-1.2","spark_pilot_norest","10045","2","21","Male","","","","","","","1789.199999988079","<p> <b> That's right! </b> One animal lives in the upper part and one lives in the lower part of every place. </p>","0","comp_answer","","","","","","","","","","","",""
"comp-q","111","516033","0.0-3.0-13.0-0.3-0.3","spark_pilot_norest","10045","2","21","Male","","","","","","","807.3000000119209","<p> <b> True or False? </b> </p><p> If you see a different picture, it means you are in a new place. </p>","1","comp_question","","","","true","","","","","","","",""
"comp-q","112","528304","0.0-3.0-13.0-0.3-1.3","spark_pilot_norest","10045","2","21","Male","","","","","","","1058.4000000357628","<p> <b> That's right! </b> Lots of different images may show the same place. For example,  you may see three different images that all remind you that you are in outer space. </p>","0","comp_answer","","","","","","","","","","","",""
"learning-instructions","113","539597","0.0-3.0-14.0-0.0","spark_pilot_norest","10045","2","21","Male","","","","","","","1452.1000000238419","<p> Good job. Remember to do your best because the amount of treasure you earn will be converted into bonus money. </p>
            <p> It’s time to start the real game! </p>","","instructions","","","","","","","","","","","",""
"learning-instructions","114","543981","0.0-4.0-0.0-0.0","spark_pilot_norest","10045","2","21","Male","","","","","","","1676","<p> This time you are searching for treasure in the <b>ocean</b>.</p>","","instructions","","","","","","","","","","","",""
"learning-instructions","115","561768","0.0-4.0-0.0-0.1","spark_pilot_norest","10045","2","21","Male","","","","","","","502.5","<p><b>New</b> animals with <b>new</b> treasure chests live here. You need to explore to discover where the animal with the best treasure chest is.</p>
                    <p> Like before, once you figure out which animal has the chest with the most treasure, you should try to get to that animal and select that chest! </p>","","instructions","","","","","","","","","","","",""
"learning-instructions","116","577581","0.0-4.0-1.0-0.0","spark_pilot_norest","10045","2","21","Male","","","","","","","1075.5","<p> Remember, when you see a picture of the place, use the up and down keys to <b>find an animal</b>.</p>
            <p> When you encounter an animal, you should use the left and right keys to <b>select a treasure chest</b>.</p>
            <p> Don't forget to look out for the robber! </p>","","instructions","","","","","","","","","","","",""
"revaluation","117","583604","0.0-4.0-2.0-0.0","spark_pilot_norest","10045","2","21","Male","","false","","","","","[1249.199999988079,801.5]","./assets/img/ocean/memory/18.jpg","[""ArrowUp"",""ArrowRight""]","value training","ocean","10","{""ArrowUp,ArrowLeft"":23,""ArrowUp,ArrowRight"":10,""ArrowDown,ArrowLeft"":8,""ArrowDown,ArrowRight"":30}","false","ArrowUp,ArrowRight","false","revaluation","1","0","","",""
"html-keyboard-response","118","584116","0.0-4.0-2.0-1.0","spark_pilot_norest","10045","2","21","Male","","","","","","","null","<div style=""font-size:60px;"">+</div>","null","fixation","","","","","","","","","1","","",""
"revaluation","119","590145","0.0-4.0-2.0-0.1","spark_pilot_norest","10045","2","21","Male","","false","","","","","[1026.3999999761581,388.69999998807907]","./assets/img/ocean/memory/30.jpg","[""ArrowUp"",""ArrowLeft""]","value training","ocean","23","{""ArrowUp,ArrowLeft"":23,""ArrowUp,ArrowRight"":10,""ArrowDown,ArrowLeft"":8,""ArrowDown,ArrowRight"":30}","false","ArrowUp,ArrowLeft","false","revaluation","1","2","","",""
"html-keyboard-response","120","590658","0.0-4.0-2.0-1.1","spark_pilot_norest","10045","2","21","Male","","","","","","","null","<div style=""font-size:60px;"">+</div>","null","fixation","","","","","","","","","3","","",""
"revaluation","121","596678","0.0-4.0-2.0-0.2","spark_pilot_norest","10045","2","21","Male","","false","","","","","[762,583.7999999523163]","./assets/img/ocean/memory/36.jpg","[""ArrowDown"",""ArrowLeft""]","value training","ocean","8","{""ArrowUp,ArrowLeft"":23,""ArrowUp,ArrowRight"":10,""ArrowDown,ArrowLeft"":8,""ArrowDown,ArrowRight"":30}","false","ArrowDown,ArrowLeft","false","revaluation","1","4","","",""
"html-keyboard-response","122","597191","0.0-4.0-2.0-1.2","spark_pilot_norest","10045","2","21","Male","","","","","","","null","<div style=""font-size:60px;"">+</div>","null","fixation","","","","","","","","","5","","",""
"revaluation","123","603207","0.0-4.0-2.0-0.3","spark_pilot_norest","10045","2","21","Male","","false","","","","","[986,597.3000000119209]","./assets/img/ocean/memory/33.jpg","[""ArrowDown"",""ArrowRight""]","value training","ocean","30","{""ArrowUp,ArrowLeft"":23,""ArrowUp,ArrowRight"":10,""ArrowDown,ArrowLeft"":8,""ArrowDown,ArrowRight"":30}","true","ArrowDown,ArrowRight","false","revaluation","1","6","","",""
"html-keyboard-response","124","603720","0.0-4.0-2.0-1.3","spark_pilot_norest","10045","2","21","Male","","","","","","","null","<div style=""font-size:60px;"">+</div>","null","fixation","","","","","","","","","7","","",""
"revaluation","125","609734","0.0-4.0-2.0-0.4","spark_pilot_norest","10045","2","21","Male","","false","","","","","[755,429.80000001192093]","./assets/img/ocean/memory/1.jpg","[""ArrowDown"",""ArrowRight""]","value training","ocean","30","{""ArrowUp,ArrowLeft"":23,""ArrowUp,ArrowRight"":10,""ArrowDown,ArrowLeft"":8,""ArrowDown,ArrowRight"":30}","true","ArrowDown,ArrowRight","false","revaluation","1","8","","",""
"html-keyboard-response","126","610243","0.0-4.0-2.0-1.4","spark_pilot_norest","10045","2","21","Male","","","","","","","null","<div style=""font-size:60px;"">+</div>","null","fixation","","","","","","","","","9","","",""
"revaluation","127","616247","0.0-4.0-2.0-0.5","spark_pilot_norest","10045","2","21","Male","","false","","","","","[1098.300000011921,460.39999997615814]","./assets/img/ocean/memory/24.jpg","[""ArrowDown"",""ArrowRight""]","value training","ocean","30","{""ArrowUp,ArrowLeft"":23,""ArrowUp,ArrowRight"":10,""ArrowDown,ArrowLeft"":8,""ArrowDown,ArrowRight"":30}","true","ArrowDown,ArrowRight","false","revaluation","1","10","","",""
"html-keyboard-response","128","616748","0.0-4.0-2.0-1.5","spark_pilot_norest","10045","2","21","Male","","","","","","","null","<div style=""font-size:60px;"">+</div>","null","fixation","","","","","","","","","11","","",""
"revaluation","129","622751","0.0-4.0-2.0-0.6","spark_pilot_norest","10045","2","21","Male","","false","","","","","[749,341.39999997615814]","./assets/img/ocean/memory/28.jpg","[""ArrowDown"",""ArrowRight""]","value training","ocean","30","{""ArrowUp,ArrowLeft"":23,""ArrowUp,ArrowRight"":10,""ArrowDown,ArrowLeft"":8,""ArrowDown,ArrowRight"":30}","true","ArrowDown,ArrowRight","false","revaluation","1","12","","",""
"html-keyboard-response","130","623252","0.0-4.0-2.0-1.6","spark_pilot_norest","10045","2","21","Male","","","","","","","null","<div style=""font-size:60px;"">+</div>","null","fixation","","","","","","","","","13","","",""
"revaluation","131","629267","0.0-4.0-2.0-0.7","spark_pilot_norest","10045","2","21","Male","","false","","","","","[1061.7999999523163,490.60000002384186]","./assets/img/ocean/memory/10.jpg","[""ArrowDown"",""ArrowRight""]","value training","ocean","30","{""ArrowUp,ArrowLeft"":23,""ArrowUp,ArrowRight"":10,""ArrowDown,ArrowLeft"":8,""ArrowDown,ArrowRight"":30}","true","ArrowDown,ArrowRight","false","revaluation","1","14","","",""
"html-keyboard-response","132","629768","0.0-4.0-2.0-1.7","spark_pilot_norest","10045","2","21","Male","","","","","","","null","<div style=""font-size:60px;"">+</div>","null","fixation","","","","","","","","","15","","",""
"revaluation","133","635772","0.0-4.0-2.0-0.8","spark_pilot_norest","10045","2","21","Male","","false","","","","","[898.5,295.5999999642372]","./assets/img/ocean/memory/10.jpg","[""ArrowDown"",""ArrowRight""]","value training","ocean","30","{""ArrowUp,ArrowLeft"":23,""ArrowUp,ArrowRight"":10,""ArrowDown,ArrowLeft"":8,""ArrowDown,ArrowRight"":30}","true","ArrowDown,ArrowRight","false","revaluation","1","16","","",""
"html-keyboard-response","134","636272","0.0-4.0-2.0-1.8","spark_pilot_norest","10045","2","21","Male","","","","","","","null","<div style=""font-size:60px;"">+</div>","null","fixation","","","","","","","","","17","","",""
"revaluation","135","642276","0.0-4.0-2.0-0.9","spark_pilot_norest","10045","2","21","Male","","false","","","","","[778,361.19999998807907]","./assets/img/ocean/memory/37.jpg","[""ArrowDown"",""ArrowRight""]","value training","ocean","30","{""ArrowUp,ArrowLeft"":23,""ArrowUp,ArrowRight"":10,""ArrowDown,ArrowLeft"":8,""ArrowDown,ArrowRight"":30}","true","ArrowDown,ArrowRight","false","revaluation","1","18","","",""
"html-keyboard-response","136","642777","0.0-4.0-2.0-1.9","spark_pilot_norest","10045","2","21","Male","","","","","","","null","<div style=""font-size:60px;"">+</div>","null","fixation","","","","","","","","","19","","",""
"revaluation","137","648779","0.0-4.0-2.0-0.10","spark_pilot_norest","10045","2","21","Male","","false","","","","","[740.5,385.5]","./assets/img/ocean/memory/1.jpg","[""ArrowDown"",""ArrowRight""]","value training","ocean","30","{""ArrowUp,ArrowLeft"":23,""ArrowUp,ArrowRight"":10,""ArrowDown,ArrowLeft"":8,""ArrowDown,ArrowRight"":30}","true","ArrowDown,ArrowRight","false","revaluation","1","20","","",""
"html-keyboard-response","138","649281","0.0-4.0-2.0-1.10","spark_pilot_norest","10045","2","21","Male","","","","","","","null","<div style=""font-size:60px;"">+</div>","null","fixation","","","","","","","","","21","","",""
"revaluation","139","653283","0.0-4.0-2.0-0.11","spark_pilot_norest","10045","2","21","Male","","false","","","","","[945]","./assets/img/ocean/catch/1.jpg","[""spaceBar""]","value training","ocean","0","{""ArrowUp,ArrowLeft"":23,""ArrowUp,ArrowRight"":10,""ArrowDown,ArrowLeft"":8,""ArrowDown,ArrowRight"":30}","true","spaceBar","true","revaluation","1","22","","",""
"html-keyboard-response","140","653784","0.0-4.0-2.0-1.11","spark_pilot_norest","10045","2","21","Male","","","","","","","null","<div style=""font-size:60px;"">+</div>","null","fixation","","","","","","","","","23","","",""
"revaluation","141","659790","0.0-4.0-2.0-0.12","spark_pilot_norest","10045","2","21","Male","","false","","","","","[1105.699999988079,535]","./assets/img/ocean/memory/20.jpg","[""ArrowDown"",""ArrowRight""]","value training","ocean","30","{""ArrowUp,ArrowLeft"":23,""ArrowUp,ArrowRight"":10,""ArrowDown,ArrowLeft"":8,""ArrowDown,ArrowRight"":30}","true","ArrowDown,ArrowRight","false","revaluation","1","24","","",""
"html-keyboard-response","142","660292","0.0-4.0-2.0-1.12","spark_pilot_norest","10045","2","21","Male","","","","","","","null","<div style=""font-size:60px;"">+</div>","null","fixation","","","","","","","","","25","","",""
"revaluation","143","666295","0.0-4.0-2.0-0.13","spark_pilot_norest","10045","2","21","Male","","false","","","","","[783.3000000119209,298.69999998807907]","./assets/img/ocean/memory/31.jpg","[""ArrowDown"",""ArrowRight""]","value training","ocean","30","{""ArrowUp,ArrowLeft"":23,""ArrowUp,ArrowRight"":10,""ArrowDown,ArrowLeft"":8,""ArrowDown,ArrowRight"":30}","true","ArrowDown,ArrowRight","false","revaluation","1","26","","",""
"html-keyboard-response","144","666799","0.0-4.0-2.0-1.13","spark_pilot_norest","10045","2","21","Male","","","","","","","null","<div style=""font-size:60px;"">+</div>","null","fixation","","","","","","","","","27","","",""
"revaluation","145","672802","0.0-4.0-2.0-0.14","spark_pilot_norest","10045","2","21","Male","","false","","","","","[1401.5,480.10000002384186]","./assets/img/ocean/memory/14.jpg","[""ArrowDown"",""ArrowRight""]","value training","ocean","30","{""ArrowUp,ArrowLeft"":23,""ArrowUp,ArrowRight"":10,""ArrowDown,ArrowLeft"":8,""ArrowDown,ArrowRight"":30}","true","ArrowDown,ArrowRight","false","revaluation","1","28","","",""
"html-keyboard-response","146","673303","0.0-4.0-2.0-1.14","spark_pilot_norest","10045","2","21","Male","","","","","","","null","<div style=""font-size:60px;"">+</div>","null","fixation","","","","","","","","","29","","",""
"revaluation","147","679307","0.0-4.0-2.0-0.15","spark_pilot_norest","10045","2","21","Male","","false","","","","","[1134,423.80000001192093]","./assets/img/ocean/memory/0.jpg","[""ArrowDown"",""ArrowRight""]","value training","ocean","30","{""ArrowUp,ArrowLeft"":23,""ArrowUp,ArrowRight"":10,""ArrowDown,ArrowLeft"":8,""ArrowDown,ArrowRight"":30}","true","ArrowDown,ArrowRight","false","revaluation","1","30","","",""
"html-keyboard-response","148","679807","0.0-4.0-2.0-1.15","spark_pilot_norest","10045","2","21","Male","","","","","","","null","<div style=""font-size:60px;"">+</div>","null","fixation","","","","","","","","","31","","",""
"revaluation","149","685811","0.0-4.0-2.0-0.16","spark_pilot_norest","10045","2","21","Male","","false","","","","","[887.3999999761581,424.19999998807907]","./assets/img/ocean/memory/8.jpg","[""ArrowDown"",""ArrowRight""]","value training","ocean","30","{""ArrowUp,ArrowLeft"":23,""ArrowUp,ArrowRight"":10,""ArrowDown,ArrowLeft"":8,""ArrowDown,ArrowRight"":30}","true","ArrowDown,ArrowRight","false","revaluation","1","32","","",""
"html-keyboard-response","150","686312","0.0-4.0-2.0-1.16","spark_pilot_norest","10045","2","21","Male","","","","","","","null","<div style=""font-size:60px;"">+</div>","null","fixation","","","","","","","","","33","","",""
"revaluation","151","692316","0.0-4.0-2.0-0.17","spark_pilot_norest","10045","2","21","Male","","false","","","","","[1370.199999988079,443.19999998807907]","./assets/img/ocean/memory/14.jpg","[""ArrowDown"",""ArrowRight""]","value training","ocean","30","{""ArrowUp,ArrowLeft"":23,""ArrowUp,ArrowRight"":10,""ArrowDown,ArrowLeft"":8,""ArrowDown,ArrowRight"":30}","true","ArrowDown,ArrowRight","false","revaluation","1","34","","",""
"html-keyboard-response","152","692817","0.0-4.0-2.0-1.17","spark_pilot_norest","10045","2","21","Male","","","","","","","null","<div style=""font-size:60px;"">+</div>","null","fixation","","","","","","","","","35","","",""
"revaluation","153","696819","0.0-4.0-2.0-0.18","spark_pilot_norest","10045","2","21","Male","","false","","","","","[808.5]","./assets/img/ocean/catch/4.jpg","[""spaceBar""]","value training","ocean","0","{""ArrowUp,ArrowLeft"":23,""ArrowUp,ArrowRight"":10,""ArrowDown,ArrowLeft"":8,""ArrowDown,ArrowRight"":30}","true","spaceBar","true","revaluation","1","36","","",""
"html-keyboard-response","154","697321","0.0-4.0-2.0-1.18","spark_pilot_norest","10045","2","21","Male","","","","","","","null","<div style=""font-size:60px;"">+</div>","null","fixation","","","","","","","","","37","","",""
"revaluation","155","703324","0.0-4.0-2.0-0.19","spark_pilot_norest","10045","2","21","Male","","false","","","","","[926.7999999523163,442.2999999523163]","./assets/img/ocean/memory/31.jpg","[""ArrowDown"",""ArrowRight""]","value training","ocean","30","{""ArrowUp,ArrowLeft"":23,""ArrowUp,ArrowRight"":10,""ArrowDown,ArrowLeft"":8,""ArrowDown,ArrowRight"":30}","true","ArrowDown,ArrowRight","false","revaluation","1","38","","",""
"html-keyboard-response","156","703830","0.0-4.0-2.0-1.19","spark_pilot_norest","10045","2","21","Male","","","","","","","null","<div style=""font-size:60px;"">+</div>","null","fixation","","","","","","","","","39","","",""
"revaluation","157","709834","0.0-4.0-2.0-0.20","spark_pilot_norest","10045","2","21","Male","","false","","","","","[766,449.10000002384186]","./assets/img/ocean/memory/29.jpg","[""ArrowDown"",""ArrowRight""]","value training","ocean","30","{""ArrowUp,ArrowLeft"":23,""ArrowUp,ArrowRight"":10,""ArrowDown,ArrowLeft"":8,""ArrowDown,ArrowRight"":30}","true","ArrowDown,ArrowRight","false","revaluation","1","40","","",""
"html-keyboard-response","158","710336","0.0-4.0-2.0-1.20","spark_pilot_norest","10045","2","21","Male","","","","","","","null","<div style=""font-size:60px;"">+</div>","null","fixation","","","","","","","","","41","","",""
"revaluation","159","716340","0.0-4.0-2.0-0.21","spark_pilot_norest","10045","2","21","Male","","false","","","","","[893,1037.4000000357628]","./assets/img/ocean/memory/8.jpg","[""ArrowUp"",""ArrowLeft""]","value training","ocean","23","{""ArrowUp,ArrowLeft"":23,""ArrowUp,ArrowRight"":10,""ArrowDown,ArrowLeft"":8,""ArrowDown,ArrowRight"":30}","false","ArrowUp,ArrowLeft","false","revaluation","1","42","","",""
"html-keyboard-response","160","716842","0.0-4.0-2.0-1.21","spark_pilot_norest","10045","2","21","Male","","","","","","","null","<div style=""font-size:60px;"">+</div>","null","fixation","","","","","","","","","43","","",""
"revaluation","161","720845","0.0-4.0-2.0-0.22","spark_pilot_norest","10045","2","21","Male","","false","","","","","[1078.3999999761581]","./assets/img/ocean/catch/6.jpg","[""spaceBar""]","value training","ocean","0","{""ArrowUp,ArrowLeft"":23,""ArrowUp,ArrowRight"":10,""ArrowDown,ArrowLeft"":8,""ArrowDown,ArrowRight"":30}","true","spaceBar","true","revaluation","1","44","","",""
"html-keyboard-response","162","721351","0.0-4.0-2.0-1.22","spark_pilot_norest","10045","2","21","Male","","","","","","","null","<div style=""font-size:60px;"">+</div>","null","fixation","","","","","","","","","45","","",""
"revaluation","163","727354","0.0-4.0-2.0-0.23","spark_pilot_norest","10045","2","21","Male","","false","","","","","[742.1000000238419,462.0999999642372]","./assets/img/ocean/memory/6.jpg","[""ArrowDown"",""ArrowRight""]","value training","ocean","30","{""ArrowUp,ArrowLeft"":23,""ArrowUp,ArrowRight"":10,""ArrowDown,ArrowLeft"":8,""ArrowDown,ArrowRight"":30}","true","ArrowDown,ArrowRight","false","revaluation","1","46","","",""
"html-keyboard-response","164","727868","0.0-4.0-2.0-1.23","spark_pilot_norest","10045","2","21","Male","","","","","","","null","<div style=""font-size:60px;"">+</div>","null","fixation","","","","","","","","","47","","",""
"revaluation","165","733871","0.0-4.0-2.0-0.24","spark_pilot_norest","10045","2","21","Male","","false","","","","","[731.2000000476837,406.89999997615814]","./assets/img/ocean/memory/6.jpg","[""ArrowDown"",""ArrowRight""]","value training","ocean","30","{""ArrowUp,ArrowLeft"":23,""ArrowUp,ArrowRight"":10,""ArrowDown,ArrowLeft"":8,""ArrowDown,ArrowRight"":30}","true","ArrowDown,ArrowRight","false","revaluation","1","48","","",""
"html-keyboard-response","166","734373","0.0-4.0-2.0-1.24","spark_pilot_norest","10045","2","21","Male","","","","","","","null","<div style=""font-size:60px;"">+</div>","null","fixation","","","","","","","","","49","","",""
"revaluation","167","738375","0.0-4.0-2.0-0.25","spark_pilot_norest","10045","2","21","Male","","false","","","","","[734.4000000357628]","./assets/img/ocean/catch/0.jpg","[""spaceBar""]","value training","ocean","0","{""ArrowUp,ArrowLeft"":23,""ArrowUp,ArrowRight"":10,""ArrowDown,ArrowLeft"":8,""ArrowDown,ArrowRight"":30}","true","spaceBar","true","revaluation","1","50","","",""
"html-keyboard-response","168","738877","0.0-4.0-2.0-1.25","spark_pilot_norest","10045","2","21","Male","","","","","","","null","<div style=""font-size:60px;"">+</div>","null","fixation","","","","","","","","","51","","",""
"revaluation","169","742878","0.0-4.0-2.0-0.26","spark_pilot_norest","10045","2","21","Male","","false","","","","","[894]","./assets/img/ocean/catch/3.jpg","[""spaceBar""]","value training","ocean","0","{""ArrowUp,ArrowLeft"":23,""ArrowUp,ArrowRight"":10,""ArrowDown,ArrowLeft"":8,""ArrowDown,ArrowRight"":30}","true","spaceBar","true","revaluation","1","52","","",""
"html-keyboard-response","170","743379","0.0-4.0-2.0-1.26","spark_pilot_norest","10045","2","21","Male","","","","","","","null","<div style=""font-size:60px;"">+</div>","null","fixation","","","","","","","","","53","","",""
"revaluation","171","749382","0.0-4.0-2.0-0.27","spark_pilot_norest","10045","2","21","Male","","false","","","","","[960,498.60000002384186]","./assets/img/ocean/memory/30.jpg","[""ArrowDown"",""ArrowRight""]","value training","ocean","30","{""ArrowUp,ArrowLeft"":23,""ArrowUp,ArrowRight"":10,""ArrowDown,ArrowLeft"":8,""ArrowDown,ArrowRight"":30}","true","ArrowDown,ArrowRight","false","revaluation","1","54","","",""
"html-keyboard-response","172","749883","0.0-4.0-2.0-1.27","spark_pilot_norest","10045","2","21","Male","","","","","","","null","<div style=""font-size:60px;"">+</div>","null","fixation","","","","","","","","","55","","",""
"revaluation","173","755887","0.0-4.0-2.0-0.28","spark_pilot_norest","10045","2","21","Male","","false","","","","","[744.8999999761581,519.3000000119209]","./assets/img/ocean/memory/11.jpg","[""ArrowDown"",""ArrowRight""]","value training","ocean","30","{""ArrowUp,ArrowLeft"":23,""ArrowUp,ArrowRight"":10,""ArrowDown,ArrowLeft"":8,""ArrowDown,ArrowRight"":30}","true","ArrowDown,ArrowRight","false","revaluation","1","56","","",""
"html-keyboard-response","174","756388","0.0-4.0-2.0-1.28","spark_pilot_norest","10045","2","21","Male","","","","","","","null","<div style=""font-size:60px;"">+</div>","null","fixation","","","","","","","","","57","","",""
"revaluation","175","762391","0.0-4.0-2.0-0.29","spark_pilot_norest","10045","2","21","Male","","false","","","","","[848.8999999761581,353.5999999642372]","./assets/img/ocean/memory/0.jpg","[""ArrowDown"",""ArrowRight""]","value training","ocean","30","{""ArrowUp,ArrowLeft"":23,""ArrowUp,ArrowRight"":10,""ArrowDown,ArrowLeft"":8,""ArrowDown,ArrowRight"":30}","true","ArrowDown,ArrowRight","false","revaluation","1","58","","",""
"html-keyboard-response","176","762892","0.0-4.0-2.0-1.29","spark_pilot_norest","10045","2","21","Male","","","","","","","null","<div style=""font-size:60px;"">+</div>","null","fixation","","","","","","","","","59","","",""
"revaluation","177","768896","0.0-4.0-2.0-0.30","spark_pilot_norest","10045","2","21","Male","","false","","","","","[1137.1000000238419,471.69999998807907]","./assets/img/ocean/memory/33.jpg","[""ArrowDown"",""ArrowRight""]","value training","ocean","30","{""ArrowUp,ArrowLeft"":23,""ArrowUp,ArrowRight"":10,""ArrowDown,ArrowLeft"":8,""ArrowDown,ArrowRight"":30}","true","ArrowDown,ArrowRight","false","revaluation","1","60","","",""
"html-keyboard-response","178","769398","0.0-4.0-2.0-1.30","spark_pilot_norest","10045","2","21","Male","","","","","","","null","<div style=""font-size:60px;"">+</div>","null","fixation","","","","","","","","","61","","",""
"revaluation","179","775401","0.0-4.0-2.0-0.31","spark_pilot_norest","10045","2","21","Male","","false","","","","","[650,279]","./assets/img/ocean/memory/11.jpg","[""ArrowDown"",""ArrowRight""]","value training","ocean","30","{""ArrowUp,ArrowLeft"":23,""ArrowUp,ArrowRight"":10,""ArrowDown,ArrowLeft"":8,""ArrowDown,ArrowRight"":30}","true","ArrowDown,ArrowRight","false","revaluation","1","62","","",""
"html-keyboard-response","180","775902","0.0-4.0-2.0-1.31","spark_pilot_norest","10045","2","21","Male","","","","","","","null","<div style=""font-size:60px;"">+</div>","null","fixation","","","","","","","","","63","","",""
"revaluation","181","781908","0.0-4.0-2.0-0.32","spark_pilot_norest","10045","2","21","Male","","false","","","","","[585.8999999761581,403.80000001192093]","./assets/img/ocean/memory/29.jpg","[""ArrowDown"",""ArrowRight""]","value training","ocean","30","{""ArrowUp,ArrowLeft"":23,""ArrowUp,ArrowRight"":10,""ArrowDown,ArrowLeft"":8,""ArrowDown,ArrowRight"":30}","true","ArrowDown,ArrowRight","false","revaluation","1","64","","",""
"html-keyboard-response","182","782408","0.0-4.0-2.0-1.32","spark_pilot_norest","10045","2","21","Male","","","","","","","null","<div style=""font-size:60px;"">+</div>","null","fixation","","","","","","","","","65","","",""
"revaluation","183","788412","0.0-4.0-2.0-0.33","spark_pilot_norest","10045","2","21","Male","","false","","","","","[773.6000000238419,298.89999997615814]","./assets/img/ocean/memory/38.jpg","[""ArrowDown"",""ArrowRight""]","value training","ocean","30","{""ArrowUp,ArrowLeft"":23,""ArrowUp,ArrowRight"":10,""ArrowDown,ArrowLeft"":8,""ArrowDown,ArrowRight"":30}","true","ArrowDown,ArrowRight","false","revaluation","1","66","","",""
"html-keyboard-response","184","788913","0.0-4.0-2.0-1.33","spark_pilot_norest","10045","2","21","Male","","","","","","","null","<div style=""font-size:60px;"">+</div>","null","fixation","","","","","","","","","67","","",""
"revaluation","185","794916","0.0-4.0-2.0-0.34","spark_pilot_norest","10045","2","21","Male","","false","","","","","[830.8000000119209,396.5999999642372]","./assets/img/ocean/memory/21.jpg","[""ArrowDown"",""ArrowRight""]","value training","ocean","30","{""ArrowUp,ArrowLeft"":23,""ArrowUp,ArrowRight"":10,""ArrowDown,ArrowLeft"":8,""ArrowDown,ArrowRight"":30}","true","ArrowDown,ArrowRight","false","revaluation","1","68","","",""
"html-keyboard-response","186","795417","0.0-4.0-2.0-1.34","spark_pilot_norest","10045","2","21","Male","","","","","","","null","<div style=""font-size:60px;"">+</div>","null","fixation","","","","","","","","","69","","",""
"revaluation","187","799420","0.0-4.0-2.0-0.35","spark_pilot_norest","10045","2","21","Male","","false","","","","","[678.5]","./assets/img/ocean/catch/5.jpg","[""ArrowDown""]","value training","ocean","-10","{""ArrowUp,ArrowLeft"":23,""ArrowUp,ArrowRight"":10,""ArrowDown,ArrowLeft"":8,""ArrowDown,ArrowRight"":30}","false","ArrowDown","true","revaluation","1","70","","",""
"html-keyboard-response","188","799920","0.0-4.0-2.0-1.35","spark_pilot_norest","10045","2","21","Male","","","","","","","null","<div style=""font-size:60px;"">+</div>","null","fixation","","","","","","","","","71","","",""
"revaluation","189","803923","0.0-4.0-2.0-0.36","spark_pilot_norest","10045","2","21","Male","","false","","","","","[792.5999999642372]","./assets/img/ocean/catch/7.jpg","[""spaceBar""]","value training","ocean","0","{""ArrowUp,ArrowLeft"":23,""ArrowUp,ArrowRight"":10,""ArrowDown,ArrowLeft"":8,""ArrowDown,ArrowRight"":30}","true","spaceBar","true","revaluation","1","72","","",""
"html-keyboard-response","190","804424","0.0-4.0-2.0-1.36","spark_pilot_norest","10045","2","21","Male","","","","","","","null","<div style=""font-size:60px;"">+</div>","null","fixation","","","","","","","","","73","","",""
"revaluation","191","810427","0.0-4.0-2.0-0.37","spark_pilot_norest","10045","2","21","Male","","false","","","","","[754.3000000119209,408.19999998807907]","./assets/img/ocean/memory/37.jpg","[""ArrowDown"",""ArrowRight""]","value training","ocean","30","{""ArrowUp,ArrowLeft"":23,""ArrowUp,ArrowRight"":10,""ArrowDown,ArrowLeft"":8,""ArrowDown,ArrowRight"":30}","true","ArrowDown,ArrowRight","false","revaluation","1","74","","",""
"html-keyboard-response","192","810930","0.0-4.0-2.0-1.37","spark_pilot_norest","10045","2","21","Male","","","","","","","null","<div style=""font-size:60px;"">+</div>","null","fixation","","","","","","","","","75","","",""
"revaluation","193","816931","0.0-4.0-2.0-0.38","spark_pilot_norest","10045","2","21","Male","","false","","","","","[745.8999999761581,380.30000001192093]","./assets/img/ocean/memory/21.jpg","[""ArrowDown"",""ArrowRight""]","value training","ocean","30","{""ArrowUp,ArrowLeft"":23,""ArrowUp,ArrowRight"":10,""ArrowDown,ArrowLeft"":8,""ArrowDown,ArrowRight"":30}","true","ArrowDown,ArrowRight","false","revaluation","1","76","","",""
"html-keyboard-response","194","817433","0.0-4.0-2.0-1.38","spark_pilot_norest","10045","2","21","Male","","","","","","","null","<div style=""font-size:60px;"">+</div>","null","fixation","","","","","","","","","77","","",""
"revaluation","195","823437","0.0-4.0-2.0-0.39","spark_pilot_norest","10045","2","21","Male","","false","","","","","[811.1999999880791,352.10000002384186]","./assets/img/ocean/memory/38.jpg","[""ArrowDown"",""ArrowRight""]","value training","ocean","30","{""ArrowUp,ArrowLeft"":23,""ArrowUp,ArrowRight"":10,""ArrowDown,ArrowLeft"":8,""ArrowDown,ArrowRight"":30}","true","ArrowDown,ArrowRight","false","revaluation","1","78","","",""
"html-keyboard-response","196","823938","0.0-4.0-2.0-1.39","spark_pilot_norest","10045","2","21","Male","","","","","","","null","<div style=""font-size:60px;"">+</div>","null","fixation","","","","","","","","","79","","",""
"revaluation","197","829940","0.0-4.0-2.0-0.40","spark_pilot_norest","10045","2","21","Male","","false","","","","","[693.1999999880791,256.30000001192093]","./assets/img/ocean/memory/12.jpg","[""ArrowDown"",""ArrowRight""]","value training","ocean","30","{""ArrowUp,ArrowLeft"":23,""ArrowUp,ArrowRight"":10,""ArrowDown,ArrowLeft"":8,""ArrowDown,ArrowRight"":30}","true","ArrowDown,ArrowRight","false","revaluation","1","80","","",""
"html-keyboard-response","198","830442","0.0-4.0-2.0-1.40","spark_pilot_norest","10045","2","21","Male","","","","","","","null","<div style=""font-size:60px;"">+</div>","null","fixation","","","","","","","","","81","","",""
"revaluation","199","836445","0.0-4.0-2.0-0.41","spark_pilot_norest","10045","2","21","Male","","false","","","","","[610.6999999880791,502.9000000357628]","./assets/img/ocean/memory/18.jpg","[""ArrowDown"",""ArrowRight""]","value training","ocean","30","{""ArrowUp,ArrowLeft"":23,""ArrowUp,ArrowRight"":10,""ArrowDown,ArrowLeft"":8,""ArrowDown,ArrowRight"":30}","true","ArrowDown,ArrowRight","false","revaluation","1","82","","",""
"html-keyboard-response","200","836946","0.0-4.0-2.0-1.41","spark_pilot_norest","10045","2","21","Male","","","","","","","null","<div style=""font-size:60px;"">+</div>","null","fixation","","","","","","","","","83","","",""
"revaluation","201","842949","0.0-4.0-2.0-0.42","spark_pilot_norest","10045","2","21","Male","","false","","","","","[885.5,499.60000002384186]","./assets/img/ocean/memory/17.jpg","[""ArrowDown"",""ArrowRight""]","value training","ocean","30","{""ArrowUp,ArrowLeft"":23,""ArrowUp,ArrowRight"":10,""ArrowDown,ArrowLeft"":8,""ArrowDown,ArrowRight"":30}","true","ArrowDown,ArrowRight","false","revaluation","1","84","","",""
"html-keyboard-response","202","843452","0.0-4.0-2.0-1.42","spark_pilot_norest","10045","2","21","Male","","","","","","","null","<div style=""font-size:60px;"">+</div>","null","fixation","","","","","","","","","85","","",""
"revaluation","203","847455","0.0-4.0-2.0-0.43","spark_pilot_norest","10045","2","21","Male","","false","","","","","[705.0999999642372]","./assets/img/ocean/catch/2.jpg","[""spaceBar""]","value training","ocean","0","{""ArrowUp,ArrowLeft"":23,""ArrowUp,ArrowRight"":10,""ArrowDown,ArrowLeft"":8,""ArrowDown,ArrowRight"":30}","true","spaceBar","true","revaluation","1","86","","",""
"html-keyboard-response","204","847956","0.0-4.0-2.0-1.43","spark_pilot_norest","10045","2","21","Male","","","","","","","null","<div style=""font-size:60px;"">+</div>","null","fixation","","","","","","","","","87","","",""
"revaluation","205","853960","0.0-4.0-2.0-0.44","spark_pilot_norest","10045","2","21","Male","","false","","","","","[900.4000000357628,389.0999999642372]","./assets/img/ocean/memory/12.jpg","[""ArrowDown"",""ArrowRight""]","value training","ocean","30","{""ArrowUp,ArrowLeft"":23,""ArrowUp,ArrowRight"":10,""ArrowDown,ArrowLeft"":8,""ArrowDown,ArrowRight"":30}","true","ArrowDown,ArrowRight","false","revaluation","1","88","","",""
"html-keyboard-response","206","854461","0.0-4.0-2.0-1.44","spark_pilot_norest","10045","2","21","Male","","","","","","","null","<div style=""font-size:60px;"">+</div>","null","fixation","","","","","","","","","89","","",""
"revaluation","207","860467","0.0-4.0-2.0-0.45","spark_pilot_norest","10045","2","21","Male","","false","","","","","[686.3999999761581,394.10000002384186]","./assets/img/ocean/memory/28.jpg","[""ArrowDown"",""ArrowRight""]","value training","ocean","30","{""ArrowUp,ArrowLeft"":23,""ArrowUp,ArrowRight"":10,""ArrowDown,ArrowLeft"":8,""ArrowDown,ArrowRight"":30}","true","ArrowDown,ArrowRight","false","revaluation","1","90","","",""
"html-keyboard-response","208","860968","0.0-4.0-2.0-1.45","spark_pilot_norest","10045","2","21","Male","","","","","","","null","<div style=""font-size:60px;"">+</div>","null","fixation","","","","","","","","","91","","",""
"revaluation","209","866971","0.0-4.0-2.0-0.46","spark_pilot_norest","10045","2","21","Male","","false","","","","","[1321.1000000238419,601.5]","./assets/img/ocean/memory/24.jpg","[""ArrowDown"",""ArrowRight""]","value training","ocean","30","{""ArrowUp,ArrowLeft"":23,""ArrowUp,ArrowRight"":10,""ArrowDown,ArrowLeft"":8,""ArrowDown,ArrowRight"":30}","true","ArrowDown,ArrowRight","false","revaluation","1","92","","",""
"html-keyboard-response","210","867472","0.0-4.0-2.0-1.46","spark_pilot_norest","10045","2","21","Male","","","","","","","null","<div style=""font-size:60px;"">+</div>","null","fixation","","","","","","","","","93","","",""
"revaluation","211","873477","0.0-4.0-2.0-0.47","spark_pilot_norest","10045","2","21","Male","","false","","","","","[794.1999999880791,348.10000002384186]","./assets/img/ocean/memory/36.jpg","[""ArrowDown"",""ArrowRight""]","value training","ocean","30","{""ArrowUp,ArrowLeft"":23,""ArrowUp,ArrowRight"":10,""ArrowDown,ArrowLeft"":8,""ArrowDown,ArrowRight"":30}","true","ArrowDown,ArrowRight","false","revaluation","1","94","","",""
"html-keyboard-response","212","873978","0.0-4.0-2.0-1.47","spark_pilot_norest","10045","2","21","Male","","","","","","","null","<div style=""font-size:60px;"">+</div>","null","fixation","","","","","","","","","95","","",""
"revaluation","213","879980","0.0-4.0-2.0-0.48","spark_pilot_norest","10045","2","21","Male","","false","","","","","[1135.8999999761581,589.3999999761581]","./assets/img/ocean/memory/20.jpg","[""ArrowDown"",""ArrowRight""]","value training","ocean","30","{""ArrowUp,ArrowLeft"":23,""ArrowUp,ArrowRight"":10,""ArrowDown,ArrowLeft"":8,""ArrowDown,ArrowRight"":30}","true","ArrowDown,ArrowRight","false","revaluation","1","96","","",""
"html-keyboard-response","214","880482","0.0-4.0-2.0-1.48","spark_pilot_norest","10045","2","21","Male","","","","","","","null","<div style=""font-size:60px;"">+</div>","null","fixation","","","","","","","","","97","","",""
"revaluation","215","886486","0.0-4.0-2.0-0.49","spark_pilot_norest","10045","2","21","Male","","false","","","","","[716.3000000119209,342.39999997615814]","./assets/img/ocean/memory/17.jpg","[""ArrowDown"",""ArrowRight""]","value training","ocean","30","{""ArrowUp,ArrowLeft"":23,""ArrowUp,ArrowRight"":10,""ArrowDown,ArrowLeft"":8,""ArrowDown,ArrowRight"":30}","true","ArrowDown,ArrowRight","false","revaluation","1","98","","",""
"html-keyboard-response","216","886987","0.0-4.0-2.0-1.49","spark_pilot_norest","10045","2","21","Male","","","","","","","null","<div style=""font-size:60px;"">+</div>","null","fixation","","","","","","","","","99","","",""
"learning-instructions","217","902691","0.0-4.0-3.0-0.0","spark_pilot_norest","10045","2","21","Male","","","","","","","2231","<p> Now, you will travel with a friend who will choose whether you go up or down first. </p>
            <p> On these turns, you will just see the animal that they found. You will still get to choose which chest to search for treasure.</p>","","instructions","","","","","","","","","","","",""
"revaluation","218","906718","0.0-4.0-4.0-0.0","spark_pilot_norest","10045","2","21","Male","","false","","","","","[894.8000000119209]","./assets/img/ocean/animals/seahorse.jpg","[""ArrowRight""]","revaluation","ocean","7","{""ArrowUp,ArrowLeft"":27,""ArrowUp,ArrowRight"":15,""ArrowDown,ArrowLeft"":21,""ArrowDown,ArrowRight"":7}","false","ArrowDown,ArrowRight","","revaluation","1","0","","",""
"html-keyboard-response","219","907227","0.0-4.0-4.0-1.0","spark_pilot_norest","10045","2","21","Male","","","","","","","null","<div style=""font-size:60px;"">+</div>","null","fixation","","","","","","","","","1","","",""
"revaluation","220","911253","0.0-4.0-4.0-0.1","spark_pilot_norest","10045","2","21","Male","","false","","","","","[1276.199999988079]","./assets/img/ocean/animals/octopus.jpg","[""ArrowRight""]","revaluation","ocean","15","{""ArrowUp,ArrowLeft"":27,""ArrowUp,ArrowRight"":15,""ArrowDown,ArrowLeft"":21,""ArrowDown,ArrowRight"":7}","false","ArrowUp,ArrowRight","","revaluation","1","2","","",""
"html-keyboard-response","221","911763","0.0-4.0-4.0-1.1","spark_pilot_norest","10045","2","21","Male","","","","","","","null","<div style=""font-size:60px;"">+</div>","null","fixation","","","","","","","","","3","","",""
"revaluation","222","915775","0.0-4.0-4.0-0.2","spark_pilot_norest","10045","2","21","Male","","false","","","","","[712.8999999761581]","./assets/img/ocean/animals/octopus.jpg","[""ArrowLeft""]","revaluation","ocean","27","{""ArrowUp,ArrowLeft"":27,""ArrowUp,ArrowRight"":15,""ArrowDown,ArrowLeft"":21,""ArrowDown,ArrowRight"":7}","true","ArrowUp,ArrowLeft","","revaluation","1","4","","",""
"html-keyboard-response","223","916282","0.0-4.0-4.0-1.2","spark_pilot_norest","10045","2","21","Male","","","","","","","null","<div style=""font-size:60px;"">+</div>","null","fixation","","","","","","","","","5","","",""
"revaluation","224","920296","0.0-4.0-4.0-0.3","spark_pilot_norest","10045","2","21","Male","","false","","","","","[671.4000000357628]","./assets/img/ocean/animals/octopus.jpg","[""ArrowLeft""]","revaluation","ocean","27","{""ArrowUp,ArrowLeft"":27,""ArrowUp,ArrowRight"":15,""ArrowDown,ArrowLeft"":21,""ArrowDown,ArrowRight"":7}","true","ArrowUp,ArrowLeft","","revaluation","1","6","","",""
"html-keyboard-response","225","920807","0.0-4.0-4.0-1.3","spark_pilot_norest","10045","2","21","Male","","","","","","","null","<div style=""font-size:60px;"">+</div>","null","fixation","","","","","","","","","7","","",""
"revaluation","226","924824","0.0-4.0-4.0-0.4","spark_pilot_norest","10045","2","21","Male","","false","","","","","[947.0999999642372]","./assets/img/ocean/animals/seahorse.jpg","[""ArrowLeft""]","revaluation","ocean","21","{""ArrowUp,ArrowLeft"":27,""ArrowUp,ArrowRight"":15,""ArrowDown,ArrowLeft"":21,""ArrowDown,ArrowRight"":7}","true","ArrowDown,ArrowLeft","","revaluation","1","8","","",""
"html-keyboard-response","227","925331","0.0-4.0-4.0-1.4","spark_pilot_norest","10045","2","21","Male","","","","","","","null","<div style=""font-size:60px;"">+</div>","null","fixation","","","","","","","","","9","","",""
"revaluation","228","929355","0.0-4.0-4.0-0.5","spark_pilot_norest","10045","2","21","Male","","false","","","","","[586.1999999880791]","./assets/img/ocean/animals/seahorse.jpg","[""ArrowLeft""]","revaluation","ocean","21","{""ArrowUp,ArrowLeft"":27,""ArrowUp,ArrowRight"":15,""ArrowDown,ArrowLeft"":21,""ArrowDown,ArrowRight"":7}","true","ArrowDown,ArrowLeft","","revaluation","1","10","","",""
"html-keyboard-response","229","929863","0.0-4.0-4.0-1.5","spark_pilot_norest","10045","2","21","Male","","","","","","","null","<div style=""font-size:60px;"">+</div>","null","fixation","","","","","","","","","11","","",""
"revaluation","230","933865","0.0-4.0-4.0-0.6","spark_pilot_norest","10045","2","21","Male","","false","","","","","[519]","./assets/img/ocean/animals/seahorse.jpg","[""ArrowLeft""]","revaluation","ocean","21","{""ArrowUp,ArrowLeft"":27,""ArrowUp,ArrowRight"":15,""ArrowDown,ArrowLeft"":21,""ArrowDown,ArrowRight"":7}","true","ArrowDown,ArrowLeft","","revaluation","1","12","","",""
"html-keyboard-response","231","934367","0.0-4.0-4.0-1.6","spark_pilot_norest","10045","2","21","Male","","","","","","","null","<div style=""font-size:60px;"">+</div>","null","fixation","","","","","","","","","13","","",""
"revaluation","232","938369","0.0-4.0-4.0-0.7","spark_pilot_norest","10045","2","21","Male","","false","","","","","[390.69999998807907]","./assets/img/ocean/animals/octopus.jpg","[""ArrowLeft""]","revaluation","ocean","27","{""ArrowUp,ArrowLeft"":27,""ArrowUp,ArrowRight"":15,""ArrowDown,ArrowLeft"":21,""ArrowDown,ArrowRight"":7}","true","ArrowUp,ArrowLeft","","revaluation","1","14","","",""
"html-keyboard-response","233","938870","0.0-4.0-4.0-1.7","spark_pilot_norest","10045","2","21","Male","","","","","","","null","<div style=""font-size:60px;"">+</div>","null","fixation","","","","","","","","","15","","",""
"revaluation","234","942872","0.0-4.0-4.0-0.8","spark_pilot_norest","10045","2","21","Male","","false","","","","","[455.19999998807907]","./assets/img/ocean/animals/octopus.jpg","[""ArrowLeft""]","revaluation","ocean","27","{""ArrowUp,ArrowLeft"":27,""ArrowUp,ArrowRight"":15,""ArrowDown,ArrowLeft"":21,""ArrowDown,ArrowRight"":7}","true","ArrowUp,ArrowLeft","","revaluation","1","16","","",""
"html-keyboard-response","235","943374","0.0-4.0-4.0-1.8","spark_pilot_norest","10045","2","21","Male","","","","","","","null","<div style=""font-size:60px;"">+</div>","null","fixation","","","","","","","","","17","","",""
"revaluation","236","947376","0.0-4.0-4.0-0.9","spark_pilot_norest","10045","2","21","Male","","false","","","","","[293.5]","./assets/img/ocean/animals/octopus.jpg","[""ArrowLeft""]","revaluation","ocean","27","{""ArrowUp,ArrowLeft"":27,""ArrowUp,ArrowRight"":15,""ArrowDown,ArrowLeft"":21,""ArrowDown,ArrowRight"":7}","true","ArrowUp,ArrowLeft","","revaluation","1","18","","",""
"html-keyboard-response","237","947878","0.0-4.0-4.0-1.9","spark_pilot_norest","10045","2","21","Male","","","","","","","null","<div style=""font-size:60px;"">+</div>","null","fixation","","","","","","","","","19","","",""
"revaluation","238","951880","0.0-4.0-4.0-0.10","spark_pilot_norest","10045","2","21","Male","","false","","","","","[373.4000000357628]","./assets/img/ocean/animals/seahorse.jpg","[""ArrowLeft""]","revaluation","ocean","21","{""ArrowUp,ArrowLeft"":27,""ArrowUp,ArrowRight"":15,""ArrowDown,ArrowLeft"":21,""ArrowDown,ArrowRight"":7}","true","ArrowDown,ArrowLeft","","revaluation","1","20","","",""
"html-keyboard-response","239","952381","0.0-4.0-4.0-1.10","spark_pilot_norest","10045","2","21","Male","","","","","","","null","<div style=""font-size:60px;"">+</div>","null","fixation","","","","","","","","","21","","",""
"revaluation","240","956383","0.0-4.0-4.0-0.11","spark_pilot_norest","10045","2","21","Male","","false","","","","","[417.9000000357628]","./assets/img/ocean/animals/seahorse.jpg","[""ArrowLeft""]","revaluation","ocean","21","{""ArrowUp,ArrowLeft"":27,""ArrowUp,ArrowRight"":15,""ArrowDown,ArrowLeft"":21,""ArrowDown,ArrowRight"":7}","true","ArrowDown,ArrowLeft","","revaluation","1","22","","",""
"html-keyboard-response","241","956884","0.0-4.0-4.0-1.11","spark_pilot_norest","10045","2","21","Male","","","","","","","null","<div style=""font-size:60px;"">+</div>","null","fixation","","","","","","","","","23","","",""
"revaluation","242","960886","0.0-4.0-4.0-0.12","spark_pilot_norest","10045","2","21","Male","","false","","","","","[607.8999999761581]","./assets/img/ocean/animals/octopus.jpg","[""ArrowLeft""]","revaluation","ocean","27","{""ArrowUp,ArrowLeft"":27,""ArrowUp,ArrowRight"":15,""ArrowDown,ArrowLeft"":21,""ArrowDown,ArrowRight"":7}","true","ArrowUp,ArrowLeft","","revaluation","1","24","","",""
"html-keyboard-response","243","961387","0.0-4.0-4.0-1.12","spark_pilot_norest","10045","2","21","Male","","","","","","","null","<div style=""font-size:60px;"">+</div>","null","fixation","","","","","","","","","25","","",""
"revaluation","244","965391","0.0-4.0-4.0-0.13","spark_pilot_norest","10045","2","21","Male","","false","","","","","[464.39999997615814]","./assets/img/ocean/animals/seahorse.jpg","[""ArrowLeft""]","revaluation","ocean","21","{""ArrowUp,ArrowLeft"":27,""ArrowUp,ArrowRight"":15,""ArrowDown,ArrowLeft"":21,""ArrowDown,ArrowRight"":7}","true","ArrowDown,ArrowLeft","","revaluation","1","26","","",""
"html-keyboard-response","245","965892","0.0-4.0-4.0-1.13","spark_pilot_norest","10045","2","21","Male","","","","","","","null","<div style=""font-size:60px;"">+</div>","null","fixation","","","","","","","","","27","","",""
"revaluation","246","969896","0.0-4.0-4.0-0.14","spark_pilot_norest","10045","2","21","Male","","false","","","","","[513.8999999761581]","./assets/img/ocean/animals/octopus.jpg","[""ArrowLeft""]","revaluation","ocean","27","{""ArrowUp,ArrowLeft"":27,""ArrowUp,ArrowRight"":15,""ArrowDown,ArrowLeft"":21,""ArrowDown,ArrowRight"":7}","true","ArrowUp,ArrowLeft","","revaluation","1","28","","",""
"html-keyboard-response","247","970397","0.0-4.0-4.0-1.14","spark_pilot_norest","10045","2","21","Male","","","","","","","null","<div style=""font-size:60px;"">+</div>","null","fixation","","","","","","","","","29","","",""
"revaluation","248","974409","0.0-4.0-4.0-0.15","spark_pilot_norest","10045","2","21","Male","","false","","","","","[515.5]","./assets/img/ocean/animals/seahorse.jpg","[""ArrowLeft""]","revaluation","ocean","21","{""ArrowUp,ArrowLeft"":27,""ArrowUp,ArrowRight"":15,""ArrowDown,ArrowLeft"":21,""ArrowDown,ArrowRight"":7}","true","ArrowDown,ArrowLeft","","revaluation","1","30","","",""
"html-keyboard-response","249","974909","0.0-4.0-4.0-1.15","spark_pilot_norest","10045","2","21","Male","","","","","","","null","<div style=""font-size:60px;"">+</div>","null","fixation","","","","","","","","","31","","",""
"revaluation","250","978911","0.0-4.0-4.0-0.16","spark_pilot_norest","10045","2","21","Male","","false","","","","","[478]","./assets/img/ocean/animals/octopus.jpg","[""ArrowLeft""]","revaluation","ocean","27","{""ArrowUp,ArrowLeft"":27,""ArrowUp,ArrowRight"":15,""ArrowDown,ArrowLeft"":21,""ArrowDown,ArrowRight"":7}","true","ArrowUp,ArrowLeft","","revaluation","1","32","","",""
"html-keyboard-response","251","979412","0.0-4.0-4.0-1.16","spark_pilot_norest","10045","2","21","Male","","","","","","","null","<div style=""font-size:60px;"">+</div>","null","fixation","","","","","","","","","33","","",""
"revaluation","252","983415","0.0-4.0-4.0-0.17","spark_pilot_norest","10045","2","21","Male","","false","","","","","[371.39999997615814]","./assets/img/ocean/animals/seahorse.jpg","[""ArrowLeft""]","revaluation","ocean","21","{""ArrowUp,ArrowLeft"":27,""ArrowUp,ArrowRight"":15,""ArrowDown,ArrowLeft"":21,""ArrowDown,ArrowRight"":7}","true","ArrowDown,ArrowLeft","","revaluation","1","34","","",""
"html-keyboard-response","253","983915","0.0-4.0-4.0-1.17","spark_pilot_norest","10045","2","21","Male","","","","","","","null","<div style=""font-size:60px;"">+</div>","null","fixation","","","","","","","","","35","","",""
"learning-instructions","254","992608","0.0-4.0-5.0-0.0","spark_pilot_norest","10045","2","21","Male","","","","","","","null","<p> You have almost finished this part of the game! </p>
            <p> We are going to ask you to make a few more choices. </p>","","instructions","","","","","","","","","","","",""
"learning-instructions","255","1008580","0.0-4.0-5.0-0.1","spark_pilot_norest","10045","2","21","Male","","","","","","","null","<p> First, you need to decide whether to go up or down. When you see each picture, use the arrow keys to make your choice. </p>
            <p><b>You will not see which animal you found, but try to get to the one that will give you the most treasure.</b></p>","","instructions","","","","","","","","","","","",""
"html-keyboard-response","256","1009581","0.0-4.0-6.0-0.0","spark_pilot_norest","10045","2","21","Male","","","","","","","null","<div style=""font-size:100px;color:red;"">Starting in...</div>","null","","","","","","","","","","","","",""
"html-keyboard-response","257","1010586","0.0-4.0-6.0-1.0","spark_pilot_norest","10045","2","21","Male","","","","","","","null","<div style=""font-size:200px;color:red;"">3</div>","null","","","","","","","","","","","","",""
"html-keyboard-response","258","1011593","0.0-4.0-6.0-2.0","spark_pilot_norest","10045","2","21","Male","","","","","","","null","<div style=""font-size:200px;color:red;"">2</div>","null","","","","","","","","","","","","",""
"html-keyboard-response","259","1012593","0.0-4.0-6.0-3.0","spark_pilot_norest","10045","2","21","Male","","","","","","","null","<div style=""font-size:200px;color:red;"">1</div>","null","","","","","","","","","","","","",""
"revaluation","260","1013902","0.0-4.0-7.0-0.0","spark_pilot_norest","10045","2","21","Male","","false","","","","","[1307.4000000357628]","./assets/img/ocean/test/3.jpg","[""ArrowUp""]","first stage test","ocean","0","{""ArrowUp,ArrowLeft"":27,""ArrowUp,ArrowRight"":15,""ArrowDown,ArrowLeft"":21,""ArrowDown,ArrowRight"":7}","true","ArrowUp","false","revaluation","1","","","",""
"html-keyboard-response","261","1014411","0.0-4.0-7.0-1.0","spark_pilot_norest","10045","2","21","Male","","","","","","","null","<div style=""font-size:60px;"">+</div>","null","fixation","","","","","","","","","","","",""
"revaluation","262","1016211","0.0-4.0-7.0-0.1","spark_pilot_norest","10045","2","21","Male","","false","","","","","[1800]","./assets/img/ocean/test/0.jpg","[""ArrowDown""]","first stage test","ocean","0","{""ArrowUp,ArrowLeft"":27,""ArrowUp,ArrowRight"":15,""ArrowDown,ArrowLeft"":21,""ArrowDown,ArrowRight"":7}","false","ArrowDown","false","revaluation","1","","","",""
"html-keyboard-response","263","1016717","0.0-4.0-7.0-1.1","spark_pilot_norest","10045","2","21","Male","","","","","","","null","<div style=""font-size:60px;"">+</div>","null","fixation","","","","","","","","","","","",""
"revaluation","264","1018159","0.0-4.0-7.0-0.2","spark_pilot_norest","10045","2","21","Male","","false","","","","","[1440.8999999761581]","./assets/img/ocean/test/1.jpg","[""ArrowDown""]","first stage test","ocean","0","{""ArrowUp,ArrowLeft"":27,""ArrowUp,ArrowRight"":15,""ArrowDown,ArrowLeft"":21,""ArrowDown,ArrowRight"":7}","false","ArrowDown","false","revaluation","1","","","",""
"html-keyboard-response","265","1018664","0.0-4.0-7.0-1.2","spark_pilot_norest","10045","2","21","Male","","","","","","","null","<div style=""font-size:60px;"">+</div>","null","fixation","","","","","","","","","","","",""
"revaluation","266","1019957","0.0-4.0-7.0-0.3","spark_pilot_norest","10045","2","21","Male","","false","","","","","[1292.5999999642372]","./assets/img/ocean/test/2.jpg","[""ArrowDown""]","first stage test","ocean","0","{""ArrowUp,ArrowLeft"":27,""ArrowUp,ArrowRight"":15,""ArrowDown,ArrowLeft"":21,""ArrowDown,ArrowRight"":7}","false","ArrowDown","false","revaluation","1","","","",""
"html-keyboard-response","267","1020472","0.0-4.0-7.0-1.3","spark_pilot_norest","10045","2","21","Male","","","","","","","null","<div style=""font-size:60px;"">+</div>","null","fixation","","","","","","","","","","","",""
"learning-instructions","268","1033818","0.0-4.0-8.0-0.0","spark_pilot_norest","10045","2","21","Male","","","","","","","null","<p> Now you will see the animals again and can search their chests for treasure. </p>
            <p> This time, you will not see how much treasure you earned, but you will earn more bonus money for making better choices. </p>","","instructions","","","","","","","","","","","",""
"html-keyboard-response","269","1034822","0.0-4.0-9.0-0.0","spark_pilot_norest","10045","2","21","Male","","","","","","","null","<div style=""font-size:100px;color:red;"">Starting in...</div>","null","","","","","","","","","","","","",""
"html-keyboard-response","270","1035826","0.0-4.0-9.0-1.0","spark_pilot_norest","10045","2","21","Male","","","","","","","null","<div style=""font-size:200px;color:red;"">3</div>","null","","","","","","","","","","","","",""
"html-keyboard-response","271","1036832","0.0-4.0-9.0-2.0","spark_pilot_norest","10045","2","21","Male","","","","","","","null","<div style=""font-size:200px;color:red;"">2</div>","null","","","","","","","","","","","","",""
"html-keyboard-response","272","1037836","0.0-4.0-9.0-3.0","spark_pilot_norest","10045","2","21","Male","","","","","","","null","<div style=""font-size:200px;color:red;"">1</div>","null","","","","","","","","","","","","",""
"revaluation","273","1039369","0.0-4.0-10.0-0.0","spark_pilot_norest","10045","2","21","Male","","false","","","","","[1532.5]","./assets/img/ocean/animals/octopus.jpg","[""ArrowLeft""]","second stage test","ocean","0","{""ArrowUp,ArrowLeft"":27,""ArrowUp,ArrowRight"":15,""ArrowDown,ArrowLeft"":21,""ArrowDown,ArrowRight"":7}","true","ArrowUp,ArrowLeft","","revaluation","1","","","",""
"html-keyboard-response","274","1039876","0.0-4.0-10.0-1.0","spark_pilot_norest","10045","2","21","Male","","","","","","","null","<div style=""font-size:60px;"">+</div>","null","fixation","","","","","","","","","","","",""
"revaluation","275","1041681","0.0-4.0-10.0-0.1","spark_pilot_norest","10045","2","21","Male","","false","","","","","[1804]","./assets/img/ocean/animals/octopus.jpg","[""ArrowRight""]","second stage test","ocean","0","{""ArrowUp,ArrowLeft"":27,""ArrowUp,ArrowRight"":15,""ArrowDown,ArrowLeft"":21,""ArrowDown,ArrowRight"":7}","false","ArrowUp,ArrowRight","","revaluation","1","","","",""
"html-keyboard-response","276","1042196","0.0-4.0-10.0-1.1","spark_pilot_norest","10045","2","21","Male","","","","","","","null","<div style=""font-size:60px;"">+</div>","null","fixation","","","","","","","","","","","",""
"revaluation","277","1043433","0.0-4.0-10.0-0.2","spark_pilot_norest","10045","2","21","Male","","false","","","","","[1235.5]","./assets/img/ocean/animals/octopus.jpg","[""ArrowLeft""]","second stage test","ocean","0","{""ArrowUp,ArrowLeft"":27,""ArrowUp,ArrowRight"":15,""ArrowDown,ArrowLeft"":21,""ArrowDown,ArrowRight"":7}","true","ArrowUp,ArrowLeft","","revaluation","1","","","",""
"html-keyboard-response","278","1043938","0.0-4.0-10.0-1.2","spark_pilot_norest","10045","2","21","Male","","","","","","","null","<div style=""font-size:60px;"">+</div>","null","fixation","","","","","","","","","","","",""
"revaluation","279","1045152","0.0-4.0-10.0-0.3","spark_pilot_norest","10045","2","21","Male","","false","","","","","[1213.3999999761581]","./assets/img/ocean/animals/octopus.jpg","[""ArrowRight""]","second stage test","ocean","0","{""ArrowUp,ArrowLeft"":27,""ArrowUp,ArrowRight"":15,""ArrowDown,ArrowLeft"":21,""ArrowDown,ArrowRight"":7}","false","ArrowUp,ArrowRight","","revaluation","1","","","",""
"html-keyboard-response","280","1045665","0.0-4.0-10.0-1.3","spark_pilot_norest","10045","2","21","Male","","","","","","","null","<div style=""font-size:60px;"">+</div>","null","fixation","","","","","","","","","","","",""
"revaluation","281","1046790","0.0-4.0-10.0-0.4","spark_pilot_norest","10045","2","21","Male","","false","","","","","[1125]","./assets/img/ocean/animals/seahorse.jpg","[""ArrowLeft""]","second stage test","ocean","0","{""ArrowUp,ArrowLeft"":27,""ArrowUp,ArrowRight"":15,""ArrowDown,ArrowLeft"":21,""ArrowDown,ArrowRight"":7}","true","ArrowDown,ArrowLeft","","revaluation","1","","","",""
"html-keyboard-response","282","1047291","0.0-4.0-10.0-1.4","spark_pilot_norest","10045","2","21","Male","","","","","","","null","<div style=""font-size:60px;"">+</div>","null","fixation","","","","","","","","","","","",""
"revaluation","283","1048491","0.0-4.0-10.0-0.5","spark_pilot_norest","10045","2","21","Male","","false","","","","","[1199.5]","./assets/img/ocean/animals/seahorse.jpg","[""ArrowRight""]","second stage test","ocean","0","{""ArrowUp,ArrowLeft"":27,""ArrowUp,ArrowRight"":15,""ArrowDown,ArrowLeft"":21,""ArrowDown,ArrowRight"":7}","false","ArrowDown,ArrowRight","","revaluation","1","","","",""
"html-keyboard-response","284","1049007","0.0-4.0-10.0-1.5","spark_pilot_norest","10045","2","21","Male","","","","","","","null","<div style=""font-size:60px;"">+</div>","null","fixation","","","","","","","","","","","",""
"revaluation","285","1049992","0.0-4.0-10.0-0.6","spark_pilot_norest","10045","2","21","Male","","false","","","","","[984.8000000119209]","./assets/img/ocean/animals/seahorse.jpg","[""ArrowLeft""]","second stage test","ocean","0","{""ArrowUp,ArrowLeft"":27,""ArrowUp,ArrowRight"":15,""ArrowDown,ArrowLeft"":21,""ArrowDown,ArrowRight"":7}","true","ArrowDown,ArrowLeft","","revaluation","1","","","",""
"html-keyboard-response","286","1050507","0.0-4.0-10.0-1.6","spark_pilot_norest","10045","2","21","Male","","","","","","","null","<div style=""font-size:60px;"">+</div>","null","fixation","","","","","","","","","","","",""
"revaluation","287","1051406","0.0-4.0-10.0-0.7","spark_pilot_norest","10045","2","21","Male","","false","","","","","[898.6000000238419]","./assets/img/ocean/animals/seahorse.jpg","[""ArrowRight""]","second stage test","ocean","0","{""ArrowUp,ArrowLeft"":27,""ArrowUp,ArrowRight"":15,""ArrowDown,ArrowLeft"":21,""ArrowDown,ArrowRight"":7}","false","ArrowDown,ArrowRight","","revaluation","1","","","",""
"html-keyboard-response","288","1051915","0.0-4.0-10.0-1.7","spark_pilot_norest","10045","2","21","Male","","","","","","","null","<div style=""font-size:60px;"">+</div>","null","fixation","","","","","","","","","","","",""
"learning-instructions","289","1058258","0.0-4.0-0.1-0.2","spark_pilot_norest","10045","2","21","Male","","","","","","","3578.600000023842","<p> This time you are searching for treasure in the <b>canyon</b>.</p>","","instructions","","","","","","","","","","","",""
"learning-instructions","290","1078650","0.0-4.0-0.1-0.3","spark_pilot_norest","10045","2","21","Male","","","","","","","3150.399999976158","<p><b>New</b> animals with <b>new</b> treasure chests live here. You need to explore to discover where the animal with the best treasure chest is.</p>
                    <p> Like before, once you figure out which animal has the chest with the most treasure, you should try to get to that animal and select that chest! </p>","","instructions","","","","","","","","","","","",""
"learning-instructions","291","1095203","0.0-4.0-1.1-0.1","spark_pilot_norest","10045","2","21","Male","","","","","","","1824.5","<p> Remember, when you see a picture of the place, use the up and down keys to <b>find an animal</b>.</p>
            <p> When you encounter an animal, you should use the left and right keys to <b>select a treasure chest</b>.</p>
            <p> Don't forget to look out for the robber! </p>","","instructions","","","","","","","","","","","",""
"revaluation","292","1101217","0.0-4.0-2.1-0.50","spark_pilot_norest","10045","2","21","Male","","false","","","","","[1158.1000000238419,741.3000000119209]","./assets/img/canyon/memory/33.jpg","[""ArrowUp"",""ArrowRight""]","value training","canyon","10","{""ArrowUp,ArrowLeft"":26,""ArrowUp,ArrowRight"":10,""ArrowDown,ArrowLeft"":5,""ArrowDown,ArrowRight"":17}","false","ArrowUp,ArrowRight","false","original","2","0","","",""
"html-keyboard-response","293","1101727","0.0-4.0-2.1-1.50","spark_pilot_norest","10045","2","21","Male","","","","","","","null","<div style=""font-size:60px;"">+</div>","null","fixation","","","","","","","","","1","","",""
"revaluation","294","1107735","0.0-4.0-2.1-0.51","spark_pilot_norest","10045","2","21","Male","","false","","","","","[873.9000000357628,292.69999998807907]","./assets/img/canyon/memory/0.jpg","[""ArrowUp"",""ArrowLeft""]","value training","canyon","26","{""ArrowUp,ArrowLeft"":26,""ArrowUp,ArrowRight"":10,""ArrowDown,ArrowLeft"":5,""ArrowDown,ArrowRight"":17}","true","ArrowUp,ArrowLeft","false","original","2","2","","",""
"html-keyboard-response","295","1108248","0.0-4.0-2.1-1.51","spark_pilot_norest","10045","2","21","Male","","","","","","","null","<div style=""font-size:60px;"">+</div>","null","fixation","","","","","","","","","3","","",""
"revaluation","296","1114277","0.0-4.0-2.1-0.52","spark_pilot_norest","10045","2","21","Male","","false","","","","","[490,368.69999998807907]","./assets/img/canyon/memory/0.jpg","[""ArrowDown"",""ArrowRight""]","value training","canyon","17","{""ArrowUp,ArrowLeft"":26,""ArrowUp,ArrowRight"":10,""ArrowDown,ArrowLeft"":5,""ArrowDown,ArrowRight"":17}","false","ArrowDown,ArrowRight","false","original","2","4","","",""
"html-keyboard-response","297","1114791","0.0-4.0-2.1-1.52","spark_pilot_norest","10045","2","21","Male","","","","","","","null","<div style=""font-size:60px;"">+</div>","null","fixation","","","","","","","","","5","","",""
"revaluation","298","1120808","0.0-4.0-2.1-0.53","spark_pilot_norest","10045","2","21","Male","","false","","","","","[757.5,568.3000000119209]","./assets/img/canyon/memory/17.jpg","[""ArrowDown"",""ArrowLeft""]","value training","canyon","5","{""ArrowUp,ArrowLeft"":26,""ArrowUp,ArrowRight"":10,""ArrowDown,ArrowLeft"":5,""ArrowDown,ArrowRight"":17}","false","ArrowDown,ArrowLeft","false","original","2","6","","",""
"html-keyboard-response","299","1121315","0.0-4.0-2.1-1.53","spark_pilot_norest","10045","2","21","Male","","","","","","","null","<div style=""font-size:60px;"">+</div>","null","fixation","","","","","","","","","7","","",""
"revaluation","300","1125325","0.0-4.0-2.1-0.54","spark_pilot_norest","10045","2","21","Male","","false","","","","","[1153.6000000238419]","./assets/img/canyon/catch/5.jpg","[""spaceBar""]","value training","canyon","0","{""ArrowUp,ArrowLeft"":26,""ArrowUp,ArrowRight"":10,""ArrowDown,ArrowLeft"":5,""ArrowDown,ArrowRight"":17}","true","spaceBar","true","original","2","8","","",""
"html-keyboard-response","301","1125826","0.0-4.0-2.1-1.54","spark_pilot_norest","10045","2","21","Male","","","","","","","null","<div style=""font-size:60px;"">+</div>","null","fixation","","","","","","","","","9","","",""
"revaluation","302","1131829","0.0-4.0-2.1-0.55","spark_pilot_norest","10045","2","21","Male","","false","","","","","[739.6999999880791,510.89999997615814]","./assets/img/canyon/memory/29.jpg","[""ArrowUp"",""ArrowLeft""]","value training","canyon","26","{""ArrowUp,ArrowLeft"":26,""ArrowUp,ArrowRight"":10,""ArrowDown,ArrowLeft"":5,""ArrowDown,ArrowRight"":17}","true","ArrowUp,ArrowLeft","false","original","2","10","","",""
"html-keyboard-response","303","1132330","0.0-4.0-2.1-1.55","spark_pilot_norest","10045","2","21","Male","","","","","","","null","<div style=""font-size:60px;"">+</div>","null","fixation","","","","","","","","","11","","",""
"revaluation","304","1138332","0.0-4.0-2.1-0.56","spark_pilot_norest","10045","2","21","Male","","false","","","","","[687.8999999761581,367.19999998807907]","./assets/img/canyon/memory/12.jpg","[""ArrowUp"",""ArrowLeft""]","value training","canyon","26","{""ArrowUp,ArrowLeft"":26,""ArrowUp,ArrowRight"":10,""ArrowDown,ArrowLeft"":5,""ArrowDown,ArrowRight"":17}","true","ArrowUp,ArrowLeft","false","original","2","12","","",""
"html-keyboard-response","305","1138833","0.0-4.0-2.1-1.56","spark_pilot_norest","10045","2","21","Male","","","","","","","null","<div style=""font-size:60px;"">+</div>","null","fixation","","","","","","","","","13","","",""
"revaluation","306","1144837","0.0-4.0-2.1-0.57","spark_pilot_norest","10045","2","21","Male","","false","","","","","[920.1999999880791,431.30000001192093]","./assets/img/canyon/memory/1.jpg","[""ArrowUp"",""ArrowLeft""]","value training","canyon","26","{""ArrowUp,ArrowLeft"":26,""ArrowUp,ArrowRight"":10,""ArrowDown,ArrowLeft"":5,""ArrowDown,ArrowRight"":17}","true","ArrowUp,ArrowLeft","false","original","2","14","","",""
"html-keyboard-response","307","1145339","0.0-4.0-2.1-1.57","spark_pilot_norest","10045","2","21","Male","","","","","","","null","<div style=""font-size:60px;"">+</div>","null","fixation","","","","","","","","","15","","",""
"revaluation","308","1151343","0.0-4.0-2.1-0.58","spark_pilot_norest","10045","2","21","Male","","false","","","","","[972.5,460.30000001192093]","./assets/img/canyon/memory/14.jpg","[""ArrowUp"",""ArrowLeft""]","value training","canyon","26","{""ArrowUp,ArrowLeft"":26,""ArrowUp,ArrowRight"":10,""ArrowDown,ArrowLeft"":5,""ArrowDown,ArrowRight"":17}","true","ArrowUp,ArrowLeft","false","original","2","16","","",""
"html-keyboard-response","309","1151845","0.0-4.0-2.1-1.58","spark_pilot_norest","10045","2","21","Male","","","","","","","null","<div style=""font-size:60px;"">+</div>","null","fixation","","","","","","","","","17","","",""
"revaluation","310","1157849","0.0-4.0-2.1-0.59","spark_pilot_norest","10045","2","21","Male","","false","","","","","[910.5,432.4000000357628]","./assets/img/canyon/memory/30.jpg","[""ArrowUp"",""ArrowLeft""]","value training","canyon","26","{""ArrowUp,ArrowLeft"":26,""ArrowUp,ArrowRight"":10,""ArrowDown,ArrowLeft"":5,""ArrowDown,ArrowRight"":17}","true","ArrowUp,ArrowLeft","false","original","2","18","","",""
"html-keyboard-response","311","1158350","0.0-4.0-2.1-1.59","spark_pilot_norest","10045","2","21","Male","","","","","","","null","<div style=""font-size:60px;"">+</div>","null","fixation","","","","","","","","","19","","",""
