"trial_type","trial_index","time_elapsed","internal_node_id","task_version","subject_id","assigned_condition","age","gender","browser_interaction","success","timeout","failed_images","failed_audio","failed_video","rt","stimulus","response","task_part","environment","score","rewardMap","correct","fullState","isCatch","condition","order","trial_num","key_press","ground_truth","bonus"
"pavlovia","0","1179","0.0-0.0","spark_pilot_norest","8771","6","22","Female","[{""event"":""blur"",""trial"":1,""time"":13843},{""event"":""focus"",""trial"":1,""time"":16927},{""event"":""fullscreenenter"",""trial"":2,""time"":39096}]","","","","","","","","","","","","","","","","","","","","",""
"preload","1","31186","0.0-1.0","spark_pilot_norest","8771","6","22","Female","[{""event"":""blur"",""trial"":1,""time"":13843},{""event"":""focus"",""trial"":1,""time"":16927},{""event"":""fullscreenenter"",""trial"":2,""time"":39096}]","true","false","[]","[]","[]","","","","","","","","","","","","","","","",""
"fullscreen","2","40047","0.0-2.0","spark_pilot_norest","8771","6","22","Female","","true","","","","","","","","","","","","","","","","","","","",""
"audio-button-response","3","43948","0.0-3.0-0.0-0.0","spark_pilot_norest","8771","6","22","Female","","","","","","","3171","./assets/audio/audiotest/turtle.mp3","4","audio_test","","","","","","","","","","","",""
"audio-button-response","4","45942","0.0-3.0-0.1-0.1","spark_pilot_norest","8771","6","22","Female","","","","","","","1000","./assets/audio/audiotest/turtle.mp3","2","audio_test","","","","","","","","","","","",""
"learning-instructions","5","54479","0.0-3.0-1.0-0.0","spark_pilot_norest","8771","6","22","Female","","","","","","","1525.5","<p> Welcome! Please remember to stay in fullscreen mode and don't click away from the experiment. </p>","","instructions","","","","","","","","","","","",""
"learning-instructions","6","64361","0.0-3.0-1.0-0.1","spark_pilot_norest","8771","6","22","Female","","","","","","","1457.1000000238419","<p> Today you will be playing a game to earn treasure. </p>
            <p> At the end of the experiment, you will earn a bonus based on how much treasure you find. </p>
            <img src='./assets/img/instructions/treasure.jpg' class='instructions-image'>","","instructions","","","","","","","","","","","",""
"learning-instructions","7","73891","0.0-3.0-1.0-0.2","spark_pilot_norest","8771","6","22","Female","","","","","","","1257.7999999523163","<p> Animals have hidden treasure in treasure chests. </p>
            <p> You need to first find an animal and then choose which of their treasure chests to search. </p>
            <img src='./assets/img/space/animals/cat.jpg' class='instructions-image'>","","instructions","","","","","","","","","","","",""
"learning-instructions","8","91188","0.0-3.0-1.0-0.3","spark_pilot_norest","8771","6","22","Female","","","","","","","4124","<p> In each round, you will search for treasure in a different place. In the real game, there will be two rounds. </p>
            <p> You will begin with a separate, practice round where you will search for treasure in outer space. </p>
            <img src='./assets/img/space/0.jpg' class='instructions-image'>","","instructions","","","","","","","","","","","",""
"learning-instructions","9","103139","0.0-3.0-1.0-0.4","spark_pilot_norest","8771","6","22","Female","","","","","","","474.40000009536743","<p> On every turn, you will see a picture of the place that you are in, but the specific image may be different each time. </p>
            <p> For example, both of these images mean you are in outer space. </p>
            <img src='./assets/img/instructions/outerspace.jpg' class='instructions-image'>","","instructions","","","","","","","","","","","",""
"learning-instructions","10","111516","0.0-3.0-1.0-0.5","spark_pilot_norest","8771","6","22","Female","","","","","","","534.6000000238419","<p> You need to decide which direction to travel in. </p>
            <p> You can choose between going <b>up or down</b> by using the arrow keys. </p>
            <img src='./assets/img/instructions/updown.jpg' class='instructions-image'>","","instructions","","","","","","","","","","","",""
"learning-instructions","11","121249","0.0-3.0-1.0-0.6","spark_pilot_norest","8771","6","22","Female","","","","","","","908.1000000238419","<p> You will have <b>2 seconds</b> to make your choice. </p>
            <p> If you do not make a choice within 2 seconds, you will not find an animal or earn treasure. </p>
            <img src='./assets/img/instructions/2seconds.jpg' class='instructions-image'>","","instructions","","","","","","","","","","","",""
"learning-instructions","12","128837","0.0-3.0-1.0-0.7","spark_pilot_norest","8771","6","22","Female","","","","","","","547","<p> Let’s try practicing that now! </p>
            <p> When you see a picture of the place you are in, press the <b>up</b> key to travel up. </p>
            <img src='./assets/img/instructions/pressUp.jpg' class='instructions-image'>","","instructions","","","","","","","","","","","",""
"revaluation","13","132869","0.0-3.0-2.0-0.0","spark_pilot_norest","8771","6","22","Female","","","false","","","","[648]","./assets/img/space/0.jpg","[""ArrowUp""]","first stage practice","space","0","null","null","ArrowUp","false","","","","","",""
"html-keyboard-response","14","133372","0.0-3.0-2.0-1.0","spark_pilot_norest","8771","6","22","Female","","","","","","","null","<div style=""font-size:60px;"">+</div>","null","fixation","","","","","","","","","","","",""
"revaluation","15","137386","0.0-3.0-2.0-0.1","spark_pilot_norest","8771","6","22","Female","","","false","","","","[1174.6000000238419]","./assets/img/space/1.jpg","[""ArrowUp""]","first stage practice","space","0","null","null","ArrowUp","false","","","","","",""
"html-keyboard-response","16","137902","0.0-3.0-2.0-1.1","spark_pilot_norest","8771","6","22","Female","","","","","","","null","<div style=""font-size:60px;"">+</div>","null","fixation","","","","","","","","","","","",""
"revaluation","17","141936","0.0-3.0-2.0-0.2","spark_pilot_norest","8771","6","22","Female","","","false","","","","[451.40000009536743]","./assets/img/space/2.jpg","[""ArrowUp""]","first stage practice","space","0","null","null","ArrowUp","false","","","","","",""
"html-keyboard-response","18","142438","0.0-3.0-2.0-1.2","spark_pilot_norest","8771","6","22","Female","","","","","","","null","<div style=""font-size:60px;"">+</div>","null","fixation","","","","","","","","","","","",""
"learning-instructions","19","148413","0.0-3.0-3.0-0.0","spark_pilot_norest","8771","6","22","Female","","","","","","","1250.2000000476837","<p> Great job! Now try pressing the <b>down</b> key to travel down. </p>
            <img src='./assets/img/instructions/pressDown.jpg' class='instructions-image'>","","instructions","","","","","","","","","","","",""
"revaluation","20","152431","0.0-3.0-4.0-0.0","spark_pilot_norest","8771","6","22","Female","","","false","","","","[534.2000000476837]","./assets/img/space/3.jpg","[""ArrowDown""]","first stage practice","space","0","null","null","ArrowDown","false","","","","","",""
"html-keyboard-response","21","152947","0.0-3.0-4.0-1.0","spark_pilot_norest","8771","6","22","Female","","","","","","","null","<div style=""font-size:60px;"">+</div>","null","fixation","","","","","","","","","","","",""
"revaluation","22","156975","0.0-3.0-4.0-0.1","spark_pilot_norest","8771","6","22","Female","","","false","","","","[536.2000000476837]","./assets/img/space/4.jpg","[""ArrowDown""]","first stage practice","space","0","null","null","ArrowDown","false","","","","","",""
"html-keyboard-response","23","157478","0.0-3.0-4.0-1.1","spark_pilot_norest","8771","6","22","Female","","","","","","","null","<div style=""font-size:60px;"">+</div>","null","fixation","","","","","","","","","","","",""
"revaluation","24","161493","0.0-3.0-4.0-0.2","spark_pilot_norest","8771","6","22","Female","","","false","","","","[563.3999999761581]","./assets/img/space/5.jpg","[""ArrowDown""]","first stage practice","space","0","null","null","ArrowDown","false","","","","","",""
"html-keyboard-response","25","161998","0.0-3.0-4.0-1.2","spark_pilot_norest","8771","6","22","Female","","","","","","","null","<div style=""font-size:60px;"">+</div>","null","fixation","","","","","","","","","","","",""
"learning-instructions","26","173603","0.0-3.0-5.0-0.0","spark_pilot_norest","8771","6","22","Female","","","","","","","1670.1000000238419","<p> The animals don’t move, so the animal in the upper part of a place will stay in the upper part of a place, and the animal in the lower part of a place will stay in the lower part of a place. </p>","","instructions","","","","","","","","","","","",""
"learning-instructions","27","183344","0.0-3.0-5.0-0.1","spark_pilot_norest","8771","6","22","Female","","","","","","","600.8999999761581","<p> Each animal has two treasure chests for you to choose from. </p>
            <p> The amount of treasure in each chest can range from <b> 0 to 40 pieces.</b></p>","","instructions","","","","","","","","","","","",""
"learning-instructions","28","195004","0.0-3.0-5.0-0.2","spark_pilot_norest","8771","6","22","Female","","","","","","","451.40000009536743","<p> You should decide which chest to search for treasure by using the <b>left</b> and <b>right</b> arrow keys. </p>
            <p><b> Pay attention to which animal is on the screen, as the animals have different treasure chests. </b></p>
            <img src='./assets/img/instructions/leftright.jpg' class='instructions-image'>","","instructions","","","","","","","","","","","",""
"learning-instructions","29","202116","0.0-3.0-5.0-0.3","spark_pilot_norest","8771","6","22","Female","","","","","","","732.5","<p> Let’s try practicing that now. </p>
            <p> When you see an animal, choose which chest to search for treasure. </p>
            <img src='./assets/img/instructions/chooseChest.jpg' class='instructions-image'>","","instructions","","","","","","","","","","","",""
"revaluation","30","206134","0.0-3.0-6.0-0.0","spark_pilot_norest","8771","6","22","Female","","","false","","","","[677.4000000953674]","./assets/img/space/animals/cat.jpg","[""ArrowRight""]","second stage practice","space","36","{""ArrowUp,ArrowLeft"":3,""ArrowUp,ArrowRight"":36,""ArrowDown,ArrowLeft"":15,""ArrowDown,ArrowRight"":23}","true","ArrowUp,ArrowRight","","","","","","",""
"html-keyboard-response","31","206651","0.0-3.0-6.0-1.0","spark_pilot_norest","8771","6","22","Female","","","","","","","null","<div style=""font-size:60px;"">+</div>","null","fixation","","","","","","","","","","","",""
"revaluation","32","210671","0.0-3.0-6.0-0.1","spark_pilot_norest","8771","6","22","Female","","","false","","","","[751.7000000476837]","./assets/img/space/animals/rabbit.jpg","[""ArrowLeft""]","second stage practice","space","15","{""ArrowUp,ArrowLeft"":3,""ArrowUp,ArrowRight"":36,""ArrowDown,ArrowLeft"":15,""ArrowDown,ArrowRight"":23}","false","ArrowDown,ArrowLeft","","","","","","",""
"html-keyboard-response","33","211174","0.0-3.0-6.0-1.1","spark_pilot_norest","8771","6","22","Female","","","","","","","null","<div style=""font-size:60px;"">+</div>","null","fixation","","","","","","","","","","","",""
"revaluation","34","215202","0.0-3.0-6.0-0.2","spark_pilot_norest","8771","6","22","Female","","","false","","","","[806.0999999046326]","./assets/img/space/animals/rabbit.jpg","[""ArrowRight""]","second stage practice","space","23","{""ArrowUp,ArrowLeft"":3,""ArrowUp,ArrowRight"":36,""ArrowDown,ArrowLeft"":15,""ArrowDown,ArrowRight"":23}","true","ArrowDown,ArrowRight","","","","","","",""
"html-keyboard-response","35","215704","0.0-3.0-6.0-1.2","spark_pilot_norest","8771","6","22","Female","","","","","","","null","<div style=""font-size:60px;"">+</div>","null","fixation","","","","","","","","","","","",""
"revaluation","36","219712","0.0-3.0-6.0-0.3","spark_pilot_norest","8771","6","22","Female","","","false","","","","[1089.6000000238419]","./assets/img/space/animals/cat.jpg","[""ArrowLeft""]","second stage practice","space","3","{""ArrowUp,ArrowLeft"":3,""ArrowUp,ArrowRight"":36,""ArrowDown,ArrowLeft"":15,""ArrowDown,ArrowRight"":23}","false","ArrowUp,ArrowLeft","","","","","","",""
"html-keyboard-response","37","220214","0.0-3.0-6.0-1.3","spark_pilot_norest","8771","6","22","Female","","","","","","","null","<div style=""font-size:60px;"">+</div>","null","fixation","","","","","","","","","","","",""
"learning-instructions","38","237530","0.0-3.0-7.0-0.0","spark_pilot_norest","8771","6","22","Female","","","","","","","417.1999999284744","<p> Great job. Now let’s try putting it together. </p>
            <p> On each turn, you will first see a picture to remind you of the place you are in, and you need to choose whether to go up or down. </p>
            <p> Then you will see an animal and choose which of its chests to search for treasure. </p>","","instructions","","","","","","","","","","","",""
"learning-instructions","39","246126","0.0-3.0-7.0-0.1","spark_pilot_norest","8771","6","22","Female","","","","","","","313.2000000476837","<p> When you choose whether to go up or down, try to go to the animal with the chest with the most treasure. </p>
            <p> Try practicing that now! </p>","","instructions","","","","","","","","","","","",""
"revaluation","40","252150","0.0-3.0-8.0-0.0","spark_pilot_norest","8771","6","22","Female","","","false","","","","[844.2000000476837,852.6999999284744]","./assets/img/space/6.jpg","[""ArrowUp"",""ArrowRight""]","full practice","space","36","{""ArrowUp,ArrowLeft"":3,""ArrowUp,ArrowRight"":36,""ArrowDown,ArrowLeft"":15,""ArrowDown,ArrowRight"":23}","true","ArrowUp,ArrowRight","false","","","","","",""
"html-keyboard-response","41","252666","0.0-3.0-8.0-1.0","spark_pilot_norest","8771","6","22","Female","","","","","","","null","<div style=""font-size:60px;"">+</div>","null","fixation","","","","","","","","","","","",""
"revaluation","42","258707","0.0-3.0-8.0-0.1","spark_pilot_norest","8771","6","22","Female","","","false","","","","[1362.5,620.6000000238419]","./assets/img/space/7.jpg","[""ArrowUp"",""ArrowRight""]","full practice","space","36","{""ArrowUp,ArrowLeft"":3,""ArrowUp,ArrowRight"":36,""ArrowDown,ArrowLeft"":15,""ArrowDown,ArrowRight"":23}","true","ArrowUp,ArrowRight","false","","","","","",""
"html-keyboard-response","43","259210","0.0-3.0-8.0-1.1","spark_pilot_norest","8771","6","22","Female","","","","","","","null","<div style=""font-size:60px;"">+</div>","null","fixation","","","","","","","","","","","",""
"revaluation","44","265242","0.0-3.0-8.0-0.2","spark_pilot_norest","8771","6","22","Female","","","false","","","","[1104.2000000476837,417.7999999523163]","./assets/img/space/8.jpg","[""ArrowDown"",""ArrowLeft""]","full practice","space","15","{""ArrowUp,ArrowLeft"":3,""ArrowUp,ArrowRight"":36,""ArrowDown,ArrowLeft"":15,""ArrowDown,ArrowRight"":23}","false","ArrowDown,ArrowLeft","false","","","","","",""
"html-keyboard-response","45","265744","0.0-3.0-8.0-1.2","spark_pilot_norest","8771","6","22","Female","","","","","","","null","<div style=""font-size:60px;"">+</div>","null","fixation","","","","","","","","","","","",""
"revaluation","46","271780","0.0-3.0-8.0-0.3","spark_pilot_norest","8771","6","22","Female","","","true","","","","[801]","./assets/img/space/9.jpg","[""ArrowDown""]","full practice","space","-5","{""ArrowUp,ArrowLeft"":3,""ArrowUp,ArrowRight"":36,""ArrowDown,ArrowLeft"":15,""ArrowDown,ArrowRight"":23}","false","ArrowDown","false","","","","","",""
"html-keyboard-response","47","272290","0.0-3.0-8.0-1.3","spark_pilot_norest","8771","6","22","Female","","","","","","","null","<div style=""font-size:60px;"">+</div>","null","fixation","","","","","","","","","","","",""
"revaluation","48","278311","0.0-3.0-8.0-0.4","spark_pilot_norest","8771","6","22","Female","","","false","","","","[742.2999999523163,854.5]","./assets/img/space/10.jpg","[""ArrowDown"",""ArrowLeft""]","full practice","space","15","{""ArrowUp,ArrowLeft"":3,""ArrowUp,ArrowRight"":36,""ArrowDown,ArrowLeft"":15,""ArrowDown,ArrowRight"":23}","false","ArrowDown,ArrowLeft","false","","","","","",""
"html-keyboard-response","49","278813","0.0-3.0-8.0-1.4","spark_pilot_norest","8771","6","22","Female","","","","","","","null","<div style=""font-size:60px;"">+</div>","null","fixation","","","","","","","","","","","",""
"learning-instructions","50","290354","0.0-3.0-9.0-0.0","spark_pilot_norest","8771","6","22","Female","","","","","","","1145.5","<p> One last thing: sometimes, you will see a robber. The robber can be anywhere in the picture. </p>
            <p> If you do not stop them, you will lose treasure. </p>
            <img src='./assets/img/instructions/robber.jpg' class='instructions-image'>","","instructions","","","","","","","","","","","",""
"learning-instructions","51","298452","0.0-3.0-9.0-0.1","spark_pilot_norest","8771","6","22","Female","","","","","","","923.7000000476837","<p> If you see the robber, you should <b>press the space bar</b> rather than using the arrow keys. </p>
            <p> Try practicing that now! </p>","","instructions","","","","","","","","","","","",""
"revaluation","52","302472","0.0-3.0-10.0-0.0","spark_pilot_norest","8771","6","22","Female","","","false","","","","[1325.3999999761581]","./assets/img/space/catch/0.jpg","[""spaceBar""]","catch practice","space","0","{""ArrowUp,ArrowLeft"":3,""ArrowUp,ArrowRight"":36,""ArrowDown,ArrowLeft"":15,""ArrowDown,ArrowRight"":23}","true","spaceBar","true","","","","","",""
"html-keyboard-response","53","302988","0.0-3.0-10.0-1.0","spark_pilot_norest","8771","6","22","Female","","","","","","","null","<div style=""font-size:60px;"">+</div>","null","fixation","","","","","","","","","","","",""
"revaluation","54","307012","0.0-3.0-10.0-0.1","spark_pilot_norest","8771","6","22","Female","","","false","","","","[670.1000000238419]","./assets/img/space/catch/1.jpg","[""spaceBar""]","catch practice","space","0","{""ArrowUp,ArrowLeft"":3,""ArrowUp,ArrowRight"":36,""ArrowDown,ArrowLeft"":15,""ArrowDown,ArrowRight"":23}","true","spaceBar","true","","","","","",""
"html-keyboard-response","55","307514","0.0-3.0-10.0-1.1","spark_pilot_norest","8771","6","22","Female","","","","","","","null","<div style=""font-size:60px;"">+</div>","null","fixation","","","","","","","","","","","",""
"revaluation","56","311534","0.0-3.0-10.0-0.2","spark_pilot_norest","8771","6","22","Female","","","false","","","","[576.3999999761581]","./assets/img/space/catch/2.jpg","[""spaceBar""]","catch practice","space","0","{""ArrowUp,ArrowLeft"":3,""ArrowUp,ArrowRight"":36,""ArrowDown,ArrowLeft"":15,""ArrowDown,ArrowRight"":23}","true","spaceBar","true","","","","","",""
"html-keyboard-response","57","312049","0.0-3.0-10.0-1.2","spark_pilot_norest","8771","6","22","Female","","","","","","","null","<div style=""font-size:60px;"">+</div>","null","fixation","","","","","","","","","","","",""
"learning-instructions","58","319240","0.0-3.0-11.0-0.0-0.0","spark_pilot_norest","8771","6","22","Female","","","","","","","1871.6999999284744","<p> Now, you will practice a shortened version of the game to get a sense of how it all fits together. </p>","","instructions","","","","","","","","","","","",""
"learning-instructions","59","323093","0.0-3.0-11.0-0.0-0.1","spark_pilot_norest","8771","6","22","Female","","","","","","","654.8000000715256","<p>This time you are searching for treasure in outer space.</p>","","instructions","","","","","","","","","","","",""
"learning-instructions","60","338595","0.0-3.0-11.0-1.0-0.0","spark_pilot_norest","8771","6","22","Female","","","","","","","716.7999999523163","<p> Remember, when you see a picture of the place, use the up and down keys to <b>find an animal</b>.</p>
            <p> When you encounter an animal, you should use the left and right keys to <b>select a treasure chest</b>.</p>
            <p> Don't forget to look out for the robber! </p>","","instructions","","","","","","","","","","","",""
"revaluation","61","344617","0.0-3.0-11.0-2.0-0.0","spark_pilot_norest","8771","6","22","Female","","","false","","","","[1243.3999999761581,777.1000000238419]","./assets/img/space/11.jpg","[""ArrowUp"",""ArrowRight""]","practice block","space","36","{""ArrowUp,ArrowLeft"":3,""ArrowUp,ArrowRight"":36,""ArrowDown,ArrowLeft"":15,""ArrowDown,ArrowRight"":23}","true","ArrowUp,ArrowRight","false","","","","","",""
"html-keyboard-response","62","345120","0.0-3.0-11.0-2.0-1.0","spark_pilot_norest","8771","6","22","Female","","","","","","","null","<div style=""font-size:60px;"">+</div>","null","fixation","","","","","","","","","","","",""
"revaluation","63","351147","0.0-3.0-11.0-2.0-0.1","spark_pilot_norest","8771","6","22","Female","","","false","","","","[1329.1000000238419,401.2999999523163]","./assets/img/space/12.jpg","[""ArrowUp"",""ArrowRight""]","practice block","space","36","{""ArrowUp,ArrowLeft"":3,""ArrowUp,ArrowRight"":36,""ArrowDown,ArrowLeft"":15,""ArrowDown,ArrowRight"":23}","true","ArrowUp,ArrowRight","false","","","","","",""
"html-keyboard-response","64","351649","0.0-3.0-11.0-2.0-1.1","spark_pilot_norest","8771","6","22","Female","","","","","","","null","<div style=""font-size:60px;"">+</div>","null","fixation","","","","","","","","","","","",""
"revaluation","65","357674","0.0-3.0-11.0-2.0-0.2","spark_pilot_norest","8771","6","22","Female","","","false","","","","[1233,337]","./assets/img/space/13.jpg","[""ArrowUp"",""ArrowRight""]","practice block","space","36","{""ArrowUp,ArrowLeft"":3,""ArrowUp,ArrowRight"":36,""ArrowDown,ArrowLeft"":15,""ArrowDown,ArrowRight"":23}","true","ArrowUp,ArrowRight","false","","","","","",""
"html-keyboard-response","66","358176","0.0-3.0-11.0-2.0-1.2","spark_pilot_norest","8771","6","22","Female","","","","","","","null","<div style=""font-size:60px;"">+</div>","null","fixation","","","","","","","","","","","",""
"revaluation","67","364210","0.0-3.0-11.0-2.0-0.3","spark_pilot_norest","8771","6","22","Female","","","false","","","","[780.1999999284744,409.7999999523163]","./assets/img/space/14.jpg","[""ArrowDown"",""ArrowRight""]","practice block","space","23","{""ArrowUp,ArrowLeft"":3,""ArrowUp,ArrowRight"":36,""ArrowDown,ArrowLeft"":15,""ArrowDown,ArrowRight"":23}","false","ArrowDown,ArrowRight","false","","","","","",""
"html-keyboard-response","68","364726","0.0-3.0-11.0-2.0-1.3","spark_pilot_norest","8771","6","22","Female","","","","","","","null","<div style=""font-size:60px;"">+</div>","null","fixation","","","","","","","","","","","",""
"revaluation","69","370745","0.0-3.0-11.0-2.0-0.4","spark_pilot_norest","8771","6","22","Female","","","false","","","","[938.1000000238419,421.3000000715256]","./assets/img/space/11.jpg","[""ArrowDown"",""ArrowRight""]","practice block","space","23","{""ArrowUp,ArrowLeft"":3,""ArrowUp,ArrowRight"":36,""ArrowDown,ArrowLeft"":15,""ArrowDown,ArrowRight"":23}","false","ArrowDown,ArrowRight","false","","","","","",""
"html-keyboard-response","70","371247","0.0-3.0-11.0-2.0-1.4","spark_pilot_norest","8771","6","22","Female","","","","","","","null","<div style=""font-size:60px;"">+</div>","null","fixation","","","","","","","","","","","",""
"revaluation","71","377257","0.0-3.0-11.0-2.0-0.5","spark_pilot_norest","8771","6","22","Female","","","false","","","","[1418.2000000476837,892.1000000238419]","./assets/img/space/12.jpg","[""ArrowDown"",""ArrowLeft""]","practice block","space","15","{""ArrowUp,ArrowLeft"":3,""ArrowUp,ArrowRight"":36,""ArrowDown,ArrowLeft"":15,""ArrowDown,ArrowRight"":23}","false","ArrowDown,ArrowLeft","false","","","","","",""
"html-keyboard-response","72","377759","0.0-3.0-11.0-2.0-1.5","spark_pilot_norest","8771","6","22","Female","","","","","","","null","<div style=""font-size:60px;"">+</div>","null","fixation","","","","","","","","","","","",""
"revaluation","73","383776","0.0-3.0-11.0-2.0-0.6","spark_pilot_norest","8771","6","22","Female","","","false","","","","[1032.3999999761581,349.60000002384186]","./assets/img/space/13.jpg","[""ArrowUp"",""ArrowRight""]","practice block","space","36","{""ArrowUp,ArrowLeft"":3,""ArrowUp,ArrowRight"":36,""ArrowDown,ArrowLeft"":15,""ArrowDown,ArrowRight"":23}","true","ArrowUp,ArrowRight","false","","","","","",""
"html-keyboard-response","74","384279","0.0-3.0-11.0-2.0-1.6","spark_pilot_norest","8771","6","22","Female","","","","","","","null","<div style=""font-size:60px;"">+</div>","null","fixation","","","","","","","","","","","",""
"revaluation","75","390285","0.0-3.0-11.0-2.0-0.7","spark_pilot_norest","8771","6","22","Female","","","false","","","","[911.3999999761581,383.39999997615814]","./assets/img/space/14.jpg","[""ArrowUp"",""ArrowRight""]","practice block","space","36","{""ArrowUp,ArrowLeft"":3,""ArrowUp,ArrowRight"":36,""ArrowDown,ArrowLeft"":15,""ArrowDown,ArrowRight"":23}","true","ArrowUp,ArrowRight","false","","","","","",""
"html-keyboard-response","76","390788","0.0-3.0-11.0-2.0-1.7","spark_pilot_norest","8771","6","22","Female","","","","","","","null","<div style=""font-size:60px;"">+</div>","null","fixation","","","","","","","","","","","",""
"revaluation","77","394795","0.0-3.0-11.0-2.0-0.8","spark_pilot_norest","8771","6","22","Female","","","false","","","","[769.7000000476837]","./assets/img/space/catch/3.jpg","[""spaceBar""]","practice block","space","0","{""ArrowUp,ArrowLeft"":3,""ArrowUp,ArrowRight"":36,""ArrowDown,ArrowLeft"":15,""ArrowDown,ArrowRight"":23}","true","spaceBar","true","","","","","",""
"html-keyboard-response","78","395298","0.0-3.0-11.0-2.0-1.8","spark_pilot_norest","8771","6","22","Female","","","","","","","null","<div style=""font-size:60px;"">+</div>","null","fixation","","","","","","","","","","","",""
"learning-instructions","79","409723","0.0-3.0-11.0-3.0-0.0","spark_pilot_norest","8771","6","22","Female","","","","","","","700.8000000715256","<p> Now, you will travel with a friend who will choose whether you go up or down first. </p>
            <p> On these turns, you will just see the animal that they found. You will still get to choose which chest to search for treasure.</p>","","instructions","","","","","","","","","","","",""
"revaluation","80","413752","0.0-3.0-11.0-4.0-0.0","spark_pilot_norest","8771","6","22","Female","","","false","","","","[934.7999999523163]","./assets/img/space/animals/rabbit.jpg","[""ArrowRight""]","practice block","space","23","{""ArrowUp,ArrowLeft"":3,""ArrowUp,ArrowRight"":36,""ArrowDown,ArrowLeft"":15,""ArrowDown,ArrowRight"":23}","true","ArrowDown,ArrowRight","","","","","","",""
"html-keyboard-response","81","414254","0.0-3.0-11.0-4.0-1.0","spark_pilot_norest","8771","6","22","Female","","","","","","","null","<div style=""font-size:60px;"">+</div>","null","fixation","","","","","","","","","","","",""
"revaluation","82","418266","0.0-3.0-11.0-4.0-0.1","spark_pilot_norest","8771","6","22","Female","","","false","","","","[581.8000000715256]","./assets/img/space/animals/cat.jpg","[""ArrowRight""]","practice block","space","36","{""ArrowUp,ArrowLeft"":3,""ArrowUp,ArrowRight"":36,""ArrowDown,ArrowLeft"":15,""ArrowDown,ArrowRight"":23}","true","ArrowUp,ArrowRight","","","","","","",""
"html-keyboard-response","83","418780","0.0-3.0-11.0-4.0-1.1","spark_pilot_norest","8771","6","22","Female","","","","","","","null","<div style=""font-size:60px;"">+</div>","null","fixation","","","","","","","","","","","",""
"revaluation","84","422799","0.0-3.0-11.0-4.0-0.2","spark_pilot_norest","8771","6","22","Female","","","false","","","","[606]","./assets/img/space/animals/rabbit.jpg","[""ArrowRight""]","practice block","space","23","{""ArrowUp,ArrowLeft"":3,""ArrowUp,ArrowRight"":36,""ArrowDown,ArrowLeft"":15,""ArrowDown,ArrowRight"":23}","true","ArrowDown,ArrowRight","","","","","","",""
"html-keyboard-response","85","423301","0.0-3.0-11.0-4.0-1.2","spark_pilot_norest","8771","6","22","Female","","","","","","","null","<div style=""font-size:60px;"">+</div>","null","fixation","","","","","","","","","","","",""
"revaluation","86","427329","0.0-3.0-11.0-4.0-0.3","spark_pilot_norest","8771","6","22","Female","","","false","","","","[747.1999999284744]","./assets/img/space/animals/cat.jpg","[""ArrowRight""]","practice block","space","36","{""ArrowUp,ArrowLeft"":3,""ArrowUp,ArrowRight"":36,""ArrowDown,ArrowLeft"":15,""ArrowDown,ArrowRight"":23}","true","ArrowUp,ArrowRight","","","","","","",""
"html-keyboard-response","87","427832","0.0-3.0-11.0-4.0-1.3","spark_pilot_norest","8771","6","22","Female","","","","","","","null","<div style=""font-size:60px;"">+</div>","null","fixation","","","","","","","","","","","",""
"learning-instructions","88","436006","0.0-3.0-11.0-5.0-0.0","spark_pilot_norest","8771","6","22","Female","","","","","","","null","<p> You have almost finished this part of the game! </p>
            <p> We are going to ask you to make a few more choices. </p>","","instructions","","","","","","","","","","","",""
"learning-instructions","89","452097","0.0-3.0-11.0-5.0-0.1","spark_pilot_norest","8771","6","22","Female","","","","","","","null","<p> First, you need to decide whether to go up or down. When you see each picture, use the arrow keys to make your choice. </p>
            <p><b>You will not see which animal you found, but try to get to the one that will give you the most treasure.</b></p>","","instructions","","","","","","","","","","","",""
"html-keyboard-response","90","453103","0.0-3.0-11.0-6.0-0.0","spark_pilot_norest","8771","6","22","Female","","","","","","","null","<div style=""font-size:100px;color:red;"">Starting in...</div>","null","","","","","","","","","","","","",""
"html-keyboard-response","91","454109","0.0-3.0-11.0-6.0-1.0","spark_pilot_norest","8771","6","22","Female","","","","","","","null","<div style=""font-size:200px;color:red;"">3</div>","null","","","","","","","","","","","","",""
"html-keyboard-response","92","455117","0.0-3.0-11.0-6.0-2.0","spark_pilot_norest","8771","6","22","Female","","","","","","","null","<div style=""font-size:200px;color:red;"">2</div>","null","","","","","","","","","","","","",""
"html-keyboard-response","93","456133","0.0-3.0-11.0-6.0-3.0","spark_pilot_norest","8771","6","22","Female","","","","","","","null","<div style=""font-size:200px;color:red;"">1</div>","null","","","","","","","","","","","","",""
"revaluation","94","456594","0.0-3.0-11.0-7.0","spark_pilot_norest","8771","6","22","Female","","","false","","","","[454.7000000476837]","./assets/img/space/15.jpg","[""ArrowUp""]","practice block","space","0","{""ArrowUp,ArrowLeft"":3,""ArrowUp,ArrowRight"":36,""ArrowDown,ArrowLeft"":15,""ArrowDown,ArrowRight"":23}","true","ArrowUp","false","","","","","",""
"html-keyboard-response","95","457101","0.0-3.0-11.0-8.0","spark_pilot_norest","8771","6","22","Female","","","","","","","null","<div style=""font-size:60px;"">+</div>","null","fixation","","","","","","","","","","","",""
"learning-instructions","96","470544","0.0-3.0-11.0-9.0-0.0","spark_pilot_norest","8771","6","22","Female","","","","","","","null","<p> Now you will see the animals again and can search their chests for treasure. </p>
            <p> This time, you will not see how much treasure you earned, but you will earn more bonus money for making better choices. </p>","","instructions","","","","","","","","","","","",""
"html-keyboard-response","97","471562","0.0-3.0-11.0-10.0-0.0","spark_pilot_norest","8771","6","22","Female","","","","","","","null","<div style=""font-size:100px;color:red;"">Starting in...</div>","null","","","","","","","","","","","","",""
"html-keyboard-response","98","472572","0.0-3.0-11.0-10.0-1.0","spark_pilot_norest","8771","6","22","Female","","","","","","","null","<div style=""font-size:200px;color:red;"">3</div>","null","","","","","","","","","","","","",""
"html-keyboard-response","99","473575","0.0-3.0-11.0-10.0-2.0","spark_pilot_norest","8771","6","22","Female","","","","","","","null","<div style=""font-size:200px;color:red;"">2</div>","null","","","","","","","","","","","","",""
"html-keyboard-response","100","474577","0.0-3.0-11.0-10.0-3.0","spark_pilot_norest","8771","6","22","Female","","","","","","","null","<div style=""font-size:200px;color:red;"">1</div>","null","","","","","","","","","","","","",""
"revaluation","101","475069","0.0-3.0-11.0-11.0-0.0","spark_pilot_norest","8771","6","22","Female","","","false","","","","[485.5]","./assets/img/space/animals/cat.jpg","[""ArrowRight""]","practice block","space","0","{""ArrowUp,ArrowLeft"":3,""ArrowUp,ArrowRight"":36,""ArrowDown,ArrowLeft"":15,""ArrowDown,ArrowRight"":23}","true","ArrowUp,ArrowRight","","","","","","",""
"html-keyboard-response","102","475583","0.0-3.0-11.0-11.0-1.0","spark_pilot_norest","8771","6","22","Female","","","","","","","null","<div style=""font-size:60px;"">+</div>","null","fixation","","","","","","","","","","","",""
"revaluation","103","476227","0.0-3.0-11.0-11.0-0.1","spark_pilot_norest","8771","6","22","Female","","","false","","","","[636.6000000238419]","./assets/img/space/animals/rabbit.jpg","[""ArrowRight""]","practice block","space","0","{""ArrowUp,ArrowLeft"":3,""ArrowUp,ArrowRight"":36,""ArrowDown,ArrowLeft"":15,""ArrowDown,ArrowRight"":23}","true","ArrowDown,ArrowRight","","","","","","",""
"html-keyboard-response","104","476740","0.0-3.0-11.0-11.0-1.1","spark_pilot_norest","8771","6","22","Female","","","","","","","null","<div style=""font-size:60px;"">+</div>","null","fixation","","","","","","","","","","","",""
"learning-instructions","105","483954","0.0-3.0-12.0-0.0","spark_pilot_norest","8771","6","22","Female","","","","","","","2602.6999999284744","<p> Before you start, we're going to ask you a few questions about how the game works. </p>","","instructions","","","","","","","","","","","",""
"comp-q","106","490651","0.0-3.0-13.0-0.0-0.0","spark_pilot_norest","8771","6","22","Female","","","","","","","1082.3000000715256","<p> <b> True or False? </b> </p>
            <p> There can be 50 pieces of treasure in a given animal's chest. </p>","1","comp_question","","","","true","","","","","","","",""
"comp-q","107","498785","0.0-3.0-13.0-0.0-1.0","spark_pilot_norest","8771","6","22","Female","","","","","","","1462.7999999523163","<p> <b> That's right! </b> The amount of treasure in each chest can range from 0 to 40 pieces. </p>","0","comp_answer","","","","","","","","","","","",""
"comp-q","108","506545","0.0-3.0-13.0-0.1-0.1","spark_pilot_norest","8771","6","22","Female","","","","","","","623.1000000238419","<p> <b> True or False? </b> </p><p> In this game, all animals have the same amount of treasure in their left and right chests. </p>","1","comp_question","","","","true","","","","","","","",""
"comp-q","109","513128","0.0-3.0-13.0-0.1-1.1","spark_pilot_norest","8771","6","22","Female","","","","","","","1346","<p> <b> That's right! </b> Animals have different amounts of treasure in their treasure chests. </p>","0","comp_answer","","","","","","","","","","","",""
"comp-q","110","519551","0.0-3.0-13.0-0.2-0.2","spark_pilot_norest","8771","6","22","Female","","","","","","","548.6999999284744","<p> <b> True or False? </b> </p><p> The same animal will always be there if you go up in the same place. </p>","0","comp_question","","","","true","","","","","","","",""
"comp-q","111","526654","0.0-3.0-13.0-0.2-1.2","spark_pilot_norest","8771","6","22","Female","","","","","","","651.2999999523163","<p> <b> That's right! </b> One animal lives in the upper part and one lives in the lower part of every place. </p>","0","comp_answer","","","","","","","","","","","",""
"comp-q","112","532709","0.0-3.0-13.0-0.3-0.3","spark_pilot_norest","8771","6","22","Female","","","","","","","528","<p> <b> True or False? </b> </p><p> If you see a different picture, it means you are in a new place. </p>","1","comp_question","","","","true","","","","","","","",""
"comp-q","113","544819","0.0-3.0-13.0-0.3-1.3","spark_pilot_norest","8771","6","22","Female","","","","","","","877.6000000238419","<p> <b> That's right! </b> Lots of different images may show the same place. For example,  you may see three different images that all remind you that you are in outer space. </p>","0","comp_answer","","","","","","","","","","","",""
"learning-instructions","114","555679","0.0-3.0-14.0-0.0","spark_pilot_norest","8771","6","22","Female","","","","","","","989","<p> Good job. Remember to do your best because the amount of treasure you earn will be converted into bonus money. </p>
            <p> It’s time to start the real game! </p>","","instructions","","","","","","","","","","","",""
"learning-instructions","115","560956","0.0-4.0-0.0-0.0","spark_pilot_norest","8771","6","22","Female","","","","","","","2493.5999999046326","<p> This time you are searching for treasure in the <b>canyon</b>.</p>","","instructions","","","","","","","","","","","",""
"learning-instructions","116","578889","0.0-4.0-0.0-0.1","spark_pilot_norest","8771","6","22","Female","","","","","","","606.8999999761581","<p><b>New</b> animals with <b>new</b> treasure chests live here. You need to explore to discover where the animal with the best treasure chest is.</p>
                    <p> Like before, once you figure out which animal has the chest with the most treasure, you should try to get to that animal and select that chest! </p>","","instructions","","","","","","","","","","","",""
"learning-instructions","117","594061","0.0-4.0-1.0-0.0","spark_pilot_norest","8771","6","22","Female","","","","","","","440.89999997615814","<p> Remember, when you see a picture of the place, use the up and down keys to <b>find an animal</b>.</p>
            <p> When you encounter an animal, you should use the left and right keys to <b>select a treasure chest</b>.</p>
            <p> Don't forget to look out for the robber! </p>","","instructions","","","","","","","","","","","",""
"revaluation","118","598083","0.0-4.0-2.0-0.0","spark_pilot_norest","8771","6","22","Female","","","false","","","","[1060.3000000715256]","./assets/img/canyon/catch/3.jpg","[""spaceBar""]","value training","canyon","0","{""ArrowUp,ArrowLeft"":23,""ArrowUp,ArrowRight"":10,""ArrowDown,ArrowLeft"":8,""ArrowDown,ArrowRight"":30}","true","spaceBar","true","revaluation","1","0","","",""
"html-keyboard-response","119","598592","0.0-4.0-2.0-1.0","spark_pilot_norest","8771","6","22","Female","","","","","","","null","<div style=""font-size:60px;"">+</div>","null","fixation","","","","","","","","","1","","",""
"revaluation","120","604630","0.0-4.0-2.0-0.1","spark_pilot_norest","8771","6","22","Female","","","false","","","","[445.2000000476837,683.4000000953674]","./assets/img/canyon/memory/23.jpg","[""ArrowUp"",""ArrowRight""]","value training","canyon","10","{""ArrowUp,ArrowLeft"":23,""ArrowUp,ArrowRight"":10,""ArrowDown,ArrowLeft"":8,""ArrowDown,ArrowRight"":30}","false","ArrowUp,ArrowRight","false","revaluation","1","2","","",""
"html-keyboard-response","121","605133","0.0-4.0-2.0-1.1","spark_pilot_norest","8771","6","22","Female","","","","","","","null","<div style=""font-size:60px;"">+</div>","null","fixation","","","","","","","","","3","","",""
"revaluation","122","611160","0.0-4.0-2.0-0.2","spark_pilot_norest","8771","6","22","Female","","","false","","","","[453.2999999523163,405.40000009536743]","./assets/img/canyon/memory/27.jpg","[""ArrowUp"",""ArrowLeft""]","value training","canyon","23","{""ArrowUp,ArrowLeft"":23,""ArrowUp,ArrowRight"":10,""ArrowDown,ArrowLeft"":8,""ArrowDown,ArrowRight"":30}","false","ArrowUp,ArrowLeft","false","revaluation","1","4","","",""
"html-keyboard-response","123","611663","0.0-4.0-2.0-1.2","spark_pilot_norest","8771","6","22","Female","","","","","","","null","<div style=""font-size:60px;"">+</div>","null","fixation","","","","","","","","","5","","",""
"revaluation","124","617700","0.0-4.0-2.0-0.3","spark_pilot_norest","8771","6","22","Female","","","false","","","","[507.89999997615814,429.09999990463257]","./assets/img/canyon/memory/15.jpg","[""ArrowDown"",""ArrowRight""]","value training","canyon","30","{""ArrowUp,ArrowLeft"":23,""ArrowUp,ArrowRight"":10,""ArrowDown,ArrowLeft"":8,""ArrowDown,ArrowRight"":30}","true","ArrowDown,ArrowRight","false","revaluation","1","6","","",""
"html-keyboard-response","125","618203","0.0-4.0-2.0-1.3","spark_pilot_norest","8771","6","22","Female","","","","","","","null","<div style=""font-size:60px;"">+</div>","null","fixation","","","","","","","","","7","","",""
"revaluation","126","624223","0.0-4.0-2.0-0.4","spark_pilot_norest","8771","6","22","Female","","","false","","","","[565.1000000238419,278.7999999523163]","./assets/img/canyon/memory/31.jpg","[""ArrowDown"",""ArrowLeft""]","value training","canyon","8","{""ArrowUp,ArrowLeft"":23,""ArrowUp,ArrowRight"":10,""ArrowDown,ArrowLeft"":8,""ArrowDown,ArrowRight"":30}","false","ArrowDown,ArrowLeft","false","revaluation","1","8","","",""
"html-keyboard-response","127","624725","0.0-4.0-2.0-1.4","spark_pilot_norest","8771","6","22","Female","","","","","","","null","<div style=""font-size:60px;"">+</div>","null","fixation","","","","","","","","","9","","",""
"revaluation","128","630736","0.0-4.0-2.0-0.5","spark_pilot_norest","8771","6","22","Female","","","false","","","","[522.2999999523163,444.7000000476837]","./assets/img/canyon/memory/37.jpg","[""ArrowDown"",""ArrowRight""]","value training","canyon","30","{""ArrowUp,ArrowLeft"":23,""ArrowUp,ArrowRight"":10,""ArrowDown,ArrowLeft"":8,""ArrowDown,ArrowRight"":30}","true","ArrowDown,ArrowRight","false","revaluation","1","10","","",""
"html-keyboard-response","129","631238","0.0-4.0-2.0-1.5","spark_pilot_norest","8771","6","22","Female","","","","","","","null","<div style=""font-size:60px;"">+</div>","null","fixation","","","","","","","","","11","","",""
"revaluation","130","637247","0.0-4.0-2.0-0.6","spark_pilot_norest","8771","6","22","Female","","","false","","","","[805.0999999046326,527.8999999761581]","./assets/img/canyon/memory/39.jpg","[""ArrowDown"",""ArrowRight""]","value training","canyon","30","{""ArrowUp,ArrowLeft"":23,""ArrowUp,ArrowRight"":10,""ArrowDown,ArrowLeft"":8,""ArrowDown,ArrowRight"":30}","true","ArrowDown,ArrowRight","false","revaluation","1","12","","",""
"html-keyboard-response","131","637749","0.0-4.0-2.0-1.6","spark_pilot_norest","8771","6","22","Female","","","","","","","null","<div style=""font-size:60px;"">+</div>","null","fixation","","","","","","","","","13","","",""
"revaluation","132","643758","0.0-4.0-2.0-0.7","spark_pilot_norest","8771","6","22","Female","","","false","","","","[1053.6000000238419,444.39999997615814]","./assets/img/canyon/memory/16.jpg","[""ArrowDown"",""ArrowRight""]","value training","canyon","30","{""ArrowUp,ArrowLeft"":23,""ArrowUp,ArrowRight"":10,""ArrowDown,ArrowLeft"":8,""ArrowDown,ArrowRight"":30}","true","ArrowDown,ArrowRight","false","revaluation","1","14","","",""
"html-keyboard-response","133","644260","0.0-4.0-2.0-1.7","spark_pilot_norest","8771","6","22","Female","","","","","","","null","<div style=""font-size:60px;"">+</div>","null","fixation","","","","","","","","","15","","",""
"revaluation","134","650269","0.0-4.0-2.0-0.8","spark_pilot_norest","8771","6","22","Female","","","false","","","","[1158.8000000715256,453.59999990463257]","./assets/img/canyon/memory/41.jpg","[""ArrowDown"",""ArrowRight""]","value training","canyon","30","{""ArrowUp,ArrowLeft"":23,""ArrowUp,ArrowRight"":10,""ArrowDown,ArrowLeft"":8,""ArrowDown,ArrowRight"":30}","true","ArrowDown,ArrowRight","false","revaluation","1","16","","",""
"html-keyboard-response","135","650771","0.0-4.0-2.0-1.8","spark_pilot_norest","8771","6","22","Female","","","","","","","null","<div style=""font-size:60px;"">+</div>","null","fixation","","","","","","","","","17","","",""
"revaluation","136","656779","0.0-4.0-2.0-0.9","spark_pilot_norest","8771","6","22","Female","","","false","","","","[1167.8000000715256,450.60000002384186]","./assets/img/canyon/memory/18.jpg","[""ArrowDown"",""ArrowRight""]","value training","canyon","30","{""ArrowUp,ArrowLeft"":23,""ArrowUp,ArrowRight"":10,""ArrowDown,ArrowLeft"":8,""ArrowDown,ArrowRight"":30}","true","ArrowDown,ArrowRight","false","revaluation","1","18","","",""
"html-keyboard-response","137","657281","0.0-4.0-2.0-1.9","spark_pilot_norest","8771","6","22","Female","","","","","","","null","<div style=""font-size:60px;"">+</div>","null","fixation","","","","","","","","","19","","",""
"revaluation","138","663297","0.0-4.0-2.0-0.10","spark_pilot_norest","8771","6","22","Female","","","false","","","","[1072.6000000238419,421.09999990463257]","./assets/img/canyon/memory/25.jpg","[""ArrowDown"",""ArrowRight""]","value training","canyon","30","{""ArrowUp,ArrowLeft"":23,""ArrowUp,ArrowRight"":10,""ArrowDown,ArrowLeft"":8,""ArrowDown,ArrowRight"":30}","true","ArrowDown,ArrowRight","false","revaluation","1","20","","",""
"html-keyboard-response","139","663799","0.0-4.0-2.0-1.10","spark_pilot_norest","8771","6","22","Female","","","","","","","null","<div style=""font-size:60px;"">+</div>","null","fixation","","","","","","","","","21","","",""
"revaluation","140","669808","0.0-4.0-2.0-0.11","spark_pilot_norest","8771","6","22","Female","","","false","","","","[1145.7000000476837,341.09999990463257]","./assets/img/canyon/memory/41.jpg","[""ArrowDown"",""ArrowRight""]","value training","canyon","30","{""ArrowUp,ArrowLeft"":23,""ArrowUp,ArrowRight"":10,""ArrowDown,ArrowLeft"":8,""ArrowDown,ArrowRight"":30}","true","ArrowDown,ArrowRight","false","revaluation","1","22","","",""
"html-keyboard-response","141","670310","0.0-4.0-2.0-1.11","spark_pilot_norest","8771","6","22","Female","","","","","","","null","<div style=""font-size:60px;"">+</div>","null","fixation","","","","","","","","","23","","",""
"revaluation","142","676317","0.0-4.0-2.0-0.12","spark_pilot_norest","8771","6","22","Female","","","false","","","","[1037.1999999284744,319.2999999523163]","./assets/img/canyon/memory/36.jpg","[""ArrowDown"",""ArrowRight""]","value training","canyon","30","{""ArrowUp,ArrowLeft"":23,""ArrowUp,ArrowRight"":10,""ArrowDown,ArrowLeft"":8,""ArrowDown,ArrowRight"":30}","true","ArrowDown,ArrowRight","false","revaluation","1","24","","",""
"html-keyboard-response","143","676819","0.0-4.0-2.0-1.12","spark_pilot_norest","8771","6","22","Female","","","","","","","null","<div style=""font-size:60px;"">+</div>","null","fixation","","","","","","","","","25","","",""
"revaluation","144","682830","0.0-4.0-2.0-0.13","spark_pilot_norest","8771","6","22","Female","","","false","","","","[544.3000000715256,364.3000000715256]","./assets/img/canyon/memory/38.jpg","[""ArrowDown"",""ArrowRight""]","value training","canyon","30","{""ArrowUp,ArrowLeft"":23,""ArrowUp,ArrowRight"":10,""ArrowDown,ArrowLeft"":8,""ArrowDown,ArrowRight"":30}","true","ArrowDown,ArrowRight","false","revaluation","1","26","","",""
"html-keyboard-response","145","683333","0.0-4.0-2.0-1.13","spark_pilot_norest","8771","6","22","Female","","","","","","","null","<div style=""font-size:60px;"">+</div>","null","fixation","","","","","","","","","27","","",""
"revaluation","146","689343","0.0-4.0-2.0-0.14","spark_pilot_norest","8771","6","22","Female","","","false","","","","[929.0999999046326,377.39999997615814]","./assets/img/canyon/memory/11.jpg","[""ArrowDown"",""ArrowRight""]","value training","canyon","30","{""ArrowUp,ArrowLeft"":23,""ArrowUp,ArrowRight"":10,""ArrowDown,ArrowLeft"":8,""ArrowDown,ArrowRight"":30}","true","ArrowDown,ArrowRight","false","revaluation","1","28","","",""
"html-keyboard-response","147","689845","0.0-4.0-2.0-1.14","spark_pilot_norest","8771","6","22","Female","","","","","","","null","<div style=""font-size:60px;"">+</div>","null","fixation","","","","","","","","","29","","",""
"revaluation","148","695854","0.0-4.0-2.0-0.15","spark_pilot_norest","8771","6","22","Female","","","false","","","","[604,396.8000000715256]","./assets/img/canyon/memory/4.jpg","[""ArrowDown"",""ArrowRight""]","value training","canyon","30","{""ArrowUp,ArrowLeft"":23,""ArrowUp,ArrowRight"":10,""ArrowDown,ArrowLeft"":8,""ArrowDown,ArrowRight"":30}","true","ArrowDown,ArrowRight","false","revaluation","1","30","","",""
"html-keyboard-response","149","696356","0.0-4.0-2.0-1.15","spark_pilot_norest","8771","6","22","Female","","","","","","","null","<div style=""font-size:60px;"">+</div>","null","fixation","","","","","","","","","31","","",""
"revaluation","150","702372","0.0-4.0-2.0-0.16","spark_pilot_norest","8771","6","22","Female","","","false","","","","[666.2000000476837,349.39999997615814]","./assets/img/canyon/memory/29.jpg","[""ArrowDown"",""ArrowRight""]","value training","canyon","30","{""ArrowUp,ArrowLeft"":23,""ArrowUp,ArrowRight"":10,""ArrowDown,ArrowLeft"":8,""ArrowDown,ArrowRight"":30}","true","ArrowDown,ArrowRight","false","revaluation","1","32","","",""
"html-keyboard-response","151","702876","0.0-4.0-2.0-1.16","spark_pilot_norest","8771","6","22","Female","","","","","","","null","<div style=""font-size:60px;"">+</div>","null","fixation","","","","","","","","","33","","",""
"revaluation","152","708885","0.0-4.0-2.0-0.17","spark_pilot_norest","8771","6","22","Female","","","false","","","","[1021.7999999523163,466.09999990463257]","./assets/img/canyon/memory/25.jpg","[""ArrowDown"",""ArrowRight""]","value training","canyon","30","{""ArrowUp,ArrowLeft"":23,""ArrowUp,ArrowRight"":10,""ArrowDown,ArrowLeft"":8,""ArrowDown,ArrowRight"":30}","true","ArrowDown,ArrowRight","false","revaluation","1","34","","",""
"html-keyboard-response","153","709386","0.0-4.0-2.0-1.17","spark_pilot_norest","8771","6","22","Female","","","","","","","null","<div style=""font-size:60px;"">+</div>","null","fixation","","","","","","","","","35","","",""
"revaluation","154","715396","0.0-4.0-2.0-0.18","spark_pilot_norest","8771","6","22","Female","","","false","","","","[1309.5,418.2000000476837]","./assets/img/canyon/memory/39.jpg","[""ArrowDown"",""ArrowRight""]","value training","canyon","30","{""ArrowUp,ArrowLeft"":23,""ArrowUp,ArrowRight"":10,""ArrowDown,ArrowLeft"":8,""ArrowDown,ArrowRight"":30}","true","ArrowDown,ArrowRight","false","revaluation","1","36","","",""
"html-keyboard-response","155","715897","0.0-4.0-2.0-1.18","spark_pilot_norest","8771","6","22","Female","","","","","","","null","<div style=""font-size:60px;"">+</div>","null","fixation","","","","","","","","","37","","",""
"revaluation","156","721905","0.0-4.0-2.0-0.19","spark_pilot_norest","8771","6","22","Female","","","false","","","","[748.2000000476837,347.2999999523163]","./assets/img/canyon/memory/31.jpg","[""ArrowDown"",""ArrowRight""]","value training","canyon","30","{""ArrowUp,ArrowLeft"":23,""ArrowUp,ArrowRight"":10,""ArrowDown,ArrowLeft"":8,""ArrowDown,ArrowRight"":30}","true","ArrowDown,ArrowRight","false","revaluation","1","38","","",""
"html-keyboard-response","157","722407","0.0-4.0-2.0-1.19","spark_pilot_norest","8771","6","22","Female","","","","","","","null","<div style=""font-size:60px;"">+</div>","null","fixation","","","","","","","","","39","","",""
"revaluation","158","728416","0.0-4.0-2.0-0.20","spark_pilot_norest","8771","6","22","Female","","","false","","","","[1368.7999999523163,504.2000000476837]","./assets/img/canyon/memory/1.jpg","[""ArrowDown"",""ArrowRight""]","value training","canyon","30","{""ArrowUp,ArrowLeft"":23,""ArrowUp,ArrowRight"":10,""ArrowDown,ArrowLeft"":8,""ArrowDown,ArrowRight"":30}","true","ArrowDown,ArrowRight","false","revaluation","1","40","","",""
"html-keyboard-response","159","728931","0.0-4.0-2.0-1.20","spark_pilot_norest","8771","6","22","Female","","","","","","","null","<div style=""font-size:60px;"">+</div>","null","fixation","","","","","","","","","41","","",""
"revaluation","160","734959","0.0-4.0-2.0-0.21","spark_pilot_norest","8771","6","22","Female","","","false","","","","[715.6999999284744,401.89999997615814]","./assets/img/canyon/memory/28.jpg","[""ArrowDown"",""ArrowRight""]","value training","canyon","30","{""ArrowUp,ArrowLeft"":23,""ArrowUp,ArrowRight"":10,""ArrowDown,ArrowLeft"":8,""ArrowDown,ArrowRight"":30}","true","ArrowDown,ArrowRight","false","revaluation","1","42","","",""
"html-keyboard-response","161","735462","0.0-4.0-2.0-1.21","spark_pilot_norest","8771","6","22","Female","","","","","","","null","<div style=""font-size:60px;"">+</div>","null","fixation","","","","","","","","","43","","",""
"revaluation","162","739469","0.0-4.0-2.0-0.22","spark_pilot_norest","8771","6","22","Female","","","false","","","","[703.3999999761581]","./assets/img/canyon/catch/5.jpg","[""spaceBar""]","value training","canyon","0","{""ArrowUp,ArrowLeft"":23,""ArrowUp,ArrowRight"":10,""ArrowDown,ArrowLeft"":8,""ArrowDown,ArrowRight"":30}","true","spaceBar","true","revaluation","1","44","","",""
"html-keyboard-response","163","739972","0.0-4.0-2.0-1.22","spark_pilot_norest","8771","6","22","Female","","","","","","","null","<div style=""font-size:60px;"">+</div>","null","fixation","","","","","","","","","45","","",""
"revaluation","164","746008","0.0-4.0-2.0-0.23","spark_pilot_norest","8771","6","22","Female","","","false","","","","[804.2000000476837,440]","./assets/img/canyon/memory/33.jpg","[""ArrowUp"",""ArrowLeft""]","value training","canyon","23","{""ArrowUp,ArrowLeft"":23,""ArrowUp,ArrowRight"":10,""ArrowDown,ArrowLeft"":8,""ArrowDown,ArrowRight"":30}","false","ArrowUp,ArrowLeft","false","revaluation","1","46","","",""
"html-keyboard-response","165","746510","0.0-4.0-2.0-1.23","spark_pilot_norest","8771","6","22","Female","","","","","","","null","<div style=""font-size:60px;"">+</div>","null","fixation","","","","","","","","","47","","",""
"revaluation","166","752529","0.0-4.0-2.0-0.24","spark_pilot_norest","8771","6","22","Female","","","false","","","","[579.8000000715256,361.89999997615814]","./assets/img/canyon/memory/37.jpg","[""ArrowDown"",""ArrowRight""]","value training","canyon","30","{""ArrowUp,ArrowLeft"":23,""ArrowUp,ArrowRight"":10,""ArrowDown,ArrowLeft"":8,""ArrowDown,ArrowRight"":30}","true","ArrowDown,ArrowRight","false","revaluation","1","48","","",""
"html-keyboard-response","167","753031","0.0-4.0-2.0-1.24","spark_pilot_norest","8771","6","22","Female","","","","","","","null","<div style=""font-size:60px;"">+</div>","null","fixation","","","","","","","","","49","","",""
"revaluation","168","759041","0.0-4.0-2.0-0.25","spark_pilot_norest","8771","6","22","Female","","","false","","","","[801.5999999046326,347.59999990463257]","./assets/img/canyon/memory/11.jpg","[""ArrowDown"",""ArrowRight""]","value training","canyon","30","{""ArrowUp,ArrowLeft"":23,""ArrowUp,ArrowRight"":10,""ArrowDown,ArrowLeft"":8,""ArrowDown,ArrowRight"":30}","true","ArrowDown,ArrowRight","false","revaluation","1","50","","",""
"html-keyboard-response","169","759543","0.0-4.0-2.0-1.25","spark_pilot_norest","8771","6","22","Female","","","","","","","null","<div style=""font-size:60px;"">+</div>","null","fixation","","","","","","","","","51","","",""
"revaluation","170","765554","0.0-4.0-2.0-0.26","spark_pilot_norest","8771","6","22","Female","","","false","","","","[673.6000000238419,322.10000002384186]","./assets/img/canyon/memory/10.jpg","[""ArrowDown"",""ArrowRight""]","value training","canyon","30","{""ArrowUp,ArrowLeft"":23,""ArrowUp,ArrowRight"":10,""ArrowDown,ArrowLeft"":8,""ArrowDown,ArrowRight"":30}","true","ArrowDown,ArrowRight","false","revaluation","1","52","","",""
"html-keyboard-response","171","766056","0.0-4.0-2.0-1.26","spark_pilot_norest","8771","6","22","Female","","","","","","","null","<div style=""font-size:60px;"">+</div>","null","fixation","","","","","","","","","53","","",""
"revaluation","172","772074","0.0-4.0-2.0-0.27","spark_pilot_norest","8771","6","22","Female","","","false","","","","[480.2999999523163,381.8000000715256]","./assets/img/canyon/memory/10.jpg","[""ArrowDown"",""ArrowRight""]","value training","canyon","30","{""ArrowUp,ArrowLeft"":23,""ArrowUp,ArrowRight"":10,""ArrowDown,ArrowLeft"":8,""ArrowDown,ArrowRight"":30}","true","ArrowDown,ArrowRight","false","revaluation","1","54","","",""
"html-keyboard-response","173","772576","0.0-4.0-2.0-1.27","spark_pilot_norest","8771","6","22","Female","","","","","","","null","<div style=""font-size:60px;"">+</div>","null","fixation","","","","","","","","","55","","",""
"revaluation","174","778588","0.0-4.0-2.0-0.28","spark_pilot_norest","8771","6","22","Female","","","false","","","","[588.9000000953674,320.09999990463257]","./assets/img/canyon/memory/9.jpg","[""ArrowDown"",""ArrowRight""]","value training","canyon","30","{""ArrowUp,ArrowLeft"":23,""ArrowUp,ArrowRight"":10,""ArrowDown,ArrowLeft"":8,""ArrowDown,ArrowRight"":30}","true","ArrowDown,ArrowRight","false","revaluation","1","56","","",""
"html-keyboard-response","175","779090","0.0-4.0-2.0-1.28","spark_pilot_norest","8771","6","22","Female","","","","","","","null","<div style=""font-size:60px;"">+</div>","null","fixation","","","","","","","","","57","","",""
"revaluation","176","785109","0.0-4.0-2.0-0.29","spark_pilot_norest","8771","6","22","Female","","","false","","","","[579.1999999284744,373.2999999523163]","./assets/img/canyon/memory/33.jpg","[""ArrowDown"",""ArrowRight""]","value training","canyon","30","{""ArrowUp,ArrowLeft"":23,""ArrowUp,ArrowRight"":10,""ArrowDown,ArrowLeft"":8,""ArrowDown,ArrowRight"":30}","true","ArrowDown,ArrowRight","false","revaluation","1","58","","",""
"html-keyboard-response","177","785611","0.0-4.0-2.0-1.29","spark_pilot_norest","8771","6","22","Female","","","","","","","null","<div style=""font-size:60px;"">+</div>","null","fixation","","","","","","","","","59","","",""
"revaluation","178","791619","0.0-4.0-2.0-0.30","spark_pilot_norest","8771","6","22","Female","","","false","","","","[599.7000000476837,366.2999999523163]","./assets/img/canyon/memory/28.jpg","[""ArrowDown"",""ArrowRight""]","value training","canyon","30","{""ArrowUp,ArrowLeft"":23,""ArrowUp,ArrowRight"":10,""ArrowDown,ArrowLeft"":8,""ArrowDown,ArrowRight"":30}","true","ArrowDown,ArrowRight","false","revaluation","1","60","","",""
"html-keyboard-response","179","792122","0.0-4.0-2.0-1.30","spark_pilot_norest","8771","6","22","Female","","","","","","","null","<div style=""font-size:60px;"">+</div>","null","fixation","","","","","","","","","61","","",""
"revaluation","180","796130","0.0-4.0-2.0-0.31","spark_pilot_norest","8771","6","22","Female","","","false","","","","[913.3999999761581]","./assets/img/canyon/catch/1.jpg","[""spaceBar""]","value training","canyon","0","{""ArrowUp,ArrowLeft"":23,""ArrowUp,ArrowRight"":10,""ArrowDown,ArrowLeft"":8,""ArrowDown,ArrowRight"":30}","true","spaceBar","true","revaluation","1","62","","",""
"html-keyboard-response","181","796632","0.0-4.0-2.0-1.31","spark_pilot_norest","8771","6","22","Female","","","","","","","null","<div style=""font-size:60px;"">+</div>","null","fixation","","","","","","","","","63","","",""
"revaluation","182","802640","0.0-4.0-2.0-0.32","spark_pilot_norest","8771","6","22","Female","","","false","","","","[597,351.89999997615814]","./assets/img/canyon/memory/23.jpg","[""ArrowDown"",""ArrowRight""]","value training","canyon","30","{""ArrowUp,ArrowLeft"":23,""ArrowUp,ArrowRight"":10,""ArrowDown,ArrowLeft"":8,""ArrowDown,ArrowRight"":30}","true","ArrowDown,ArrowRight","false","revaluation","1","64","","",""
"html-keyboard-response","183","803141","0.0-4.0-2.0-1.32","spark_pilot_norest","8771","6","22","Female","","","","","","","null","<div style=""font-size:60px;"">+</div>","null","fixation","","","","","","","","","65","","",""
"revaluation","184","807147","0.0-4.0-2.0-0.33","spark_pilot_norest","8771","6","22","Female","","","false","","","","[602]","./assets/img/canyon/catch/6.jpg","[""spaceBar""]","value training","canyon","0","{""ArrowUp,ArrowLeft"":23,""ArrowUp,ArrowRight"":10,""ArrowDown,ArrowLeft"":8,""ArrowDown,ArrowRight"":30}","true","spaceBar","true","revaluation","1","66","","",""
"html-keyboard-response","185","807649","0.0-4.0-2.0-1.33","spark_pilot_norest","8771","6","22","Female","","","","","","","null","<div style=""font-size:60px;"">+</div>","null","fixation","","","","","","","","","67","","",""
"revaluation","186","813659","0.0-4.0-2.0-0.34","spark_pilot_norest","8771","6","22","Female","","","false","","","","[635.7000000476837,355.8000000715256]","./assets/img/canyon/memory/0.jpg","[""ArrowDown"",""ArrowRight""]","value training","canyon","30","{""ArrowUp,ArrowLeft"":23,""ArrowUp,ArrowRight"":10,""ArrowDown,ArrowLeft"":8,""ArrowDown,ArrowRight"":30}","true","ArrowDown,ArrowRight","false","revaluation","1","68","","",""
"html-keyboard-response","187","814161","0.0-4.0-2.0-1.34","spark_pilot_norest","8771","6","22","Female","","","","","","","null","<div style=""font-size:60px;"">+</div>","null","fixation","","","","","","","","","69","","",""
"revaluation","188","820171","0.0-4.0-2.0-0.35","spark_pilot_norest","8771","6","22","Female","","","false","","","","[1333.2000000476837,466.09999990463257]","./assets/img/canyon/memory/15.jpg","[""ArrowDown"",""ArrowRight""]","value training","canyon","30","{""ArrowUp,ArrowLeft"":23,""ArrowUp,ArrowRight"":10,""ArrowDown,ArrowLeft"":8,""ArrowDown,ArrowRight"":30}","true","ArrowDown,ArrowRight","false","revaluation","1","70","","",""
"html-keyboard-response","189","820673","0.0-4.0-2.0-1.35","spark_pilot_norest","8771","6","22","Female","","","","","","","null","<div style=""font-size:60px;"">+</div>","null","fixation","","","","","","","","","71","","",""
"revaluation","190","824681","0.0-4.0-2.0-0.36","spark_pilot_norest","8771","6","22","Female","","","false","","","","[498.2000000476837]","./assets/img/canyon/catch/4.jpg","[""spaceBar""]","value training","canyon","0","{""ArrowUp,ArrowLeft"":23,""ArrowUp,ArrowRight"":10,""ArrowDown,ArrowLeft"":8,""ArrowDown,ArrowRight"":30}","true","spaceBar","true","revaluation","1","72","","",""
"html-keyboard-response","191","825183","0.0-4.0-2.0-1.36","spark_pilot_norest","8771","6","22","Female","","","","","","","null","<div style=""font-size:60px;"">+</div>","null","fixation","","","","","","","","","73","","",""
"revaluation","192","831193","0.0-4.0-2.0-0.37","spark_pilot_norest","8771","6","22","Female","","","false","","","","[735.6000000238419,385]","./assets/img/canyon/memory/0.jpg","[""ArrowDown"",""ArrowRight""]","value training","canyon","30","{""ArrowUp,ArrowLeft"":23,""ArrowUp,ArrowRight"":10,""ArrowDown,ArrowLeft"":8,""ArrowDown,ArrowRight"":30}","true","ArrowDown,ArrowRight","false","revaluation","1","74","","",""
"html-keyboard-response","193","831695","0.0-4.0-2.0-1.37","spark_pilot_norest","8771","6","22","Female","","","","","","","null","<div style=""font-size:60px;"">+</div>","null","fixation","","","","","","","","","75","","",""
"revaluation","194","837704","0.0-4.0-2.0-0.38","spark_pilot_norest","8771","6","22","Female","","","false","","","","[952.1000000238419,518.8999999761581]","./assets/img/canyon/memory/29.jpg","[""ArrowDown"",""ArrowRight""]","value training","canyon","30","{""ArrowUp,ArrowLeft"":23,""ArrowUp,ArrowRight"":10,""ArrowDown,ArrowLeft"":8,""ArrowDown,ArrowRight"":30}","true","ArrowDown,ArrowRight","false","revaluation","1","76","","",""
"html-keyboard-response","195","838206","0.0-4.0-2.0-1.38","spark_pilot_norest","8771","6","22","Female","","","","","","","null","<div style=""font-size:60px;"">+</div>","null","fixation","","","","","","","","","77","","",""
"revaluation","196","844214","0.0-4.0-2.0-0.39","spark_pilot_norest","8771","6","22","Female","","","false","","","","[1024.5,396.09999990463257]","./assets/img/canyon/memory/1.jpg","[""ArrowDown"",""ArrowRight""]","value training","canyon","30","{""ArrowUp,ArrowLeft"":23,""ArrowUp,ArrowRight"":10,""ArrowDown,ArrowLeft"":8,""ArrowDown,ArrowRight"":30}","true","ArrowDown,ArrowRight","false","revaluation","1","78","","",""
"html-keyboard-response","197","844717","0.0-4.0-2.0-1.39","spark_pilot_norest","8771","6","22","Female","","","","","","","null","<div style=""font-size:60px;"">+</div>","null","fixation","","","","","","","","","79","","",""
"revaluation","198","850726","0.0-4.0-2.0-0.40","spark_pilot_norest","8771","6","22","Female","","","false","","","","[655.2000000476837,306.8000000715256]","./assets/img/canyon/memory/9.jpg","[""ArrowDown"",""ArrowRight""]","value training","canyon","30","{""ArrowUp,ArrowLeft"":23,""ArrowUp,ArrowRight"":10,""ArrowDown,ArrowLeft"":8,""ArrowDown,ArrowRight"":30}","true","ArrowDown,ArrowRight","false","revaluation","1","80","","",""
"html-keyboard-response","199","851227","0.0-4.0-2.0-1.40","spark_pilot_norest","8771","6","22","Female","","","","","","","null","<div style=""font-size:60px;"">+</div>","null","fixation","","","","","","","","","81","","",""
"revaluation","200","857245","0.0-4.0-2.0-0.41","spark_pilot_norest","8771","6","22","Female","","","false","","","","[966.1000000238419,303.60000002384186]","./assets/img/canyon/memory/27.jpg","[""ArrowDown"",""ArrowRight""]","value training","canyon","30","{""ArrowUp,ArrowLeft"":23,""ArrowUp,ArrowRight"":10,""ArrowDown,ArrowLeft"":8,""ArrowDown,ArrowRight"":30}","true","ArrowDown,ArrowRight","false","revaluation","1","82","","",""
"html-keyboard-response","201","857748","0.0-4.0-2.0-1.41","spark_pilot_norest","8771","6","22","Female","","","","","","","null","<div style=""font-size:60px;"">+</div>","null","fixation","","","","","","","","","83","","",""
"revaluation","202","863757","0.0-4.0-2.0-0.42","spark_pilot_norest","8771","6","22","Female","","","false","","","","[662.8000000715256,359.6999999284744]","./assets/img/canyon/memory/38.jpg","[""ArrowDown"",""ArrowRight""]","value training","canyon","30","{""ArrowUp,ArrowLeft"":23,""ArrowUp,ArrowRight"":10,""ArrowDown,ArrowLeft"":8,""ArrowDown,ArrowRight"":30}","true","ArrowDown,ArrowRight","false","revaluation","1","84","","",""
"html-keyboard-response","203","864259","0.0-4.0-2.0-1.42","spark_pilot_norest","8771","6","22","Female","","","","","","","null","<div style=""font-size:60px;"">+</div>","null","fixation","","","","","","","","","85","","",""
"revaluation","204","870284","0.0-4.0-2.0-0.43","spark_pilot_norest","8771","6","22","Female","","","false","","","","[615,470.60000002384186]","./assets/img/canyon/memory/4.jpg","[""ArrowDown"",""ArrowRight""]","value training","canyon","30","{""ArrowUp,ArrowLeft"":23,""ArrowUp,ArrowRight"":10,""ArrowDown,ArrowLeft"":8,""ArrowDown,ArrowRight"":30}","true","ArrowDown,ArrowRight","false","revaluation","1","86","","",""
"html-keyboard-response","205","870786","0.0-4.0-2.0-1.43","spark_pilot_norest","8771","6","22","Female","","","","","","","null","<div style=""font-size:60px;"">+</div>","null","fixation","","","","","","","","","87","","",""
"revaluation","206","874793","0.0-4.0-2.0-0.44","spark_pilot_norest","8771","6","22","Female","","","false","","","","[797.5]","./assets/img/canyon/catch/0.jpg","[""spaceBar""]","value training","canyon","0","{""ArrowUp,ArrowLeft"":23,""ArrowUp,ArrowRight"":10,""ArrowDown,ArrowLeft"":8,""ArrowDown,ArrowRight"":30}","true","spaceBar","true","revaluation","1","88","","",""
"html-keyboard-response","207","875295","0.0-4.0-2.0-1.44","spark_pilot_norest","8771","6","22","Female","","","","","","","null","<div style=""font-size:60px;"">+</div>","null","fixation","","","","","","","","","89","","",""
"revaluation","208","879304","0.0-4.0-2.0-0.45","spark_pilot_norest","8771","6","22","Female","","","false","","","","[837.5]","./assets/img/canyon/catch/2.jpg","[""spaceBar""]","value training","canyon","0","{""ArrowUp,ArrowLeft"":23,""ArrowUp,ArrowRight"":10,""ArrowDown,ArrowLeft"":8,""ArrowDown,ArrowRight"":30}","true","spaceBar","true","revaluation","1","90","","",""
"html-keyboard-response","209","879806","0.0-4.0-2.0-1.45","spark_pilot_norest","8771","6","22","Female","","","","","","","null","<div style=""font-size:60px;"">+</div>","null","fixation","","","","","","","","","91","","",""
"revaluation","210","885817","0.0-4.0-2.0-0.46","spark_pilot_norest","8771","6","22","Female","","","false","","","","[884.1000000238419,396.7000000476837]","./assets/img/canyon/memory/16.jpg","[""ArrowDown"",""ArrowRight""]","value training","canyon","30","{""ArrowUp,ArrowLeft"":23,""ArrowUp,ArrowRight"":10,""ArrowDown,ArrowLeft"":8,""ArrowDown,ArrowRight"":30}","true","ArrowDown,ArrowRight","false","revaluation","1","92","","",""
"html-keyboard-response","211","886318","0.0-4.0-2.0-1.46","spark_pilot_norest","8771","6","22","Female","","","","","","","null","<div style=""font-size:60px;"">+</div>","null","fixation","","","","","","","","","93","","",""
"revaluation","212","890338","0.0-4.0-2.0-0.47","spark_pilot_norest","8771","6","22","Female","","","false","","","","[626.7000000476837]","./assets/img/canyon/catch/7.jpg","[""spaceBar""]","value training","canyon","0","{""ArrowUp,ArrowLeft"":23,""ArrowUp,ArrowRight"":10,""ArrowDown,ArrowLeft"":8,""ArrowDown,ArrowRight"":30}","true","spaceBar","true","revaluation","1","94","","",""
"html-keyboard-response","213","890840","0.0-4.0-2.0-1.47","spark_pilot_norest","8771","6","22","Female","","","","","","","null","<div style=""font-size:60px;"">+</div>","null","fixation","","","","","","","","","95","","",""
"revaluation","214","896849","0.0-4.0-2.0-0.48","spark_pilot_norest","8771","6","22","Female","","","false","","","","[1247.1000000238419,435.2000000476837]","./assets/img/canyon/memory/36.jpg","[""ArrowDown"",""ArrowRight""]","value training","canyon","30","{""ArrowUp,ArrowLeft"":23,""ArrowUp,ArrowRight"":10,""ArrowDown,ArrowLeft"":8,""ArrowDown,ArrowRight"":30}","true","ArrowDown,ArrowRight","false","revaluation","1","96","","",""
"html-keyboard-response","215","897351","0.0-4.0-2.0-1.48","spark_pilot_norest","8771","6","22","Female","","","","","","","null","<div style=""font-size:60px;"">+</div>","null","fixation","","","","","","","","","97","","",""
"revaluation","216","903359","0.0-4.0-2.0-0.49","spark_pilot_norest","8771","6","22","Female","","","false","","","","[1072,453.59999990463257]","./assets/img/canyon/memory/18.jpg","[""ArrowDown"",""ArrowRight""]","value training","canyon","30","{""ArrowUp,ArrowLeft"":23,""ArrowUp,ArrowRight"":10,""ArrowDown,ArrowLeft"":8,""ArrowDown,ArrowRight"":30}","true","ArrowDown,ArrowRight","false","revaluation","1","98","","",""
"html-keyboard-response","217","903862","0.0-4.0-2.0-1.49","spark_pilot_norest","8771","6","22","Female","","","","","","","null","<div style=""font-size:60px;"">+</div>","null","fixation","","","","","","","","","99","","",""
"learning-instructions","218","920695","0.0-4.0-3.0-0.0","spark_pilot_norest","8771","6","22","Female","","","","","","","3232.2999999523163","<p> Now, you will travel with a friend who will choose whether you go up or down first. </p>
            <p> On these turns, you will just see the animal that they found. You will still get to choose which chest to search for treasure.</p>","","instructions","","","","","","","","","","","",""
"revaluation","219","924713","0.0-4.0-4.0-0.0","spark_pilot_norest","8771","6","22","Female","","","false","","","","[785.9000000953674]","./assets/img/canyon/animals/giraffe.jpg","[""ArrowRight""]","revaluation","canyon","7","{""ArrowUp,ArrowLeft"":27,""ArrowUp,ArrowRight"":15,""ArrowDown,ArrowLeft"":21,""ArrowDown,ArrowRight"":7}","false","ArrowDown,ArrowRight","","revaluation","1","0","","",""
"html-keyboard-response","220","925229","0.0-4.0-4.0-1.0","spark_pilot_norest","8771","6","22","Female","","","","","","","null","<div style=""font-size:60px;"">+</div>","null","fixation","","","","","","","","","1","","",""
"revaluation","221","929253","0.0-4.0-4.0-0.1","spark_pilot_norest","8771","6","22","Female","","","false","","","","[673.1999999284744]","./assets/img/canyon/animals/giraffe.jpg","[""ArrowRight""]","revaluation","canyon","7","{""ArrowUp,ArrowLeft"":27,""ArrowUp,ArrowRight"":15,""ArrowDown,ArrowLeft"":21,""ArrowDown,ArrowRight"":7}","false","ArrowDown,ArrowRight","","revaluation","1","2","","",""
"html-keyboard-response","222","929756","0.0-4.0-4.0-1.1","spark_pilot_norest","8771","6","22","Female","","","","","","","null","<div style=""font-size:60px;"">+</div>","null","fixation","","","","","","","","","3","","",""
"revaluation","223","933787","0.0-4.0-4.0-0.2","spark_pilot_norest","8771","6","22","Female","","","false","","","","[498.7999999523163]","./assets/img/canyon/animals/lion.jpg","[""ArrowRight""]","revaluation","canyon","15","{""ArrowUp,ArrowLeft"":27,""ArrowUp,ArrowRight"":15,""ArrowDown,ArrowLeft"":21,""ArrowDown,ArrowRight"":7}","false","ArrowUp,ArrowRight","","revaluation","1","4","","",""
"html-keyboard-response","224","934305","0.0-4.0-4.0-1.2","spark_pilot_norest","8771","6","22","Female","","","","","","","null","<div style=""font-size:60px;"">+</div>","null","fixation","","","","","","","","","5","","",""
"revaluation","225","938326","0.0-4.0-4.0-0.3","spark_pilot_norest","8771","6","22","Female","","","false","","","","[476.7000000476837]","./assets/img/canyon/animals/lion.jpg","[""ArrowLeft""]","revaluation","canyon","27","{""ArrowUp,ArrowLeft"":27,""ArrowUp,ArrowRight"":15,""ArrowDown,ArrowLeft"":21,""ArrowDown,ArrowRight"":7}","true","ArrowUp,ArrowLeft","","revaluation","1","6","","",""
"html-keyboard-response","226","938841","0.0-4.0-4.0-1.3","spark_pilot_norest","8771","6","22","Female","","","","","","","null","<div style=""font-size:60px;"">+</div>","null","fixation","","","","","","","","","7","","",""
"revaluation","227","942851","0.0-4.0-4.0-0.4","spark_pilot_norest","8771","6","22","Female","","","false","","","","[413.2000000476837]","./assets/img/canyon/animals/giraffe.jpg","[""ArrowLeft""]","revaluation","canyon","21","{""ArrowUp,ArrowLeft"":27,""ArrowUp,ArrowRight"":15,""ArrowDown,ArrowLeft"":21,""ArrowDown,ArrowRight"":7}","true","ArrowDown,ArrowLeft","","revaluation","1","8","","",""
"html-keyboard-response","228","943354","0.0-4.0-4.0-1.4","spark_pilot_norest","8771","6","22","Female","","","","","","","null","<div style=""font-size:60px;"">+</div>","null","fixation","","","","","","","","","9","","",""
"revaluation","229","947380","0.0-4.0-4.0-0.5","spark_pilot_norest","8771","6","22","Female","","","false","","","","[512.2999999523163]","./assets/img/canyon/animals/giraffe.jpg","[""ArrowLeft""]","revaluation","canyon","21","{""ArrowUp,ArrowLeft"":27,""ArrowUp,ArrowRight"":15,""ArrowDown,ArrowLeft"":21,""ArrowDown,ArrowRight"":7}","true","ArrowDown,ArrowLeft","","revaluation","1","10","","",""
"html-keyboard-response","230","947882","0.0-4.0-4.0-1.5","spark_pilot_norest","8771","6","22","Female","","","","","","","null","<div style=""font-size:60px;"">+</div>","null","fixation","","","","","","","","","11","","",""
"revaluation","231","951903","0.0-4.0-4.0-0.6","spark_pilot_norest","8771","6","22","Female","","","false","","","","[321.89999997615814]","./assets/img/canyon/animals/giraffe.jpg","[""ArrowLeft""]","revaluation","canyon","21","{""ArrowUp,ArrowLeft"":27,""ArrowUp,ArrowRight"":15,""ArrowDown,ArrowLeft"":21,""ArrowDown,ArrowRight"":7}","true","ArrowDown,ArrowLeft","","revaluation","1","12","","",""
"html-keyboard-response","232","952405","0.0-4.0-4.0-1.6","spark_pilot_norest","8771","6","22","Female","","","","","","","null","<div style=""font-size:60px;"">+</div>","null","fixation","","","","","","","","","13","","",""
"revaluation","233","956416","0.0-4.0-4.0-0.7","spark_pilot_norest","8771","6","22","Female","","","false","","","","[353.89999997615814]","./assets/img/canyon/animals/lion.jpg","[""ArrowLeft""]","revaluation","canyon","27","{""ArrowUp,ArrowLeft"":27,""ArrowUp,ArrowRight"":15,""ArrowDown,ArrowLeft"":21,""ArrowDown,ArrowRight"":7}","true","ArrowUp,ArrowLeft","","revaluation","1","14","","",""
"html-keyboard-response","234","956918","0.0-4.0-4.0-1.7","spark_pilot_norest","8771","6","22","Female","","","","","","","null","<div style=""font-size:60px;"">+</div>","null","fixation","","","","","","","","","15","","",""
"revaluation","235","960935","0.0-4.0-4.0-0.8","spark_pilot_norest","8771","6","22","Female","","","false","","","","[473.2000000476837]","./assets/img/canyon/animals/giraffe.jpg","[""ArrowLeft""]","revaluation","canyon","21","{""ArrowUp,ArrowLeft"":27,""ArrowUp,ArrowRight"":15,""ArrowDown,ArrowLeft"":21,""ArrowDown,ArrowRight"":7}","true","ArrowDown,ArrowLeft","","revaluation","1","16","","",""
"html-keyboard-response","236","961437","0.0-4.0-4.0-1.8","spark_pilot_norest","8771","6","22","Female","","","","","","","null","<div style=""font-size:60px;"">+</div>","null","fixation","","","","","","","","","17","","",""
"revaluation","237","965442","0.0-4.0-4.0-0.9","spark_pilot_norest","8771","6","22","Female","","","false","","","","[342.60000002384186]","./assets/img/canyon/animals/lion.jpg","[""ArrowLeft""]","revaluation","canyon","27","{""ArrowUp,ArrowLeft"":27,""ArrowUp,ArrowRight"":15,""ArrowDown,ArrowLeft"":21,""ArrowDown,ArrowRight"":7}","true","ArrowUp,ArrowLeft","","revaluation","1","18","","",""
"html-keyboard-response","238","965950","0.0-4.0-4.0-1.9","spark_pilot_norest","8771","6","22","Female","","","","","","","null","<div style=""font-size:60px;"">+</div>","null","fixation","","","","","","","","","19","","",""
"revaluation","239","969958","0.0-4.0-4.0-0.10","spark_pilot_norest","8771","6","22","Female","","","false","","","","[549.3999999761581]","./assets/img/canyon/animals/lion.jpg","[""ArrowLeft""]","revaluation","canyon","27","{""ArrowUp,ArrowLeft"":27,""ArrowUp,ArrowRight"":15,""ArrowDown,ArrowLeft"":21,""ArrowDown,ArrowRight"":7}","true","ArrowUp,ArrowLeft","","revaluation","1","20","","",""
"html-keyboard-response","240","970459","0.0-4.0-4.0-1.10","spark_pilot_norest","8771","6","22","Female","","","","","","","null","<div style=""font-size:60px;"">+</div>","null","fixation","","","","","","","","","21","","",""
"revaluation","241","974476","0.0-4.0-4.0-0.11","spark_pilot_norest","8771","6","22","Female","","","false","","","","[304.09999990463257]","./assets/img/canyon/animals/lion.jpg","[""ArrowLeft""]","revaluation","canyon","27","{""ArrowUp,ArrowLeft"":27,""ArrowUp,ArrowRight"":15,""ArrowDown,ArrowLeft"":21,""ArrowDown,ArrowRight"":7}","true","ArrowUp,ArrowLeft","","revaluation","1","22","","",""
"html-keyboard-response","242","974978","0.0-4.0-4.0-1.11","spark_pilot_norest","8771","6","22","Female","","","","","","","null","<div style=""font-size:60px;"">+</div>","null","fixation","","","","","","","","","23","","",""
"revaluation","243","978994","0.0-4.0-4.0-0.12","spark_pilot_norest","8771","6","22","Female","","","false","","","","[460.90000009536743]","./assets/img/canyon/animals/lion.jpg","[""ArrowLeft""]","revaluation","canyon","27","{""ArrowUp,ArrowLeft"":27,""ArrowUp,ArrowRight"":15,""ArrowDown,ArrowLeft"":21,""ArrowDown,ArrowRight"":7}","true","ArrowUp,ArrowLeft","","revaluation","1","24","","",""
"html-keyboard-response","244","979496","0.0-4.0-4.0-1.12","spark_pilot_norest","8771","6","22","Female","","","","","","","null","<div style=""font-size:60px;"">+</div>","null","fixation","","","","","","","","","25","","",""
"revaluation","245","983505","0.0-4.0-4.0-0.13","spark_pilot_norest","8771","6","22","Female","","","false","","","","[327.60000002384186]","./assets/img/canyon/animals/giraffe.jpg","[""ArrowLeft""]","revaluation","canyon","21","{""ArrowUp,ArrowLeft"":27,""ArrowUp,ArrowRight"":15,""ArrowDown,ArrowLeft"":21,""ArrowDown,ArrowRight"":7}","true","ArrowDown,ArrowLeft","","revaluation","1","26","","",""
"html-keyboard-response","246","984007","0.0-4.0-4.0-1.13","spark_pilot_norest","8771","6","22","Female","","","","","","","null","<div style=""font-size:60px;"">+</div>","null","fixation","","","","","","","","","27","","",""
"revaluation","247","988014","0.0-4.0-4.0-0.14","spark_pilot_norest","8771","6","22","Female","","","false","","","","[322.60000002384186]","./assets/img/canyon/animals/giraffe.jpg","[""ArrowLeft""]","revaluation","canyon","21","{""ArrowUp,ArrowLeft"":27,""ArrowUp,ArrowRight"":15,""ArrowDown,ArrowLeft"":21,""ArrowDown,ArrowRight"":7}","true","ArrowDown,ArrowLeft","","revaluation","1","28","","",""
"html-keyboard-response","248","988516","0.0-4.0-4.0-1.14","spark_pilot_norest","8771","6","22","Female","","","","","","","null","<div style=""font-size:60px;"">+</div>","null","fixation","","","","","","","","","29","","",""
"revaluation","249","992539","0.0-4.0-4.0-0.15","spark_pilot_norest","8771","6","22","Female","","","false","","","","[310.8000000715256]","./assets/img/canyon/animals/lion.jpg","[""ArrowLeft""]","revaluation","canyon","27","{""ArrowUp,ArrowLeft"":27,""ArrowUp,ArrowRight"":15,""ArrowDown,ArrowLeft"":21,""ArrowDown,ArrowRight"":7}","true","ArrowUp,ArrowLeft","","revaluation","1","30","","",""
"html-keyboard-response","250","993041","0.0-4.0-4.0-1.15","spark_pilot_norest","8771","6","22","Female","","","","","","","null","<div style=""font-size:60px;"">+</div>","null","fixation","","","","","","","","","31","","",""
"revaluation","251","997054","0.0-4.0-4.0-0.16","spark_pilot_norest","8771","6","22","Female","","","false","","","","[470.6999999284744]","./assets/img/canyon/animals/lion.jpg","[""ArrowLeft""]","revaluation","canyon","27","{""ArrowUp,ArrowLeft"":27,""ArrowUp,ArrowRight"":15,""ArrowDown,ArrowLeft"":21,""ArrowDown,ArrowRight"":7}","true","ArrowUp,ArrowLeft","","revaluation","1","32","","",""
"html-keyboard-response","252","997557","0.0-4.0-4.0-1.16","spark_pilot_norest","8771","6","22","Female","","","","","","","null","<div style=""font-size:60px;"">+</div>","null","fixation","","","","","","","","","33","","",""
"revaluation","253","1001564","0.0-4.0-4.0-0.17","spark_pilot_norest","8771","6","22","Female","","","false","","","","[427.90000009536743]","./assets/img/canyon/animals/giraffe.jpg","[""ArrowLeft""]","revaluation","canyon","21","{""ArrowUp,ArrowLeft"":27,""ArrowUp,ArrowRight"":15,""ArrowDown,ArrowLeft"":21,""ArrowDown,ArrowRight"":7}","true","ArrowDown,ArrowLeft","","revaluation","1","34","","",""
"html-keyboard-response","254","1002067","0.0-4.0-4.0-1.17","spark_pilot_norest","8771","6","22","Female","","","","","","","null","<div style=""font-size:60px;"">+</div>","null","fixation","","","","","","","","","35","","",""
"learning-instructions","255","1010897","0.0-4.0-5.0-0.0","spark_pilot_norest","8771","6","22","Female","","","","","","","null","<p> You have almost finished this part of the game! </p>
            <p> We are going to ask you to make a few more choices. </p>","","instructions","","","","","","","","","","","",""
"learning-instructions","256","1026874","0.0-4.0-5.0-0.1","spark_pilot_norest","8771","6","22","Female","","","","","","","null","<p> First, you need to decide whether to go up or down. When you see each picture, use the arrow keys to make your choice. </p>
            <p><b>You will not see which animal you found, but try to get to the one that will give you the most treasure.</b></p>","","instructions","","","","","","","","","","","",""
"html-keyboard-response","257","1027891","0.0-4.0-6.0-0.0","spark_pilot_norest","8771","6","22","Female","","","","","","","null","<div style=""font-size:100px;color:red;"">Starting in...</div>","null","","","","","","","","","","","","",""
"html-keyboard-response","258","1028896","0.0-4.0-6.0-1.0","spark_pilot_norest","8771","6","22","Female","","","","","","","null","<div style=""font-size:200px;color:red;"">3</div>","null","","","","","","","","","","","","",""
"html-keyboard-response","259","1029911","0.0-4.0-6.0-2.0","spark_pilot_norest","8771","6","22","Female","","","","","","","null","<div style=""font-size:200px;color:red;"">2</div>","null","","","","","","","","","","","","",""
"html-keyboard-response","260","1030914","0.0-4.0-6.0-3.0","spark_pilot_norest","8771","6","22","Female","","","","","","","null","<div style=""font-size:200px;color:red;"">1</div>","null","","","","","","","","","","","","",""
"revaluation","261","1031466","0.0-4.0-7.0-0.0","spark_pilot_norest","8771","6","22","Female","","","false","","","","[545.7999999523163]","./assets/img/canyon/test/0.jpg","[""ArrowDown""]","first stage test","canyon","0","{""ArrowUp,ArrowLeft"":27,""ArrowUp,ArrowRight"":15,""ArrowDown,ArrowLeft"":21,""ArrowDown,ArrowRight"":7}","false","ArrowDown","false","revaluation","1","","","",""
"html-keyboard-response","262","1031972","0.0-4.0-7.0-1.0","spark_pilot_norest","8771","6","22","Female","","","","","","","null","<div style=""font-size:60px;"">+</div>","null","fixation","","","","","","","","","","","",""
"revaluation","263","1032667","0.0-4.0-7.0-0.1","spark_pilot_norest","8771","6","22","Female","","","false","","","","[690]","./assets/img/canyon/test/3.jpg","[""ArrowDown""]","first stage test","canyon","0","{""ArrowUp,ArrowLeft"":27,""ArrowUp,ArrowRight"":15,""ArrowDown,ArrowLeft"":21,""ArrowDown,ArrowRight"":7}","false","ArrowDown","false","revaluation","1","","","",""
"html-keyboard-response","264","1033180","0.0-4.0-7.0-1.1","spark_pilot_norest","8771","6","22","Female","","","","","","","null","<div style=""font-size:60px;"">+</div>","null","fixation","","","","","","","","","","","",""
"revaluation","265","1034413","0.0-4.0-7.0-0.2","spark_pilot_norest","8771","6","22","Female","","","false","","","","[1227.6999999284744]","./assets/img/canyon/test/2.jpg","[""ArrowDown""]","first stage test","canyon","0","{""ArrowUp,ArrowLeft"":27,""ArrowUp,ArrowRight"":15,""ArrowDown,ArrowLeft"":21,""ArrowDown,ArrowRight"":7}","false","ArrowDown","false","revaluation","1","","","",""
"html-keyboard-response","266","1034917","0.0-4.0-7.0-1.2","spark_pilot_norest","8771","6","22","Female","","","","","","","null","<div style=""font-size:60px;"">+</div>","null","fixation","","","","","","","","","","","",""
"revaluation","267","1035834","0.0-4.0-7.0-0.3","spark_pilot_norest","8771","6","22","Female","","","false","","","","[910.7999999523163]","./assets/img/canyon/test/1.jpg","[""ArrowDown""]","first stage test","canyon","0","{""ArrowUp,ArrowLeft"":27,""ArrowUp,ArrowRight"":15,""ArrowDown,ArrowLeft"":21,""ArrowDown,ArrowRight"":7}","false","ArrowDown","false","revaluation","1","","","",""
"html-keyboard-response","268","1036337","0.0-4.0-7.0-1.3","spark_pilot_norest","8771","6","22","Female","","","","","","","null","<div style=""font-size:60px;"">+</div>","null","fixation","","","","","","","","","","","",""
"learning-instructions","269","1049683","0.0-4.0-8.0-0.0","spark_pilot_norest","8771","6","22","Female","","","","","","","null","<p> Now you will see the animals again and can search their chests for treasure. </p>
            <p> This time, you will not see how much treasure you earned, but you will earn more bonus money for making better choices. </p>","","instructions","","","","","","","","","","","",""
"html-keyboard-response","270","1050687","0.0-4.0-9.0-0.0","spark_pilot_norest","8771","6","22","Female","","","","","","","null","<div style=""font-size:100px;color:red;"">Starting in...</div>","null","","","","","","","","","","","","",""
"html-keyboard-response","271","1051690","0.0-4.0-9.0-1.0","spark_pilot_norest","8771","6","22","Female","","","","","","","null","<div style=""font-size:200px;color:red;"">3</div>","null","","","","","","","","","","","","",""
"html-keyboard-response","272","1052707","0.0-4.0-9.0-2.0","spark_pilot_norest","8771","6","22","Female","","","","","","","null","<div style=""font-size:200px;color:red;"">2</div>","null","","","","","","","","","","","","",""
"html-keyboard-response","273","1053709","0.0-4.0-9.0-3.0","spark_pilot_norest","8771","6","22","Female","","","","","","","null","<div style=""font-size:200px;color:red;"">1</div>","null","","","","","","","","","","","","",""
"revaluation","274","1054372","0.0-4.0-10.0-0.0","spark_pilot_norest","8771","6","22","Female","","","false","","","","[657.3999999761581]","./assets/img/canyon/animals/lion.jpg","[""ArrowRight""]","second stage test","canyon","0","{""ArrowUp,ArrowLeft"":27,""ArrowUp,ArrowRight"":15,""ArrowDown,ArrowLeft"":21,""ArrowDown,ArrowRight"":7}","false","ArrowUp,ArrowRight","","revaluation","1","","","",""
"html-keyboard-response","275","1054874","0.0-4.0-10.0-1.0","spark_pilot_norest","8771","6","22","Female","","","","","","","null","<div style=""font-size:60px;"">+</div>","null","fixation","","","","","","","","","","","",""
"revaluation","276","1055558","0.0-4.0-10.0-0.1","spark_pilot_norest","8771","6","22","Female","","","false","","","","[678.2999999523163]","./assets/img/canyon/animals/lion.jpg","[""ArrowLeft""]","second stage test","canyon","0","{""ArrowUp,ArrowLeft"":27,""ArrowUp,ArrowRight"":15,""ArrowDown,ArrowLeft"":21,""ArrowDown,ArrowRight"":7}","true","ArrowUp,ArrowLeft","","revaluation","1","","","",""
"html-keyboard-response","277","1056064","0.0-4.0-10.0-1.1","spark_pilot_norest","8771","6","22","Female","","","","","","","null","<div style=""font-size:60px;"">+</div>","null","fixation","","","","","","","","","","","",""
"revaluation","278","1056691","0.0-4.0-10.0-0.2","spark_pilot_norest","8771","6","22","Female","","","false","","","","[617.6999999284744]","./assets/img/canyon/animals/lion.jpg","[""ArrowLeft""]","second stage test","canyon","0","{""ArrowUp,ArrowLeft"":27,""ArrowUp,ArrowRight"":15,""ArrowDown,ArrowLeft"":21,""ArrowDown,ArrowRight"":7}","true","ArrowUp,ArrowLeft","","revaluation","1","","","",""
"html-keyboard-response","279","1057197","0.0-4.0-10.0-1.2","spark_pilot_norest","8771","6","22","Female","","","","","","","null","<div style=""font-size:60px;"">+</div>","null","fixation","","","","","","","","","","","",""
"revaluation","280","1057748","0.0-4.0-10.0-0.3","spark_pilot_norest","8771","6","22","Female","","","false","","","","[545.6000000238419]","./assets/img/canyon/animals/lion.jpg","[""ArrowLeft""]","second stage test","canyon","0","{""ArrowUp,ArrowLeft"":27,""ArrowUp,ArrowRight"":15,""ArrowDown,ArrowLeft"":21,""ArrowDown,ArrowRight"":7}","true","ArrowUp,ArrowLeft","","revaluation","1","","","",""
"html-keyboard-response","281","1058251","0.0-4.0-10.0-1.3","spark_pilot_norest","8771","6","22","Female","","","","","","","null","<div style=""font-size:60px;"">+</div>","null","fixation","","","","","","","","","","","",""
"revaluation","282","1059158","0.0-4.0-10.0-0.4","spark_pilot_norest","8771","6","22","Female","","","false","","","","[901.2999999523163]","./assets/img/canyon/animals/giraffe.jpg","[""ArrowRight""]","second stage test","canyon","0","{""ArrowUp,ArrowLeft"":27,""ArrowUp,ArrowRight"":15,""ArrowDown,ArrowLeft"":21,""ArrowDown,ArrowRight"":7}","false","ArrowDown,ArrowRight","","revaluation","1","","","",""
"html-keyboard-response","283","1059666","0.0-4.0-10.0-1.4","spark_pilot_norest","8771","6","22","Female","","","","","","","null","<div style=""font-size:60px;"">+</div>","null","fixation","","","","","","","","","","","",""
"revaluation","284","1060560","0.0-4.0-10.0-0.5","spark_pilot_norest","8771","6","22","Female","","","false","","","","[887]","./assets/img/canyon/animals/giraffe.jpg","[""ArrowRight""]","second stage test","canyon","0","{""ArrowUp,ArrowLeft"":27,""ArrowUp,ArrowRight"":15,""ArrowDown,ArrowLeft"":21,""ArrowDown,ArrowRight"":7}","false","ArrowDown,ArrowRight","","revaluation","1","","","",""
"html-keyboard-response","285","1061065","0.0-4.0-10.0-1.5","spark_pilot_norest","8771","6","22","Female","","","","","","","null","<div style=""font-size:60px;"">+</div>","null","fixation","","","","","","","","","","","",""
"revaluation","286","1062126","0.0-4.0-10.0-0.6","spark_pilot_norest","8771","6","22","Female","","","false","","","","[1054.3000000715256]","./assets/img/canyon/animals/giraffe.jpg","[""ArrowRight""]","second stage test","canyon","0","{""ArrowUp,ArrowLeft"":27,""ArrowUp,ArrowRight"":15,""ArrowDown,ArrowLeft"":21,""ArrowDown,ArrowRight"":7}","false","ArrowDown,ArrowRight","","revaluation","1","","","",""
"html-keyboard-response","287","1062642","0.0-4.0-10.0-1.6","spark_pilot_norest","8771","6","22","Female","","","","","","","null","<div style=""font-size:60px;"">+</div>","null","fixation","","","","","","","","","","","",""
"revaluation","288","1063967","0.0-4.0-10.0-0.7","spark_pilot_norest","8771","6","22","Female","","","false","","","","[1318.7999999523163]","./assets/img/canyon/animals/giraffe.jpg","[""ArrowLeft""]","second stage test","canyon","0","{""ArrowUp,ArrowLeft"":27,""ArrowUp,ArrowRight"":15,""ArrowDown,ArrowLeft"":21,""ArrowDown,ArrowRight"":7}","true","ArrowDown,ArrowLeft","","revaluation","1","","","",""
"html-keyboard-response","289","1064477","0.0-4.0-10.0-1.7","spark_pilot_norest","8771","6","22","Female","","","","","","","null","<div style=""font-size:60px;"">+</div>","null","fixation","","","","","","","","","","","",""
"learning-instructions","290","1068936","0.0-4.0-0.1-0.2","spark_pilot_norest","8771","6","22","Female","","","","","","","1736.3999999761581","<p> This time you are searching for treasure in the <b>ocean</b>.</p>","","instructions","","","","","","","","","","","",""
"learning-instructions","291","1087177","0.0-4.0-0.1-0.3","spark_pilot_norest","8771","6","22","Female","","","","","","","986.8000000715256","<p><b>New</b> animals with <b>new</b> treasure chests live here. You need to explore to discover where the animal with the best treasure chest is.</p>
                    <p> Like before, once you figure out which animal has the chest with the most treasure, you should try to get to that animal and select that chest! </p>","","instructions","","","","","","","","","","","",""
"learning-instructions","292","1102513","0.0-4.0-1.1-0.1","spark_pilot_norest","8771","6","22","Female","","","","","","","603.6000000238419","<p> Remember, when you see a picture of the place, use the up and down keys to <b>find an animal</b>.</p>
            <p> When you encounter an animal, you should use the left and right keys to <b>select a treasure chest</b>.</p>
            <p> Don't forget to look out for the robber! </p>","","instructions","","","","","","","","","","","",""
"revaluation","293","1108524","0.0-4.0-2.1-0.50","spark_pilot_norest","8771","6","22","Female","","","false","","","","[872.5,624.1000000238419]","./assets/img/ocean/memory/23.jpg","[""ArrowUp"",""ArrowRight""]","value training","ocean","10","{""ArrowUp,ArrowLeft"":26,""ArrowUp,ArrowRight"":10,""ArrowDown,ArrowLeft"":5,""ArrowDown,ArrowRight"":17}","false","ArrowUp,ArrowRight","false","original","2","0","","",""
"html-keyboard-response","294","1109039","0.0-4.0-2.1-1.50","spark_pilot_norest","8771","6","22","Female","","","","","","","null","<div style=""font-size:60px;"">+</div>","null","fixation","","","","","","","","","1","","",""
"revaluation","295","1113053","0.0-4.0-2.1-0.51","spark_pilot_norest","8771","6","22","Female","","","false","","","","[1216.8000000715256]","./assets/img/ocean/catch/5.jpg","[""spaceBar""]","value training","ocean","0","{""ArrowUp,ArrowLeft"":26,""ArrowUp,ArrowRight"":10,""ArrowDown,ArrowLeft"":5,""ArrowDown,ArrowRight"":17}","true","spaceBar","true","original","2","2","","",""
"html-keyboard-response","296","1113555","0.0-4.0-2.1-1.51","spark_pilot_norest","8771","6","22","Female","","","","","","","null","<div style=""font-size:60px;"">+</div>","null","fixation","","","","","","","","","3","","",""
"revaluation","297","1119579","0.0-4.0-2.1-0.52","spark_pilot_norest","8771","6","22","Female","","","false","","","","[654.2000000476837,288.60000002384186]","./assets/img/ocean/memory/31.jpg","[""ArrowUp"",""ArrowLeft""]","value training","ocean","26","{""ArrowUp,ArrowLeft"":26,""ArrowUp,ArrowRight"":10,""ArrowDown,ArrowLeft"":5,""ArrowDown,ArrowRight"":17}","true","ArrowUp,ArrowLeft","false","original","2","4","","",""
"html-keyboard-response","298","1120097","0.0-4.0-2.1-1.52","spark_pilot_norest","8771","6","22","Female","","","","","","","null","<div style=""font-size:60px;"">+</div>","null","fixation","","","","","","","","","5","","",""
"revaluation","299","1126140","0.0-4.0-2.1-0.53","spark_pilot_norest","8771","6","22","Female","","","false","","","","[1008.5,794.2000000476837]","./assets/img/ocean/memory/10.jpg","[""ArrowDown"",""ArrowLeft""]","value training","ocean","5","{""ArrowUp,ArrowLeft"":26,""ArrowUp,ArrowRight"":10,""ArrowDown,ArrowLeft"":5,""ArrowDown,ArrowRight"":17}","false","ArrowDown,ArrowLeft","false","original","2","6","","",""
"html-keyboard-response","300","1126654","0.0-4.0-2.1-1.53","spark_pilot_norest","8771","6","22","Female","","","","","","","null","<div style=""font-size:60px;"">+</div>","null","fixation","","","","","","","","","7","","",""
"revaluation","301","1132679","0.0-4.0-2.1-0.54","spark_pilot_norest","8771","6","22","Female","","","false","","","","[492.8000000715256,453.1999999284744]","./assets/img/ocean/memory/15.jpg","[""ArrowDown"",""ArrowRight""]","value training","ocean","17","{""ArrowUp,ArrowLeft"":26,""ArrowUp,ArrowRight"":10,""ArrowDown,ArrowLeft"":5,""ArrowDown,ArrowRight"":17}","false","ArrowDown,ArrowRight","false","original","2","8","","",""
"html-keyboard-response","302","1133181","0.0-4.0-2.1-1.54","spark_pilot_norest","8771","6","22","Female","","","","","","","null","<div style=""font-size:60px;"">+</div>","null","fixation","","","","","","","","","9","","",""
"revaluation","303","1139190","0.0-4.0-2.1-0.55","spark_pilot_norest","8771","6","22","Female","","","false","","","","[545.3999999761581,435.2000000476837]","./assets/img/ocean/memory/38.jpg","[""ArrowUp"",""ArrowLeft""]","value training","ocean","26","{""ArrowUp,ArrowLeft"":26,""ArrowUp,ArrowRight"":10,""ArrowDown,ArrowLeft"":5,""ArrowDown,ArrowRight"":17}","true","ArrowUp,ArrowLeft","false","original","2","10","","",""
"html-keyboard-response","304","1139693","0.0-4.0-2.1-1.55","spark_pilot_norest","8771","6","22","Female","","","","","","","null","<div style=""font-size:60px;"">+</div>","null","fixation","","","","","","","","","11","","",""
"revaluation","305","1143700","0.0-4.0-2.1-0.56","spark_pilot_norest","8771","6","22","Female","","","false","","","","[704.5999999046326]","./assets/img/ocean/catch/3.jpg","[""spaceBar""]","value training","ocean","0","{""ArrowUp,ArrowLeft"":26,""ArrowUp,ArrowRight"":10,""ArrowDown,ArrowLeft"":5,""ArrowDown,ArrowRight"":17}","true","spaceBar","true","original","2","12","","",""
"html-keyboard-response","306","1144201","0.0-4.0-2.1-1.56","spark_pilot_norest","8771","6","22","Female","","","","","","","null","<div style=""font-size:60px;"">+</div>","null","fixation","","","","","","","","","13","","",""
"revaluation","307","1150210","0.0-4.0-2.1-0.57","spark_pilot_norest","8771","6","22","Female","","","false","","","","[710.8999999761581,381.89999997615814]","./assets/img/ocean/memory/1.jpg","[""ArrowUp"",""ArrowLeft""]","value training","ocean","26","{""ArrowUp,ArrowLeft"":26,""ArrowUp,ArrowRight"":10,""ArrowDown,ArrowLeft"":5,""ArrowDown,ArrowRight"":17}","true","ArrowUp,ArrowLeft","false","original","2","14","","",""
"html-keyboard-response","308","1150713","0.0-4.0-2.1-1.57","spark_pilot_norest","8771","6","22","Female","","","","","","","null","<div style=""font-size:60px;"">+</div>","null","fixation","","","","","","","","","15","","",""
"revaluation","309","1156722","0.0-4.0-2.1-0.58","spark_pilot_norest","8771","6","22","Female","","","false","","","","[740.8999999761581,372]","./assets/img/ocean/memory/36.jpg","[""ArrowUp"",""ArrowLeft""]","value training","ocean","26","{""ArrowUp,ArrowLeft"":26,""ArrowUp,ArrowRight"":10,""ArrowDown,ArrowLeft"":5,""ArrowDown,ArrowRight"":17}","true","ArrowUp,ArrowLeft","false","original","2","16","","",""
