"trial_type","trial_index","time_elapsed","internal_node_id","task_version","subject_id","assigned_condition","age","gender","success","timeout","failed_images","failed_audio","failed_video","browser_interaction","rt","stimulus","response","task_part","environment","score","rewardMap","correct","fullState","isCatch","condition","order","trial_num","key_press","ground_truth","bonus"
"pavlovia","0","2310","0.0-0.0","spark_pilot_norest","9639","2","15","Female","","","","","","","","","","","","","","","","","","","","","",""
"preload","1","34694","0.0-1.0","spark_pilot_norest","9639","2","15","Female","true","false","[]","[]","[]","[{""event"":""fullscreenenter"",""trial"":2,""time"":41428}]","","","","","","","","","","","","","","","",""
"fullscreen","2","42417","0.0-2.0","spark_pilot_norest","9639","2","15","Female","true","","","","","","","","","","","","","","","","","","","","",""
"audio-button-response","3","44068","0.0-3.0-0.0-0.0","spark_pilot_norest","9639","2","15","Female","","","","","","","1411","./assets/audio/audiotest/turtle.mp3","2","audio_test","","","","","","","","","","","",""
"learning-instructions","4","53353","0.0-3.0-1.0-0.0","spark_pilot_norest","9639","2","15","Female","","","","","","","2291.5","<p> Welcome! Please remember to stay in fullscreen mode and don't click away from the experiment. </p>","","instructions","","","","","","","","","","","",""
"learning-instructions","5","62705","0.0-3.0-1.0-0.1","spark_pilot_norest","9639","2","15","Female","","","","","","","920.1999999880791","<p> Today you will be playing a game to earn treasure. </p>
            <p> At the end of the experiment, you will earn a bonus based on how much treasure you find. </p>
            <img src='./assets/img/instructions/treasure.jpg' class='instructions-image'>","","instructions","","","","","","","","","","","",""
"learning-instructions","6","73181","0.0-3.0-1.0-0.2","spark_pilot_norest","9639","2","15","Female","","","","","","","2195.2000000029802","<p> Animals have hidden treasure in treasure chests. </p>
            <p> You need to first find an animal and then choose which of their treasure chests to search. </p>
            <img src='./assets/img/space/animals/cat.jpg' class='instructions-image'>","","instructions","","","","","","","","","","","",""
"learning-instructions","7","88200","0.0-3.0-1.0-0.3","spark_pilot_norest","9639","2","15","Female","","","","","","","1826.7999999970198","<p> In each round, you will search for treasure in a different place. In the real game, there will be two rounds. </p>
            <p> You will begin with a separate, practice round where you will search for treasure in outer space. </p>
            <img src='./assets/img/space/0.jpg' class='instructions-image'>","","instructions","","","","","","","","","","","",""
"learning-instructions","8","101496","0.0-3.0-1.0-0.4","spark_pilot_norest","9639","2","15","Female","","","","","","","1847","<p> On every turn, you will see a picture of the place that you are in, but the specific image may be different each time. </p>
            <p> For example, both of these images mean you are in outer space. </p>
            <img src='./assets/img/instructions/outerspace.jpg' class='instructions-image'>","","instructions","","","","","","","","","","","",""
"learning-instructions","9","110719","0.0-3.0-1.0-0.5","spark_pilot_norest","9639","2","15","Female","","","","","","","1370.6000000089407","<p> You need to decide which direction to travel in. </p>
            <p> You can choose between going <b>up or down</b> by using the arrow keys. </p>
            <img src='./assets/img/instructions/updown.jpg' class='instructions-image'>","","instructions","","","","","","","","","","","",""
"learning-instructions","10","135106","0.0-3.0-1.0-0.6","spark_pilot_norest","9639","2","15","Female","","","","","","","15554.70000000298","<p> You will have <b>2 seconds</b> to make your choice. </p>
            <p> If you do not make a choice within 2 seconds, you will not find an animal or earn treasure. </p>
            <img src='./assets/img/instructions/2seconds.jpg' class='instructions-image'>","","instructions","","","","","","","","","","","",""
"learning-instructions","11","145532","0.0-3.0-1.0-0.7","spark_pilot_norest","9639","2","15","Female","","","","","","","3364","<p> Let’s try practicing that now! </p>
            <p> When you see a picture of the place you are in, press the <b>up</b> key to travel up. </p>
            <img src='./assets/img/instructions/pressUp.jpg' class='instructions-image'>","","instructions","","","","","","","","","","","",""
"revaluation","12","149550","0.0-3.0-2.0-0.0","spark_pilot_norest","9639","2","15","Female","","false","","","","","[795]","./assets/img/space/0.jpg","[""ArrowUp""]","first stage practice","space","0","null","null","ArrowUp","false","","","","","",""
"html-keyboard-response","13","150055","0.0-3.0-2.0-1.0","spark_pilot_norest","9639","2","15","Female","","","","","","","null","<div style=""font-size:60px;"">+</div>","null","fixation","","","","","","","","","","","",""
"revaluation","14","154061","0.0-3.0-2.0-0.1","spark_pilot_norest","9639","2","15","Female","","false","","","","","[824.3999999910593]","./assets/img/space/1.jpg","[""ArrowUp""]","first stage practice","space","0","null","null","ArrowUp","false","","","","","",""
"html-keyboard-response","15","154562","0.0-3.0-2.0-1.1","spark_pilot_norest","9639","2","15","Female","","","","","","","null","<div style=""font-size:60px;"">+</div>","null","fixation","","","","","","","","","","","",""
"revaluation","16","158571","0.0-3.0-2.0-0.2","spark_pilot_norest","9639","2","15","Female","","false","","","","","[885.5999999940395]","./assets/img/space/2.jpg","[""ArrowUp""]","first stage practice","space","0","null","null","ArrowUp","false","","","","","",""
"html-keyboard-response","17","159072","0.0-3.0-2.0-1.2","spark_pilot_norest","9639","2","15","Female","","","","","","","null","<div style=""font-size:60px;"">+</div>","null","fixation","","","","","","","","","","","",""
"learning-instructions","18","166734","0.0-3.0-3.0-0.0","spark_pilot_norest","9639","2","15","Female","","","","","","","1556.9000000059605","<p> Great job! Now try pressing the <b>down</b> key to travel down. </p>
            <img src='./assets/img/instructions/pressDown.jpg' class='instructions-image'>","","instructions","","","","","","","","","","","",""
"revaluation","19","170743","0.0-3.0-4.0-0.0","spark_pilot_norest","9639","2","15","Female","","false","","","","","[369]","./assets/img/space/3.jpg","[""ArrowDown""]","first stage practice","space","0","null","null","ArrowDown","false","","","","","",""
"html-keyboard-response","20","171248","0.0-3.0-4.0-1.0","spark_pilot_norest","9639","2","15","Female","","","","","","","null","<div style=""font-size:60px;"">+</div>","null","fixation","","","","","","","","","","","",""
"revaluation","21","175253","0.0-3.0-4.0-0.1","spark_pilot_norest","9639","2","15","Female","","false","","","","","[342.19999998807907]","./assets/img/space/4.jpg","[""ArrowDown""]","first stage practice","space","0","null","null","ArrowDown","false","","","","","",""
"html-keyboard-response","22","175758","0.0-3.0-4.0-1.1","spark_pilot_norest","9639","2","15","Female","","","","","","","null","<div style=""font-size:60px;"">+</div>","null","fixation","","","","","","","","","","","",""
"revaluation","23","179769","0.0-3.0-4.0-0.2","spark_pilot_norest","9639","2","15","Female","","false","","","","","[560.2000000029802]","./assets/img/space/5.jpg","[""ArrowDown""]","first stage practice","space","0","null","null","ArrowDown","false","","","","","",""
"html-keyboard-response","24","180272","0.0-3.0-4.0-1.2","spark_pilot_norest","9639","2","15","Female","","","","","","","null","<div style=""font-size:60px;"">+</div>","null","fixation","","","","","","","","","","","",""
"learning-instructions","25","195368","0.0-3.0-5.0-0.0","spark_pilot_norest","9639","2","15","Female","","","","","","","5214.600000008941","<p> The animals don’t move, so the animal in the upper part of a place will stay in the upper part of a place, and the animal in the lower part of a place will stay in the lower part of a place. </p>","","instructions","","","","","","","","","","","",""
"learning-instructions","26","205566","0.0-3.0-5.0-0.1","spark_pilot_norest","9639","2","15","Female","","","","","","","1040.4000000059605","<p> Each animal has two treasure chests for you to choose from. </p>
            <p> The amount of treasure in each chest can range from <b> 0 to 40 pieces.</b></p>","","instructions","","","","","","","","","","","",""
"learning-instructions","27","217883","0.0-3.0-5.0-0.2","spark_pilot_norest","9639","2","15","Female","","","","","","","1092.2999999970198","<p> You should decide which chest to search for treasure by using the <b>left</b> and <b>right</b> arrow keys. </p>
            <p><b> Pay attention to which animal is on the screen, as the animals have different treasure chests. </b></p>
            <img src='./assets/img/instructions/leftright.jpg' class='instructions-image'>","","instructions","","","","","","","","","","","",""
"learning-instructions","28","225753","0.0-3.0-5.0-0.3","spark_pilot_norest","9639","2","15","Female","","","","","","","1480.2000000029802","<p> Let’s try practicing that now. </p>
            <p> When you see an animal, choose which chest to search for treasure. </p>
            <img src='./assets/img/instructions/chooseChest.jpg' class='instructions-image'>","","instructions","","","","","","","","","","","",""
"revaluation","29","229759","0.0-3.0-6.0-0.0","spark_pilot_norest","9639","2","15","Female","","false","","","","","[1000.5]","./assets/img/space/animals/rabbit.jpg","[""ArrowLeft""]","second stage practice","space","15","{""ArrowUp,ArrowLeft"":3,""ArrowUp,ArrowRight"":36,""ArrowDown,ArrowLeft"":15,""ArrowDown,ArrowRight"":23}","false","ArrowDown,ArrowLeft","","","","","","",""
"html-keyboard-response","30","230263","0.0-3.0-6.0-1.0","spark_pilot_norest","9639","2","15","Female","","","","","","","null","<div style=""font-size:60px;"">+</div>","null","fixation","","","","","","","","","","","",""
"revaluation","31","234274","0.0-3.0-6.0-0.1","spark_pilot_norest","9639","2","15","Female","","false","","","","","[467.20000000298023]","./assets/img/space/animals/cat.jpg","[""ArrowRight""]","second stage practice","space","36","{""ArrowUp,ArrowLeft"":3,""ArrowUp,ArrowRight"":36,""ArrowDown,ArrowLeft"":15,""ArrowDown,ArrowRight"":23}","true","ArrowUp,ArrowRight","","","","","","",""
"html-keyboard-response","32","234779","0.0-3.0-6.0-1.1","spark_pilot_norest","9639","2","15","Female","","","","","","","null","<div style=""font-size:60px;"">+</div>","null","fixation","","","","","","","","","","","",""
"revaluation","33","238790","0.0-3.0-6.0-0.2","spark_pilot_norest","9639","2","15","Female","","false","","","","","[451.3999999910593]","./assets/img/space/animals/rabbit.jpg","[""ArrowLeft""]","second stage practice","space","15","{""ArrowUp,ArrowLeft"":3,""ArrowUp,ArrowRight"":36,""ArrowDown,ArrowLeft"":15,""ArrowDown,ArrowRight"":23}","false","ArrowDown,ArrowLeft","","","","","","",""
"html-keyboard-response","34","239295","0.0-3.0-6.0-1.2","spark_pilot_norest","9639","2","15","Female","","","","","","","null","<div style=""font-size:60px;"">+</div>","null","fixation","","","","","","","","","","","",""
"revaluation","35","243300","0.0-3.0-6.0-0.3","spark_pilot_norest","9639","2","15","Female","","false","","","","","[367.20000000298023]","./assets/img/space/animals/cat.jpg","[""ArrowLeft""]","second stage practice","space","3","{""ArrowUp,ArrowLeft"":3,""ArrowUp,ArrowRight"":36,""ArrowDown,ArrowLeft"":15,""ArrowDown,ArrowRight"":23}","false","ArrowUp,ArrowLeft","","","","","","",""
"html-keyboard-response","36","243805","0.0-3.0-6.0-1.3","spark_pilot_norest","9639","2","15","Female","","","","","","","null","<div style=""font-size:60px;"">+</div>","null","fixation","","","","","","","","","","","",""
"learning-instructions","37","262765","0.0-3.0-7.0-0.0","spark_pilot_norest","9639","2","15","Female","","","","","","","2102.7000000029802","<p> Great job. Now let’s try putting it together. </p>
            <p> On each turn, you will first see a picture to remind you of the place you are in, and you need to choose whether to go up or down. </p>
            <p> Then you will see an animal and choose which of its chests to search for treasure. </p>","","instructions","","","","","","","","","","","",""
"learning-instructions","38","272679","0.0-3.0-7.0-0.1","spark_pilot_norest","9639","2","15","Female","","","","","","","1632.7000000029802","<p> When you choose whether to go up or down, try to go to the animal with the chest with the most treasure. </p>
            <p> Try practicing that now! </p>","","instructions","","","","","","","","","","","",""
"revaluation","39","278691","0.0-3.0-8.0-0.0","spark_pilot_norest","9639","2","15","Female","","false","","","","","[603.7000000029802,999.2000000029802]","./assets/img/space/6.jpg","[""ArrowUp"",""ArrowRight""]","full practice","space","36","{""ArrowUp,ArrowLeft"":3,""ArrowUp,ArrowRight"":36,""ArrowDown,ArrowLeft"":15,""ArrowDown,ArrowRight"":23}","true","ArrowUp,ArrowRight","false","","","","","",""
"html-keyboard-response","40","279193","0.0-3.0-8.0-1.0","spark_pilot_norest","9639","2","15","Female","","","","","","","null","<div style=""font-size:60px;"">+</div>","null","fixation","","","","","","","","","","","",""
"revaluation","41","285198","0.0-3.0-8.0-0.1","spark_pilot_norest","9639","2","15","Female","","false","","","","","[1357.4000000059605,684.2999999970198]","./assets/img/space/7.jpg","[""ArrowDown"",""ArrowRight""]","full practice","space","23","{""ArrowUp,ArrowLeft"":3,""ArrowUp,ArrowRight"":36,""ArrowDown,ArrowLeft"":15,""ArrowDown,ArrowRight"":23}","false","ArrowDown,ArrowRight","false","","","","","",""
"html-keyboard-response","42","285703","0.0-3.0-8.0-1.1","spark_pilot_norest","9639","2","15","Female","","","","","","","null","<div style=""font-size:60px;"">+</div>","null","fixation","","","","","","","","","","","",""
"revaluation","43","291710","0.0-3.0-8.0-0.2","spark_pilot_norest","9639","2","15","Female","","false","","","","","[440.5,455.59999999403954]","./assets/img/space/8.jpg","[""ArrowDown"",""ArrowLeft""]","full practice","space","15","{""ArrowUp,ArrowLeft"":3,""ArrowUp,ArrowRight"":36,""ArrowDown,ArrowLeft"":15,""ArrowDown,ArrowRight"":23}","false","ArrowDown,ArrowLeft","false","","","","","",""
"html-keyboard-response","44","292215","0.0-3.0-8.0-1.2","spark_pilot_norest","9639","2","15","Female","","","","","","","null","<div style=""font-size:60px;"">+</div>","null","fixation","","","","","","","","","","","",""
"revaluation","45","298221","0.0-3.0-8.0-0.3","spark_pilot_norest","9639","2","15","Female","","false","","","","","[489.70000000298023,393.5]","./assets/img/space/9.jpg","[""ArrowDown"",""ArrowRight""]","full practice","space","23","{""ArrowUp,ArrowLeft"":3,""ArrowUp,ArrowRight"":36,""ArrowDown,ArrowLeft"":15,""ArrowDown,ArrowRight"":23}","false","ArrowDown,ArrowRight","false","","","","","",""
"html-keyboard-response","46","298722","0.0-3.0-8.0-1.3","spark_pilot_norest","9639","2","15","Female","","","","","","","null","<div style=""font-size:60px;"">+</div>","null","fixation","","","","","","","","","","","",""
"revaluation","47","304732","0.0-3.0-8.0-0.4","spark_pilot_norest","9639","2","15","Female","","false","","","","","[343.29999999701977,478.29999999701977]","./assets/img/space/10.jpg","[""ArrowUp"",""ArrowRight""]","full practice","space","36","{""ArrowUp,ArrowLeft"":3,""ArrowUp,ArrowRight"":36,""ArrowDown,ArrowLeft"":15,""ArrowDown,ArrowRight"":23}","true","ArrowUp,ArrowRight","false","","","","","",""
"html-keyboard-response","48","305236","0.0-3.0-8.0-1.4","spark_pilot_norest","9639","2","15","Female","","","","","","","null","<div style=""font-size:60px;"">+</div>","null","fixation","","","","","","","","","","","",""
"learning-instructions","49","319524","0.0-3.0-9.0-0.0","spark_pilot_norest","9639","2","15","Female","","","","","","","2186.5","<p> One last thing: sometimes, you will see a robber. The robber can be anywhere in the picture. </p>
            <p> If you do not stop them, you will lose treasure. </p>
            <img src='./assets/img/instructions/robber.jpg' class='instructions-image'>","","instructions","","","","","","","","","","","",""
"learning-instructions","50","328337","0.0-3.0-9.0-0.1","spark_pilot_norest","9639","2","15","Female","","","","","","","1631.4000000059605","<p> If you see the robber, you should <b>press the space bar</b> rather than using the arrow keys. </p>
            <p> Try practicing that now! </p>","","instructions","","","","","","","","","","","",""
"revaluation","51","332342","0.0-3.0-10.0-0.0","spark_pilot_norest","9639","2","15","Female","","false","","","","","[693.7999999970198]","./assets/img/space/catch/0.jpg","[""ArrowUp""]","catch practice","space","-10","{""ArrowUp,ArrowLeft"":3,""ArrowUp,ArrowRight"":36,""ArrowDown,ArrowLeft"":15,""ArrowDown,ArrowRight"":23}","false","ArrowUp","true","","","","","",""
"html-keyboard-response","52","332847","0.0-3.0-10.0-1.0","spark_pilot_norest","9639","2","15","Female","","","","","","","null","<div style=""font-size:60px;"">+</div>","null","fixation","","","","","","","","","","","",""
"revaluation","53","336852","0.0-3.0-10.0-0.1","spark_pilot_norest","9639","2","15","Female","","false","","","","","[511.30000001192093]","./assets/img/space/catch/1.jpg","[""spaceBar""]","catch practice","space","0","{""ArrowUp,ArrowLeft"":3,""ArrowUp,ArrowRight"":36,""ArrowDown,ArrowLeft"":15,""ArrowDown,ArrowRight"":23}","true","spaceBar","true","","","","","",""
"html-keyboard-response","54","337357","0.0-3.0-10.0-1.1","spark_pilot_norest","9639","2","15","Female","","","","","","","null","<div style=""font-size:60px;"">+</div>","null","fixation","","","","","","","","","","","",""
"revaluation","55","341362","0.0-3.0-10.0-0.2","spark_pilot_norest","9639","2","15","Female","","false","","","","","[449]","./assets/img/space/catch/2.jpg","[""spaceBar""]","catch practice","space","0","{""ArrowUp,ArrowLeft"":3,""ArrowUp,ArrowRight"":36,""ArrowDown,ArrowLeft"":15,""ArrowDown,ArrowRight"":23}","true","spaceBar","true","","","","","",""
"html-keyboard-response","56","341865","0.0-3.0-10.0-1.2","spark_pilot_norest","9639","2","15","Female","","","","","","","null","<div style=""font-size:60px;"">+</div>","null","fixation","","","","","","","","","","","",""
"learning-instructions","57","354579","0.0-3.0-11.0-0.0-0.0","spark_pilot_norest","9639","2","15","Female","","","","","","","1642.5999999940395","<p> Now, you will practice a shortened version of the game to get a sense of how it all fits together. </p>","","instructions","","","","","","","","","","","",""
"learning-instructions","58","362594","0.0-3.0-11.0-0.0-0.1","spark_pilot_norest","9639","2","15","Female","","","","","","","2128.4000000059605","<p>This time you are searching for treasure in outer space.</p>","","instructions","","","","","","","","","","","",""
"learning-instructions","59","379374","0.0-3.0-11.0-1.0-0.0","spark_pilot_norest","9639","2","15","Female","","","","","","","1959.6000000089407","<p> Remember, when you see a picture of the place, use the up and down keys to <b>find an animal</b>.</p>
            <p> When you encounter an animal, you should use the left and right keys to <b>select a treasure chest</b>.</p>
            <p> Don't forget to look out for the robber! </p>","","instructions","","","","","","","","","","","",""
"revaluation","60","385382","0.0-3.0-11.0-2.0-0.0","spark_pilot_norest","9639","2","15","Female","","false","","","","","[840.7999999970198,776.2000000029802]","./assets/img/space/11.jpg","[""ArrowUp"",""ArrowRight""]","practice block","space","36","{""ArrowUp,ArrowLeft"":3,""ArrowUp,ArrowRight"":36,""ArrowDown,ArrowLeft"":15,""ArrowDown,ArrowRight"":23}","true","ArrowUp,ArrowRight","false","","","","","",""
"html-keyboard-response","61","385887","0.0-3.0-11.0-2.0-1.0","spark_pilot_norest","9639","2","15","Female","","","","","","","null","<div style=""font-size:60px;"">+</div>","null","fixation","","","","","","","","","","","",""
"revaluation","62","391897","0.0-3.0-11.0-2.0-0.1","spark_pilot_norest","9639","2","15","Female","","false","","","","","[279.79999999701977,486]","./assets/img/space/12.jpg","[""ArrowUp"",""ArrowRight""]","practice block","space","36","{""ArrowUp,ArrowLeft"":3,""ArrowUp,ArrowRight"":36,""ArrowDown,ArrowLeft"":15,""ArrowDown,ArrowRight"":23}","true","ArrowUp,ArrowRight","false","","","","","",""
"html-keyboard-response","63","392402","0.0-3.0-11.0-2.0-1.1","spark_pilot_norest","9639","2","15","Female","","","","","","","null","<div style=""font-size:60px;"">+</div>","null","fixation","","","","","","","","","","","",""
"revaluation","64","398410","0.0-3.0-11.0-2.0-0.2","spark_pilot_norest","9639","2","15","Female","","false","","","","","[91.20000000298023,434.5]","./assets/img/space/13.jpg","[""ArrowUp"",""ArrowRight""]","practice block","space","36","{""ArrowUp,ArrowLeft"":3,""ArrowUp,ArrowRight"":36,""ArrowDown,ArrowLeft"":15,""ArrowDown,ArrowRight"":23}","true","ArrowUp,ArrowRight","false","","","","","",""
"html-keyboard-response","65","398915","0.0-3.0-11.0-2.0-1.2","spark_pilot_norest","9639","2","15","Female","","","","","","","null","<div style=""font-size:60px;"">+</div>","null","fixation","","","","","","","","","","","",""
"revaluation","66","404923","0.0-3.0-11.0-2.0-0.3","spark_pilot_norest","9639","2","15","Female","","false","","","","","[612.5999999940395,524.1000000089407]","./assets/img/space/14.jpg","[""ArrowDown"",""ArrowRight""]","practice block","space","23","{""ArrowUp,ArrowLeft"":3,""ArrowUp,ArrowRight"":36,""ArrowDown,ArrowLeft"":15,""ArrowDown,ArrowRight"":23}","false","ArrowDown,ArrowRight","false","","","","","",""
"html-keyboard-response","67","405427","0.0-3.0-11.0-2.0-1.3","spark_pilot_norest","9639","2","15","Female","","","","","","","null","<div style=""font-size:60px;"">+</div>","null","fixation","","","","","","","","","","","",""
"revaluation","68","411437","0.0-3.0-11.0-2.0-0.4","spark_pilot_norest","9639","2","15","Female","","false","","","","","[283.09999999403954,434.5]","./assets/img/space/11.jpg","[""ArrowUp"",""ArrowRight""]","practice block","space","36","{""ArrowUp,ArrowLeft"":3,""ArrowUp,ArrowRight"":36,""ArrowDown,ArrowLeft"":15,""ArrowDown,ArrowRight"":23}","true","ArrowUp,ArrowRight","false","","","","","",""
"html-keyboard-response","69","411941","0.0-3.0-11.0-2.0-1.4","spark_pilot_norest","9639","2","15","Female","","","","","","","null","<div style=""font-size:60px;"">+</div>","null","fixation","","","","","","","","","","","",""
"revaluation","70","417949","0.0-3.0-11.0-2.0-0.5","spark_pilot_norest","9639","2","15","Female","","false","","","","","[16.900000005960464,26.100000008940697]","./assets/img/space/12.jpg","[""ArrowUp"",""ArrowRight""]","practice block","space","36","{""ArrowUp,ArrowLeft"":3,""ArrowUp,ArrowRight"":36,""ArrowDown,ArrowLeft"":15,""ArrowDown,ArrowRight"":23}","true","ArrowUp,ArrowRight","false","","","","","",""
"html-keyboard-response","71","418454","0.0-3.0-11.0-2.0-1.5","spark_pilot_norest","9639","2","15","Female","","","","","","","null","<div style=""font-size:60px;"">+</div>","null","fixation","","","","","","","","","","","",""
"revaluation","72","424462","0.0-3.0-11.0-2.0-0.6","spark_pilot_norest","9639","2","15","Female","","false","","","","","[423.6000000089407,399.6000000089407]","./assets/img/space/13.jpg","[""ArrowUp"",""ArrowRight""]","practice block","space","36","{""ArrowUp,ArrowLeft"":3,""ArrowUp,ArrowRight"":36,""ArrowDown,ArrowLeft"":15,""ArrowDown,ArrowRight"":23}","true","ArrowUp,ArrowRight","false","","","","","",""
"html-keyboard-response","73","424967","0.0-3.0-11.0-2.0-1.6","spark_pilot_norest","9639","2","15","Female","","","","","","","null","<div style=""font-size:60px;"">+</div>","null","fixation","","","","","","","","","","","",""
"revaluation","74","430975","0.0-3.0-11.0-2.0-0.7","spark_pilot_norest","9639","2","15","Female","","false","","","","","[414.29999999701977,550]","./assets/img/space/14.jpg","[""ArrowUp"",""ArrowLeft""]","practice block","space","3","{""ArrowUp,ArrowLeft"":3,""ArrowUp,ArrowRight"":36,""ArrowDown,ArrowLeft"":15,""ArrowDown,ArrowRight"":23}","false","ArrowUp,ArrowLeft","false","","","","","",""
"html-keyboard-response","75","431479","0.0-3.0-11.0-2.0-1.7","spark_pilot_norest","9639","2","15","Female","","","","","","","null","<div style=""font-size:60px;"">+</div>","null","fixation","","","","","","","","","","","",""
"revaluation","76","435485","0.0-3.0-11.0-2.0-0.8","spark_pilot_norest","9639","2","15","Female","","false","","","","","[221.40000000596046]","./assets/img/space/catch/3.jpg","[""ArrowUp""]","practice block","space","-10","{""ArrowUp,ArrowLeft"":3,""ArrowUp,ArrowRight"":36,""ArrowDown,ArrowLeft"":15,""ArrowDown,ArrowRight"":23}","false","ArrowUp","true","","","","","",""
"html-keyboard-response","77","435990","0.0-3.0-11.0-2.0-1.8","spark_pilot_norest","9639","2","15","Female","","","","","","","null","<div style=""font-size:60px;"">+</div>","null","fixation","","","","","","","","","","","",""
"learning-instructions","78","452044","0.0-3.0-11.0-3.0-0.0","spark_pilot_norest","9639","2","15","Female","","","","","","","3098.3999999910593","<p> Now, you will travel with a friend who will choose whether you go up or down first. </p>
            <p> On these turns, you will just see the animal that they found. You will still get to choose which chest to search for treasure.</p>","","instructions","","","","","","","","","","","",""
"revaluation","79","456050","0.0-3.0-11.0-4.0-0.0","spark_pilot_norest","9639","2","15","Female","","false","","","","","[1591.7999999970198]","./assets/img/space/animals/rabbit.jpg","[""ArrowRight""]","practice block","space","23","{""ArrowUp,ArrowLeft"":3,""ArrowUp,ArrowRight"":36,""ArrowDown,ArrowLeft"":15,""ArrowDown,ArrowRight"":23}","true","ArrowDown,ArrowRight","","","","","","",""
"html-keyboard-response","80","456555","0.0-3.0-11.0-4.0-1.0","spark_pilot_norest","9639","2","15","Female","","","","","","","null","<div style=""font-size:60px;"">+</div>","null","fixation","","","","","","","","","","","",""
"revaluation","81","460561","0.0-3.0-11.0-4.0-0.1","spark_pilot_norest","9639","2","15","Female","","false","","","","","[232.3999999910593]","./assets/img/space/animals/cat.jpg","[""ArrowLeft""]","practice block","space","3","{""ArrowUp,ArrowLeft"":3,""ArrowUp,ArrowRight"":36,""ArrowDown,ArrowLeft"":15,""ArrowDown,ArrowRight"":23}","false","ArrowUp,ArrowLeft","","","","","","",""
"html-keyboard-response","82","461065","0.0-3.0-11.0-4.0-1.1","spark_pilot_norest","9639","2","15","Female","","","","","","","null","<div style=""font-size:60px;"">+</div>","null","fixation","","","","","","","","","","","",""
"revaluation","83","465076","0.0-3.0-11.0-4.0-0.2","spark_pilot_norest","9639","2","15","Female","","false","","","","","[345.70000000298023]","./assets/img/space/animals/cat.jpg","[""ArrowRight""]","practice block","space","36","{""ArrowUp,ArrowLeft"":3,""ArrowUp,ArrowRight"":36,""ArrowDown,ArrowLeft"":15,""ArrowDown,ArrowRight"":23}","true","ArrowUp,ArrowRight","","","","","","",""
"html-keyboard-response","84","465581","0.0-3.0-11.0-4.0-1.2","spark_pilot_norest","9639","2","15","Female","","","","","","","null","<div style=""font-size:60px;"">+</div>","null","fixation","","","","","","","","","","","",""
"revaluation","85","469587","0.0-3.0-11.0-4.0-0.3","spark_pilot_norest","9639","2","15","Female","","false","","","","","[333.69999998807907]","./assets/img/space/animals/rabbit.jpg","[""ArrowRight""]","practice block","space","23","{""ArrowUp,ArrowLeft"":3,""ArrowUp,ArrowRight"":36,""ArrowDown,ArrowLeft"":15,""ArrowDown,ArrowRight"":23}","true","ArrowDown,ArrowRight","","","","","","",""
"html-keyboard-response","86","470091","0.0-3.0-11.0-4.0-1.3","spark_pilot_norest","9639","2","15","Female","","","","","","","null","<div style=""font-size:60px;"">+</div>","null","fixation","","","","","","","","","","","",""
"learning-instructions","87","478235","0.0-3.0-11.0-5.0-0.0","spark_pilot_norest","9639","2","15","Female","","","","","","","null","<p> You have almost finished this part of the game! </p>
            <p> We are going to ask you to make a few more choices. </p>","","instructions","","","","","","","","","","","",""
"learning-instructions","88","494291","0.0-3.0-11.0-5.0-0.1","spark_pilot_norest","9639","2","15","Female","","","","","","","null","<p> First, you need to decide whether to go up or down. When you see each picture, use the arrow keys to make your choice. </p>
            <p><b>You will not see which animal you found, but try to get to the one that will give you the most treasure.</b></p>","","instructions","","","","","","","","","","","",""
"html-keyboard-response","89","495295","0.0-3.0-11.0-6.0-0.0","spark_pilot_norest","9639","2","15","Female","","","","","","","null","<div style=""font-size:100px;color:red;"">Starting in...</div>","null","","","","","","","","","","","","",""
"html-keyboard-response","90","496299","0.0-3.0-11.0-6.0-1.0","spark_pilot_norest","9639","2","15","Female","","","","","","","null","<div style=""font-size:200px;color:red;"">3</div>","null","","","","","","","","","","","","",""
"html-keyboard-response","91","497303","0.0-3.0-11.0-6.0-2.0","spark_pilot_norest","9639","2","15","Female","","","","","","","null","<div style=""font-size:200px;color:red;"">2</div>","null","","","","","","","","","","","","",""
"html-keyboard-response","92","498307","0.0-3.0-11.0-6.0-3.0","spark_pilot_norest","9639","2","15","Female","","","","","","","null","<div style=""font-size:200px;color:red;"">1</div>","null","","","","","","","","","","","","",""
"revaluation","93","498800","0.0-3.0-11.0-7.0","spark_pilot_norest","9639","2","15","Female","","false","","","","","[490.90000000596046]","./assets/img/space/15.jpg","[""ArrowDown""]","practice block","space","0","{""ArrowUp,ArrowLeft"":3,""ArrowUp,ArrowRight"":36,""ArrowDown,ArrowLeft"":15,""ArrowDown,ArrowRight"":23}","false","ArrowDown","false","","","","","",""
"html-keyboard-response","94","499303","0.0-3.0-11.0-8.0","spark_pilot_norest","9639","2","15","Female","","","","","","","null","<div style=""font-size:60px;"">+</div>","null","fixation","","","","","","","","","","","",""
"learning-instructions","95","512720","0.0-3.0-11.0-9.0-0.0","spark_pilot_norest","9639","2","15","Female","","","","","","","null","<p> Now you will see the animals again and can search their chests for treasure. </p>
            <p> This time, you will not see how much treasure you earned, but you will earn more bonus money for making better choices. </p>","","instructions","","","","","","","","","","","",""
"html-keyboard-response","96","513725","0.0-3.0-11.0-10.0-0.0","spark_pilot_norest","9639","2","15","Female","","","","","","","null","<div style=""font-size:100px;color:red;"">Starting in...</div>","null","","","","","","","","","","","","",""
"html-keyboard-response","97","514729","0.0-3.0-11.0-10.0-1.0","spark_pilot_norest","9639","2","15","Female","","","","","","","null","<div style=""font-size:200px;color:red;"">3</div>","null","","","","","","","","","","","","",""
"html-keyboard-response","98","515734","0.0-3.0-11.0-10.0-2.0","spark_pilot_norest","9639","2","15","Female","","","","","","","null","<div style=""font-size:200px;color:red;"">2</div>","null","","","","","","","","","","","","",""
"html-keyboard-response","99","516736","0.0-3.0-11.0-10.0-3.0","spark_pilot_norest","9639","2","15","Female","","","","","","","null","<div style=""font-size:200px;color:red;"">1</div>","null","","","","","","","","","","","","",""
"revaluation","100","517087","0.0-3.0-11.0-11.0-0.0","spark_pilot_norest","9639","2","15","Female","","false","","","","","[348.09999999403954]","./assets/img/space/animals/cat.jpg","[""ArrowRight""]","practice block","space","0","{""ArrowUp,ArrowLeft"":3,""ArrowUp,ArrowRight"":36,""ArrowDown,ArrowLeft"":15,""ArrowDown,ArrowRight"":23}","true","ArrowUp,ArrowRight","","","","","","",""
"html-keyboard-response","101","517591","0.0-3.0-11.0-11.0-1.0","spark_pilot_norest","9639","2","15","Female","","","","","","","null","<div style=""font-size:60px;"">+</div>","null","fixation","","","","","","","","","","","",""
"revaluation","102","518175","0.0-3.0-11.0-11.0-0.1","spark_pilot_norest","9639","2","15","Female","","false","","","","","[581.7000000029802]","./assets/img/space/animals/rabbit.jpg","[""ArrowLeft""]","practice block","space","0","{""ArrowUp,ArrowLeft"":3,""ArrowUp,ArrowRight"":36,""ArrowDown,ArrowLeft"":15,""ArrowDown,ArrowRight"":23}","false","ArrowDown,ArrowLeft","","","","","","",""
"html-keyboard-response","103","518676","0.0-3.0-11.0-11.0-1.1","spark_pilot_norest","9639","2","15","Female","","","","","","","null","<div style=""font-size:60px;"">+</div>","null","fixation","","","","","","","","","","","",""
"learning-instructions","104","529992","0.0-3.0-12.0-0.0","spark_pilot_norest","9639","2","15","Female","","","","","","","4756.79999999702","<p> Before you start, we're going to ask you a few questions about how the game works. </p>","","instructions","","","","","","","","","","","",""
"comp-q","105","539256","0.0-3.0-13.0-0.0-0.0","spark_pilot_norest","9639","2","15","Female","","","","","","","1972","<p> <b> True or False? </b> </p>
            <p> There can be 50 pieces of treasure in a given animal's chest. </p>","0","comp_question","","","","false","","","","","","","",""
"comp-q","106","548915","0.0-3.0-13.0-0.0-1.0","spark_pilot_norest","9639","2","15","Female","","","","","","","3113.7999999970198","<p> <b>Incorrect.</b> The amount of treasure in each chest can range from 0 to 40 pieces. </p>","0","comp_answer","","","","","","","","","","","",""
"comp-q","107","555737","0.0-3.0-13.0-0.1-0.1","spark_pilot_norest","9639","2","15","Female","","","","","","","1257.5","<p> <b> True or False? </b> </p>
            <p> There can be 50 pieces of treasure in a given animal's chest. </p>","1","comp_question","","","","true","","","","","","","",""
"comp-q","108","566112","0.0-3.0-13.0-0.1-1.1","spark_pilot_norest","9639","2","15","Female","","","","","","","3698.2000000029802","<p> <b> That's right! </b> The amount of treasure in each chest can range from 0 to 40 pieces. </p>","0","comp_answer","","","","","","","","","","","",""
"comp-q","109","574688","0.0-3.0-13.0-0.2-0.2","spark_pilot_norest","9639","2","15","Female","","","","","","","1436.2000000029802","<p> <b> True or False? </b> </p><p> In this game, all animals have the same amount of treasure in their left and right chests. </p>","1","comp_question","","","","true","","","","","","","",""
"comp-q","110","583683","0.0-3.0-13.0-0.2-1.2","spark_pilot_norest","9639","2","15","Female","","","","","","","2084.6000000089407","<p> <b> That's right! </b> Animals have different amounts of treasure in their treasure chests. </p>","0","comp_answer","","","","","","","","","","","",""
"comp-q","111","591031","0.0-3.0-13.0-0.3-0.3","spark_pilot_norest","9639","2","15","Female","","","","","","","1485.3999999910593","<p> <b> True or False? </b> </p><p> The same animal will always be there if you go up in the same place. </p>","1","comp_question","","","","false","","","","","","","",""
"comp-q","112","600066","0.0-3.0-13.0-0.3-1.3","spark_pilot_norest","9639","2","15","Female","","","","","","","1175.2000000029802","<p> <b>Incorrect.</b> One animal lives in the upper part and one lives in the lower part of every place. </p>","0","comp_answer","","","","","","","","","","","",""
"comp-q","113","607272","0.0-3.0-13.0-0.4-0.4","spark_pilot_norest","9639","2","15","Female","","","","","","","1386.2999999970198","<p> <b> True or False? </b> </p><p> The same animal will always be there if you go up in the same place. </p>","1","comp_question","","","","false","","","","","","","",""
"comp-q","114","614779","0.0-3.0-13.0-0.4-1.4","spark_pilot_norest","9639","2","15","Female","","","","","","","1226.3999999910593","<p> <b>Incorrect.</b> One animal lives in the upper part and one lives in the lower part of every place. </p>","0","comp_answer","","","","","","","","","","","",""
"comp-q","115","621325","0.0-3.0-13.0-0.5-0.5","spark_pilot_norest","9639","2","15","Female","","","","","","","725.4000000059605","<p> <b> True or False? </b> </p><p> The same animal will always be there if you go up in the same place. </p>","0","comp_question","","","","true","","","","","","","",""
"comp-q","116","630148","0.0-3.0-13.0-0.5-1.5","spark_pilot_norest","9639","2","15","Female","","","","","","","812.0999999940395","<p> <b> That's right! </b> One animal lives in the upper part and one lives in the lower part of every place. </p>","0","comp_answer","","","","","","","","","","","",""
"comp-q","117","639005","0.0-3.0-13.0-0.6-0.6","spark_pilot_norest","9639","2","15","Female","","","","","","","1972.7000000029802","<p> <b> True or False? </b> </p><p> If you see a different picture, it means you are in a new place. </p>","0","comp_question","","","","false","","","","","","","",""
"comp-q","118","651354","0.0-3.0-13.0-0.6-1.6","spark_pilot_norest","9639","2","15","Female","","","","","","","1220.7999999970198","<p> <b>Incorrect.</b> Lots of different images may show the same place. For example,  you may see three different images that all remind you that you are in outer space. </p>","0","comp_answer","","","","","","","","","","","",""
"comp-q","119","657887","0.0-3.0-13.0-0.7-0.7","spark_pilot_norest","9639","2","15","Female","","","","","","","1031.8999999910593","<p> <b> True or False? </b> </p><p> If you see a different picture, it means you are in a new place. </p>","1","comp_question","","","","true","","","","","","","",""
"comp-q","120","674099","0.0-3.0-13.0-0.7-1.7","spark_pilot_norest","9639","2","15","Female","","","","","","","3173.5","<p> <b> That's right! </b> Lots of different images may show the same place. For example,  you may see three different images that all remind you that you are in outer space. </p>","0","comp_answer","","","","","","","","","","","",""
"learning-instructions","121","687726","0.0-3.0-14.0-0.0","spark_pilot_norest","9639","2","15","Female","","","","","","","3745.7999999970198","<p> Good job. Remember to do your best because the amount of treasure you earn will be converted into bonus money. </p>
            <p> It’s time to start the real game! </p>","","instructions","","","","","","","","","","","",""
"learning-instructions","122","692718","0.0-4.0-0.0-0.0","spark_pilot_norest","9639","2","15","Female","","","","","","","993.9000000059605","<p> This time you are searching for treasure in the <b>ocean</b>.</p>","","instructions","","","","","","","","","","","",""
"learning-instructions","123","713306","0.0-4.0-0.0-0.1","spark_pilot_norest","9639","2","15","Female","","","","","","","1371.5999999940395","<p><b>New</b> animals with <b>new</b> treasure chests live here. You need to explore to discover where the animal with the best treasure chest is.</p>
                    <p> Like before, once you figure out which animal has the chest with the most treasure, you should try to get to that animal and select that chest! </p>","","instructions","","","","","","","","","","","",""
"learning-instructions","124","729804","0.0-4.0-1.0-0.0","spark_pilot_norest","9639","2","15","Female","","","","","","","1767.199999988079","<p> Remember, when you see a picture of the place, use the up and down keys to <b>find an animal</b>.</p>
            <p> When you encounter an animal, you should use the left and right keys to <b>select a treasure chest</b>.</p>
            <p> Don't forget to look out for the robber! </p>","","instructions","","","","","","","","","","","",""
"revaluation","125","735815","0.0-4.0-2.0-0.0","spark_pilot_norest","9639","2","15","Female","","false","","","","","[1066.4000000059605,1080.7000000029802]","./assets/img/ocean/memory/38.jpg","[""ArrowUp"",""ArrowRight""]","value training","ocean","10","{""ArrowUp,ArrowLeft"":23,""ArrowUp,ArrowRight"":10,""ArrowDown,ArrowLeft"":8,""ArrowDown,ArrowRight"":30}","false","ArrowUp,ArrowRight","false","revaluation","1","0","","",""
"html-keyboard-response","126","736324","0.0-4.0-2.0-1.0","spark_pilot_norest","9639","2","15","Female","","","","","","","null","<div style=""font-size:60px;"">+</div>","null","fixation","","","","","","","","","1","","",""
"revaluation","127","742334","0.0-4.0-2.0-0.1","spark_pilot_norest","9639","2","15","Female","","false","","","","","[360.29999999701977,470.3999999910593]","./assets/img/ocean/memory/23.jpg","[""ArrowUp"",""ArrowLeft""]","value training","ocean","23","{""ArrowUp,ArrowLeft"":23,""ArrowUp,ArrowRight"":10,""ArrowDown,ArrowLeft"":8,""ArrowDown,ArrowRight"":30}","false","ArrowUp,ArrowLeft","false","revaluation","1","2","","",""
"html-keyboard-response","128","742838","0.0-4.0-2.0-1.1","spark_pilot_norest","9639","2","15","Female","","","","","","","null","<div style=""font-size:60px;"">+</div>","null","fixation","","","","","","","","","3","","",""
"revaluation","129","746848","0.0-4.0-2.0-0.2","spark_pilot_norest","9639","2","15","Female","","false","","","","","[374.40000000596046]","./assets/img/ocean/catch/7.jpg","[""ArrowDown""]","value training","ocean","-10","{""ArrowUp,ArrowLeft"":23,""ArrowUp,ArrowRight"":10,""ArrowDown,ArrowLeft"":8,""ArrowDown,ArrowRight"":30}","false","ArrowDown","true","revaluation","1","4","","",""
"html-keyboard-response","130","747349","0.0-4.0-2.0-1.2","spark_pilot_norest","9639","2","15","Female","","","","","","","null","<div style=""font-size:60px;"">+</div>","null","fixation","","","","","","","","","5","","",""
"revaluation","131","753357","0.0-4.0-2.0-0.3","spark_pilot_norest","9639","2","15","Female","","false","","","","","[311.79999999701977,543.3000000119209]","./assets/img/ocean/memory/9.jpg","[""ArrowDown"",""ArrowRight""]","value training","ocean","30","{""ArrowUp,ArrowLeft"":23,""ArrowUp,ArrowRight"":10,""ArrowDown,ArrowLeft"":8,""ArrowDown,ArrowRight"":30}","true","ArrowDown,ArrowRight","false","revaluation","1","6","","",""
"html-keyboard-response","132","753861","0.0-4.0-2.0-1.3","spark_pilot_norest","9639","2","15","Female","","","","","","","null","<div style=""font-size:60px;"">+</div>","null","fixation","","","","","","","","","7","","",""
"revaluation","133","759868","0.0-4.0-2.0-0.4","spark_pilot_norest","9639","2","15","Female","","false","","","","","[966.9000000059605,406.3999999910593]","./assets/img/ocean/memory/31.jpg","[""ArrowDown"",""ArrowLeft""]","value training","ocean","8","{""ArrowUp,ArrowLeft"":23,""ArrowUp,ArrowRight"":10,""ArrowDown,ArrowLeft"":8,""ArrowDown,ArrowRight"":30}","false","ArrowDown,ArrowLeft","false","revaluation","1","8","","",""
"html-keyboard-response","134","760370","0.0-4.0-2.0-1.4","spark_pilot_norest","9639","2","15","Female","","","","","","","null","<div style=""font-size:60px;"">+</div>","null","fixation","","","","","","","","","9","","",""
"revaluation","135","766377","0.0-4.0-2.0-0.5","spark_pilot_norest","9639","2","15","Female","","false","","","","","[801.8999999910593,473.59999999403954]","./assets/img/ocean/memory/34.jpg","[""ArrowDown"",""ArrowRight""]","value training","ocean","30","{""ArrowUp,ArrowLeft"":23,""ArrowUp,ArrowRight"":10,""ArrowDown,ArrowLeft"":8,""ArrowDown,ArrowRight"":30}","true","ArrowDown,ArrowRight","false","revaluation","1","10","","",""
"html-keyboard-response","136","766882","0.0-4.0-2.0-1.5","spark_pilot_norest","9639","2","15","Female","","","","","","","null","<div style=""font-size:60px;"">+</div>","null","fixation","","","","","","","","","11","","",""
"revaluation","137","772890","0.0-4.0-2.0-0.6","spark_pilot_norest","9639","2","15","Female","","false","","","","","[363.20000000298023,626.6999999880791]","./assets/img/ocean/memory/22.jpg","[""ArrowUp"",""ArrowRight""]","value training","ocean","10","{""ArrowUp,ArrowLeft"":23,""ArrowUp,ArrowRight"":10,""ArrowDown,ArrowLeft"":8,""ArrowDown,ArrowRight"":30}","false","ArrowUp,ArrowRight","false","revaluation","1","12","","",""
"html-keyboard-response","138","773395","0.0-4.0-2.0-1.6","spark_pilot_norest","9639","2","15","Female","","","","","","","null","<div style=""font-size:60px;"">+</div>","null","fixation","","","","","","","","","13","","",""
"revaluation","139","779403","0.0-4.0-2.0-0.7","spark_pilot_norest","9639","2","15","Female","","false","","","","","[97.5,513.2000000029802]","./assets/img/ocean/memory/34.jpg","[""ArrowDown"",""ArrowLeft""]","value training","ocean","8","{""ArrowUp,ArrowLeft"":23,""ArrowUp,ArrowRight"":10,""ArrowDown,ArrowLeft"":8,""ArrowDown,ArrowRight"":30}","false","ArrowDown,ArrowLeft","false","revaluation","1","14","","",""
"html-keyboard-response","140","779908","0.0-4.0-2.0-1.7","spark_pilot_norest","9639","2","15","Female","","","","","","","null","<div style=""font-size:60px;"">+</div>","null","fixation","","","","","","","","","15","","",""
"revaluation","141","785916","0.0-4.0-2.0-0.8","spark_pilot_norest","9639","2","15","Female","","false","","","","","[624.2999999970198,456.09999999403954]","./assets/img/ocean/memory/3.jpg","[""ArrowDown"",""ArrowRight""]","value training","ocean","30","{""ArrowUp,ArrowLeft"":23,""ArrowUp,ArrowRight"":10,""ArrowDown,ArrowLeft"":8,""ArrowDown,ArrowRight"":30}","true","ArrowDown,ArrowRight","false","revaluation","1","16","","",""
"html-keyboard-response","142","786420","0.0-4.0-2.0-1.8","spark_pilot_norest","9639","2","15","Female","","","","","","","null","<div style=""font-size:60px;"">+</div>","null","fixation","","","","","","","","","17","","",""
"revaluation","143","792428","0.0-4.0-2.0-0.9","spark_pilot_norest","9639","2","15","Female","","false","","","","","[655.2000000029802,367.09999999403954]","./assets/img/ocean/memory/31.jpg","[""ArrowDown"",""ArrowRight""]","value training","ocean","30","{""ArrowUp,ArrowLeft"":23,""ArrowUp,ArrowRight"":10,""ArrowDown,ArrowLeft"":8,""ArrowDown,ArrowRight"":30}","true","ArrowDown,ArrowRight","false","revaluation","1","18","","",""
"html-keyboard-response","144","792933","0.0-4.0-2.0-1.9","spark_pilot_norest","9639","2","15","Female","","","","","","","null","<div style=""font-size:60px;"">+</div>","null","fixation","","","","","","","","","19","","",""
"revaluation","145","798941","0.0-4.0-2.0-0.10","spark_pilot_norest","9639","2","15","Female","","false","","","","","[294,397.70000000298023]","./assets/img/ocean/memory/15.jpg","[""ArrowDown"",""ArrowRight""]","value training","ocean","30","{""ArrowUp,ArrowLeft"":23,""ArrowUp,ArrowRight"":10,""ArrowDown,ArrowLeft"":8,""ArrowDown,ArrowRight"":30}","true","ArrowDown,ArrowRight","false","revaluation","1","20","","",""
"html-keyboard-response","146","799446","0.0-4.0-2.0-1.10","spark_pilot_norest","9639","2","15","Female","","","","","","","null","<div style=""font-size:60px;"">+</div>","null","fixation","","","","","","","","","21","","",""
"revaluation","147","805454","0.0-4.0-2.0-0.11","spark_pilot_norest","9639","2","15","Female","","false","","","","","[348.8999999910593,524.4000000059605]","./assets/img/ocean/memory/37.jpg","[""ArrowDown"",""ArrowRight""]","value training","ocean","30","{""ArrowUp,ArrowLeft"":23,""ArrowUp,ArrowRight"":10,""ArrowDown,ArrowLeft"":8,""ArrowDown,ArrowRight"":30}","true","ArrowDown,ArrowRight","false","revaluation","1","22","","",""
"html-keyboard-response","148","805959","0.0-4.0-2.0-1.11","spark_pilot_norest","9639","2","15","Female","","","","","","","null","<div style=""font-size:60px;"">+</div>","null","fixation","","","","","","","","","23","","",""
"revaluation","149","809964","0.0-4.0-2.0-0.12","spark_pilot_norest","9639","2","15","Female","","false","","","","","[259.8999999910593]","./assets/img/ocean/catch/3.jpg","[""ArrowDown""]","value training","ocean","-10","{""ArrowUp,ArrowLeft"":23,""ArrowUp,ArrowRight"":10,""ArrowDown,ArrowLeft"":8,""ArrowDown,ArrowRight"":30}","false","ArrowDown","true","revaluation","1","24","","",""
"html-keyboard-response","150","810469","0.0-4.0-2.0-1.12","spark_pilot_norest","9639","2","15","Female","","","","","","","null","<div style=""font-size:60px;"">+</div>","null","fixation","","","","","","","","","25","","",""
"revaluation","151","816477","0.0-4.0-2.0-0.13","spark_pilot_norest","9639","2","15","Female","","false","","","","","[741.4000000059605,477]","./assets/img/ocean/memory/2.jpg","[""ArrowDown"",""ArrowRight""]","value training","ocean","30","{""ArrowUp,ArrowLeft"":23,""ArrowUp,ArrowRight"":10,""ArrowDown,ArrowLeft"":8,""ArrowDown,ArrowRight"":30}","true","ArrowDown,ArrowRight","false","revaluation","1","26","","",""
"html-keyboard-response","152","816982","0.0-4.0-2.0-1.13","spark_pilot_norest","9639","2","15","Female","","","","","","","null","<div style=""font-size:60px;"">+</div>","null","fixation","","","","","","","","","27","","",""
"revaluation","153","822990","0.0-4.0-2.0-0.14","spark_pilot_norest","9639","2","15","Female","","false","","","","","[869.5999999940395,493.30000001192093]","./assets/img/ocean/memory/1.jpg","[""ArrowDown"",""ArrowRight""]","value training","ocean","30","{""ArrowUp,ArrowLeft"":23,""ArrowUp,ArrowRight"":10,""ArrowDown,ArrowLeft"":8,""ArrowDown,ArrowRight"":30}","true","ArrowDown,ArrowRight","false","revaluation","1","28","","",""
"html-keyboard-response","154","823494","0.0-4.0-2.0-1.14","spark_pilot_norest","9639","2","15","Female","","","","","","","null","<div style=""font-size:60px;"">+</div>","null","fixation","","","","","","","","","29","","",""
"revaluation","155","829502","0.0-4.0-2.0-0.15","spark_pilot_norest","9639","2","15","Female","","false","","","","","[148.19999998807907,483.6000000089407]","./assets/img/ocean/memory/15.jpg","[""ArrowDown"",""ArrowRight""]","value training","ocean","30","{""ArrowUp,ArrowLeft"":23,""ArrowUp,ArrowRight"":10,""ArrowDown,ArrowLeft"":8,""ArrowDown,ArrowRight"":30}","true","ArrowDown,ArrowRight","false","revaluation","1","30","","",""
"html-keyboard-response","156","830007","0.0-4.0-2.0-1.15","spark_pilot_norest","9639","2","15","Female","","","","","","","null","<div style=""font-size:60px;"">+</div>","null","fixation","","","","","","","","","31","","",""
"revaluation","157","834012","0.0-4.0-2.0-0.16","spark_pilot_norest","9639","2","15","Female","","false","","","","","[18.799999997019768]","./assets/img/ocean/catch/5.jpg","[""ArrowDown""]","value training","ocean","-10","{""ArrowUp,ArrowLeft"":23,""ArrowUp,ArrowRight"":10,""ArrowDown,ArrowLeft"":8,""ArrowDown,ArrowRight"":30}","false","ArrowDown","true","revaluation","1","32","","",""
"html-keyboard-response","158","834517","0.0-4.0-2.0-1.16","spark_pilot_norest","9639","2","15","Female","","","","","","","null","<div style=""font-size:60px;"">+</div>","null","fixation","","","","","","","","","33","","",""
"revaluation","159","840525","0.0-4.0-2.0-0.17","spark_pilot_norest","9639","2","15","Female","","false","","","","","[684.2999999970198,596.2000000029802]","./assets/img/ocean/memory/32.jpg","[""ArrowDown"",""ArrowRight""]","value training","ocean","30","{""ArrowUp,ArrowLeft"":23,""ArrowUp,ArrowRight"":10,""ArrowDown,ArrowLeft"":8,""ArrowDown,ArrowRight"":30}","true","ArrowDown,ArrowRight","false","revaluation","1","34","","",""
"html-keyboard-response","160","841030","0.0-4.0-2.0-1.17","spark_pilot_norest","9639","2","15","Female","","","","","","","null","<div style=""font-size:60px;"">+</div>","null","fixation","","","","","","","","","35","","",""
"revaluation","161","847038","0.0-4.0-2.0-0.18","spark_pilot_norest","9639","2","15","Female","","false","","","","","[675.4000000059605,1362.7999999970198]","./assets/img/ocean/memory/17.jpg","[""ArrowDown"",""ArrowRight""]","value training","ocean","30","{""ArrowUp,ArrowLeft"":23,""ArrowUp,ArrowRight"":10,""ArrowDown,ArrowLeft"":8,""ArrowDown,ArrowRight"":30}","true","ArrowDown,ArrowRight","false","revaluation","1","36","","",""
"html-keyboard-response","162","847543","0.0-4.0-2.0-1.18","spark_pilot_norest","9639","2","15","Female","","","","","","","null","<div style=""font-size:60px;"">+</div>","null","fixation","","","","","","","","","37","","",""
"revaluation","163","851548","0.0-4.0-2.0-0.19","spark_pilot_norest","9639","2","15","Female","","false","","","","","[250]","./assets/img/ocean/catch/1.jpg","[""ArrowDown""]","value training","ocean","-10","{""ArrowUp,ArrowLeft"":23,""ArrowUp,ArrowRight"":10,""ArrowDown,ArrowLeft"":8,""ArrowDown,ArrowRight"":30}","false","ArrowDown","true","revaluation","1","38","","",""
"html-keyboard-response","164","852053","0.0-4.0-2.0-1.19","spark_pilot_norest","9639","2","15","Female","","","","","","","null","<div style=""font-size:60px;"">+</div>","null","fixation","","","","","","","","","39","","",""
"revaluation","165","856058","0.0-4.0-2.0-0.20","spark_pilot_norest","9639","2","15","Female","","false","","","","","[435.6000000089407]","./assets/img/ocean/catch/0.jpg","[""ArrowDown""]","value training","ocean","-10","{""ArrowUp,ArrowLeft"":23,""ArrowUp,ArrowRight"":10,""ArrowDown,ArrowLeft"":8,""ArrowDown,ArrowRight"":30}","false","ArrowDown","true","revaluation","1","40","","",""
"html-keyboard-response","166","856563","0.0-4.0-2.0-1.20","spark_pilot_norest","9639","2","15","Female","","","","","","","null","<div style=""font-size:60px;"">+</div>","null","fixation","","","","","","","","","41","","",""
"revaluation","167","862568","0.0-4.0-2.0-0.21","spark_pilot_norest","9639","2","15","Female","","false","","","","","[381.29999999701977,637.0999999940395]","./assets/img/ocean/memory/14.jpg","[""ArrowDown"",""ArrowRight""]","value training","ocean","30","{""ArrowUp,ArrowLeft"":23,""ArrowUp,ArrowRight"":10,""ArrowDown,ArrowLeft"":8,""ArrowDown,ArrowRight"":30}","true","ArrowDown,ArrowRight","false","revaluation","1","42","","",""
"html-keyboard-response","168","863070","0.0-4.0-2.0-1.21","spark_pilot_norest","9639","2","15","Female","","","","","","","null","<div style=""font-size:60px;"">+</div>","null","fixation","","","","","","","","","43","","",""
"revaluation","169","869078","0.0-4.0-2.0-0.22","spark_pilot_norest","9639","2","15","Female","","false","","","","","[650.2000000029802,481.5]","./assets/img/ocean/memory/23.jpg","[""ArrowDown"",""ArrowRight""]","value training","ocean","30","{""ArrowUp,ArrowLeft"":23,""ArrowUp,ArrowRight"":10,""ArrowDown,ArrowLeft"":8,""ArrowDown,ArrowRight"":30}","true","ArrowDown,ArrowRight","false","revaluation","1","44","","",""
"html-keyboard-response","170","869582","0.0-4.0-2.0-1.22","spark_pilot_norest","9639","2","15","Female","","","","","","","null","<div style=""font-size:60px;"">+</div>","null","fixation","","","","","","","","","45","","",""
"revaluation","171","875590","0.0-4.0-2.0-0.23","spark_pilot_norest","9639","2","15","Female","","false","","","","","[64.29999999701977,448.5]","./assets/img/ocean/memory/17.jpg","[""ArrowDown"",""ArrowRight""]","value training","ocean","30","{""ArrowUp,ArrowLeft"":23,""ArrowUp,ArrowRight"":10,""ArrowDown,ArrowLeft"":8,""ArrowDown,ArrowRight"":30}","true","ArrowDown,ArrowRight","false","revaluation","1","46","","",""
"html-keyboard-response","172","876095","0.0-4.0-2.0-1.23","spark_pilot_norest","9639","2","15","Female","","","","","","","null","<div style=""font-size:60px;"">+</div>","null","fixation","","","","","","","","","47","","",""
"revaluation","173","882104","0.0-4.0-2.0-0.24","spark_pilot_norest","9639","2","15","Female","","false","","","","","[199.8999999910593,319.09999999403954]","./assets/img/ocean/memory/2.jpg","[""ArrowDown"",""ArrowRight""]","value training","ocean","30","{""ArrowUp,ArrowLeft"":23,""ArrowUp,ArrowRight"":10,""ArrowDown,ArrowLeft"":8,""ArrowDown,ArrowRight"":30}","true","ArrowDown,ArrowRight","false","revaluation","1","48","","",""
"html-keyboard-response","174","882608","0.0-4.0-2.0-1.24","spark_pilot_norest","9639","2","15","Female","","","","","","","null","<div style=""font-size:60px;"">+</div>","null","fixation","","","","","","","","","49","","",""
"revaluation","175","886614","0.0-4.0-2.0-0.25","spark_pilot_norest","9639","2","15","Female","","false","","","","","[174.29999999701977]","./assets/img/ocean/catch/4.jpg","[""ArrowDown""]","value training","ocean","-10","{""ArrowUp,ArrowLeft"":23,""ArrowUp,ArrowRight"":10,""ArrowDown,ArrowLeft"":8,""ArrowDown,ArrowRight"":30}","false","ArrowDown","true","revaluation","1","50","","",""
"html-keyboard-response","176","887119","0.0-4.0-2.0-1.25","spark_pilot_norest","9639","2","15","Female","","","","","","","null","<div style=""font-size:60px;"">+</div>","null","fixation","","","","","","","","","51","","",""
"revaluation","177","893126","0.0-4.0-2.0-0.26","spark_pilot_norest","9639","2","15","Female","","false","","","","","[351.70000000298023,572.8999999910593]","./assets/img/ocean/memory/26.jpg","[""ArrowDown"",""ArrowRight""]","value training","ocean","30","{""ArrowUp,ArrowLeft"":23,""ArrowUp,ArrowRight"":10,""ArrowDown,ArrowLeft"":8,""ArrowDown,ArrowRight"":30}","true","ArrowDown,ArrowRight","false","revaluation","1","52","","",""
"html-keyboard-response","178","893631","0.0-4.0-2.0-1.26","spark_pilot_norest","9639","2","15","Female","","","","","","","null","<div style=""font-size:60px;"">+</div>","null","fixation","","","","","","","","","53","","",""
"revaluation","179","899639","0.0-4.0-2.0-0.27","spark_pilot_norest","9639","2","15","Female","","false","","","","","[263,758.4000000059605]","./assets/img/ocean/memory/30.jpg","[""ArrowDown"",""ArrowRight""]","value training","ocean","30","{""ArrowUp,ArrowLeft"":23,""ArrowUp,ArrowRight"":10,""ArrowDown,ArrowLeft"":8,""ArrowDown,ArrowRight"":30}","true","ArrowDown,ArrowRight","false","revaluation","1","54","","",""
"html-keyboard-response","180","900144","0.0-4.0-2.0-1.27","spark_pilot_norest","9639","2","15","Female","","","","","","","null","<div style=""font-size:60px;"">+</div>","null","fixation","","","","","","","","","55","","",""
"revaluation","181","904149","0.0-4.0-2.0-0.28","spark_pilot_norest","9639","2","15","Female","","false","","","","","[38.20000000298023]","./assets/img/ocean/catch/2.jpg","[""ArrowDown""]","value training","ocean","-10","{""ArrowUp,ArrowLeft"":23,""ArrowUp,ArrowRight"":10,""ArrowDown,ArrowLeft"":8,""ArrowDown,ArrowRight"":30}","false","ArrowDown","true","revaluation","1","56","","",""
"html-keyboard-response","182","904653","0.0-4.0-2.0-1.28","spark_pilot_norest","9639","2","15","Female","","","","","","","null","<div style=""font-size:60px;"">+</div>","null","fixation","","","","","","","","","57","","",""
"revaluation","183","910662","0.0-4.0-2.0-0.29","spark_pilot_norest","9639","2","15","Female","","false","","","","","[127.90000000596046,430.6000000089407]","./assets/img/ocean/memory/14.jpg","[""ArrowDown"",""ArrowRight""]","value training","ocean","30","{""ArrowUp,ArrowLeft"":23,""ArrowUp,ArrowRight"":10,""ArrowDown,ArrowLeft"":8,""ArrowDown,ArrowRight"":30}","true","ArrowDown,ArrowRight","false","revaluation","1","58","","",""
"html-keyboard-response","184","911167","0.0-4.0-2.0-1.29","spark_pilot_norest","9639","2","15","Female","","","","","","","null","<div style=""font-size:60px;"">+</div>","null","fixation","","","","","","","","","59","","",""
"revaluation","185","917175","0.0-4.0-2.0-0.30","spark_pilot_norest","9639","2","15","Female","","false","","","","","[141.70000000298023,749.5]","./assets/img/ocean/memory/9.jpg","[""ArrowDown"",""ArrowRight""]","value training","ocean","30","{""ArrowUp,ArrowLeft"":23,""ArrowUp,ArrowRight"":10,""ArrowDown,ArrowLeft"":8,""ArrowDown,ArrowRight"":30}","true","ArrowDown,ArrowRight","false","revaluation","1","60","","",""
"html-keyboard-response","186","917679","0.0-4.0-2.0-1.30","spark_pilot_norest","9639","2","15","Female","","","","","","","null","<div style=""font-size:60px;"">+</div>","null","fixation","","","","","","","","","61","","",""
"revaluation","187","923688","0.0-4.0-2.0-0.31","spark_pilot_norest","9639","2","15","Female","","false","","","","","[68.8999999910593,348.20000000298023]","./assets/img/ocean/memory/0.jpg","[""ArrowDown"",""ArrowRight""]","value training","ocean","30","{""ArrowUp,ArrowLeft"":23,""ArrowUp,ArrowRight"":10,""ArrowDown,ArrowLeft"":8,""ArrowDown,ArrowRight"":30}","true","ArrowDown,ArrowRight","false","revaluation","1","62","","",""
"html-keyboard-response","188","924193","0.0-4.0-2.0-1.31","spark_pilot_norest","9639","2","15","Female","","","","","","","null","<div style=""font-size:60px;"">+</div>","null","fixation","","","","","","","","","63","","",""
"revaluation","189","930200","0.0-4.0-2.0-0.32","spark_pilot_norest","9639","2","15","Female","","false","","","","","[195.29999999701977,530.9000000059605]","./assets/img/ocean/memory/0.jpg","[""ArrowDown"",""ArrowRight""]","value training","ocean","30","{""ArrowUp,ArrowLeft"":23,""ArrowUp,ArrowRight"":10,""ArrowDown,ArrowLeft"":8,""ArrowDown,ArrowRight"":30}","true","ArrowDown,ArrowRight","false","revaluation","1","64","","",""
"html-keyboard-response","190","930705","0.0-4.0-2.0-1.32","spark_pilot_norest","9639","2","15","Female","","","","","","","null","<div style=""font-size:60px;"">+</div>","null","fixation","","","","","","","","","65","","",""
"revaluation","191","936719","0.0-4.0-2.0-0.33","spark_pilot_norest","9639","2","15","Female","","false","","","","","[376.70000000298023,748]","./assets/img/ocean/memory/38.jpg","[""ArrowDown"",""ArrowRight""]","value training","ocean","30","{""ArrowUp,ArrowLeft"":23,""ArrowUp,ArrowRight"":10,""ArrowDown,ArrowLeft"":8,""ArrowDown,ArrowRight"":30}","true","ArrowDown,ArrowRight","false","revaluation","1","66","","",""
"html-keyboard-response","192","937224","0.0-4.0-2.0-1.33","spark_pilot_norest","9639","2","15","Female","","","","","","","null","<div style=""font-size:60px;"">+</div>","null","fixation","","","","","","","","","67","","",""
"revaluation","193","943232","0.0-4.0-2.0-0.34","spark_pilot_norest","9639","2","15","Female","","false","","","","","[66.8999999910593,538.8000000119209]","./assets/img/ocean/memory/7.jpg","[""ArrowDown"",""ArrowRight""]","value training","ocean","30","{""ArrowUp,ArrowLeft"":23,""ArrowUp,ArrowRight"":10,""ArrowDown,ArrowLeft"":8,""ArrowDown,ArrowRight"":30}","true","ArrowDown,ArrowRight","false","revaluation","1","68","","",""
"html-keyboard-response","194","943736","0.0-4.0-2.0-1.34","spark_pilot_norest","9639","2","15","Female","","","","","","","null","<div style=""font-size:60px;"">+</div>","null","fixation","","","","","","","","","69","","",""
"revaluation","195","949745","0.0-4.0-2.0-0.35","spark_pilot_norest","9639","2","15","Female","","false","","","","","[593.8000000119209,417.5]","./assets/img/ocean/memory/37.jpg","[""ArrowDown"",""ArrowRight""]","value training","ocean","30","{""ArrowUp,ArrowLeft"":23,""ArrowUp,ArrowRight"":10,""ArrowDown,ArrowLeft"":8,""ArrowDown,ArrowRight"":30}","true","ArrowDown,ArrowRight","false","revaluation","1","70","","",""
"html-keyboard-response","196","950249","0.0-4.0-2.0-1.35","spark_pilot_norest","9639","2","15","Female","","","","","","","null","<div style=""font-size:60px;"">+</div>","null","fixation","","","","","","","","","71","","",""
"revaluation","197","956257","0.0-4.0-2.0-0.36","spark_pilot_norest","9639","2","15","Female","","false","","","","","[224.70000000298023,656.5999999940395]","./assets/img/ocean/memory/18.jpg","[""ArrowDown"",""ArrowRight""]","value training","ocean","30","{""ArrowUp,ArrowLeft"":23,""ArrowUp,ArrowRight"":10,""ArrowDown,ArrowLeft"":8,""ArrowDown,ArrowRight"":30}","true","ArrowDown,ArrowRight","false","revaluation","1","72","","",""
"html-keyboard-response","198","956762","0.0-4.0-2.0-1.36","spark_pilot_norest","9639","2","15","Female","","","","","","","null","<div style=""font-size:60px;"">+</div>","null","fixation","","","","","","","","","73","","",""
"revaluation","199","962770","0.0-4.0-2.0-0.37","spark_pilot_norest","9639","2","15","Female","","false","","","","","[295.40000000596046,573.7999999970198]","./assets/img/ocean/memory/18.jpg","[""ArrowUp"",""ArrowRight""]","value training","ocean","10","{""ArrowUp,ArrowLeft"":23,""ArrowUp,ArrowRight"":10,""ArrowDown,ArrowLeft"":8,""ArrowDown,ArrowRight"":30}","false","ArrowUp,ArrowRight","false","revaluation","1","74","","",""
"html-keyboard-response","200","963275","0.0-4.0-2.0-1.37","spark_pilot_norest","9639","2","15","Female","","","","","","","null","<div style=""font-size:60px;"">+</div>","null","fixation","","","","","","","","","75","","",""
"revaluation","201","969283","0.0-4.0-2.0-0.38","spark_pilot_norest","9639","2","15","Female","","false","","","","","[70,30.400000005960464]","./assets/img/ocean/memory/10.jpg","[""ArrowDown"",""ArrowRight""]","value training","ocean","30","{""ArrowUp,ArrowLeft"":23,""ArrowUp,ArrowRight"":10,""ArrowDown,ArrowLeft"":8,""ArrowDown,ArrowRight"":30}","true","ArrowDown,ArrowRight","false","revaluation","1","76","","",""
"html-keyboard-response","202","969788","0.0-4.0-2.0-1.38","spark_pilot_norest","9639","2","15","Female","","","","","","","null","<div style=""font-size:60px;"">+</div>","null","fixation","","","","","","","","","77","","",""
"revaluation","203","975796","0.0-4.0-2.0-0.39","spark_pilot_norest","9639","2","15","Female","","false","","","","","[332.8999999910593,692.5]","./assets/img/ocean/memory/32.jpg","[""ArrowDown"",""ArrowRight""]","value training","ocean","30","{""ArrowUp,ArrowLeft"":23,""ArrowUp,ArrowRight"":10,""ArrowDown,ArrowLeft"":8,""ArrowDown,ArrowRight"":30}","true","ArrowDown,ArrowRight","false","revaluation","1","78","","",""
"html-keyboard-response","204","976300","0.0-4.0-2.0-1.39","spark_pilot_norest","9639","2","15","Female","","","","","","","null","<div style=""font-size:60px;"">+</div>","null","fixation","","","","","","","","","79","","",""
"revaluation","205","980306","0.0-4.0-2.0-0.40","spark_pilot_norest","9639","2","15","Female","","false","","","","","[115.70000000298023]","./assets/img/ocean/catch/6.jpg","[""ArrowDown""]","value training","ocean","-10","{""ArrowUp,ArrowLeft"":23,""ArrowUp,ArrowRight"":10,""ArrowDown,ArrowLeft"":8,""ArrowDown,ArrowRight"":30}","false","ArrowDown","true","revaluation","1","80","","",""
"html-keyboard-response","206","980810","0.0-4.0-2.0-1.40","spark_pilot_norest","9639","2","15","Female","","","","","","","null","<div style=""font-size:60px;"">+</div>","null","fixation","","","","","","","","","81","","",""
"revaluation","207","986818","0.0-4.0-2.0-0.41","spark_pilot_norest","9639","2","15","Female","","false","","","","","[205.90000000596046,453.29999999701977]","./assets/img/ocean/memory/8.jpg","[""ArrowDown"",""ArrowRight""]","value training","ocean","30","{""ArrowUp,ArrowLeft"":23,""ArrowUp,ArrowRight"":10,""ArrowDown,ArrowLeft"":8,""ArrowDown,ArrowRight"":30}","true","ArrowDown,ArrowRight","false","revaluation","1","82","","",""
"html-keyboard-response","208","987323","0.0-4.0-2.0-1.41","spark_pilot_norest","9639","2","15","Female","","","","","","","null","<div style=""font-size:60px;"">+</div>","null","fixation","","","","","","","","","83","","",""
"revaluation","209","993331","0.0-4.0-2.0-0.42","spark_pilot_norest","9639","2","15","Female","","false","","","","","[52.29999999701977,491.8999999910593]","./assets/img/ocean/memory/8.jpg","[""ArrowDown"",""ArrowRight""]","value training","ocean","30","{""ArrowUp,ArrowLeft"":23,""ArrowUp,ArrowRight"":10,""ArrowDown,ArrowLeft"":8,""ArrowDown,ArrowRight"":30}","true","ArrowDown,ArrowRight","false","revaluation","1","84","","",""
"html-keyboard-response","210","993836","0.0-4.0-2.0-1.42","spark_pilot_norest","9639","2","15","Female","","","","","","","null","<div style=""font-size:60px;"">+</div>","null","fixation","","","","","","","","","85","","",""
"revaluation","211","999844","0.0-4.0-2.0-0.43","spark_pilot_norest","9639","2","15","Female","","false","","","","","[27.099999994039536,610.8000000119209]","./assets/img/ocean/memory/7.jpg","[""ArrowDown"",""ArrowRight""]","value training","ocean","30","{""ArrowUp,ArrowLeft"":23,""ArrowUp,ArrowRight"":10,""ArrowDown,ArrowLeft"":8,""ArrowDown,ArrowRight"":30}","true","ArrowDown,ArrowRight","false","revaluation","1","86","","",""
"html-keyboard-response","212","1000349","0.0-4.0-2.0-1.43","spark_pilot_norest","9639","2","15","Female","","","","","","","null","<div style=""font-size:60px;"">+</div>","null","fixation","","","","","","","","","87","","",""
"revaluation","213","1006362","0.0-4.0-2.0-0.44","spark_pilot_norest","9639","2","15","Female","","false","","","","","[1.2999999970197678,365.80000001192093]","./assets/img/ocean/memory/22.jpg","[""ArrowDown"",""ArrowRight""]","value training","ocean","30","{""ArrowUp,ArrowLeft"":23,""ArrowUp,ArrowRight"":10,""ArrowDown,ArrowLeft"":8,""ArrowDown,ArrowRight"":30}","true","ArrowDown,ArrowRight","false","revaluation","1","88","","",""
"html-keyboard-response","214","1006867","0.0-4.0-2.0-1.44","spark_pilot_norest","9639","2","15","Female","","","","","","","null","<div style=""font-size:60px;"">+</div>","null","fixation","","","","","","","","","89","","",""
"revaluation","215","1012875","0.0-4.0-2.0-0.45","spark_pilot_norest","9639","2","15","Female","","false","","","","","[91.09999999403954,690.8999999910593]","./assets/img/ocean/memory/3.jpg","[""ArrowDown"",""ArrowRight""]","value training","ocean","30","{""ArrowUp,ArrowLeft"":23,""ArrowUp,ArrowRight"":10,""ArrowDown,ArrowLeft"":8,""ArrowDown,ArrowRight"":30}","true","ArrowDown,ArrowRight","false","revaluation","1","90","","",""
"html-keyboard-response","216","1013380","0.0-4.0-2.0-1.45","spark_pilot_norest","9639","2","15","Female","","","","","","","null","<div style=""font-size:60px;"">+</div>","null","fixation","","","","","","","","","91","","",""
"revaluation","217","1019388","0.0-4.0-2.0-0.46","spark_pilot_norest","9639","2","15","Female","","false","","","","","[97.5,471]","./assets/img/ocean/memory/30.jpg","[""ArrowDown"",""ArrowRight""]","value training","ocean","30","{""ArrowUp,ArrowLeft"":23,""ArrowUp,ArrowRight"":10,""ArrowDown,ArrowLeft"":8,""ArrowDown,ArrowRight"":30}","true","ArrowDown,ArrowRight","false","revaluation","1","92","","",""
"html-keyboard-response","218","1019893","0.0-4.0-2.0-1.46","spark_pilot_norest","9639","2","15","Female","","","","","","","null","<div style=""font-size:60px;"">+</div>","null","fixation","","","","","","","","","93","","",""
"revaluation","219","1025901","0.0-4.0-2.0-0.47","spark_pilot_norest","9639","2","15","Female","","false","","","","","[384.29999999701977,544.2000000029802]","./assets/img/ocean/memory/10.jpg","[""ArrowDown"",""ArrowRight""]","value training","ocean","30","{""ArrowUp,ArrowLeft"":23,""ArrowUp,ArrowRight"":10,""ArrowDown,ArrowLeft"":8,""ArrowDown,ArrowRight"":30}","true","ArrowDown,ArrowRight","false","revaluation","1","94","","",""
"html-keyboard-response","220","1026405","0.0-4.0-2.0-1.47","spark_pilot_norest","9639","2","15","Female","","","","","","","null","<div style=""font-size:60px;"">+</div>","null","fixation","","","","","","","","","95","","",""
"revaluation","221","1032419","0.0-4.0-2.0-0.48","spark_pilot_norest","9639","2","15","Female","","false","","","","","[95.30000001192093,514.0999999940395]","./assets/img/ocean/memory/26.jpg","[""ArrowDown"",""ArrowRight""]","value training","ocean","30","{""ArrowUp,ArrowLeft"":23,""ArrowUp,ArrowRight"":10,""ArrowDown,ArrowLeft"":8,""ArrowDown,ArrowRight"":30}","true","ArrowDown,ArrowRight","false","revaluation","1","96","","",""
"html-keyboard-response","222","1032923","0.0-4.0-2.0-1.48","spark_pilot_norest","9639","2","15","Female","","","","","","","null","<div style=""font-size:60px;"">+</div>","null","fixation","","","","","","","","","97","","",""
"revaluation","223","1038932","0.0-4.0-2.0-0.49","spark_pilot_norest","9639","2","15","Female","","false","","","","","[41.20000000298023,456.20000000298023]","./assets/img/ocean/memory/1.jpg","[""ArrowDown"",""ArrowRight""]","value training","ocean","30","{""ArrowUp,ArrowLeft"":23,""ArrowUp,ArrowRight"":10,""ArrowDown,ArrowLeft"":8,""ArrowDown,ArrowRight"":30}","true","ArrowDown,ArrowRight","false","revaluation","1","98","","",""
"html-keyboard-response","224","1039437","0.0-4.0-2.0-1.49","spark_pilot_norest","9639","2","15","Female","","","","","","","null","<div style=""font-size:60px;"">+</div>","null","fixation","","","","","","","","","99","","",""
"learning-instructions","225","1054681","0.0-4.0-3.0-0.0","spark_pilot_norest","9639","2","15","Female","","","","","","","2239.6000000089407","<p> Now, you will travel with a friend who will choose whether you go up or down first. </p>
            <p> On these turns, you will just see the animal that they found. You will still get to choose which chest to search for treasure.</p>","","instructions","","","","","","","","","","","",""
"revaluation","226","1058686","0.0-4.0-4.0-0.0","spark_pilot_norest","9639","2","15","Female","","false","","","","","[705.7000000029802]","./assets/img/ocean/animals/seahorse.jpg","[""ArrowRight""]","revaluation","ocean","7","{""ArrowUp,ArrowLeft"":27,""ArrowUp,ArrowRight"":15,""ArrowDown,ArrowLeft"":21,""ArrowDown,ArrowRight"":7}","false","ArrowDown,ArrowRight","","revaluation","1","0","","",""
"html-keyboard-response","227","1059191","0.0-4.0-4.0-1.0","spark_pilot_norest","9639","2","15","Female","","","","","","","null","<div style=""font-size:60px;"">+</div>","null","fixation","","","","","","","","","1","","",""
"revaluation","228","1063195","0.0-4.0-4.0-0.1","spark_pilot_norest","9639","2","15","Female","","false","","","","","[848.1999999880791]","./assets/img/ocean/animals/seahorse.jpg","[""ArrowLeft""]","revaluation","ocean","21","{""ArrowUp,ArrowLeft"":27,""ArrowUp,ArrowRight"":15,""ArrowDown,ArrowLeft"":21,""ArrowDown,ArrowRight"":7}","true","ArrowDown,ArrowLeft","","revaluation","1","2","","",""
"html-keyboard-response","229","1063696","0.0-4.0-4.0-1.1","spark_pilot_norest","9639","2","15","Female","","","","","","","null","<div style=""font-size:60px;"">+</div>","null","fixation","","","","","","","","","3","","",""
"revaluation","230","1067701","0.0-4.0-4.0-0.2","spark_pilot_norest","9639","2","15","Female","","false","","","","","[828.8999999910593]","./assets/img/ocean/animals/octopus.jpg","[""ArrowLeft""]","revaluation","ocean","27","{""ArrowUp,ArrowLeft"":27,""ArrowUp,ArrowRight"":15,""ArrowDown,ArrowLeft"":21,""ArrowDown,ArrowRight"":7}","true","ArrowUp,ArrowLeft","","revaluation","1","4","","",""
"html-keyboard-response","231","1068204","0.0-4.0-4.0-1.2","spark_pilot_norest","9639","2","15","Female","","","","","","","null","<div style=""font-size:60px;"">+</div>","null","fixation","","","","","","","","","5","","",""
"revaluation","232","1072213","0.0-4.0-4.0-0.3","spark_pilot_norest","9639","2","15","Female","","false","","","","","[408.6000000089407]","./assets/img/ocean/animals/octopus.jpg","[""ArrowRight""]","revaluation","ocean","15","{""ArrowUp,ArrowLeft"":27,""ArrowUp,ArrowRight"":15,""ArrowDown,ArrowLeft"":21,""ArrowDown,ArrowRight"":7}","false","ArrowUp,ArrowRight","","revaluation","1","6","","",""
"html-keyboard-response","233","1072718","0.0-4.0-4.0-1.3","spark_pilot_norest","9639","2","15","Female","","","","","","","null","<div style=""font-size:60px;"">+</div>","null","fixation","","","","","","","","","7","","",""
"revaluation","234","1076727","0.0-4.0-4.0-0.4","spark_pilot_norest","9639","2","15","Female","","false","","","","","[446.29999999701977]","./assets/img/ocean/animals/seahorse.jpg","[""ArrowLeft""]","revaluation","ocean","21","{""ArrowUp,ArrowLeft"":27,""ArrowUp,ArrowRight"":15,""ArrowDown,ArrowLeft"":21,""ArrowDown,ArrowRight"":7}","true","ArrowDown,ArrowLeft","","revaluation","1","8","","",""
"html-keyboard-response","235","1077232","0.0-4.0-4.0-1.4","spark_pilot_norest","9639","2","15","Female","","","","","","","null","<div style=""font-size:60px;"">+</div>","null","fixation","","","","","","","","","9","","",""
"revaluation","236","1081243","0.0-4.0-4.0-0.5","spark_pilot_norest","9639","2","15","Female","","false","","","","","[499.90000000596046]","./assets/img/ocean/animals/seahorse.jpg","[""ArrowLeft""]","revaluation","ocean","21","{""ArrowUp,ArrowLeft"":27,""ArrowUp,ArrowRight"":15,""ArrowDown,ArrowLeft"":21,""ArrowDown,ArrowRight"":7}","true","ArrowDown,ArrowLeft","","revaluation","1","10","","",""
"html-keyboard-response","237","1081748","0.0-4.0-4.0-1.5","spark_pilot_norest","9639","2","15","Female","","","","","","","null","<div style=""font-size:60px;"">+</div>","null","fixation","","","","","","","","","11","","",""
"revaluation","238","1085760","0.0-4.0-4.0-0.6","spark_pilot_norest","9639","2","15","Female","","false","","","","","[351.70000000298023]","./assets/img/ocean/animals/seahorse.jpg","[""ArrowLeft""]","revaluation","ocean","21","{""ArrowUp,ArrowLeft"":27,""ArrowUp,ArrowRight"":15,""ArrowDown,ArrowLeft"":21,""ArrowDown,ArrowRight"":7}","true","ArrowDown,ArrowLeft","","revaluation","1","12","","",""
"html-keyboard-response","239","1086265","0.0-4.0-4.0-1.6","spark_pilot_norest","9639","2","15","Female","","","","","","","null","<div style=""font-size:60px;"">+</div>","null","fixation","","","","","","","","","13","","",""
"revaluation","240","1090270","0.0-4.0-4.0-0.7","spark_pilot_norest","9639","2","15","Female","","false","","","","","[330.79999999701977]","./assets/img/ocean/animals/seahorse.jpg","[""ArrowLeft""]","revaluation","ocean","21","{""ArrowUp,ArrowLeft"":27,""ArrowUp,ArrowRight"":15,""ArrowDown,ArrowLeft"":21,""ArrowDown,ArrowRight"":7}","true","ArrowDown,ArrowLeft","","revaluation","1","14","","",""
"html-keyboard-response","241","1090775","0.0-4.0-4.0-1.7","spark_pilot_norest","9639","2","15","Female","","","","","","","null","<div style=""font-size:60px;"">+</div>","null","fixation","","","","","","","","","15","","",""
"revaluation","242","1094781","0.0-4.0-4.0-0.8","spark_pilot_norest","9639","2","15","Female","","false","","","","","[343.09999999403954]","./assets/img/ocean/animals/octopus.jpg","[""ArrowLeft""]","revaluation","ocean","27","{""ArrowUp,ArrowLeft"":27,""ArrowUp,ArrowRight"":15,""ArrowDown,ArrowLeft"":21,""ArrowDown,ArrowRight"":7}","true","ArrowUp,ArrowLeft","","revaluation","1","16","","",""
"html-keyboard-response","243","1095285","0.0-4.0-4.0-1.8","spark_pilot_norest","9639","2","15","Female","","","","","","","null","<div style=""font-size:60px;"">+</div>","null","fixation","","","","","","","","","17","","",""
"revaluation","244","1099291","0.0-4.0-4.0-0.9","spark_pilot_norest","9639","2","15","Female","","false","","","","","[328.8999999910593]","./assets/img/ocean/animals/octopus.jpg","[""ArrowLeft""]","revaluation","ocean","27","{""ArrowUp,ArrowLeft"":27,""ArrowUp,ArrowRight"":15,""ArrowDown,ArrowLeft"":21,""ArrowDown,ArrowRight"":7}","true","ArrowUp,ArrowLeft","","revaluation","1","18","","",""
"html-keyboard-response","245","1099796","0.0-4.0-4.0-1.9","spark_pilot_norest","9639","2","15","Female","","","","","","","null","<div style=""font-size:60px;"">+</div>","null","fixation","","","","","","","","","19","","",""
"revaluation","246","1103801","0.0-4.0-4.0-0.10","spark_pilot_norest","9639","2","15","Female","","false","","","","","[266.1000000089407]","./assets/img/ocean/animals/octopus.jpg","[""ArrowLeft""]","revaluation","ocean","27","{""ArrowUp,ArrowLeft"":27,""ArrowUp,ArrowRight"":15,""ArrowDown,ArrowLeft"":21,""ArrowDown,ArrowRight"":7}","true","ArrowUp,ArrowLeft","","revaluation","1","20","","",""
"html-keyboard-response","247","1104306","0.0-4.0-4.0-1.10","spark_pilot_norest","9639","2","15","Female","","","","","","","null","<div style=""font-size:60px;"">+</div>","null","fixation","","","","","","","","","21","","",""
"revaluation","248","1108317","0.0-4.0-4.0-0.11","spark_pilot_norest","9639","2","15","Female","","false","","","","","[571.2999999970198]","./assets/img/ocean/animals/octopus.jpg","[""ArrowLeft""]","revaluation","ocean","27","{""ArrowUp,ArrowLeft"":27,""ArrowUp,ArrowRight"":15,""ArrowDown,ArrowLeft"":21,""ArrowDown,ArrowRight"":7}","true","ArrowUp,ArrowLeft","","revaluation","1","22","","",""
"html-keyboard-response","249","1108822","0.0-4.0-4.0-1.11","spark_pilot_norest","9639","2","15","Female","","","","","","","null","<div style=""font-size:60px;"">+</div>","null","fixation","","","","","","","","","23","","",""
"revaluation","250","1112827","0.0-4.0-4.0-0.12","spark_pilot_norest","9639","2","15","Female","","false","","","","","[231.5]","./assets/img/ocean/animals/seahorse.jpg","[""ArrowLeft""]","revaluation","ocean","21","{""ArrowUp,ArrowLeft"":27,""ArrowUp,ArrowRight"":15,""ArrowDown,ArrowLeft"":21,""ArrowDown,ArrowRight"":7}","true","ArrowDown,ArrowLeft","","revaluation","1","24","","",""
"html-keyboard-response","251","1113331","0.0-4.0-4.0-1.12","spark_pilot_norest","9639","2","15","Female","","","","","","","null","<div style=""font-size:60px;"">+</div>","null","fixation","","","","","","","","","25","","",""
"revaluation","252","1117337","0.0-4.0-4.0-0.13","spark_pilot_norest","9639","2","15","Female","","false","","","","","[353.29999999701977]","./assets/img/ocean/animals/octopus.jpg","[""ArrowLeft""]","revaluation","ocean","27","{""ArrowUp,ArrowLeft"":27,""ArrowUp,ArrowRight"":15,""ArrowDown,ArrowLeft"":21,""ArrowDown,ArrowRight"":7}","true","ArrowUp,ArrowLeft","","revaluation","1","26","","",""
"html-keyboard-response","253","1117839","0.0-4.0-4.0-1.13","spark_pilot_norest","9639","2","15","Female","","","","","","","null","<div style=""font-size:60px;"">+</div>","null","fixation","","","","","","","","","27","","",""
"revaluation","254","1121848","0.0-4.0-4.0-0.14","spark_pilot_norest","9639","2","15","Female","","false","","","","","[358.20000000298023]","./assets/img/ocean/animals/octopus.jpg","[""ArrowLeft""]","revaluation","ocean","27","{""ArrowUp,ArrowLeft"":27,""ArrowUp,ArrowRight"":15,""ArrowDown,ArrowLeft"":21,""ArrowDown,ArrowRight"":7}","true","ArrowUp,ArrowLeft","","revaluation","1","28","","",""
"html-keyboard-response","255","1122352","0.0-4.0-4.0-1.14","spark_pilot_norest","9639","2","15","Female","","","","","","","null","<div style=""font-size:60px;"">+</div>","null","fixation","","","","","","","","","29","","",""
"revaluation","256","1126358","0.0-4.0-4.0-0.15","spark_pilot_norest","9639","2","15","Female","","false","","","","","[148]","./assets/img/ocean/animals/octopus.jpg","[""ArrowLeft""]","revaluation","ocean","27","{""ArrowUp,ArrowLeft"":27,""ArrowUp,ArrowRight"":15,""ArrowDown,ArrowLeft"":21,""ArrowDown,ArrowRight"":7}","true","ArrowUp,ArrowLeft","","revaluation","1","30","","",""
"html-keyboard-response","257","1126860","0.0-4.0-4.0-1.15","spark_pilot_norest","9639","2","15","Female","","","","","","","null","<div style=""font-size:60px;"">+</div>","null","fixation","","","","","","","","","31","","",""
"revaluation","258","1130868","0.0-4.0-4.0-0.16","spark_pilot_norest","9639","2","15","Female","","false","","","","","[320.20000000298023]","./assets/img/ocean/animals/seahorse.jpg","[""ArrowLeft""]","revaluation","ocean","21","{""ArrowUp,ArrowLeft"":27,""ArrowUp,ArrowRight"":15,""ArrowDown,ArrowLeft"":21,""ArrowDown,ArrowRight"":7}","true","ArrowDown,ArrowLeft","","revaluation","1","32","","",""
"html-keyboard-response","259","1131369","0.0-4.0-4.0-1.16","spark_pilot_norest","9639","2","15","Female","","","","","","","null","<div style=""font-size:60px;"">+</div>","null","fixation","","","","","","","","","33","","",""
"revaluation","260","1135378","0.0-4.0-4.0-0.17","spark_pilot_norest","9639","2","15","Female","","false","","","","","[363.1000000089407]","./assets/img/ocean/animals/seahorse.jpg","[""ArrowLeft""]","revaluation","ocean","21","{""ArrowUp,ArrowLeft"":27,""ArrowUp,ArrowRight"":15,""ArrowDown,ArrowLeft"":21,""ArrowDown,ArrowRight"":7}","true","ArrowDown,ArrowLeft","","revaluation","1","34","","",""
"html-keyboard-response","261","1135883","0.0-4.0-4.0-1.17","spark_pilot_norest","9639","2","15","Female","","","","","","","null","<div style=""font-size:60px;"">+</div>","null","fixation","","","","","","","","","35","","",""
"learning-instructions","262","1144108","0.0-4.0-5.0-0.0","spark_pilot_norest","9639","2","15","Female","","","","","","","null","<p> You have almost finished this part of the game! </p>
            <p> We are going to ask you to make a few more choices. </p>","","instructions","","","","","","","","","","","",""
"learning-instructions","263","1160081","0.0-4.0-5.0-0.1","spark_pilot_norest","9639","2","15","Female","","","","","","","null","<p> First, you need to decide whether to go up or down. When you see each picture, use the arrow keys to make your choice. </p>
            <p><b>You will not see which animal you found, but try to get to the one that will give you the most treasure.</b></p>","","instructions","","","","","","","","","","","",""
"html-keyboard-response","264","1161085","0.0-4.0-6.0-0.0","spark_pilot_norest","9639","2","15","Female","","","","","","","null","<div style=""font-size:100px;color:red;"">Starting in...</div>","null","","","","","","","","","","","","",""
"html-keyboard-response","265","1162089","0.0-4.0-6.0-1.0","spark_pilot_norest","9639","2","15","Female","","","","","","","null","<div style=""font-size:200px;color:red;"">3</div>","null","","","","","","","","","","","","",""
"html-keyboard-response","266","1163093","0.0-4.0-6.0-2.0","spark_pilot_norest","9639","2","15","Female","","","","","","","null","<div style=""font-size:200px;color:red;"">2</div>","null","","","","","","","","","","","","",""
"html-keyboard-response","267","1164097","0.0-4.0-6.0-3.0","spark_pilot_norest","9639","2","15","Female","","","","","","","null","<div style=""font-size:200px;color:red;"">1</div>","null","","","","","","","","","","","","",""
"revaluation","268","1164524","0.0-4.0-7.0-0.0","spark_pilot_norest","9639","2","15","Female","","false","","","","","[424]","./assets/img/ocean/test/2.jpg","[""ArrowUp""]","first stage test","ocean","0","{""ArrowUp,ArrowLeft"":27,""ArrowUp,ArrowRight"":15,""ArrowDown,ArrowLeft"":21,""ArrowDown,ArrowRight"":7}","true","ArrowUp","false","revaluation","1","","","",""
"html-keyboard-response","269","1165026","0.0-4.0-7.0-1.0","spark_pilot_norest","9639","2","15","Female","","","","","","","null","<div style=""font-size:60px;"">+</div>","null","fixation","","","","","","","","","","","",""
"revaluation","270","1165660","0.0-4.0-7.0-0.1","spark_pilot_norest","9639","2","15","Female","","false","","","","","[631.2000000029802]","./assets/img/ocean/test/1.jpg","[""ArrowUp""]","first stage test","ocean","0","{""ArrowUp,ArrowLeft"":27,""ArrowUp,ArrowRight"":15,""ArrowDown,ArrowLeft"":21,""ArrowDown,ArrowRight"":7}","true","ArrowUp","false","revaluation","1","","","",""
"html-keyboard-response","271","1166163","0.0-4.0-7.0-1.1","spark_pilot_norest","9639","2","15","Female","","","","","","","null","<div style=""font-size:60px;"">+</div>","null","fixation","","","","","","","","","","","",""
"revaluation","272","1167356","0.0-4.0-7.0-0.2","spark_pilot_norest","9639","2","15","Female","","false","","","","","[1190]","./assets/img/ocean/test/0.jpg","[""ArrowDown""]","first stage test","ocean","0","{""ArrowUp,ArrowLeft"":27,""ArrowUp,ArrowRight"":15,""ArrowDown,ArrowLeft"":21,""ArrowDown,ArrowRight"":7}","false","ArrowDown","false","revaluation","1","","","",""
"html-keyboard-response","273","1167859","0.0-4.0-7.0-1.2","spark_pilot_norest","9639","2","15","Female","","","","","","","null","<div style=""font-size:60px;"">+</div>","null","fixation","","","","","","","","","","","",""
"revaluation","274","1168364","0.0-4.0-7.0-0.3","spark_pilot_norest","9639","2","15","Female","","false","","","","","[502.40000000596046]","./assets/img/ocean/test/3.jpg","[""ArrowUp""]","first stage test","ocean","0","{""ArrowUp,ArrowLeft"":27,""ArrowUp,ArrowRight"":15,""ArrowDown,ArrowLeft"":21,""ArrowDown,ArrowRight"":7}","true","ArrowUp","false","revaluation","1","","","",""
"html-keyboard-response","275","1168869","0.0-4.0-7.0-1.3","spark_pilot_norest","9639","2","15","Female","","","","","","","null","<div style=""font-size:60px;"">+</div>","null","fixation","","","","","","","","","","","",""
"learning-instructions","276","1182213","0.0-4.0-8.0-0.0","spark_pilot_norest","9639","2","15","Female","","","","","","","null","<p> Now you will see the animals again and can search their chests for treasure. </p>
            <p> This time, you will not see how much treasure you earned, but you will earn more bonus money for making better choices. </p>","","instructions","","","","","","","","","","","",""
"html-keyboard-response","277","1183217","0.0-4.0-9.0-0.0","spark_pilot_norest","9639","2","15","Female","","","","","","","null","<div style=""font-size:100px;color:red;"">Starting in...</div>","null","","","","","","","","","","","","",""
"html-keyboard-response","278","1184222","0.0-4.0-9.0-1.0","spark_pilot_norest","9639","2","15","Female","","","","","","","null","<div style=""font-size:200px;color:red;"">3</div>","null","","","","","","","","","","","","",""
"html-keyboard-response","279","1185223","0.0-4.0-9.0-2.0","spark_pilot_norest","9639","2","15","Female","","","","","","","null","<div style=""font-size:200px;color:red;"">2</div>","null","","","","","","","","","","","","",""
"html-keyboard-response","280","1186224","0.0-4.0-9.0-3.0","spark_pilot_norest","9639","2","15","Female","","","","","","","null","<div style=""font-size:200px;color:red;"">1</div>","null","","","","","","","","","","","","",""
"revaluation","281","1186971","0.0-4.0-10.0-0.0","spark_pilot_norest","9639","2","15","Female","","false","","","","","[743.7000000029802]","./assets/img/ocean/animals/octopus.jpg","[""ArrowRight""]","second stage test","ocean","0","{""ArrowUp,ArrowLeft"":27,""ArrowUp,ArrowRight"":15,""ArrowDown,ArrowLeft"":21,""ArrowDown,ArrowRight"":7}","false","ArrowUp,ArrowRight","","revaluation","1","","","",""
"html-keyboard-response","282","1187472","0.0-4.0-10.0-1.0","spark_pilot_norest","9639","2","15","Female","","","","","","","null","<div style=""font-size:60px;"">+</div>","null","fixation","","","","","","","","","","","",""
"revaluation","283","1188538","0.0-4.0-10.0-0.1","spark_pilot_norest","9639","2","15","Female","","false","","","","","[1063.699999988079]","./assets/img/ocean/animals/octopus.jpg","[""ArrowLeft""]","second stage test","ocean","0","{""ArrowUp,ArrowLeft"":27,""ArrowUp,ArrowRight"":15,""ArrowDown,ArrowLeft"":21,""ArrowDown,ArrowRight"":7}","true","ArrowUp,ArrowLeft","","revaluation","1","","","",""
"html-keyboard-response","284","1189040","0.0-4.0-10.0-1.1","spark_pilot_norest","9639","2","15","Female","","","","","","","null","<div style=""font-size:60px;"">+</div>","null","fixation","","","","","","","","","","","",""
"revaluation","285","1189522","0.0-4.0-10.0-0.2","spark_pilot_norest","9639","2","15","Female","","false","","","","","[480.09999999403954]","./assets/img/ocean/animals/octopus.jpg","[""ArrowLeft""]","second stage test","ocean","0","{""ArrowUp,ArrowLeft"":27,""ArrowUp,ArrowRight"":15,""ArrowDown,ArrowLeft"":21,""ArrowDown,ArrowRight"":7}","true","ArrowUp,ArrowLeft","","revaluation","1","","","",""
"html-keyboard-response","286","1190026","0.0-4.0-10.0-1.2","spark_pilot_norest","9639","2","15","Female","","","","","","","null","<div style=""font-size:60px;"">+</div>","null","fixation","","","","","","","","","","","",""
"revaluation","287","1190578","0.0-4.0-10.0-0.3","spark_pilot_norest","9639","2","15","Female","","false","","","","","[549.2999999970198]","./assets/img/ocean/animals/octopus.jpg","[""ArrowLeft""]","second stage test","ocean","0","{""ArrowUp,ArrowLeft"":27,""ArrowUp,ArrowRight"":15,""ArrowDown,ArrowLeft"":21,""ArrowDown,ArrowRight"":7}","true","ArrowUp,ArrowLeft","","revaluation","1","","","",""
"html-keyboard-response","288","1191083","0.0-4.0-10.0-1.3","spark_pilot_norest","9639","2","15","Female","","","","","","","null","<div style=""font-size:60px;"">+</div>","null","fixation","","","","","","","","","","","",""
"revaluation","289","1191730","0.0-4.0-10.0-0.4","spark_pilot_norest","9639","2","15","Female","","false","","","","","[644.6999999880791]","./assets/img/ocean/animals/seahorse.jpg","[""ArrowLeft""]","second stage test","ocean","0","{""ArrowUp,ArrowLeft"":27,""ArrowUp,ArrowRight"":15,""ArrowDown,ArrowLeft"":21,""ArrowDown,ArrowRight"":7}","true","ArrowDown,ArrowLeft","","revaluation","1","","","",""
"html-keyboard-response","290","1192232","0.0-4.0-10.0-1.4","spark_pilot_norest","9639","2","15","Female","","","","","","","null","<div style=""font-size:60px;"">+</div>","null","fixation","","","","","","","","","","","",""
"revaluation","291","1192490","0.0-4.0-10.0-0.5","spark_pilot_norest","9639","2","15","Female","","false","","","","","[255]","./assets/img/ocean/animals/seahorse.jpg","[""ArrowLeft""]","second stage test","ocean","0","{""ArrowUp,ArrowLeft"":27,""ArrowUp,ArrowRight"":15,""ArrowDown,ArrowLeft"":21,""ArrowDown,ArrowRight"":7}","true","ArrowDown,ArrowLeft","","revaluation","1","","","",""
"html-keyboard-response","292","1192992","0.0-4.0-10.0-1.5","spark_pilot_norest","9639","2","15","Female","","","","","","","null","<div style=""font-size:60px;"">+</div>","null","fixation","","","","","","","","","","","",""
"revaluation","293","1193217","0.0-4.0-10.0-0.6","spark_pilot_norest","9639","2","15","Female","","false","","","","","[222.30000001192093]","./assets/img/ocean/animals/seahorse.jpg","[""ArrowLeft""]","second stage test","ocean","0","{""ArrowUp,ArrowLeft"":27,""ArrowUp,ArrowRight"":15,""ArrowDown,ArrowLeft"":21,""ArrowDown,ArrowRight"":7}","true","ArrowDown,ArrowLeft","","revaluation","1","","","",""
"html-keyboard-response","294","1193718","0.0-4.0-10.0-1.6","spark_pilot_norest","9639","2","15","Female","","","","","","","null","<div style=""font-size:60px;"">+</div>","null","fixation","","","","","","","","","","","",""
"revaluation","295","1194090","0.0-4.0-10.0-0.7","spark_pilot_norest","9639","2","15","Female","","false","","","","","[369.90000000596046]","./assets/img/ocean/animals/seahorse.jpg","[""ArrowLeft""]","second stage test","ocean","0","{""ArrowUp,ArrowLeft"":27,""ArrowUp,ArrowRight"":15,""ArrowDown,ArrowLeft"":21,""ArrowDown,ArrowRight"":7}","true","ArrowDown,ArrowLeft","","revaluation","1","","","",""
"html-keyboard-response","296","1194594","0.0-4.0-10.0-1.7","spark_pilot_norest","9639","2","15","Female","","","","","","","null","<div style=""font-size:60px;"">+</div>","null","fixation","","","","","","","","","","","",""
"learning-instructions","297","1202367","0.0-4.0-0.1-0.2","spark_pilot_norest","9639","2","15","Female","","","","","","","2692.3999999910593","<p> This time you are searching for treasure in the <b>canyon</b>.</p>","","instructions","","","","","","","","","","","",""
"learning-instructions","298","1221726","0.0-4.0-0.1-0.3","spark_pilot_norest","9639","2","15","Female","","","","","","","2106.4000000059605","<p><b>New</b> animals with <b>new</b> treasure chests live here. You need to explore to discover where the animal with the best treasure chest is.</p>
                    <p> Like before, once you figure out which animal has the chest with the most treasure, you should try to get to that animal and select that chest! </p>","","instructions","","","","","","","","","","","",""
"learning-instructions","299","1238892","0.0-4.0-1.1-0.1","spark_pilot_norest","9639","2","15","Female","","","","","","","2434","<p> Remember, when you see a picture of the place, use the up and down keys to <b>find an animal</b>.</p>
            <p> When you encounter an animal, you should use the left and right keys to <b>select a treasure chest</b>.</p>
            <p> Don't forget to look out for the robber! </p>","","instructions","","","","","","","","","","","",""
"revaluation","300","1244903","0.0-4.0-2.1-0.50","spark_pilot_norest","9639","2","15","Female","","false","","","","","[651.2000000029802,590.4000000059605]","./assets/img/canyon/memory/10.jpg","[""ArrowUp"",""ArrowLeft""]","value training","canyon","26","{""ArrowUp,ArrowLeft"":26,""ArrowUp,ArrowRight"":10,""ArrowDown,ArrowLeft"":5,""ArrowDown,ArrowRight"":17}","true","ArrowUp,ArrowLeft","false","original","2","0","","",""
"html-keyboard-response","301","1245408","0.0-4.0-2.1-1.50","spark_pilot_norest","9639","2","15","Female","","","","","","","null","<div style=""font-size:60px;"">+</div>","null","fixation","","","","","","","","","1","","",""
"revaluation","302","1251416","0.0-4.0-2.1-0.51","spark_pilot_norest","9639","2","15","Female","","false","","","","","[245.69999998807907,365]","./assets/img/canyon/memory/38.jpg","[""ArrowUp"",""ArrowRight""]","value training","canyon","10","{""ArrowUp,ArrowLeft"":26,""ArrowUp,ArrowRight"":10,""ArrowDown,ArrowLeft"":5,""ArrowDown,ArrowRight"":17}","false","ArrowUp,ArrowRight","false","original","2","2","","",""
"html-keyboard-response","303","1251921","0.0-4.0-2.1-1.51","spark_pilot_norest","9639","2","15","Female","","","","","","","null","<div style=""font-size:60px;"">+</div>","null","fixation","","","","","","","","","3","","",""
"revaluation","304","1257929","0.0-4.0-2.1-0.52","spark_pilot_norest","9639","2","15","Female","","false","","","","","[132.30000001192093,427.8999999910593]","./assets/img/canyon/memory/22.jpg","[""ArrowDown"",""ArrowLeft""]","value training","canyon","5","{""ArrowUp,ArrowLeft"":26,""ArrowUp,ArrowRight"":10,""ArrowDown,ArrowLeft"":5,""ArrowDown,ArrowRight"":17}","false","ArrowDown,ArrowLeft","false","original","2","4","","",""
"html-keyboard-response","305","1258434","0.0-4.0-2.1-1.52","spark_pilot_norest","9639","2","15","Female","","","","","","","null","<div style=""font-size:60px;"">+</div>","null","fixation","","","","","","","","","5","","",""
"revaluation","306","1264442","0.0-4.0-2.1-0.53","spark_pilot_norest","9639","2","15","Female","","false","","","","","[306.90000000596046,354.79999999701977]","./assets/img/canyon/memory/34.jpg","[""ArrowDown"",""ArrowRight""]","value training","canyon","17","{""ArrowUp,ArrowLeft"":26,""ArrowUp,ArrowRight"":10,""ArrowDown,ArrowLeft"":5,""ArrowDown,ArrowRight"":17}","false","ArrowDown,ArrowRight","false","original","2","6","","",""
"html-keyboard-response","307","1264946","0.0-4.0-2.1-1.53","spark_pilot_norest","9639","2","15","Female","","","","","","","null","<div style=""font-size:60px;"">+</div>","null","fixation","","","","","","","","","7","","",""
"revaluation","308","1270953","0.0-4.0-2.1-0.54","spark_pilot_norest","9639","2","15","Female","","false","","","","","[98.09999999403954,398.5]","./assets/img/canyon/memory/15.jpg","[""ArrowUp"",""ArrowLeft""]","value training","canyon","26","{""ArrowUp,ArrowLeft"":26,""ArrowUp,ArrowRight"":10,""ArrowDown,ArrowLeft"":5,""ArrowDown,ArrowRight"":17}","true","ArrowUp,ArrowLeft","false","original","2","8","","",""
"html-keyboard-response","309","1271454","0.0-4.0-2.1-1.54","spark_pilot_norest","9639","2","15","Female","","","","","","","null","<div style=""font-size:60px;"">+</div>","null","fixation","","","","","","","","","9","","",""
"revaluation","310","1275458","0.0-4.0-2.1-0.55","spark_pilot_norest","9639","2","15","Female","","false","","","","","[125.79999999701977]","./assets/img/canyon/catch/4.jpg","[""ArrowUp""]","value training","canyon","-10","{""ArrowUp,ArrowLeft"":26,""ArrowUp,ArrowRight"":10,""ArrowDown,ArrowLeft"":5,""ArrowDown,ArrowRight"":17}","false","ArrowUp","true","original","2","10","","",""
