"trial_type","trial_index","time_elapsed","internal_node_id","task_version","subject_id","assigned_condition","age","gender","success","timeout","failed_images","failed_audio","failed_video","browser_interaction","rt","stimulus","response","task_part","environment","score","rewardMap","correct","fullState","isCatch","condition","order","trial_num","key_press","ground_truth","bonus"
"pavlovia","0","1836","0.0-0.0","spark_pilot_norest","8612","1","13","Female","","","","","","","","","","","","","","","","","","","","","",""
"preload","1","13267","0.0-1.0","spark_pilot_norest","8612","1","13","Female","true","false","[]","[]","[]","[{""event"":""fullscreenenter"",""trial"":2,""time"":16483}]","","","","","","","","","","","","","","","",""
"fullscreen","2","17478","0.0-2.0","spark_pilot_norest","8612","1","13","Female","true","","","","","","","","","","","","","","","","","","","","",""
"audio-button-response","3","19919","0.0-3.0-0.0-0.0","spark_pilot_norest","8612","1","13","Female","","","","","","","2240","./assets/audio/audiotest/turtle.mp3","2","audio_test","","","","","","","","","","","",""
"learning-instructions","4","30031","0.0-3.0-1.0-0.0","spark_pilot_norest","8612","1","13","Female","","","","","","","3105.2000000476837","<p> Welcome! Please remember to stay in fullscreen mode and don't click away from the experiment. </p>","","instructions","","","","","","","","","","","",""
"learning-instructions","5","46119","0.0-3.0-1.0-0.1","spark_pilot_norest","8612","1","13","Female","","","","","","","7672.200000047684","<p> Today you will be playing a game to earn treasure. </p>
            <p> At the end of the experiment, you will earn a bonus based on how much treasure you find. </p>
            <img src='./assets/img/instructions/treasure.jpg' class='instructions-image'>","","instructions","","","","","","","","","","","",""
"learning-instructions","6","56918","0.0-3.0-1.0-0.2","spark_pilot_norest","8612","1","13","Female","","","","","","","2522.5","<p> Animals have hidden treasure in treasure chests. </p>
            <p> You need to first find an animal and then choose which of their treasure chests to search. </p>
            <img src='./assets/img/space/animals/cat.jpg' class='instructions-image'>","","instructions","","","","","","","","","","","",""
"learning-instructions","7","72158","0.0-3.0-1.0-0.3","spark_pilot_norest","8612","1","13","Female","","","","","","","2072.5","<p> In each round, you will search for treasure in a different place. In the real game, there will be two rounds. </p>
            <p> You will begin with a separate, practice round where you will search for treasure in outer space. </p>
            <img src='./assets/img/space/0.jpg' class='instructions-image'>","","instructions","","","","","","","","","","","",""
"learning-instructions","8","85110","0.0-3.0-1.0-0.4","spark_pilot_norest","8612","1","13","Female","","","","","","","1534.7000000476837","<p> On every turn, you will see a picture of the place that you are in, but the specific image may be different each time. </p>
            <p> For example, both of these images mean you are in outer space. </p>
            <img src='./assets/img/instructions/outerspace.jpg' class='instructions-image'>","","instructions","","","","","","","","","","","",""
"learning-instructions","9","94166","0.0-3.0-1.0-0.5","spark_pilot_norest","8612","1","13","Female","","","","","","","1220.5","<p> You need to decide which direction to travel in. </p>
            <p> You can choose between going <b>up or down</b> by using the arrow keys. </p>
            <img src='./assets/img/instructions/updown.jpg' class='instructions-image'>","","instructions","","","","","","","","","","","",""
"learning-instructions","10","107502","0.0-3.0-1.0-0.6","spark_pilot_norest","8612","1","13","Female","","","","","","","4526.900000095367","<p> You will have <b>2 seconds</b> to make your choice. </p>
            <p> If you do not make a choice within 2 seconds, you will not find an animal or earn treasure. </p>
            <img src='./assets/img/instructions/2seconds.jpg' class='instructions-image'>","","instructions","","","","","","","","","","","",""
"learning-instructions","11","117086","0.0-3.0-1.0-0.7","spark_pilot_norest","8612","1","13","Female","","","","","","","2530.399999856949","<p> Let’s try practicing that now! </p>
            <p> When you see a picture of the place you are in, press the <b>up</b> key to travel up. </p>
            <img src='./assets/img/instructions/pressUp.jpg' class='instructions-image'>","","instructions","","","","","","","","","","","",""
"revaluation","12","121131","0.0-3.0-2.0-0.0","spark_pilot_norest","8612","1","13","Female","","false","","","","","[834.4000000953674]","./assets/img/space/0.jpg","[""ArrowUp""]","first stage practice","space","0","null","null","ArrowUp","false","","","","","",""
"html-keyboard-response","13","121649","0.0-3.0-2.0-1.0","spark_pilot_norest","8612","1","13","Female","","","","","","","null","<div style=""font-size:60px;"">+</div>","null","fixation","","","","","","","","","","","",""
"revaluation","14","125679","0.0-3.0-2.0-0.1","spark_pilot_norest","8612","1","13","Female","","false","","","","","[1437.2000000476837]","./assets/img/space/1.jpg","[""ArrowUp""]","first stage practice","space","0","null","null","ArrowUp","false","","","","","",""
"html-keyboard-response","15","126194","0.0-3.0-2.0-1.1","spark_pilot_norest","8612","1","13","Female","","","","","","","null","<div style=""font-size:60px;"">+</div>","null","fixation","","","","","","","","","","","",""
"revaluation","16","130220","0.0-3.0-2.0-0.2","spark_pilot_norest","8612","1","13","Female","","false","","","","","[420.40000009536743]","./assets/img/space/2.jpg","[""ArrowUp""]","first stage practice","space","0","null","null","ArrowUp","false","","","","","",""
"html-keyboard-response","17","130735","0.0-3.0-2.0-1.2","spark_pilot_norest","8612","1","13","Female","","","","","","","null","<div style=""font-size:60px;"">+</div>","null","fixation","","","","","","","","","","","",""
"learning-instructions","18","136711","0.0-3.0-3.0-0.0","spark_pilot_norest","8612","1","13","Female","","","","","","","1254.2999999523163","<p> Great job! Now try pressing the <b>down</b> key to travel down. </p>
            <img src='./assets/img/instructions/pressDown.jpg' class='instructions-image'>","","instructions","","","","","","","","","","","",""
"revaluation","19","140743","0.0-3.0-4.0-0.0","spark_pilot_norest","8612","1","13","Female","","false","","","","","[1347.7000000476837]","./assets/img/space/3.jpg","[""ArrowDown""]","first stage practice","space","0","null","null","ArrowDown","false","","","","","",""
"html-keyboard-response","20","141249","0.0-3.0-4.0-1.0","spark_pilot_norest","8612","1","13","Female","","","","","","","null","<div style=""font-size:60px;"">+</div>","null","fixation","","","","","","","","","","","",""
"revaluation","21","145265","0.0-3.0-4.0-0.1","spark_pilot_norest","8612","1","13","Female","","true","","","","","[]","./assets/img/space/4.jpg","[]","first stage practice","space","-5","null","null","","false","","","","","",""
"html-keyboard-response","22","145779","0.0-3.0-4.0-1.1","spark_pilot_norest","8612","1","13","Female","","","","","","","null","<div style=""font-size:60px;"">+</div>","null","fixation","","","","","","","","","","","",""
"revaluation","23","149800","0.0-3.0-4.0-0.2","spark_pilot_norest","8612","1","13","Female","","true","","","","","[]","./assets/img/space/5.jpg","[]","first stage practice","space","-5","null","null","","false","","","","","",""
"html-keyboard-response","24","150319","0.0-3.0-4.0-1.2","spark_pilot_norest","8612","1","13","Female","","","","","","","null","<div style=""font-size:60px;"">+</div>","null","fixation","","","","","","","","","","","",""
"learning-instructions","25","171535","0.0-3.0-5.0-0.0","spark_pilot_norest","8612","1","13","Female","","","","","","","11329","<p> The animals don’t move, so the animal in the upper part of a place will stay in the upper part of a place, and the animal in the lower part of a place will stay in the lower part of a place. </p>","","instructions","","","","","","","","","","","",""
"learning-instructions","26","184135","0.0-3.0-5.0-0.1","spark_pilot_norest","8612","1","13","Female","","","","","","","3459.7000000476837","<p> Each animal has two treasure chests for you to choose from. </p>
            <p> The amount of treasure in each chest can range from <b> 0 to 40 pieces.</b></p>","","instructions","","","","","","","","","","","",""
"learning-instructions","27","197038","0.0-3.0-5.0-0.2","spark_pilot_norest","8612","1","13","Female","","","","","","","1702.9000000953674","<p> You should decide which chest to search for treasure by using the <b>left</b> and <b>right</b> arrow keys. </p>
            <p><b> Pay attention to which animal is on the screen, as the animals have different treasure chests. </b></p>
            <img src='./assets/img/instructions/leftright.jpg' class='instructions-image'>","","instructions","","","","","","","","","","","",""
"learning-instructions","28","203918","0.0-3.0-5.0-0.3","spark_pilot_norest","8612","1","13","Female","","","","","","","512.5","<p> Let’s try practicing that now. </p>
            <p> When you see an animal, choose which chest to search for treasure. </p>
            <img src='./assets/img/instructions/chooseChest.jpg' class='instructions-image'>","","instructions","","","","","","","","","","","",""
"revaluation","29","207945","0.0-3.0-6.0-0.0","spark_pilot_norest","8612","1","13","Female","","false","","","","","[1275.2000000476837]","./assets/img/space/animals/cat.jpg","[""ArrowRight""]","second stage practice","space","36","{""ArrowUp,ArrowLeft"":3,""ArrowUp,ArrowRight"":36,""ArrowDown,ArrowLeft"":15,""ArrowDown,ArrowRight"":23}","true","ArrowUp,ArrowRight","","","","","","",""
"html-keyboard-response","30","208458","0.0-3.0-6.0-1.0","spark_pilot_norest","8612","1","13","Female","","","","","","","null","<div style=""font-size:60px;"">+</div>","null","fixation","","","","","","","","","","","",""
"revaluation","31","212505","0.0-3.0-6.0-0.1","spark_pilot_norest","8612","1","13","Female","","false","","","","","[716.7999999523163]","./assets/img/space/animals/cat.jpg","[""ArrowRight""]","second stage practice","space","36","{""ArrowUp,ArrowLeft"":3,""ArrowUp,ArrowRight"":36,""ArrowDown,ArrowLeft"":15,""ArrowDown,ArrowRight"":23}","true","ArrowUp,ArrowRight","","","","","","",""
"html-keyboard-response","32","213019","0.0-3.0-6.0-1.1","spark_pilot_norest","8612","1","13","Female","","","","","","","null","<div style=""font-size:60px;"">+</div>","null","fixation","","","","","","","","","","","",""
"revaluation","33","217054","0.0-3.0-6.0-0.2","spark_pilot_norest","8612","1","13","Female","","false","","","","","[470.2999999523163]","./assets/img/space/animals/rabbit.jpg","[""ArrowRight""]","second stage practice","space","23","{""ArrowUp,ArrowLeft"":3,""ArrowUp,ArrowRight"":36,""ArrowDown,ArrowLeft"":15,""ArrowDown,ArrowRight"":23}","true","ArrowDown,ArrowRight","","","","","","",""
"html-keyboard-response","34","217568","0.0-3.0-6.0-1.2","spark_pilot_norest","8612","1","13","Female","","","","","","","null","<div style=""font-size:60px;"">+</div>","null","fixation","","","","","","","","","","","",""
"revaluation","35","221595","0.0-3.0-6.0-0.3","spark_pilot_norest","8612","1","13","Female","","false","","","","","[719.3000001907349]","./assets/img/space/animals/rabbit.jpg","[""ArrowLeft""]","second stage practice","space","15","{""ArrowUp,ArrowLeft"":3,""ArrowUp,ArrowRight"":36,""ArrowDown,ArrowLeft"":15,""ArrowDown,ArrowRight"":23}","false","ArrowDown,ArrowLeft","","","","","","",""
"html-keyboard-response","36","222109","0.0-3.0-6.0-1.3","spark_pilot_norest","8612","1","13","Female","","","","","","","null","<div style=""font-size:60px;"">+</div>","null","fixation","","","","","","","","","","","",""
"learning-instructions","37","241046","0.0-3.0-7.0-0.0","spark_pilot_norest","8612","1","13","Female","","","","","","","2080.7999999523163","<p> Great job. Now let’s try putting it together. </p>
            <p> On each turn, you will first see a picture to remind you of the place you are in, and you need to choose whether to go up or down. </p>
            <p> Then you will see an animal and choose which of its chests to search for treasure. </p>","","instructions","","","","","","","","","","","",""
"learning-instructions","38","250334","0.0-3.0-7.0-0.1","spark_pilot_norest","8612","1","13","Female","","","","","","","1019.2999999523163","<p> When you choose whether to go up or down, try to go to the animal with the chest with the most treasure. </p>
            <p> Try practicing that now! </p>","","instructions","","","","","","","","","","","",""
"revaluation","39","256369","0.0-3.0-8.0-0.0","spark_pilot_norest","8612","1","13","Female","","false","","","","","[1899.7999999523163,835.7999999523163]","./assets/img/space/6.jpg","[""ArrowDown"",""ArrowRight""]","full practice","space","23","{""ArrowUp,ArrowLeft"":3,""ArrowUp,ArrowRight"":36,""ArrowDown,ArrowLeft"":15,""ArrowDown,ArrowRight"":23}","false","ArrowDown,ArrowRight","false","","","","","",""
"html-keyboard-response","40","256883","0.0-3.0-8.0-1.0","spark_pilot_norest","8612","1","13","Female","","","","","","","null","<div style=""font-size:60px;"">+</div>","null","fixation","","","","","","","","","","","",""
"revaluation","41","262929","0.0-3.0-8.0-0.1","spark_pilot_norest","8612","1","13","Female","","false","","","","","[838.2000000476837,756.8000001907349]","./assets/img/space/7.jpg","[""ArrowUp"",""ArrowRight""]","full practice","space","36","{""ArrowUp,ArrowLeft"":3,""ArrowUp,ArrowRight"":36,""ArrowDown,ArrowLeft"":15,""ArrowDown,ArrowRight"":23}","true","ArrowUp,ArrowRight","false","","","","","",""
"html-keyboard-response","42","263433","0.0-3.0-8.0-1.1","spark_pilot_norest","8612","1","13","Female","","","","","","","null","<div style=""font-size:60px;"">+</div>","null","fixation","","","","","","","","","","","",""
"revaluation","43","269463","0.0-3.0-8.0-0.2","spark_pilot_norest","8612","1","13","Female","","false","","","","","[1128.2000000476837,712.7000000476837]","./assets/img/space/8.jpg","[""ArrowUp"",""ArrowRight""]","full practice","space","36","{""ArrowUp,ArrowLeft"":3,""ArrowUp,ArrowRight"":36,""ArrowDown,ArrowLeft"":15,""ArrowDown,ArrowRight"":23}","true","ArrowUp,ArrowRight","false","","","","","",""
"html-keyboard-response","44","269968","0.0-3.0-8.0-1.2","spark_pilot_norest","8612","1","13","Female","","","","","","","null","<div style=""font-size:60px;"">+</div>","null","fixation","","","","","","","","","","","",""
"revaluation","45","275999","0.0-3.0-8.0-0.3","spark_pilot_norest","8612","1","13","Female","","false","","","","","[1206.7999999523163,572.5999999046326]","./assets/img/space/9.jpg","[""ArrowDown"",""ArrowRight""]","full practice","space","23","{""ArrowUp,ArrowLeft"":3,""ArrowUp,ArrowRight"":36,""ArrowDown,ArrowLeft"":15,""ArrowDown,ArrowRight"":23}","false","ArrowDown,ArrowRight","false","","","","","",""
"html-keyboard-response","46","276513","0.0-3.0-8.0-1.3","spark_pilot_norest","8612","1","13","Female","","","","","","","null","<div style=""font-size:60px;"">+</div>","null","fixation","","","","","","","","","","","",""
"revaluation","47","282531","0.0-3.0-8.0-0.4","spark_pilot_norest","8612","1","13","Female","","false","","","","","[1046.5,507.90000009536743]","./assets/img/space/10.jpg","[""ArrowUp"",""ArrowLeft""]","full practice","space","3","{""ArrowUp,ArrowLeft"":3,""ArrowUp,ArrowRight"":36,""ArrowDown,ArrowLeft"":15,""ArrowDown,ArrowRight"":23}","false","ArrowUp,ArrowLeft","false","","","","","",""
"html-keyboard-response","48","283033","0.0-3.0-8.0-1.4","spark_pilot_norest","8612","1","13","Female","","","","","","","null","<div style=""font-size:60px;"">+</div>","null","fixation","","","","","","","","","","","",""
"learning-instructions","49","295366","0.0-3.0-9.0-0.0","spark_pilot_norest","8612","1","13","Female","","","","","","","2011.9000000953674","<p> One last thing: sometimes, you will see a robber. The robber can be anywhere in the picture. </p>
            <p> If you do not stop them, you will lose treasure. </p>
            <img src='./assets/img/instructions/robber.jpg' class='instructions-image'>","","instructions","","","","","","","","","","","",""
"learning-instructions","50","303550","0.0-3.0-9.0-0.1","spark_pilot_norest","8612","1","13","Female","","","","","","","1016.4000000953674","<p> If you see the robber, you should <b>press the space bar</b> rather than using the arrow keys. </p>
            <p> Try practicing that now! </p>","","instructions","","","","","","","","","","","",""
"revaluation","51","307573","0.0-3.0-10.0-0.0","spark_pilot_norest","8612","1","13","Female","","false","","","","","[1683.8999998569489]","./assets/img/space/catch/0.jpg","[""spaceBar""]","catch practice","space","0","{""ArrowUp,ArrowLeft"":3,""ArrowUp,ArrowRight"":36,""ArrowDown,ArrowLeft"":15,""ArrowDown,ArrowRight"":23}","true","spaceBar","true","","","","","",""
"html-keyboard-response","52","308082","0.0-3.0-10.0-1.0","spark_pilot_norest","8612","1","13","Female","","","","","","","null","<div style=""font-size:60px;"">+</div>","null","fixation","","","","","","","","","","","",""
"revaluation","53","312087","0.0-3.0-10.0-0.1","spark_pilot_norest","8612","1","13","Female","","false","","","","","[1575.5999999046326]","./assets/img/space/catch/1.jpg","[""spaceBar""]","catch practice","space","0","{""ArrowUp,ArrowLeft"":3,""ArrowUp,ArrowRight"":36,""ArrowDown,ArrowLeft"":15,""ArrowDown,ArrowRight"":23}","true","spaceBar","true","","","","","",""
"html-keyboard-response","54","312597","0.0-3.0-10.0-1.1","spark_pilot_norest","8612","1","13","Female","","","","","","","null","<div style=""font-size:60px;"">+</div>","null","fixation","","","","","","","","","","","",""
"revaluation","55","316638","0.0-3.0-10.0-0.2","spark_pilot_norest","8612","1","13","Female","","false","","","","","[794.4000000953674]","./assets/img/space/catch/2.jpg","[""spaceBar""]","catch practice","space","0","{""ArrowUp,ArrowLeft"":3,""ArrowUp,ArrowRight"":36,""ArrowDown,ArrowLeft"":15,""ArrowDown,ArrowRight"":23}","true","spaceBar","true","","","","","",""
"html-keyboard-response","56","317145","0.0-3.0-10.0-1.2","spark_pilot_norest","8612","1","13","Female","","","","","","","null","<div style=""font-size:60px;"">+</div>","null","fixation","","","","","","","","","","","",""
"learning-instructions","57","326334","0.0-3.0-11.0-0.0-0.0","spark_pilot_norest","8612","1","13","Female","","","","","","","3910.600000143051","<p> Now, you will practice a shortened version of the game to get a sense of how it all fits together. </p>","","instructions","","","","","","","","","","","",""
"learning-instructions","58","333574","0.0-3.0-11.0-0.0-0.1","spark_pilot_norest","8612","1","13","Female","","","","","","","4050.7999999523163","<p>This time you are searching for treasure in outer space.</p>","","instructions","","","","","","","","","","","",""
"learning-instructions","59","349654","0.0-3.0-11.0-1.0-0.0","spark_pilot_norest","8612","1","13","Female","","","","","","","1290.5999999046326","<p> Remember, when you see a picture of the place, use the up and down keys to <b>find an animal</b>.</p>
            <p> When you encounter an animal, you should use the left and right keys to <b>select a treasure chest</b>.</p>
            <p> Don't forget to look out for the robber! </p>","","instructions","","","","","","","","","","","",""
"revaluation","60","353662","0.0-3.0-11.0-2.0-0.0","spark_pilot_norest","8612","1","13","Female","","true","","","","","[]","./assets/img/space/11.jpg","[]","practice block","space","-5","{""ArrowUp,ArrowLeft"":3,""ArrowUp,ArrowRight"":36,""ArrowDown,ArrowLeft"":15,""ArrowDown,ArrowRight"":23}","false","","false","","","","","",""
"html-keyboard-response","61","354182","0.0-3.0-11.0-2.0-1.0","spark_pilot_norest","8612","1","13","Female","","","","","","","null","<div style=""font-size:60px;"">+</div>","null","fixation","","","","","","","","","","","",""
"revaluation","62","360205","0.0-3.0-11.0-2.0-0.1","spark_pilot_norest","8612","1","13","Female","","false","","","","","[552.5999999046326,844.2000000476837]","./assets/img/space/12.jpg","[""ArrowUp"",""ArrowRight""]","practice block","space","36","{""ArrowUp,ArrowLeft"":3,""ArrowUp,ArrowRight"":36,""ArrowDown,ArrowLeft"":15,""ArrowDown,ArrowRight"":23}","true","ArrowUp,ArrowRight","false","","","","","",""
"html-keyboard-response","63","360707","0.0-3.0-11.0-2.0-1.1","spark_pilot_norest","8612","1","13","Female","","","","","","","null","<div style=""font-size:60px;"">+</div>","null","fixation","","","","","","","","","","","",""
"revaluation","64","366733","0.0-3.0-11.0-2.0-0.2","spark_pilot_norest","8612","1","13","Female","","false","","","","","[1996.7000000476837,957]","./assets/img/space/13.jpg","[""ArrowUp"",""ArrowLeft""]","practice block","space","3","{""ArrowUp,ArrowLeft"":3,""ArrowUp,ArrowRight"":36,""ArrowDown,ArrowLeft"":15,""ArrowDown,ArrowRight"":23}","false","ArrowUp,ArrowLeft","false","","","","","",""
"html-keyboard-response","65","367247","0.0-3.0-11.0-2.0-1.2","spark_pilot_norest","8612","1","13","Female","","","","","","","null","<div style=""font-size:60px;"">+</div>","null","fixation","","","","","","","","","","","",""
"revaluation","66","373283","0.0-3.0-11.0-2.0-0.3","spark_pilot_norest","8612","1","13","Female","","false","","","","","[784.4000000953674,645.7000000476837]","./assets/img/space/14.jpg","[""ArrowUp"",""ArrowRight""]","practice block","space","36","{""ArrowUp,ArrowLeft"":3,""ArrowUp,ArrowRight"":36,""ArrowDown,ArrowLeft"":15,""ArrowDown,ArrowRight"":23}","true","ArrowUp,ArrowRight","false","","","","","",""
"html-keyboard-response","67","373802","0.0-3.0-11.0-2.0-1.3","spark_pilot_norest","8612","1","13","Female","","","","","","","null","<div style=""font-size:60px;"">+</div>","null","fixation","","","","","","","","","","","",""
"revaluation","68","379824","0.0-3.0-11.0-2.0-0.4","spark_pilot_norest","8612","1","13","Female","","false","","","","","[1149.0999999046326,552]","./assets/img/space/11.jpg","[""ArrowUp"",""ArrowRight""]","practice block","space","36","{""ArrowUp,ArrowLeft"":3,""ArrowUp,ArrowRight"":36,""ArrowDown,ArrowLeft"":15,""ArrowDown,ArrowRight"":23}","true","ArrowUp,ArrowRight","false","","","","","",""
"html-keyboard-response","69","380326","0.0-3.0-11.0-2.0-1.4","spark_pilot_norest","8612","1","13","Female","","","","","","","null","<div style=""font-size:60px;"">+</div>","null","fixation","","","","","","","","","","","",""
"revaluation","70","386335","0.0-3.0-11.0-2.0-0.5","spark_pilot_norest","8612","1","13","Female","","false","","","","","[1696.9000000953674,550.9000000953674]","./assets/img/space/12.jpg","[""ArrowUp"",""ArrowRight""]","practice block","space","36","{""ArrowUp,ArrowLeft"":3,""ArrowUp,ArrowRight"":36,""ArrowDown,ArrowLeft"":15,""ArrowDown,ArrowRight"":23}","true","ArrowUp,ArrowRight","false","","","","","",""
"html-keyboard-response","71","386836","0.0-3.0-11.0-2.0-1.5","spark_pilot_norest","8612","1","13","Female","","","","","","","null","<div style=""font-size:60px;"">+</div>","null","fixation","","","","","","","","","","","",""
"revaluation","72","392846","0.0-3.0-11.0-2.0-0.6","spark_pilot_norest","8612","1","13","Female","","false","","","","","[954.2000000476837,665.2000000476837]","./assets/img/space/13.jpg","[""ArrowUp"",""ArrowRight""]","practice block","space","36","{""ArrowUp,ArrowLeft"":3,""ArrowUp,ArrowRight"":36,""ArrowDown,ArrowLeft"":15,""ArrowDown,ArrowRight"":23}","true","ArrowUp,ArrowRight","false","","","","","",""
"html-keyboard-response","73","393348","0.0-3.0-11.0-2.0-1.6","spark_pilot_norest","8612","1","13","Female","","","","","","","null","<div style=""font-size:60px;"">+</div>","null","fixation","","","","","","","","","","","",""
"revaluation","74","399357","0.0-3.0-11.0-2.0-0.7","spark_pilot_norest","8612","1","13","Female","","false","","","","","[915.7999999523163,562.4000000953674]","./assets/img/space/14.jpg","[""ArrowUp"",""ArrowRight""]","practice block","space","36","{""ArrowUp,ArrowLeft"":3,""ArrowUp,ArrowRight"":36,""ArrowDown,ArrowLeft"":15,""ArrowDown,ArrowRight"":23}","true","ArrowUp,ArrowRight","false","","","","","",""
"html-keyboard-response","75","399860","0.0-3.0-11.0-2.0-1.7","spark_pilot_norest","8612","1","13","Female","","","","","","","null","<div style=""font-size:60px;"">+</div>","null","fixation","","","","","","","","","","","",""
"revaluation","76","403873","0.0-3.0-11.0-2.0-0.8","spark_pilot_norest","8612","1","13","Female","","false","","","","","[1424]","./assets/img/space/catch/3.jpg","[""spaceBar""]","practice block","space","0","{""ArrowUp,ArrowLeft"":3,""ArrowUp,ArrowRight"":36,""ArrowDown,ArrowLeft"":15,""ArrowDown,ArrowRight"":23}","true","spaceBar","true","","","","","",""
"html-keyboard-response","77","404375","0.0-3.0-11.0-2.0-1.8","spark_pilot_norest","8612","1","13","Female","","","","","","","null","<div style=""font-size:60px;"">+</div>","null","fixation","","","","","","","","","","","",""
"learning-instructions","78","423078","0.0-3.0-11.0-3.0-0.0","spark_pilot_norest","8612","1","13","Female","","","","","","","5676","<p> Now, you will travel with a friend who will choose whether you go up or down first. </p>
            <p> On these turns, you will just see the animal that they found. You will still get to choose which chest to search for treasure.</p>","","instructions","","","","","","","","","","","",""
"revaluation","79","427111","0.0-3.0-11.0-4.0-0.0","spark_pilot_norest","8612","1","13","Female","","false","","","","","[1634.5]","./assets/img/space/animals/rabbit.jpg","[""ArrowRight""]","practice block","space","23","{""ArrowUp,ArrowLeft"":3,""ArrowUp,ArrowRight"":36,""ArrowDown,ArrowLeft"":15,""ArrowDown,ArrowRight"":23}","true","ArrowDown,ArrowRight","","","","","","",""
"html-keyboard-response","80","427624","0.0-3.0-11.0-4.0-1.0","spark_pilot_norest","8612","1","13","Female","","","","","","","null","<div style=""font-size:60px;"">+</div>","null","fixation","","","","","","","","","","","",""
"revaluation","81","431645","0.0-3.0-11.0-4.0-0.1","spark_pilot_norest","8612","1","13","Female","","false","","","","","[433]","./assets/img/space/animals/rabbit.jpg","[""ArrowRight""]","practice block","space","23","{""ArrowUp,ArrowLeft"":3,""ArrowUp,ArrowRight"":36,""ArrowDown,ArrowLeft"":15,""ArrowDown,ArrowRight"":23}","true","ArrowDown,ArrowRight","","","","","","",""
"html-keyboard-response","82","432150","0.0-3.0-11.0-4.0-1.1","spark_pilot_norest","8612","1","13","Female","","","","","","","null","<div style=""font-size:60px;"">+</div>","null","fixation","","","","","","","","","","","",""
"revaluation","83","436165","0.0-3.0-11.0-4.0-0.2","spark_pilot_norest","8612","1","13","Female","","false","","","","","[432.90000009536743]","./assets/img/space/animals/cat.jpg","[""ArrowRight""]","practice block","space","36","{""ArrowUp,ArrowLeft"":3,""ArrowUp,ArrowRight"":36,""ArrowDown,ArrowLeft"":15,""ArrowDown,ArrowRight"":23}","true","ArrowUp,ArrowRight","","","","","","",""
"html-keyboard-response","84","436685","0.0-3.0-11.0-4.0-1.2","spark_pilot_norest","8612","1","13","Female","","","","","","","null","<div style=""font-size:60px;"">+</div>","null","fixation","","","","","","","","","","","",""
"revaluation","85","440715","0.0-3.0-11.0-4.0-0.3","spark_pilot_norest","8612","1","13","Female","","false","","","","","[474.7000000476837]","./assets/img/space/animals/cat.jpg","[""ArrowRight""]","practice block","space","36","{""ArrowUp,ArrowLeft"":3,""ArrowUp,ArrowRight"":36,""ArrowDown,ArrowLeft"":15,""ArrowDown,ArrowRight"":23}","true","ArrowUp,ArrowRight","","","","","","",""
"html-keyboard-response","86","441230","0.0-3.0-11.0-4.0-1.3","spark_pilot_norest","8612","1","13","Female","","","","","","","null","<div style=""font-size:60px;"">+</div>","null","fixation","","","","","","","","","","","",""
"learning-instructions","87","449410","0.0-3.0-11.0-5.0-0.0","spark_pilot_norest","8612","1","13","Female","","","","","","","null","<p> You have almost finished this part of the game! </p>
            <p> We are going to ask you to make a few more choices. </p>","","instructions","","","","","","","","","","","",""
"learning-instructions","88","465469","0.0-3.0-11.0-5.0-0.1","spark_pilot_norest","8612","1","13","Female","","","","","","","null","<p> First, you need to decide whether to go up or down. When you see each picture, use the arrow keys to make your choice. </p>
            <p><b>You will not see which animal you found, but try to get to the one that will give you the most treasure.</b></p>","","instructions","","","","","","","","","","","",""
"html-keyboard-response","89","466481","0.0-3.0-11.0-6.0-0.0","spark_pilot_norest","8612","1","13","Female","","","","","","","null","<div style=""font-size:100px;color:red;"">Starting in...</div>","null","","","","","","","","","","","","",""
"html-keyboard-response","90","467500","0.0-3.0-11.0-6.0-1.0","spark_pilot_norest","8612","1","13","Female","","","","","","","null","<div style=""font-size:200px;color:red;"">3</div>","null","","","","","","","","","","","","",""
"html-keyboard-response","91","468515","0.0-3.0-11.0-6.0-2.0","spark_pilot_norest","8612","1","13","Female","","","","","","","null","<div style=""font-size:200px;color:red;"">2</div>","null","","","","","","","","","","","","",""
"html-keyboard-response","92","469530","0.0-3.0-11.0-6.0-3.0","spark_pilot_norest","8612","1","13","Female","","","","","","","null","<div style=""font-size:200px;color:red;"">1</div>","null","","","","","","","","","","","","",""
"revaluation","93","470141","0.0-3.0-11.0-7.0","spark_pilot_norest","8612","1","13","Female","","false","","","","","[604.1000001430511]","./assets/img/space/15.jpg","[""ArrowUp""]","practice block","space","0","{""ArrowUp,ArrowLeft"":3,""ArrowUp,ArrowRight"":36,""ArrowDown,ArrowLeft"":15,""ArrowDown,ArrowRight"":23}","true","ArrowUp","false","","","","","",""
"html-keyboard-response","94","470654","0.0-3.0-11.0-8.0","spark_pilot_norest","8612","1","13","Female","","","","","","","null","<div style=""font-size:60px;"">+</div>","null","fixation","","","","","","","","","","","",""
"learning-instructions","95","484115","0.0-3.0-11.0-9.0-0.0","spark_pilot_norest","8612","1","13","Female","","","","","","","null","<p> Now you will see the animals again and can search their chests for treasure. </p>
            <p> This time, you will not see how much treasure you earned, but you will earn more bonus money for making better choices. </p>","","instructions","","","","","","","","","","","",""
"html-keyboard-response","96","485125","0.0-3.0-11.0-10.0-0.0","spark_pilot_norest","8612","1","13","Female","","","","","","","null","<div style=""font-size:100px;color:red;"">Starting in...</div>","null","","","","","","","","","","","","",""
"html-keyboard-response","97","486145","0.0-3.0-11.0-10.0-1.0","spark_pilot_norest","8612","1","13","Female","","","","","","","null","<div style=""font-size:200px;color:red;"">3</div>","null","","","","","","","","","","","","",""
"html-keyboard-response","98","487156","0.0-3.0-11.0-10.0-2.0","spark_pilot_norest","8612","1","13","Female","","","","","","","null","<div style=""font-size:200px;color:red;"">2</div>","null","","","","","","","","","","","","",""
"html-keyboard-response","99","488172","0.0-3.0-11.0-10.0-3.0","spark_pilot_norest","8612","1","13","Female","","","","","","","null","<div style=""font-size:200px;color:red;"">1</div>","null","","","","","","","","","","","","",""
"revaluation","100","488981","0.0-3.0-11.0-11.0-0.0","spark_pilot_norest","8612","1","13","Female","","false","","","","","[803.3999998569489]","./assets/img/space/animals/cat.jpg","[""ArrowRight""]","practice block","space","0","{""ArrowUp,ArrowLeft"":3,""ArrowUp,ArrowRight"":36,""ArrowDown,ArrowLeft"":15,""ArrowDown,ArrowRight"":23}","true","ArrowUp,ArrowRight","","","","","","",""
"html-keyboard-response","101","489490","0.0-3.0-11.0-11.0-1.0","spark_pilot_norest","8612","1","13","Female","","","","","","","null","<div style=""font-size:60px;"">+</div>","null","fixation","","","","","","","","","","","",""
"revaluation","102","490021","0.0-3.0-11.0-11.0-0.1","spark_pilot_norest","8612","1","13","Female","","false","","","","","[525.8000001907349]","./assets/img/space/animals/rabbit.jpg","[""ArrowRight""]","practice block","space","0","{""ArrowUp,ArrowLeft"":3,""ArrowUp,ArrowRight"":36,""ArrowDown,ArrowLeft"":15,""ArrowDown,ArrowRight"":23}","true","ArrowDown,ArrowRight","","","","","","",""
"html-keyboard-response","103","490530","0.0-3.0-11.0-11.0-1.1","spark_pilot_norest","8612","1","13","Female","","","","","","","null","<div style=""font-size:60px;"">+</div>","null","fixation","","","","","","","","","","","",""
"learning-instructions","104","500663","0.0-3.0-12.0-0.0","spark_pilot_norest","8612","1","13","Female","","","","","","","5530.799999952316","<p> Before you start, we're going to ask you a few questions about how the game works. </p>","","instructions","","","","","","","","","","","",""
"comp-q","105","507751","0.0-3.0-13.0-0.0-0.0","spark_pilot_norest","8612","1","13","Female","","","","","","","1492.4000000953674","<p> <b> True or False? </b> </p>
            <p> There can be 50 pieces of treasure in a given animal's chest. </p>","1","comp_question","","","","true","","","","","","","",""
"comp-q","106","516198","0.0-3.0-13.0-0.0-1.0","spark_pilot_norest","8612","1","13","Female","","","","","","","1796.2999999523163","<p> <b> That's right! </b> The amount of treasure in each chest can range from 0 to 40 pieces. </p>","0","comp_answer","","","","","","","","","","","",""
"comp-q","107","531495","0.0-3.0-13.0-0.1-0.1","spark_pilot_norest","8612","1","13","Female","","","","","","","8171.700000047684","<p> <b> True or False? </b> </p><p> In this game, all animals have the same amount of treasure in their left and right chests. </p>","1","comp_question","","","","true","","","","","","","",""
"comp-q","108","539850","0.0-3.0-13.0-0.1-1.1","spark_pilot_norest","8612","1","13","Female","","","","","","","3106.899999856949","<p> <b> That's right! </b> Animals have different amounts of treasure in their treasure chests. </p>","0","comp_answer","","","","","","","","","","","",""
"comp-q","109","547982","0.0-3.0-13.0-0.2-0.2","spark_pilot_norest","8612","1","13","Female","","","","","","","2280.600000143051","<p> <b> True or False? </b> </p><p> The same animal will always be there if you go up in the same place. </p>","0","comp_question","","","","true","","","","","","","",""
"comp-q","110","556198","0.0-3.0-13.0-0.2-1.2","spark_pilot_norest","8612","1","13","Female","","","","","","","1766.2999999523163","<p> <b> That's right! </b> One animal lives in the upper part and one lives in the lower part of every place. </p>","0","comp_answer","","","","","","","","","","","",""
"comp-q","111","568174","0.0-3.0-13.0-0.3-0.3","spark_pilot_norest","8612","1","13","Female","","","","","","","6452.300000190735","<p> <b> True or False? </b> </p><p> If you see a different picture, it means you are in a new place. </p>","1","comp_question","","","","true","","","","","","","",""
"comp-q","112","583246","0.0-3.0-13.0-0.3-1.3","spark_pilot_norest","8612","1","13","Female","","","","","","","3844.2000000476837","<p> <b> That's right! </b> Lots of different images may show the same place. For example,  you may see three different images that all remind you that you are in outer space. </p>","0","comp_answer","","","","","","","","","","","",""
"learning-instructions","113","594870","0.0-3.0-14.0-0.0","spark_pilot_norest","8612","1","13","Female","","","","","","","1758.2999999523163","<p> Good job. Remember to do your best because the amount of treasure you earn will be converted into bonus money. </p>
            <p> It’s time to start the real game! </p>","","instructions","","","","","","","","","","","",""
"learning-instructions","114","599351","0.0-4.0-0.0-0.0","spark_pilot_norest","8612","1","13","Female","","","","","","","1769.1999998092651","<p> This time you are searching for treasure in the <b>ocean</b>.</p>","","instructions","","","","","","","","","","","",""
"learning-instructions","115","618214","0.0-4.0-0.0-0.1","spark_pilot_norest","8612","1","13","Female","","","","","","","1552.5","<p><b>New</b> animals with <b>new</b> treasure chests live here. You need to explore to discover where the animal with the best treasure chest is.</p>
                    <p> Like before, once you figure out which animal has the chest with the most treasure, you should try to get to that animal and select that chest! </p>","","instructions","","","","","","","","","","","",""
"learning-instructions","116","635126","0.0-4.0-1.0-0.0","spark_pilot_norest","8612","1","13","Female","","","","","","","2184.7999999523163","<p> Remember, when you see a picture of the place, use the up and down keys to <b>find an animal</b>.</p>
            <p> When you encounter an animal, you should use the left and right keys to <b>select a treasure chest</b>.</p>
            <p> Don't forget to look out for the robber! </p>","","instructions","","","","","","","","","","","",""
"revaluation","117","639142","0.0-4.0-2.0-0.0","spark_pilot_norest","8612","1","13","Female","","true","","","","","[]","./assets/img/ocean/memory/7.jpg","[]","value training","ocean","-5","{""ArrowUp,ArrowLeft"":26,""ArrowUp,ArrowRight"":10,""ArrowDown,ArrowLeft"":5,""ArrowDown,ArrowRight"":17}","false","","false","original","1","0","","",""
"html-keyboard-response","118","639670","0.0-4.0-2.0-1.0","spark_pilot_norest","8612","1","13","Female","","","","","","","null","<div style=""font-size:60px;"">+</div>","null","fixation","","","","","","","","","1","","",""
"revaluation","119","645712","0.0-4.0-2.0-0.1","spark_pilot_norest","8612","1","13","Female","","false","","","","","[656.9000000953674,937.8000001907349]","./assets/img/ocean/memory/0.jpg","[""ArrowUp"",""ArrowRight""]","value training","ocean","10","{""ArrowUp,ArrowLeft"":26,""ArrowUp,ArrowRight"":10,""ArrowDown,ArrowLeft"":5,""ArrowDown,ArrowRight"":17}","false","ArrowUp,ArrowRight","false","original","1","2","","",""
"html-keyboard-response","120","646231","0.0-4.0-2.0-1.1","spark_pilot_norest","8612","1","13","Female","","","","","","","null","<div style=""font-size:60px;"">+</div>","null","fixation","","","","","","","","","3","","",""
"revaluation","121","652276","0.0-4.0-2.0-0.2","spark_pilot_norest","8612","1","13","Female","","false","","","","","[1255.2000000476837,634.5]","./assets/img/ocean/memory/23.jpg","[""ArrowUp"",""ArrowLeft""]","value training","ocean","26","{""ArrowUp,ArrowLeft"":26,""ArrowUp,ArrowRight"":10,""ArrowDown,ArrowLeft"":5,""ArrowDown,ArrowRight"":17}","true","ArrowUp,ArrowLeft","false","original","1","4","","",""
"html-keyboard-response","122","652785","0.0-4.0-2.0-1.2","spark_pilot_norest","8612","1","13","Female","","","","","","","null","<div style=""font-size:60px;"">+</div>","null","fixation","","","","","","","","","5","","",""
"revaluation","123","658806","0.0-4.0-2.0-0.3","spark_pilot_norest","8612","1","13","Female","","false","","","","","[581.2999999523163,30.399999856948853]","./assets/img/ocean/memory/9.jpg","[""ArrowUp"",""ArrowRight""]","value training","ocean","10","{""ArrowUp,ArrowLeft"":26,""ArrowUp,ArrowRight"":10,""ArrowDown,ArrowLeft"":5,""ArrowDown,ArrowRight"":17}","false","ArrowUp,ArrowRight","false","original","1","6","","",""
"html-keyboard-response","124","659316","0.0-4.0-2.0-1.3","spark_pilot_norest","8612","1","13","Female","","","","","","","null","<div style=""font-size:60px;"">+</div>","null","fixation","","","","","","","","","7","","",""
"revaluation","125","663332","0.0-4.0-2.0-0.4","spark_pilot_norest","8612","1","13","Female","","false","","","","","[1435.5]","./assets/img/ocean/catch/6.jpg","[""spaceBar""]","value training","ocean","0","{""ArrowUp,ArrowLeft"":26,""ArrowUp,ArrowRight"":10,""ArrowDown,ArrowLeft"":5,""ArrowDown,ArrowRight"":17}","true","spaceBar","true","original","1","8","","",""
"html-keyboard-response","126","663834","0.0-4.0-2.0-1.4","spark_pilot_norest","8612","1","13","Female","","","","","","","null","<div style=""font-size:60px;"">+</div>","null","fixation","","","","","","","","","9","","",""
"revaluation","127","669845","0.0-4.0-2.0-0.5","spark_pilot_norest","8612","1","13","Female","","false","","","","","[751.0999999046326,598.2000000476837]","./assets/img/ocean/memory/17.jpg","[""ArrowDown"",""ArrowRight""]","value training","ocean","17","{""ArrowUp,ArrowLeft"":26,""ArrowUp,ArrowRight"":10,""ArrowDown,ArrowLeft"":5,""ArrowDown,ArrowRight"":17}","false","ArrowDown,ArrowRight","false","original","1","10","","",""
"html-keyboard-response","128","670347","0.0-4.0-2.0-1.5","spark_pilot_norest","8612","1","13","Female","","","","","","","null","<div style=""font-size:60px;"">+</div>","null","fixation","","","","","","","","","11","","",""
"revaluation","129","676356","0.0-4.0-2.0-0.6","spark_pilot_norest","8612","1","13","Female","","false","","","","","[396.2999999523163,468]","./assets/img/ocean/memory/27.jpg","[""ArrowDown"",""ArrowLeft""]","value training","ocean","5","{""ArrowUp,ArrowLeft"":26,""ArrowUp,ArrowRight"":10,""ArrowDown,ArrowLeft"":5,""ArrowDown,ArrowRight"":17}","false","ArrowDown,ArrowLeft","false","original","1","12","","",""
"html-keyboard-response","130","676858","0.0-4.0-2.0-1.6","spark_pilot_norest","8612","1","13","Female","","","","","","","null","<div style=""font-size:60px;"">+</div>","null","fixation","","","","","","","","","13","","",""
"revaluation","131","680884","0.0-4.0-2.0-0.7","spark_pilot_norest","8612","1","13","Female","","false","","","","","[352.19999980926514]","./assets/img/ocean/catch/0.jpg","[""ArrowUp""]","value training","ocean","-10","{""ArrowUp,ArrowLeft"":26,""ArrowUp,ArrowRight"":10,""ArrowDown,ArrowLeft"":5,""ArrowDown,ArrowRight"":17}","false","ArrowUp","true","original","1","14","","",""
"html-keyboard-response","132","681386","0.0-4.0-2.0-1.7","spark_pilot_norest","8612","1","13","Female","","","","","","","null","<div style=""font-size:60px;"">+</div>","null","fixation","","","","","","","","","15","","",""
"revaluation","133","687395","0.0-4.0-2.0-0.8","spark_pilot_norest","8612","1","13","Female","","false","","","","","[732.1000001430511,797]","./assets/img/ocean/memory/10.jpg","[""ArrowUp"",""ArrowRight""]","value training","ocean","10","{""ArrowUp,ArrowLeft"":26,""ArrowUp,ArrowRight"":10,""ArrowDown,ArrowLeft"":5,""ArrowDown,ArrowRight"":17}","false","ArrowUp,ArrowRight","false","original","1","16","","",""
"html-keyboard-response","134","687897","0.0-4.0-2.0-1.8","spark_pilot_norest","8612","1","13","Female","","","","","","","null","<div style=""font-size:60px;"">+</div>","null","fixation","","","","","","","","","17","","",""
"revaluation","135","693905","0.0-4.0-2.0-0.9","spark_pilot_norest","8612","1","13","Female","","false","","","","","[448.7000000476837,439.7999999523163]","./assets/img/ocean/memory/31.jpg","[""ArrowUp"",""ArrowLeft""]","value training","ocean","26","{""ArrowUp,ArrowLeft"":26,""ArrowUp,ArrowRight"":10,""ArrowDown,ArrowLeft"":5,""ArrowDown,ArrowRight"":17}","true","ArrowUp,ArrowLeft","false","original","1","18","","",""
"html-keyboard-response","136","694407","0.0-4.0-2.0-1.9","spark_pilot_norest","8612","1","13","Female","","","","","","","null","<div style=""font-size:60px;"">+</div>","null","fixation","","","","","","","","","19","","",""
"revaluation","137","700415","0.0-4.0-2.0-0.10","spark_pilot_norest","8612","1","13","Female","","false","","","","","[784.9000000953674,575.2999999523163]","./assets/img/ocean/memory/28.jpg","[""ArrowUp"",""ArrowLeft""]","value training","ocean","26","{""ArrowUp,ArrowLeft"":26,""ArrowUp,ArrowRight"":10,""ArrowDown,ArrowLeft"":5,""ArrowDown,ArrowRight"":17}","true","ArrowUp,ArrowLeft","false","original","1","20","","",""
"html-keyboard-response","138","700924","0.0-4.0-2.0-1.10","spark_pilot_norest","8612","1","13","Female","","","","","","","null","<div style=""font-size:60px;"">+</div>","null","fixation","","","","","","","","","21","","",""
"revaluation","139","706934","0.0-4.0-2.0-0.11","spark_pilot_norest","8612","1","13","Female","","false","","","","","[379.2999999523163,521.7999999523163]","./assets/img/ocean/memory/6.jpg","[""ArrowUp"",""ArrowLeft""]","value training","ocean","26","{""ArrowUp,ArrowLeft"":26,""ArrowUp,ArrowRight"":10,""ArrowDown,ArrowLeft"":5,""ArrowDown,ArrowRight"":17}","true","ArrowUp,ArrowLeft","false","original","1","22","","",""
"html-keyboard-response","140","707436","0.0-4.0-2.0-1.11","spark_pilot_norest","8612","1","13","Female","","","","","","","null","<div style=""font-size:60px;"">+</div>","null","fixation","","","","","","","","","23","","",""
"revaluation","141","713444","0.0-4.0-2.0-0.12","spark_pilot_norest","8612","1","13","Female","","false","","","","","[324.2999999523163,330.5]","./assets/img/ocean/memory/37.jpg","[""ArrowUp"",""ArrowLeft""]","value training","ocean","26","{""ArrowUp,ArrowLeft"":26,""ArrowUp,ArrowRight"":10,""ArrowDown,ArrowLeft"":5,""ArrowDown,ArrowRight"":17}","true","ArrowUp,ArrowLeft","false","original","1","24","","",""
"html-keyboard-response","142","713946","0.0-4.0-2.0-1.12","spark_pilot_norest","8612","1","13","Female","","","","","","","null","<div style=""font-size:60px;"">+</div>","null","fixation","","","","","","","","","25","","",""
"revaluation","143","717954","0.0-4.0-2.0-0.13","spark_pilot_norest","8612","1","13","Female","","false","","","","","[653.8999998569489]","./assets/img/ocean/catch/1.jpg","[""ArrowUp""]","value training","ocean","-10","{""ArrowUp,ArrowLeft"":26,""ArrowUp,ArrowRight"":10,""ArrowDown,ArrowLeft"":5,""ArrowDown,ArrowRight"":17}","false","ArrowUp","true","original","1","26","","",""
"html-keyboard-response","144","718457","0.0-4.0-2.0-1.13","spark_pilot_norest","8612","1","13","Female","","","","","","","null","<div style=""font-size:60px;"">+</div>","null","fixation","","","","","","","","","27","","",""
"revaluation","145","724465","0.0-4.0-2.0-0.14","spark_pilot_norest","8612","1","13","Female","","false","","","","","[1583.0999999046326,645.8000001907349]","./assets/img/ocean/memory/1.jpg","[""ArrowUp"",""ArrowLeft""]","value training","ocean","26","{""ArrowUp,ArrowLeft"":26,""ArrowUp,ArrowRight"":10,""ArrowDown,ArrowLeft"":5,""ArrowDown,ArrowRight"":17}","true","ArrowUp,ArrowLeft","false","original","1","28","","",""
"html-keyboard-response","146","724968","0.0-4.0-2.0-1.14","spark_pilot_norest","8612","1","13","Female","","","","","","","null","<div style=""font-size:60px;"">+</div>","null","fixation","","","","","","","","","29","","",""
"revaluation","147","730975","0.0-4.0-2.0-0.15","spark_pilot_norest","8612","1","13","Female","","false","","","","","[712.6000001430511,703.8999998569489]","./assets/img/ocean/memory/31.jpg","[""ArrowUp"",""ArrowLeft""]","value training","ocean","26","{""ArrowUp,ArrowLeft"":26,""ArrowUp,ArrowRight"":10,""ArrowDown,ArrowLeft"":5,""ArrowDown,ArrowRight"":17}","true","ArrowUp,ArrowLeft","false","original","1","30","","",""
"html-keyboard-response","148","731477","0.0-4.0-2.0-1.15","spark_pilot_norest","8612","1","13","Female","","","","","","","null","<div style=""font-size:60px;"">+</div>","null","fixation","","","","","","","","","31","","",""
"revaluation","149","735486","0.0-4.0-2.0-0.16","spark_pilot_norest","8612","1","13","Female","","false","","","","","[1353.9000000953674]","./assets/img/ocean/catch/7.jpg","[""spaceBar""]","value training","ocean","0","{""ArrowUp,ArrowLeft"":26,""ArrowUp,ArrowRight"":10,""ArrowDown,ArrowLeft"":5,""ArrowDown,ArrowRight"":17}","true","spaceBar","true","original","1","32","","",""
"html-keyboard-response","150","735988","0.0-4.0-2.0-1.16","spark_pilot_norest","8612","1","13","Female","","","","","","","null","<div style=""font-size:60px;"">+</div>","null","fixation","","","","","","","","","33","","",""
"revaluation","151","741995","0.0-4.0-2.0-0.17","spark_pilot_norest","8612","1","13","Female","","false","","","","","[643.4000000953674,651.2000000476837]","./assets/img/ocean/memory/40.jpg","[""ArrowUp"",""ArrowLeft""]","value training","ocean","26","{""ArrowUp,ArrowLeft"":26,""ArrowUp,ArrowRight"":10,""ArrowDown,ArrowLeft"":5,""ArrowDown,ArrowRight"":17}","true","ArrowUp,ArrowLeft","false","original","1","34","","",""
"html-keyboard-response","152","742499","0.0-4.0-2.0-1.17","spark_pilot_norest","8612","1","13","Female","","","","","","","null","<div style=""font-size:60px;"">+</div>","null","fixation","","","","","","","","","35","","",""
"revaluation","153","748509","0.0-4.0-2.0-0.18","spark_pilot_norest","8612","1","13","Female","","false","","","","","[678.8999998569489,326.09999990463257]","./assets/img/ocean/memory/18.jpg","[""ArrowUp"",""ArrowLeft""]","value training","ocean","26","{""ArrowUp,ArrowLeft"":26,""ArrowUp,ArrowRight"":10,""ArrowDown,ArrowLeft"":5,""ArrowDown,ArrowRight"":17}","true","ArrowUp,ArrowLeft","false","original","1","36","","",""
"html-keyboard-response","154","749012","0.0-4.0-2.0-1.18","spark_pilot_norest","8612","1","13","Female","","","","","","","null","<div style=""font-size:60px;"">+</div>","null","fixation","","","","","","","","","37","","",""
"revaluation","155","755020","0.0-4.0-2.0-0.19","spark_pilot_norest","8612","1","13","Female","","false","","","","","[1650.4000000953674,466]","./assets/img/ocean/memory/15.jpg","[""ArrowUp"",""ArrowLeft""]","value training","ocean","26","{""ArrowUp,ArrowLeft"":26,""ArrowUp,ArrowRight"":10,""ArrowDown,ArrowLeft"":5,""ArrowDown,ArrowRight"":17}","true","ArrowUp,ArrowLeft","false","original","1","38","","",""
"html-keyboard-response","156","755522","0.0-4.0-2.0-1.19","spark_pilot_norest","8612","1","13","Female","","","","","","","null","<div style=""font-size:60px;"">+</div>","null","fixation","","","","","","","","","39","","",""
"revaluation","157","759531","0.0-4.0-2.0-0.20","spark_pilot_norest","8612","1","13","Female","","true","","","","","[]","./assets/img/ocean/memory/32.jpg","[]","value training","ocean","-5","{""ArrowUp,ArrowLeft"":26,""ArrowUp,ArrowRight"":10,""ArrowDown,ArrowLeft"":5,""ArrowDown,ArrowRight"":17}","false","","false","original","1","40","","",""
"html-keyboard-response","158","760033","0.0-4.0-2.0-1.20","spark_pilot_norest","8612","1","13","Female","","","","","","","null","<div style=""font-size:60px;"">+</div>","null","fixation","","","","","","","","","41","","",""
"revaluation","159","766042","0.0-4.0-2.0-0.21","spark_pilot_norest","8612","1","13","Female","","false","","","","","[550.6999998092651,484.7000000476837]","./assets/img/ocean/memory/20.jpg","[""ArrowUp"",""ArrowLeft""]","value training","ocean","26","{""ArrowUp,ArrowLeft"":26,""ArrowUp,ArrowRight"":10,""ArrowDown,ArrowLeft"":5,""ArrowDown,ArrowRight"":17}","true","ArrowUp,ArrowLeft","false","original","1","42","","",""
"html-keyboard-response","160","766543","0.0-4.0-2.0-1.21","spark_pilot_norest","8612","1","13","Female","","","","","","","null","<div style=""font-size:60px;"">+</div>","null","fixation","","","","","","","","","43","","",""
"revaluation","161","772552","0.0-4.0-2.0-0.22","spark_pilot_norest","8612","1","13","Female","","false","","","","","[751.6999998092651,629.9000000953674]","./assets/img/ocean/memory/28.jpg","[""ArrowUp"",""ArrowLeft""]","value training","ocean","26","{""ArrowUp,ArrowLeft"":26,""ArrowUp,ArrowRight"":10,""ArrowDown,ArrowLeft"":5,""ArrowDown,ArrowRight"":17}","true","ArrowUp,ArrowLeft","false","original","1","44","","",""
"html-keyboard-response","162","773053","0.0-4.0-2.0-1.22","spark_pilot_norest","8612","1","13","Female","","","","","","","null","<div style=""font-size:60px;"">+</div>","null","fixation","","","","","","","","","45","","",""
"revaluation","163","779063","0.0-4.0-2.0-0.23","spark_pilot_norest","8612","1","13","Female","","false","","","","","[585.5999999046326,776.5999999046326]","./assets/img/ocean/memory/7.jpg","[""ArrowUp"",""ArrowLeft""]","value training","ocean","26","{""ArrowUp,ArrowLeft"":26,""ArrowUp,ArrowRight"":10,""ArrowDown,ArrowLeft"":5,""ArrowDown,ArrowRight"":17}","true","ArrowUp,ArrowLeft","false","original","1","46","","",""
"html-keyboard-response","164","779565","0.0-4.0-2.0-1.23","spark_pilot_norest","8612","1","13","Female","","","","","","","null","<div style=""font-size:60px;"">+</div>","null","fixation","","","","","","","","","47","","",""
"revaluation","165","785571","0.0-4.0-2.0-0.24","spark_pilot_norest","8612","1","13","Female","","false","","","","","[675.7999999523163,498.7999999523163]","./assets/img/ocean/memory/25.jpg","[""ArrowUp"",""ArrowLeft""]","value training","ocean","26","{""ArrowUp,ArrowLeft"":26,""ArrowUp,ArrowRight"":10,""ArrowDown,ArrowLeft"":5,""ArrowDown,ArrowRight"":17}","true","ArrowUp,ArrowLeft","false","original","1","48","","",""
"html-keyboard-response","166","786074","0.0-4.0-2.0-1.24","spark_pilot_norest","8612","1","13","Female","","","","","","","null","<div style=""font-size:60px;"">+</div>","null","fixation","","","","","","","","","49","","",""
"revaluation","167","792081","0.0-4.0-2.0-0.25","spark_pilot_norest","8612","1","13","Female","","false","","","","","[485.5,1117.1000001430511]","./assets/img/ocean/memory/37.jpg","[""ArrowUp"",""ArrowLeft""]","value training","ocean","26","{""ArrowUp,ArrowLeft"":26,""ArrowUp,ArrowRight"":10,""ArrowDown,ArrowLeft"":5,""ArrowDown,ArrowRight"":17}","true","ArrowUp,ArrowLeft","false","original","1","50","","",""
"html-keyboard-response","168","792583","0.0-4.0-2.0-1.25","spark_pilot_norest","8612","1","13","Female","","","","","","","null","<div style=""font-size:60px;"">+</div>","null","fixation","","","","","","","","","51","","",""
"revaluation","169","798590","0.0-4.0-2.0-0.26","spark_pilot_norest","8612","1","13","Female","","false","","","","","[439.7999999523163,400.10000014305115]","./assets/img/ocean/memory/18.jpg","[""ArrowUp"",""ArrowLeft""]","value training","ocean","26","{""ArrowUp,ArrowLeft"":26,""ArrowUp,ArrowRight"":10,""ArrowDown,ArrowLeft"":5,""ArrowDown,ArrowRight"":17}","true","ArrowUp,ArrowLeft","false","original","1","52","","",""
"html-keyboard-response","170","799096","0.0-4.0-2.0-1.26","spark_pilot_norest","8612","1","13","Female","","","","","","","null","<div style=""font-size:60px;"">+</div>","null","fixation","","","","","","","","","53","","",""
"revaluation","171","805106","0.0-4.0-2.0-0.27","spark_pilot_norest","8612","1","13","Female","","false","","","","","[437.7000000476837,652.5999999046326]","./assets/img/ocean/memory/32.jpg","[""ArrowUp"",""ArrowLeft""]","value training","ocean","26","{""ArrowUp,ArrowLeft"":26,""ArrowUp,ArrowRight"":10,""ArrowDown,ArrowLeft"":5,""ArrowDown,ArrowRight"":17}","true","ArrowUp,ArrowLeft","false","original","1","54","","",""
"html-keyboard-response","172","805608","0.0-4.0-2.0-1.27","spark_pilot_norest","8612","1","13","Female","","","","","","","null","<div style=""font-size:60px;"">+</div>","null","fixation","","","","","","","","","55","","",""
"revaluation","173","811618","0.0-4.0-2.0-0.28","spark_pilot_norest","8612","1","13","Female","","false","","","","","[375.7000000476837,534.1000001430511]","./assets/img/ocean/memory/9.jpg","[""ArrowUp"",""ArrowLeft""]","value training","ocean","26","{""ArrowUp,ArrowLeft"":26,""ArrowUp,ArrowRight"":10,""ArrowDown,ArrowLeft"":5,""ArrowDown,ArrowRight"":17}","true","ArrowUp,ArrowLeft","false","original","1","56","","",""
"html-keyboard-response","174","812120","0.0-4.0-2.0-1.28","spark_pilot_norest","8612","1","13","Female","","","","","","","null","<div style=""font-size:60px;"">+</div>","null","fixation","","","","","","","","","57","","",""
"revaluation","175","818128","0.0-4.0-2.0-0.29","spark_pilot_norest","8612","1","13","Female","","false","","","","","[574.9000000953674,719.5]","./assets/img/ocean/memory/27.jpg","[""ArrowUp"",""ArrowLeft""]","value training","ocean","26","{""ArrowUp,ArrowLeft"":26,""ArrowUp,ArrowRight"":10,""ArrowDown,ArrowLeft"":5,""ArrowDown,ArrowRight"":17}","true","ArrowUp,ArrowLeft","false","original","1","58","","",""
"html-keyboard-response","176","818630","0.0-4.0-2.0-1.29","spark_pilot_norest","8612","1","13","Female","","","","","","","null","<div style=""font-size:60px;"">+</div>","null","fixation","","","","","","","","","59","","",""
"revaluation","177","824638","0.0-4.0-2.0-0.30","spark_pilot_norest","8612","1","13","Female","","false","","","","","[634.4000000953674,1273]","./assets/img/ocean/memory/15.jpg","[""ArrowUp"",""ArrowLeft""]","value training","ocean","26","{""ArrowUp,ArrowLeft"":26,""ArrowUp,ArrowRight"":10,""ArrowDown,ArrowLeft"":5,""ArrowDown,ArrowRight"":17}","true","ArrowUp,ArrowLeft","false","original","1","60","","",""
"html-keyboard-response","178","825140","0.0-4.0-2.0-1.30","spark_pilot_norest","8612","1","13","Female","","","","","","","null","<div style=""font-size:60px;"">+</div>","null","fixation","","","","","","","","","61","","",""
"revaluation","179","831149","0.0-4.0-2.0-0.31","spark_pilot_norest","8612","1","13","Female","","false","","","","","[619.5,721.7999999523163]","./assets/img/ocean/memory/1.jpg","[""ArrowUp"",""ArrowLeft""]","value training","ocean","26","{""ArrowUp,ArrowLeft"":26,""ArrowUp,ArrowRight"":10,""ArrowDown,ArrowLeft"":5,""ArrowDown,ArrowRight"":17}","true","ArrowUp,ArrowLeft","false","original","1","62","","",""
"html-keyboard-response","180","831650","0.0-4.0-2.0-1.31","spark_pilot_norest","8612","1","13","Female","","","","","","","null","<div style=""font-size:60px;"">+</div>","null","fixation","","","","","","","","","63","","",""
"revaluation","181","837659","0.0-4.0-2.0-0.32","spark_pilot_norest","8612","1","13","Female","","false","","","","","[1372.5,523.7999999523163]","./assets/img/ocean/memory/11.jpg","[""ArrowUp"",""ArrowLeft""]","value training","ocean","26","{""ArrowUp,ArrowLeft"":26,""ArrowUp,ArrowRight"":10,""ArrowDown,ArrowLeft"":5,""ArrowDown,ArrowRight"":17}","true","ArrowUp,ArrowLeft","false","original","1","64","","",""
"html-keyboard-response","182","838161","0.0-4.0-2.0-1.32","spark_pilot_norest","8612","1","13","Female","","","","","","","null","<div style=""font-size:60px;"">+</div>","null","fixation","","","","","","","","","65","","",""
"revaluation","183","842168","0.0-4.0-2.0-0.33","spark_pilot_norest","8612","1","13","Female","","false","","","","","[1974.1000001430511]","./assets/img/ocean/catch/2.jpg","[""spaceBar""]","value training","ocean","0","{""ArrowUp,ArrowLeft"":26,""ArrowUp,ArrowRight"":10,""ArrowDown,ArrowLeft"":5,""ArrowDown,ArrowRight"":17}","true","spaceBar","true","original","1","66","","",""
"html-keyboard-response","184","842669","0.0-4.0-2.0-1.33","spark_pilot_norest","8612","1","13","Female","","","","","","","null","<div style=""font-size:60px;"">+</div>","null","fixation","","","","","","","","","67","","",""
"revaluation","185","848684","0.0-4.0-2.0-0.34","spark_pilot_norest","8612","1","13","Female","","false","","","","","[708.7000000476837,1522.7000000476837]","./assets/img/ocean/memory/40.jpg","[""ArrowUp"",""ArrowLeft""]","value training","ocean","26","{""ArrowUp,ArrowLeft"":26,""ArrowUp,ArrowRight"":10,""ArrowDown,ArrowLeft"":5,""ArrowDown,ArrowRight"":17}","true","ArrowUp,ArrowLeft","false","original","1","68","","",""
"html-keyboard-response","186","849186","0.0-4.0-2.0-1.34","spark_pilot_norest","8612","1","13","Female","","","","","","","null","<div style=""font-size:60px;"">+</div>","null","fixation","","","","","","","","","69","","",""
"revaluation","187","853191","0.0-4.0-2.0-0.35","spark_pilot_norest","8612","1","13","Female","","true","","","","","[]","./assets/img/ocean/memory/3.jpg","[]","value training","ocean","-5","{""ArrowUp,ArrowLeft"":26,""ArrowUp,ArrowRight"":10,""ArrowDown,ArrowLeft"":5,""ArrowDown,ArrowRight"":17}","false","","false","original","1","70","","",""
"html-keyboard-response","188","853694","0.0-4.0-2.0-1.35","spark_pilot_norest","8612","1","13","Female","","","","","","","null","<div style=""font-size:60px;"">+</div>","null","fixation","","","","","","","","","71","","",""
"revaluation","189","859703","0.0-4.0-2.0-0.36","spark_pilot_norest","8612","1","13","Female","","false","","","","","[951.5,631.2999999523163]","./assets/img/ocean/memory/0.jpg","[""ArrowUp"",""ArrowLeft""]","value training","ocean","26","{""ArrowUp,ArrowLeft"":26,""ArrowUp,ArrowRight"":10,""ArrowDown,ArrowLeft"":5,""ArrowDown,ArrowRight"":17}","true","ArrowUp,ArrowLeft","false","original","1","72","","",""
"html-keyboard-response","190","860205","0.0-4.0-2.0-1.36","spark_pilot_norest","8612","1","13","Female","","","","","","","null","<div style=""font-size:60px;"">+</div>","null","fixation","","","","","","","","","73","","",""
"revaluation","191","866214","0.0-4.0-2.0-0.37","spark_pilot_norest","8612","1","13","Female","","false","","","","","[530.0999999046326,889.7999999523163]","./assets/img/ocean/memory/11.jpg","[""ArrowUp"",""ArrowLeft""]","value training","ocean","26","{""ArrowUp,ArrowLeft"":26,""ArrowUp,ArrowRight"":10,""ArrowDown,ArrowLeft"":5,""ArrowDown,ArrowRight"":17}","true","ArrowUp,ArrowLeft","false","original","1","74","","",""
"html-keyboard-response","192","866716","0.0-4.0-2.0-1.37","spark_pilot_norest","8612","1","13","Female","","","","","","","null","<div style=""font-size:60px;"">+</div>","null","fixation","","","","","","","","","75","","",""
"revaluation","193","870723","0.0-4.0-2.0-0.38","spark_pilot_norest","8612","1","13","Female","","true","","","","","[]","./assets/img/ocean/memory/3.jpg","[]","value training","ocean","-5","{""ArrowUp,ArrowLeft"":26,""ArrowUp,ArrowRight"":10,""ArrowDown,ArrowLeft"":5,""ArrowDown,ArrowRight"":17}","false","","false","original","1","76","","",""
"html-keyboard-response","194","871225","0.0-4.0-2.0-1.38","spark_pilot_norest","8612","1","13","Female","","","","","","","null","<div style=""font-size:60px;"">+</div>","null","fixation","","","","","","","","","77","","",""
"revaluation","195","877232","0.0-4.0-2.0-0.39","spark_pilot_norest","8612","1","13","Female","","false","","","","","[672.2999999523163,760]","./assets/img/ocean/memory/23.jpg","[""ArrowUp"",""ArrowLeft""]","value training","ocean","26","{""ArrowUp,ArrowLeft"":26,""ArrowUp,ArrowRight"":10,""ArrowDown,ArrowLeft"":5,""ArrowDown,ArrowRight"":17}","true","ArrowUp,ArrowLeft","false","original","1","78","","",""
"html-keyboard-response","196","877735","0.0-4.0-2.0-1.39","spark_pilot_norest","8612","1","13","Female","","","","","","","null","<div style=""font-size:60px;"">+</div>","null","fixation","","","","","","","","","79","","",""
"revaluation","197","883743","0.0-4.0-2.0-0.40","spark_pilot_norest","8612","1","13","Female","","false","","","","","[889,1303.9000000953674]","./assets/img/ocean/memory/20.jpg","[""ArrowUp"",""ArrowLeft""]","value training","ocean","26","{""ArrowUp,ArrowLeft"":26,""ArrowUp,ArrowRight"":10,""ArrowDown,ArrowLeft"":5,""ArrowDown,ArrowRight"":17}","true","ArrowUp,ArrowLeft","false","original","1","80","","",""
"html-keyboard-response","198","884251","0.0-4.0-2.0-1.40","spark_pilot_norest","8612","1","13","Female","","","","","","","null","<div style=""font-size:60px;"">+</div>","null","fixation","","","","","","","","","81","","",""
"revaluation","199","890258","0.0-4.0-2.0-0.41","spark_pilot_norest","8612","1","13","Female","","false","","","","","[1829.4000000953674,1220.7999999523163]","./assets/img/ocean/memory/29.jpg","[""ArrowUp"",""ArrowLeft""]","value training","ocean","26","{""ArrowUp,ArrowLeft"":26,""ArrowUp,ArrowRight"":10,""ArrowDown,ArrowLeft"":5,""ArrowDown,ArrowRight"":17}","true","ArrowUp,ArrowLeft","false","original","1","82","","",""
"html-keyboard-response","200","890761","0.0-4.0-2.0-1.41","spark_pilot_norest","8612","1","13","Female","","","","","","","null","<div style=""font-size:60px;"">+</div>","null","fixation","","","","","","","","","83","","",""
"revaluation","201","896770","0.0-4.0-2.0-0.42","spark_pilot_norest","8612","1","13","Female","","false","","","","","[839.1000001430511,918.8999998569489]","./assets/img/ocean/memory/25.jpg","[""ArrowUp"",""ArrowLeft""]","value training","ocean","26","{""ArrowUp,ArrowLeft"":26,""ArrowUp,ArrowRight"":10,""ArrowDown,ArrowLeft"":5,""ArrowDown,ArrowRight"":17}","true","ArrowUp,ArrowLeft","false","original","1","84","","",""
"html-keyboard-response","202","897273","0.0-4.0-2.0-1.42","spark_pilot_norest","8612","1","13","Female","","","","","","","null","<div style=""font-size:60px;"">+</div>","null","fixation","","","","","","","","","85","","",""
"revaluation","203","903281","0.0-4.0-2.0-0.43","spark_pilot_norest","8612","1","13","Female","","false","","","","","[798.6000001430511,853.4000000953674]","./assets/img/ocean/memory/6.jpg","[""ArrowUp"",""ArrowLeft""]","value training","ocean","26","{""ArrowUp,ArrowLeft"":26,""ArrowUp,ArrowRight"":10,""ArrowDown,ArrowLeft"":5,""ArrowDown,ArrowRight"":17}","true","ArrowUp,ArrowLeft","false","original","1","86","","",""
"html-keyboard-response","204","903783","0.0-4.0-2.0-1.43","spark_pilot_norest","8612","1","13","Female","","","","","","","null","<div style=""font-size:60px;"">+</div>","null","fixation","","","","","","","","","87","","",""
"revaluation","205","907788","0.0-4.0-2.0-0.44","spark_pilot_norest","8612","1","13","Female","","false","","","","","[1938.5999999046326]","./assets/img/ocean/catch/5.jpg","[""spaceBar""]","value training","ocean","0","{""ArrowUp,ArrowLeft"":26,""ArrowUp,ArrowRight"":10,""ArrowDown,ArrowLeft"":5,""ArrowDown,ArrowRight"":17}","true","spaceBar","true","original","1","88","","",""
"html-keyboard-response","206","908290","0.0-4.0-2.0-1.44","spark_pilot_norest","8612","1","13","Female","","","","","","","null","<div style=""font-size:60px;"">+</div>","null","fixation","","","","","","","","","89","","",""
"revaluation","207","912298","0.0-4.0-2.0-0.45","spark_pilot_norest","8612","1","13","Female","","false","","","","","[949.4000000953674]","./assets/img/ocean/catch/3.jpg","[""ArrowUp""]","value training","ocean","-10","{""ArrowUp,ArrowLeft"":26,""ArrowUp,ArrowRight"":10,""ArrowDown,ArrowLeft"":5,""ArrowDown,ArrowRight"":17}","false","ArrowUp","true","original","1","90","","",""
"html-keyboard-response","208","912801","0.0-4.0-2.0-1.45","spark_pilot_norest","8612","1","13","Female","","","","","","","null","<div style=""font-size:60px;"">+</div>","null","fixation","","","","","","","","","91","","",""
"revaluation","209","916809","0.0-4.0-2.0-0.46","spark_pilot_norest","8612","1","13","Female","","false","","","","","[798.5]","./assets/img/ocean/catch/4.jpg","[""ArrowUp""]","value training","ocean","-10","{""ArrowUp,ArrowLeft"":26,""ArrowUp,ArrowRight"":10,""ArrowDown,ArrowLeft"":5,""ArrowDown,ArrowRight"":17}","false","ArrowUp","true","original","1","92","","",""
"html-keyboard-response","210","917320","0.0-4.0-2.0-1.46","spark_pilot_norest","8612","1","13","Female","","","","","","","null","<div style=""font-size:60px;"">+</div>","null","fixation","","","","","","","","","93","","",""
"revaluation","211","923330","0.0-4.0-2.0-0.47","spark_pilot_norest","8612","1","13","Female","","true","","","","","[1174.4000000953674]","./assets/img/ocean/memory/10.jpg","[""ArrowUp""]","value training","ocean","-5","{""ArrowUp,ArrowLeft"":26,""ArrowUp,ArrowRight"":10,""ArrowDown,ArrowLeft"":5,""ArrowDown,ArrowRight"":17}","false","ArrowUp","false","original","1","94","","",""
"html-keyboard-response","212","923832","0.0-4.0-2.0-1.47","spark_pilot_norest","8612","1","13","Female","","","","","","","null","<div style=""font-size:60px;"">+</div>","null","fixation","","","","","","","","","95","","",""
"revaluation","213","929840","0.0-4.0-2.0-0.48","spark_pilot_norest","8612","1","13","Female","","false","","","","","[864.2000000476837,695.4000000953674]","./assets/img/ocean/memory/29.jpg","[""ArrowUp"",""ArrowLeft""]","value training","ocean","26","{""ArrowUp,ArrowLeft"":26,""ArrowUp,ArrowRight"":10,""ArrowDown,ArrowLeft"":5,""ArrowDown,ArrowRight"":17}","true","ArrowUp,ArrowLeft","false","original","1","96","","",""
"html-keyboard-response","214","930342","0.0-4.0-2.0-1.48","spark_pilot_norest","8612","1","13","Female","","","","","","","null","<div style=""font-size:60px;"">+</div>","null","fixation","","","","","","","","","97","","",""
"revaluation","215","936351","0.0-4.0-2.0-0.49","spark_pilot_norest","8612","1","13","Female","","false","","","","","[823.9000000953674,856]","./assets/img/ocean/memory/17.jpg","[""ArrowUp"",""ArrowLeft""]","value training","ocean","26","{""ArrowUp,ArrowLeft"":26,""ArrowUp,ArrowRight"":10,""ArrowDown,ArrowLeft"":5,""ArrowDown,ArrowRight"":17}","true","ArrowUp,ArrowLeft","false","original","1","98","","",""
"html-keyboard-response","216","936853","0.0-4.0-2.0-1.49","spark_pilot_norest","8612","1","13","Female","","","","","","","null","<div style=""font-size:60px;"">+</div>","null","fixation","","","","","","","","","99","","",""
"learning-instructions","217","954527","0.0-4.0-3.0-0.0","spark_pilot_norest","8612","1","13","Female","","","","","","","4734.899999856949","<p> Now, you will travel with a friend who will choose whether you go up or down first. </p>
            <p> On these turns, you will just see the animal that they found. You will still get to choose which chest to search for treasure.</p>","","instructions","","","","","","","","","","","",""
"revaluation","218","958541","0.0-4.0-4.0-0.0","spark_pilot_norest","8612","1","13","Female","","false","","","","","[1715.7000000476837]","./assets/img/ocean/animals/octopus.jpg","[""ArrowLeft""]","revaluation","ocean","26","{""ArrowUp,ArrowLeft"":26,""ArrowUp,ArrowRight"":10,""ArrowDown,ArrowLeft"":5,""ArrowDown,ArrowRight"":17}","true","ArrowUp,ArrowLeft","","original","1","0","","",""
"html-keyboard-response","219","959051","0.0-4.0-4.0-1.0","spark_pilot_norest","8612","1","13","Female","","","","","","","null","<div style=""font-size:60px;"">+</div>","null","fixation","","","","","","","","","1","","",""
"revaluation","220","963085","0.0-4.0-4.0-0.1","spark_pilot_norest","8612","1","13","Female","","false","","","","","[650.3999998569489]","./assets/img/ocean/animals/octopus.jpg","[""ArrowLeft""]","revaluation","ocean","26","{""ArrowUp,ArrowLeft"":26,""ArrowUp,ArrowRight"":10,""ArrowDown,ArrowLeft"":5,""ArrowDown,ArrowRight"":17}","true","ArrowUp,ArrowLeft","","original","1","2","","",""
"html-keyboard-response","221","963590","0.0-4.0-4.0-1.1","spark_pilot_norest","8612","1","13","Female","","","","","","","null","<div style=""font-size:60px;"">+</div>","null","fixation","","","","","","","","","3","","",""
"revaluation","222","967605","0.0-4.0-4.0-0.2","spark_pilot_norest","8612","1","13","Female","","false","","","","","[913.0999999046326]","./assets/img/ocean/animals/seahorse.jpg","[""ArrowLeft""]","revaluation","ocean","5","{""ArrowUp,ArrowLeft"":26,""ArrowUp,ArrowRight"":10,""ArrowDown,ArrowLeft"":5,""ArrowDown,ArrowRight"":17}","false","ArrowDown,ArrowLeft","","original","1","4","","",""
"html-keyboard-response","223","968115","0.0-4.0-4.0-1.2","spark_pilot_norest","8612","1","13","Female","","","","","","","null","<div style=""font-size:60px;"">+</div>","null","fixation","","","","","","","","","5","","",""
"revaluation","224","972146","0.0-4.0-4.0-0.3","spark_pilot_norest","8612","1","13","Female","","false","","","","","[1284.7000000476837]","./assets/img/ocean/animals/octopus.jpg","[""ArrowLeft""]","revaluation","ocean","26","{""ArrowUp,ArrowLeft"":26,""ArrowUp,ArrowRight"":10,""ArrowDown,ArrowLeft"":5,""ArrowDown,ArrowRight"":17}","true","ArrowUp,ArrowLeft","","original","1","6","","",""
"html-keyboard-response","225","972655","0.0-4.0-4.0-1.3","spark_pilot_norest","8612","1","13","Female","","","","","","","null","<div style=""font-size:60px;"">+</div>","null","fixation","","","","","","","","","7","","",""
"revaluation","226","976691","0.0-4.0-4.0-0.4","spark_pilot_norest","8612","1","13","Female","","false","","","","","[616.0999999046326]","./assets/img/ocean/animals/seahorse.jpg","[""ArrowRight""]","revaluation","ocean","17","{""ArrowUp,ArrowLeft"":26,""ArrowUp,ArrowRight"":10,""ArrowDown,ArrowLeft"":5,""ArrowDown,ArrowRight"":17}","true","ArrowDown,ArrowRight","","original","1","8","","",""
"html-keyboard-response","227","977206","0.0-4.0-4.0-1.4","spark_pilot_norest","8612","1","13","Female","","","","","","","null","<div style=""font-size:60px;"">+</div>","null","fixation","","","","","","","","","9","","",""
"revaluation","228","981217","0.0-4.0-4.0-0.5","spark_pilot_norest","8612","1","13","Female","","false","","","","","[680.1999998092651]","./assets/img/ocean/animals/octopus.jpg","[""ArrowLeft""]","revaluation","ocean","26","{""ArrowUp,ArrowLeft"":26,""ArrowUp,ArrowRight"":10,""ArrowDown,ArrowLeft"":5,""ArrowDown,ArrowRight"":17}","true","ArrowUp,ArrowLeft","","original","1","10","","",""
"html-keyboard-response","229","981719","0.0-4.0-4.0-1.5","spark_pilot_norest","8612","1","13","Female","","","","","","","null","<div style=""font-size:60px;"">+</div>","null","fixation","","","","","","","","","11","","",""
"revaluation","230","985727","0.0-4.0-4.0-0.6","spark_pilot_norest","8612","1","13","Female","","false","","","","","[1703.6999998092651]","./assets/img/ocean/animals/seahorse.jpg","[""ArrowLeft""]","revaluation","ocean","5","{""ArrowUp,ArrowLeft"":26,""ArrowUp,ArrowRight"":10,""ArrowDown,ArrowLeft"":5,""ArrowDown,ArrowRight"":17}","false","ArrowDown,ArrowLeft","","original","1","12","","",""
"html-keyboard-response","231","986229","0.0-4.0-4.0-1.6","spark_pilot_norest","8612","1","13","Female","","","","","","","null","<div style=""font-size:60px;"">+</div>","null","fixation","","","","","","","","","13","","",""
"revaluation","232","990237","0.0-4.0-4.0-0.7","spark_pilot_norest","8612","1","13","Female","","false","","","","","[857.7000000476837]","./assets/img/ocean/animals/seahorse.jpg","[""ArrowRight""]","revaluation","ocean","17","{""ArrowUp,ArrowLeft"":26,""ArrowUp,ArrowRight"":10,""ArrowDown,ArrowLeft"":5,""ArrowDown,ArrowRight"":17}","true","ArrowDown,ArrowRight","","original","1","14","","",""
"html-keyboard-response","233","990739","0.0-4.0-4.0-1.7","spark_pilot_norest","8612","1","13","Female","","","","","","","null","<div style=""font-size:60px;"">+</div>","null","fixation","","","","","","","","","15","","",""
"revaluation","234","994746","0.0-4.0-4.0-0.8","spark_pilot_norest","8612","1","13","Female","","false","","","","","[1501.1000001430511]","./assets/img/ocean/animals/seahorse.jpg","[""ArrowRight""]","revaluation","ocean","17","{""ArrowUp,ArrowLeft"":26,""ArrowUp,ArrowRight"":10,""ArrowDown,ArrowLeft"":5,""ArrowDown,ArrowRight"":17}","true","ArrowDown,ArrowRight","","original","1","16","","",""
"html-keyboard-response","235","995248","0.0-4.0-4.0-1.8","spark_pilot_norest","8612","1","13","Female","","","","","","","null","<div style=""font-size:60px;"">+</div>","null","fixation","","","","","","","","","17","","",""
"revaluation","236","999257","0.0-4.0-4.0-0.9","spark_pilot_norest","8612","1","13","Female","","false","","","","","[886.5]","./assets/img/ocean/animals/octopus.jpg","[""ArrowLeft""]","revaluation","ocean","26","{""ArrowUp,ArrowLeft"":26,""ArrowUp,ArrowRight"":10,""ArrowDown,ArrowLeft"":5,""ArrowDown,ArrowRight"":17}","true","ArrowUp,ArrowLeft","","original","1","18","","",""
"html-keyboard-response","237","999758","0.0-4.0-4.0-1.9","spark_pilot_norest","8612","1","13","Female","","","","","","","null","<div style=""font-size:60px;"">+</div>","null","fixation","","","","","","","","","19","","",""
"revaluation","238","1003764","0.0-4.0-4.0-0.10","spark_pilot_norest","8612","1","13","Female","","false","","","","","[1234]","./assets/img/ocean/animals/seahorse.jpg","[""ArrowRight""]","revaluation","ocean","17","{""ArrowUp,ArrowLeft"":26,""ArrowUp,ArrowRight"":10,""ArrowDown,ArrowLeft"":5,""ArrowDown,ArrowRight"":17}","true","ArrowDown,ArrowRight","","original","1","20","","",""
"html-keyboard-response","239","1004266","0.0-4.0-4.0-1.10","spark_pilot_norest","8612","1","13","Female","","","","","","","null","<div style=""font-size:60px;"">+</div>","null","fixation","","","","","","","","","21","","",""
"revaluation","240","1008273","0.0-4.0-4.0-0.11","spark_pilot_norest","8612","1","13","Female","","true","","","","","[]","./assets/img/ocean/animals/seahorse.jpg","[]","revaluation","ocean","-5","{""ArrowUp,ArrowLeft"":26,""ArrowUp,ArrowRight"":10,""ArrowDown,ArrowLeft"":5,""ArrowDown,ArrowRight"":17}","false","ArrowDown","","original","1","22","","",""
"html-keyboard-response","241","1008775","0.0-4.0-4.0-1.11","spark_pilot_norest","8612","1","13","Female","","","","","","","null","<div style=""font-size:60px;"">+</div>","null","fixation","","","","","","","","","23","","",""
"revaluation","242","1012782","0.0-4.0-4.0-0.12","spark_pilot_norest","8612","1","13","Female","","false","","","","","[1321]","./assets/img/ocean/animals/seahorse.jpg","[""ArrowRight""]","revaluation","ocean","17","{""ArrowUp,ArrowLeft"":26,""ArrowUp,ArrowRight"":10,""ArrowDown,ArrowLeft"":5,""ArrowDown,ArrowRight"":17}","true","ArrowDown,ArrowRight","","original","1","24","","",""
"html-keyboard-response","243","1013284","0.0-4.0-4.0-1.12","spark_pilot_norest","8612","1","13","Female","","","","","","","null","<div style=""font-size:60px;"">+</div>","null","fixation","","","","","","","","","25","","",""
"revaluation","244","1017291","0.0-4.0-4.0-0.13","spark_pilot_norest","8612","1","13","Female","","false","","","","","[1315.4000000953674]","./assets/img/ocean/animals/octopus.jpg","[""ArrowLeft""]","revaluation","ocean","26","{""ArrowUp,ArrowLeft"":26,""ArrowUp,ArrowRight"":10,""ArrowDown,ArrowLeft"":5,""ArrowDown,ArrowRight"":17}","true","ArrowUp,ArrowLeft","","original","1","26","","",""
"html-keyboard-response","245","1017793","0.0-4.0-4.0-1.13","spark_pilot_norest","8612","1","13","Female","","","","","","","null","<div style=""font-size:60px;"">+</div>","null","fixation","","","","","","","","","27","","",""
"revaluation","246","1021800","0.0-4.0-4.0-0.14","spark_pilot_norest","8612","1","13","Female","","false","","","","","[983]","./assets/img/ocean/animals/seahorse.jpg","[""ArrowRight""]","revaluation","ocean","17","{""ArrowUp,ArrowLeft"":26,""ArrowUp,ArrowRight"":10,""ArrowDown,ArrowLeft"":5,""ArrowDown,ArrowRight"":17}","true","ArrowDown,ArrowRight","","original","1","28","","",""
"html-keyboard-response","247","1022303","0.0-4.0-4.0-1.14","spark_pilot_norest","8612","1","13","Female","","","","","","","null","<div style=""font-size:60px;"">+</div>","null","fixation","","","","","","","","","29","","",""
"revaluation","248","1026312","0.0-4.0-4.0-0.15","spark_pilot_norest","8612","1","13","Female","","false","","","","","[1570.2999999523163]","./assets/img/ocean/animals/octopus.jpg","[""ArrowRight""]","revaluation","ocean","10","{""ArrowUp,ArrowLeft"":26,""ArrowUp,ArrowRight"":10,""ArrowDown,ArrowLeft"":5,""ArrowDown,ArrowRight"":17}","false","ArrowUp,ArrowRight","","original","1","30","","",""
"html-keyboard-response","249","1026814","0.0-4.0-4.0-1.15","spark_pilot_norest","8612","1","13","Female","","","","","","","null","<div style=""font-size:60px;"">+</div>","null","fixation","","","","","","","","","31","","",""
"revaluation","250","1030821","0.0-4.0-4.0-0.16","spark_pilot_norest","8612","1","13","Female","","false","","","","","[1417.8999998569489]","./assets/img/ocean/animals/octopus.jpg","[""ArrowLeft""]","revaluation","ocean","26","{""ArrowUp,ArrowLeft"":26,""ArrowUp,ArrowRight"":10,""ArrowDown,ArrowLeft"":5,""ArrowDown,ArrowRight"":17}","true","ArrowUp,ArrowLeft","","original","1","32","","",""
"html-keyboard-response","251","1031323","0.0-4.0-4.0-1.16","spark_pilot_norest","8612","1","13","Female","","","","","","","null","<div style=""font-size:60px;"">+</div>","null","fixation","","","","","","","","","33","","",""
"revaluation","252","1035332","0.0-4.0-4.0-0.17","spark_pilot_norest","8612","1","13","Female","","true","","","","","[]","./assets/img/ocean/animals/octopus.jpg","[]","revaluation","ocean","-5","{""ArrowUp,ArrowLeft"":26,""ArrowUp,ArrowRight"":10,""ArrowDown,ArrowLeft"":5,""ArrowDown,ArrowRight"":17}","false","ArrowUp","","original","1","34","","",""
"html-keyboard-response","253","1035835","0.0-4.0-4.0-1.17","spark_pilot_norest","8612","1","13","Female","","","","","","","null","<div style=""font-size:60px;"">+</div>","null","fixation","","","","","","","","","35","","",""
"learning-instructions","254","1044019","0.0-4.0-5.0-0.0","spark_pilot_norest","8612","1","13","Female","","","","","","","null","<p> You have almost finished this part of the game! </p>
            <p> We are going to ask you to make a few more choices. </p>","","instructions","","","","","","","","","","","",""
"learning-instructions","255","1060009","0.0-4.0-5.0-0.1","spark_pilot_norest","8612","1","13","Female","","","","","","","null","<p> First, you need to decide whether to go up or down. When you see each picture, use the arrow keys to make your choice. </p>
            <p><b>You will not see which animal you found, but try to get to the one that will give you the most treasure.</b></p>","","instructions","","","","","","","","","","","",""
"html-keyboard-response","256","1061012","0.0-4.0-6.0-0.0","spark_pilot_norest","8612","1","13","Female","","","","","","","null","<div style=""font-size:100px;color:red;"">Starting in...</div>","null","","","","","","","","","","","","",""
"html-keyboard-response","257","1062029","0.0-4.0-6.0-1.0","spark_pilot_norest","8612","1","13","Female","","","","","","","null","<div style=""font-size:200px;color:red;"">3</div>","null","","","","","","","","","","","","",""
"html-keyboard-response","258","1063034","0.0-4.0-6.0-2.0","spark_pilot_norest","8612","1","13","Female","","","","","","","null","<div style=""font-size:200px;color:red;"">2</div>","null","","","","","","","","","","","","",""
"html-keyboard-response","259","1064039","0.0-4.0-6.0-3.0","spark_pilot_norest","8612","1","13","Female","","","","","","","null","<div style=""font-size:200px;color:red;"">1</div>","null","","","","","","","","","","","","",""
"revaluation","260","1064349","0.0-4.0-7.0-0.0","spark_pilot_norest","8612","1","13","Female","","false","","","","","[304.7000000476837]","./assets/img/ocean/test/2.jpg","[""ArrowUp""]","first stage test","ocean","0","{""ArrowUp,ArrowLeft"":26,""ArrowUp,ArrowRight"":10,""ArrowDown,ArrowLeft"":5,""ArrowDown,ArrowRight"":17}","true","ArrowUp","false","original","1","","","",""
"html-keyboard-response","261","1064864","0.0-4.0-7.0-1.0","spark_pilot_norest","8612","1","13","Female","","","","","","","null","<div style=""font-size:60px;"">+</div>","null","fixation","","","","","","","","","","","",""
"revaluation","262","1065462","0.0-4.0-7.0-0.1","spark_pilot_norest","8612","1","13","Female","","false","","","","","[590.6999998092651]","./assets/img/ocean/test/1.jpg","[""ArrowUp""]","first stage test","ocean","0","{""ArrowUp,ArrowLeft"":26,""ArrowUp,ArrowRight"":10,""ArrowDown,ArrowLeft"":5,""ArrowDown,ArrowRight"":17}","true","ArrowUp","false","original","1","","","",""
"html-keyboard-response","263","1065964","0.0-4.0-7.0-1.1","spark_pilot_norest","8612","1","13","Female","","","","","","","null","<div style=""font-size:60px;"">+</div>","null","fixation","","","","","","","","","","","",""
"revaluation","264","1066445","0.0-4.0-7.0-0.2","spark_pilot_norest","8612","1","13","Female","","false","","","","","[475.59999990463257]","./assets/img/ocean/test/0.jpg","[""ArrowUp""]","first stage test","ocean","0","{""ArrowUp,ArrowLeft"":26,""ArrowUp,ArrowRight"":10,""ArrowDown,ArrowLeft"":5,""ArrowDown,ArrowRight"":17}","true","ArrowUp","false","original","1","","","",""
"html-keyboard-response","265","1066951","0.0-4.0-7.0-1.2","spark_pilot_norest","8612","1","13","Female","","","","","","","null","<div style=""font-size:60px;"">+</div>","null","fixation","","","","","","","","","","","",""
"revaluation","266","1067316","0.0-4.0-7.0-0.3","spark_pilot_norest","8612","1","13","Female","","false","","","","","[360.30000019073486]","./assets/img/ocean/test/3.jpg","[""ArrowUp""]","first stage test","ocean","0","{""ArrowUp,ArrowLeft"":26,""ArrowUp,ArrowRight"":10,""ArrowDown,ArrowLeft"":5,""ArrowDown,ArrowRight"":17}","true","ArrowUp","false","original","1","","","",""
"html-keyboard-response","267","1067829","0.0-4.0-7.0-1.3","spark_pilot_norest","8612","1","13","Female","","","","","","","null","<div style=""font-size:60px;"">+</div>","null","fixation","","","","","","","","","","","",""
"learning-instructions","268","1081174","0.0-4.0-8.0-0.0","spark_pilot_norest","8612","1","13","Female","","","","","","","null","<p> Now you will see the animals again and can search their chests for treasure. </p>
            <p> This time, you will not see how much treasure you earned, but you will earn more bonus money for making better choices. </p>","","instructions","","","","","","","","","","","",""
"html-keyboard-response","269","1082177","0.0-4.0-9.0-0.0","spark_pilot_norest","8612","1","13","Female","","","","","","","null","<div style=""font-size:100px;color:red;"">Starting in...</div>","null","","","","","","","","","","","","",""
"html-keyboard-response","270","1083179","0.0-4.0-9.0-1.0","spark_pilot_norest","8612","1","13","Female","","","","","","","null","<div style=""font-size:200px;color:red;"">3</div>","null","","","","","","","","","","","","",""
"html-keyboard-response","271","1084194","0.0-4.0-9.0-2.0","spark_pilot_norest","8612","1","13","Female","","","","","","","null","<div style=""font-size:200px;color:red;"">2</div>","null","","","","","","","","","","","","",""
"html-keyboard-response","272","1085209","0.0-4.0-9.0-3.0","spark_pilot_norest","8612","1","13","Female","","","","","","","null","<div style=""font-size:200px;color:red;"">1</div>","null","","","","","","","","","","","","",""
"revaluation","273","1085780","0.0-4.0-10.0-0.0","spark_pilot_norest","8612","1","13","Female","","false","","","","","[565.6000001430511]","./assets/img/ocean/animals/octopus.jpg","[""ArrowRight""]","second stage test","ocean","0","{""ArrowUp,ArrowLeft"":26,""ArrowUp,ArrowRight"":10,""ArrowDown,ArrowLeft"":5,""ArrowDown,ArrowRight"":17}","false","ArrowUp,ArrowRight","","original","1","","","",""
"html-keyboard-response","274","1086290","0.0-4.0-10.0-1.0","spark_pilot_norest","8612","1","13","Female","","","","","","","null","<div style=""font-size:60px;"">+</div>","null","fixation","","","","","","","","","","","",""
"revaluation","275","1086852","0.0-4.0-10.0-0.1","spark_pilot_norest","8612","1","13","Female","","false","","","","","[556.6999998092651]","./assets/img/ocean/animals/octopus.jpg","[""ArrowLeft""]","second stage test","ocean","0","{""ArrowUp,ArrowLeft"":26,""ArrowUp,ArrowRight"":10,""ArrowDown,ArrowLeft"":5,""ArrowDown,ArrowRight"":17}","true","ArrowUp,ArrowLeft","","original","1","","","",""
"html-keyboard-response","276","1087355","0.0-4.0-10.0-1.1","spark_pilot_norest","8612","1","13","Female","","","","","","","null","<div style=""font-size:60px;"">+</div>","null","fixation","","","","","","","","","","","",""
"revaluation","277","1087757","0.0-4.0-10.0-0.2","spark_pilot_norest","8612","1","13","Female","","false","","","","","[394.69999980926514]","./assets/img/ocean/animals/octopus.jpg","[""ArrowLeft""]","second stage test","ocean","0","{""ArrowUp,ArrowLeft"":26,""ArrowUp,ArrowRight"":10,""ArrowDown,ArrowLeft"":5,""ArrowDown,ArrowRight"":17}","true","ArrowUp,ArrowLeft","","original","1","","","",""
"html-keyboard-response","278","1088259","0.0-4.0-10.0-1.2","spark_pilot_norest","8612","1","13","Female","","","","","","","null","<div style=""font-size:60px;"">+</div>","null","fixation","","","","","","","","","","","",""
"revaluation","279","1088701","0.0-4.0-10.0-0.3","spark_pilot_norest","8612","1","13","Female","","false","","","","","[435.59999990463257]","./assets/img/ocean/animals/octopus.jpg","[""ArrowLeft""]","second stage test","ocean","0","{""ArrowUp,ArrowLeft"":26,""ArrowUp,ArrowRight"":10,""ArrowDown,ArrowLeft"":5,""ArrowDown,ArrowRight"":17}","true","ArrowUp,ArrowLeft","","original","1","","","",""
"html-keyboard-response","280","1089214","0.0-4.0-10.0-1.3","spark_pilot_norest","8612","1","13","Female","","","","","","","null","<div style=""font-size:60px;"">+</div>","null","fixation","","","","","","","","","","","",""
"revaluation","281","1089685","0.0-4.0-10.0-0.4","spark_pilot_norest","8612","1","13","Female","","false","","","","","[465.5]","./assets/img/ocean/animals/seahorse.jpg","[""ArrowRight""]","second stage test","ocean","0","{""ArrowUp,ArrowLeft"":26,""ArrowUp,ArrowRight"":10,""ArrowDown,ArrowLeft"":5,""ArrowDown,ArrowRight"":17}","true","ArrowDown,ArrowRight","","original","1","","","",""
"html-keyboard-response","282","1090194","0.0-4.0-10.0-1.4","spark_pilot_norest","8612","1","13","Female","","","","","","","null","<div style=""font-size:60px;"">+</div>","null","fixation","","","","","","","","","","","",""
"revaluation","283","1090597","0.0-4.0-10.0-0.5","spark_pilot_norest","8612","1","13","Female","","false","","","","","[399.2999999523163]","./assets/img/ocean/animals/seahorse.jpg","[""ArrowLeft""]","second stage test","ocean","0","{""ArrowUp,ArrowLeft"":26,""ArrowUp,ArrowRight"":10,""ArrowDown,ArrowLeft"":5,""ArrowDown,ArrowRight"":17}","false","ArrowDown,ArrowLeft","","original","1","","","",""
"html-keyboard-response","284","1091099","0.0-4.0-10.0-1.5","spark_pilot_norest","8612","1","13","Female","","","","","","","null","<div style=""font-size:60px;"">+</div>","null","fixation","","","","","","","","","","","",""
"revaluation","285","1091589","0.0-4.0-10.0-0.6","spark_pilot_norest","8612","1","13","Female","","false","","","","","[483.39999985694885]","./assets/img/ocean/animals/seahorse.jpg","[""ArrowRight""]","second stage test","ocean","0","{""ArrowUp,ArrowLeft"":26,""ArrowUp,ArrowRight"":10,""ArrowDown,ArrowLeft"":5,""ArrowDown,ArrowRight"":17}","true","ArrowDown,ArrowRight","","original","1","","","",""
"html-keyboard-response","286","1092104","0.0-4.0-10.0-1.6","spark_pilot_norest","8612","1","13","Female","","","","","","","null","<div style=""font-size:60px;"">+</div>","null","fixation","","","","","","","","","","","",""
"revaluation","287","1092557","0.0-4.0-10.0-0.7","spark_pilot_norest","8612","1","13","Female","","false","","","","","[446.7000000476837]","./assets/img/ocean/animals/seahorse.jpg","[""ArrowRight""]","second stage test","ocean","0","{""ArrowUp,ArrowLeft"":26,""ArrowUp,ArrowRight"":10,""ArrowDown,ArrowLeft"":5,""ArrowDown,ArrowRight"":17}","true","ArrowDown,ArrowRight","","original","1","","","",""
"html-keyboard-response","288","1093070","0.0-4.0-10.0-1.7","spark_pilot_norest","8612","1","13","Female","","","","","","","null","<div style=""font-size:60px;"">+</div>","null","fixation","","","","","","","","","","","",""
"learning-instructions","289","1101407","0.0-4.0-0.1-0.2","spark_pilot_norest","8612","1","13","Female","","","","","","","5545.299999952316","<p> This time you are searching for treasure in the <b>canyon</b>.</p>","","instructions","","","","","","","","","","","",""
"learning-instructions","290","1123375","0.0-4.0-0.1-0.3","spark_pilot_norest","8612","1","13","Female","","","","","","","4723.399999856949","<p><b>New</b> animals with <b>new</b> treasure chests live here. You need to explore to discover where the animal with the best treasure chest is.</p>
                    <p> Like before, once you figure out which animal has the chest with the most treasure, you should try to get to that animal and select that chest! </p>","","instructions","","","","","","","","","","","",""
"learning-instructions","291","1140311","0.0-4.0-1.1-0.1","spark_pilot_norest","8612","1","13","Female","","","","","","","2209.2000000476837","<p> Remember, when you see a picture of the place, use the up and down keys to <b>find an animal</b>.</p>
            <p> When you encounter an animal, you should use the left and right keys to <b>select a treasure chest</b>.</p>
            <p> Don't forget to look out for the robber! </p>","","instructions","","","","","","","","","","","",""
"revaluation","292","1146341","0.0-4.0-2.1-0.50","spark_pilot_norest","8612","1","13","Female","","false","","","","","[1379.7999999523163,597.0999999046326]","./assets/img/canyon/memory/3.jpg","[""ArrowUp"",""ArrowRight""]","value training","canyon","10","{""ArrowUp,ArrowLeft"":23,""ArrowUp,ArrowRight"":10,""ArrowDown,ArrowLeft"":8,""ArrowDown,ArrowRight"":30}","false","ArrowUp,ArrowRight","false","revaluation","2","0","","",""
"html-keyboard-response","293","1146844","0.0-4.0-2.1-1.50","spark_pilot_norest","8612","1","13","Female","","","","","","","null","<div style=""font-size:60px;"">+</div>","null","fixation","","","","","","","","","1","","",""
"revaluation","294","1152885","0.0-4.0-2.1-0.51","spark_pilot_norest","8612","1","13","Female","","false","","","","","[547.4000000953674,460.10000014305115]","./assets/img/canyon/memory/3.jpg","[""ArrowUp"",""ArrowLeft""]","value training","canyon","23","{""ArrowUp,ArrowLeft"":23,""ArrowUp,ArrowRight"":10,""ArrowDown,ArrowLeft"":8,""ArrowDown,ArrowRight"":30}","false","ArrowUp,ArrowLeft","false","revaluation","2","2","","",""
"html-keyboard-response","295","1153400","0.0-4.0-2.1-1.51","spark_pilot_norest","8612","1","13","Female","","","","","","","null","<div style=""font-size:60px;"">+</div>","null","fixation","","","","","","","","","3","","",""
"revaluation","296","1159430","0.0-4.0-2.1-0.52","spark_pilot_norest","8612","1","13","Female","","false","","","","","[360.40000009536743,731.4000000953674]","./assets/img/canyon/memory/1.jpg","[""ArrowDown"",""ArrowRight""]","value training","canyon","30","{""ArrowUp,ArrowLeft"":23,""ArrowUp,ArrowRight"":10,""ArrowDown,ArrowLeft"":8,""ArrowDown,ArrowRight"":30}","true","ArrowDown,ArrowRight","false","revaluation","2","4","","",""
"html-keyboard-response","297","1159940","0.0-4.0-2.1-1.52","spark_pilot_norest","8612","1","13","Female","","","","","","","null","<div style=""font-size:60px;"">+</div>","null","fixation","","","","","","","","","5","","",""
"revaluation","298","1165985","0.0-4.0-2.1-0.53","spark_pilot_norest","8612","1","13","Female","","false","","","","","[892.1000001430511,597.0999999046326]","./assets/img/canyon/memory/0.jpg","[""ArrowDown"",""ArrowLeft""]","value training","canyon","8","{""ArrowUp,ArrowLeft"":23,""ArrowUp,ArrowRight"":10,""ArrowDown,ArrowLeft"":8,""ArrowDown,ArrowRight"":30}","false","ArrowDown,ArrowLeft","false","revaluation","2","6","","",""
"html-keyboard-response","299","1166495","0.0-4.0-2.1-1.53","spark_pilot_norest","8612","1","13","Female","","","","","","","null","<div style=""font-size:60px;"">+</div>","null","fixation","","","","","","","","","7","","",""
"revaluation","300","1172505","0.0-4.0-2.1-0.54","spark_pilot_norest","8612","1","13","Female","","false","","","","","[1008.6999998092651,526.7000000476837]","./assets/img/canyon/memory/6.jpg","[""ArrowUp"",""ArrowLeft""]","value training","canyon","23","{""ArrowUp,ArrowLeft"":23,""ArrowUp,ArrowRight"":10,""ArrowDown,ArrowLeft"":8,""ArrowDown,ArrowRight"":30}","false","ArrowUp,ArrowLeft","false","revaluation","2","8","","",""
"html-keyboard-response","301","1173007","0.0-4.0-2.1-1.54","spark_pilot_norest","8612","1","13","Female","","","","","","","null","<div style=""font-size:60px;"">+</div>","null","fixation","","","","","","","","","9","","",""
"revaluation","302","1179018","0.0-4.0-2.1-0.55","spark_pilot_norest","8612","1","13","Female","","false","","","","","[647.8000001907349,446.80000019073486]","./assets/img/canyon/memory/23.jpg","[""ArrowDown"",""ArrowRight""]","value training","canyon","30","{""ArrowUp,ArrowLeft"":23,""ArrowUp,ArrowRight"":10,""ArrowDown,ArrowLeft"":8,""ArrowDown,ArrowRight"":30}","true","ArrowDown,ArrowRight","false","revaluation","2","10","","",""
"html-keyboard-response","303","1179529","0.0-4.0-2.1-1.55","spark_pilot_norest","8612","1","13","Female","","","","","","","null","<div style=""font-size:60px;"">+</div>","null","fixation","","","","","","","","","11","","",""
"revaluation","304","1185538","0.0-4.0-2.1-0.56","spark_pilot_norest","8612","1","13","Female","","false","","","","","[421.7999999523163,404.39999985694885]","./assets/img/canyon/memory/11.jpg","[""ArrowDown"",""ArrowRight""]","value training","canyon","30","{""ArrowUp,ArrowLeft"":23,""ArrowUp,ArrowRight"":10,""ArrowDown,ArrowLeft"":8,""ArrowDown,ArrowRight"":30}","true","ArrowDown,ArrowRight","false","revaluation","2","12","","",""
"html-keyboard-response","305","1186040","0.0-4.0-2.1-1.56","spark_pilot_norest","8612","1","13","Female","","","","","","","null","<div style=""font-size:60px;"">+</div>","null","fixation","","","","","","","","","13","","",""
"revaluation","306","1192047","0.0-4.0-2.1-0.57","spark_pilot_norest","8612","1","13","Female","","false","","","","","[400.2999999523163,391.7999999523163]","./assets/img/canyon/memory/17.jpg","[""ArrowDown"",""ArrowRight""]","value training","canyon","30","{""ArrowUp,ArrowLeft"":23,""ArrowUp,ArrowRight"":10,""ArrowDown,ArrowLeft"":8,""ArrowDown,ArrowRight"":30}","true","ArrowDown,ArrowRight","false","revaluation","2","14","","",""
"html-keyboard-response","307","1192565","0.0-4.0-2.1-1.57","spark_pilot_norest","8612","1","13","Female","","","","","","","null","<div style=""font-size:60px;"">+</div>","null","fixation","","","","","","","","","15","","",""
"revaluation","308","1198573","0.0-4.0-2.1-0.58","spark_pilot_norest","8612","1","13","Female","","false","","","","","[403.2000000476837,1026.3999998569489]","./assets/img/canyon/memory/40.jpg","[""ArrowDown"",""ArrowRight""]","value training","canyon","30","{""ArrowUp,ArrowLeft"":23,""ArrowUp,ArrowRight"":10,""ArrowDown,ArrowLeft"":8,""ArrowDown,ArrowRight"":30}","true","ArrowDown,ArrowRight","false","revaluation","2","16","","",""
"html-keyboard-response","309","1199076","0.0-4.0-2.1-1.58","spark_pilot_norest","8612","1","13","Female","","","","","","","null","<div style=""font-size:60px;"">+</div>","null","fixation","","","","","","","","","17","","",""
"revaluation","310","1205085","0.0-4.0-2.1-0.59","spark_pilot_norest","8612","1","13","Female","","false","","","","","[420.40000009536743,745.7999999523163]","./assets/img/canyon/memory/31.jpg","[""ArrowDown"",""ArrowRight""]","value training","canyon","30","{""ArrowUp,ArrowLeft"":23,""ArrowUp,ArrowRight"":10,""ArrowDown,ArrowLeft"":8,""ArrowDown,ArrowRight"":30}","true","ArrowDown,ArrowRight","false","revaluation","2","18","","",""
"html-keyboard-response","311","1205587","0.0-4.0-2.1-1.59","spark_pilot_norest","8612","1","13","Female","","","","","","","null","<div style=""font-size:60px;"">+</div>","null","fixation","","","","","","","","","19","","",""
"revaluation","312","1211596","0.0-4.0-2.1-0.60","spark_pilot_norest","8612","1","13","Female","","false","","","","","[500.7000000476837,875.2999999523163]","./assets/img/canyon/memory/15.jpg","[""ArrowDown"",""ArrowRight""]","value training","canyon","30","{""ArrowUp,ArrowLeft"":23,""ArrowUp,ArrowRight"":10,""ArrowDown,ArrowLeft"":8,""ArrowDown,ArrowRight"":30}","true","ArrowDown,ArrowRight","false","revaluation","2","20","","",""
"html-keyboard-response","313","1212097","0.0-4.0-2.1-1.60","spark_pilot_norest","8612","1","13","Female","","","","","","","null","<div style=""font-size:60px;"">+</div>","null","fixation","","","","","","","","","21","","",""
