"trial_type","trial_index","time_elapsed","internal_node_id","task_version","subject_id","assigned_condition","age","gender","success","timeout","failed_images","failed_audio","failed_video","browser_interaction","rt","stimulus","response","task_part","environment","score","rewardMap","correct","fullState","isCatch","condition","order","trial_num","key_press","ground_truth","bonus"
"pavlovia","0","1138","0.0-0.0","spark_pilot_norest","10612","8","17","Female","","","","","","","","","","","","","","","","","","","","","",""
"preload","1","10247","0.0-1.0","spark_pilot_norest","10612","8","17","Female","true","false","[]","[]","[]","[{""event"":""fullscreenenter"",""trial"":2,""time"":22765}]","","","","","","","","","","","","","","","",""
"fullscreen","2","23740","0.0-2.0","spark_pilot_norest","10612","8","17","Female","true","","","","","","","","","","","","","","","","","","","","",""
"audio-button-response","3","26891","0.0-3.0-0.0-0.0","spark_pilot_norest","10612","8","17","Female","","","","","","","3035","./assets/audio/audiotest/turtle.mp3","2","audio_test","","","","","","","","","","","",""
"learning-instructions","4","37304","0.0-3.0-1.0-0.0","spark_pilot_norest","10612","8","17","Female","","","","","","","3437.199999988079","<p> Welcome! Please remember to stay in fullscreen mode and don't click away from the experiment. </p>","","instructions","","","","","","","","","","","",""
"learning-instructions","5","49120","0.0-3.0-1.0-0.1","spark_pilot_norest","10612","8","17","Female","","","","","","","3408.300000011921","<p> Today you will be playing a game to earn treasure. </p>
            <p> At the end of the experiment, you will earn a bonus based on how much treasure you find. </p>
            <img src='./assets/img/instructions/treasure.jpg' class='instructions-image'>","","instructions","","","","","","","","","","","",""
"learning-instructions","6","61530","0.0-3.0-1.0-0.2","spark_pilot_norest","10612","8","17","Female","","","","","","","4149.199999988079","<p> Animals have hidden treasure in treasure chests. </p>
            <p> You need to first find an animal and then choose which of their treasure chests to search. </p>
            <img src='./assets/img/space/animals/cat.jpg' class='instructions-image'>","","instructions","","","","","","","","","","","",""
"learning-instructions","7","78246","0.0-3.0-1.0-0.3","spark_pilot_norest","10612","8","17","Female","","","","","","","3563.699999988079","<p> In each round, you will search for treasure in a different place. In the real game, there will be two rounds. </p>
            <p> You will begin with a separate, practice round where you will search for treasure in outer space. </p>
            <img src='./assets/img/space/0.jpg' class='instructions-image'>","","instructions","","","","","","","","","","","",""
"learning-instructions","8","93196","0.0-3.0-1.0-0.4","spark_pilot_norest","10612","8","17","Female","","","","","","","3533","<p> On every turn, you will see a picture of the place that you are in, but the specific image may be different each time. </p>
            <p> For example, both of these images mean you are in outer space. </p>
            <img src='./assets/img/instructions/outerspace.jpg' class='instructions-image'>","","instructions","","","","","","","","","","","",""
"learning-instructions","9","106762","0.0-3.0-1.0-0.5","spark_pilot_norest","10612","8","17","Female","","","","","","","5739.199999988079","<p> You need to decide which direction to travel in. </p>
            <p> You can choose between going <b>up or down</b> by using the arrow keys. </p>
            <img src='./assets/img/instructions/updown.jpg' class='instructions-image'>","","instructions","","","","","","","","","","","",""
"learning-instructions","10","140572","0.0-3.0-1.0-0.6","spark_pilot_norest","10612","8","17","Female","","","","","","","25000.20000001788","<p> You will have <b>2 seconds</b> to make your choice. </p>
            <p> If you do not make a choice within 2 seconds, you will not find an animal or earn treasure. </p>
            <img src='./assets/img/instructions/2seconds.jpg' class='instructions-image'>","","instructions","","","","","","","","","","","",""
"learning-instructions","11","152071","0.0-3.0-1.0-0.7","spark_pilot_norest","10612","8","17","Female","","","","","","","4456.300000011921","<p> Let’s try practicing that now! </p>
            <p> When you see a picture of the place you are in, press the <b>up</b> key to travel up. </p>
            <img src='./assets/img/instructions/pressUp.jpg' class='instructions-image'>","","instructions","","","","","","","","","","","",""
"revaluation","12","156089","0.0-3.0-2.0-0.0","spark_pilot_norest","10612","8","17","Female","","false","","","","","[945.5999999940395]","./assets/img/space/0.jpg","[""ArrowUp""]","first stage practice","space","0","null","null","ArrowUp","false","","","","","",""
"html-keyboard-response","13","156595","0.0-3.0-2.0-1.0","spark_pilot_norest","10612","8","17","Female","","","","","","","null","<div style=""font-size:60px;"">+</div>","null","fixation","","","","","","","","","","","",""
"revaluation","14","160604","0.0-3.0-2.0-0.1","spark_pilot_norest","10612","8","17","Female","","false","","","","","[1368.1000000238419]","./assets/img/space/1.jpg","[""ArrowUp""]","first stage practice","space","0","null","null","ArrowUp","false","","","","","",""
"html-keyboard-response","15","161106","0.0-3.0-2.0-1.1","spark_pilot_norest","10612","8","17","Female","","","","","","","null","<div style=""font-size:60px;"">+</div>","null","fixation","","","","","","","","","","","",""
"revaluation","16","165118","0.0-3.0-2.0-0.2","spark_pilot_norest","10612","8","17","Female","","true","","","","","[]","./assets/img/space/2.jpg","[]","first stage practice","space","-5","null","null","","false","","","","","",""
"html-keyboard-response","17","165620","0.0-3.0-2.0-1.2","spark_pilot_norest","10612","8","17","Female","","","","","","","null","<div style=""font-size:60px;"">+</div>","null","fixation","","","","","","","","","","","",""
"learning-instructions","18","172285","0.0-3.0-3.0-0.0","spark_pilot_norest","10612","8","17","Female","","","","","","","1967.199999988079","<p> Great job! Now try pressing the <b>down</b> key to travel down. </p>
            <img src='./assets/img/instructions/pressDown.jpg' class='instructions-image'>","","instructions","","","","","","","","","","","",""
"revaluation","19","176290","0.0-3.0-4.0-0.0","spark_pilot_norest","10612","8","17","Female","","false","","","","","[883.0999999940395]","./assets/img/space/3.jpg","[""ArrowDown""]","first stage practice","space","0","null","null","ArrowDown","false","","","","","",""
"html-keyboard-response","20","176793","0.0-3.0-4.0-1.0","spark_pilot_norest","10612","8","17","Female","","","","","","","null","<div style=""font-size:60px;"">+</div>","null","fixation","","","","","","","","","","","",""
"revaluation","21","180803","0.0-3.0-4.0-0.1","spark_pilot_norest","10612","8","17","Female","","false","","","","","[1145.7999999821186]","./assets/img/space/4.jpg","[""ArrowDown""]","first stage practice","space","0","null","null","ArrowDown","false","","","","","",""
"html-keyboard-response","22","181309","0.0-3.0-4.0-1.1","spark_pilot_norest","10612","8","17","Female","","","","","","","null","<div style=""font-size:60px;"">+</div>","null","fixation","","","","","","","","","","","",""
"revaluation","23","185317","0.0-3.0-4.0-0.2","spark_pilot_norest","10612","8","17","Female","","false","","","","","[255.59999999403954]","./assets/img/space/5.jpg","[""ArrowDown""]","first stage practice","space","0","null","null","ArrowDown","false","","","","","",""
"html-keyboard-response","24","185820","0.0-3.0-4.0-1.2","spark_pilot_norest","10612","8","17","Female","","","","","","","null","<div style=""font-size:60px;"">+</div>","null","fixation","","","","","","","","","","","",""
"learning-instructions","25","198853","0.0-3.0-5.0-0.0","spark_pilot_norest","10612","8","17","Female","","","","","","","3181.199999988079","<p> The animals don’t move, so the animal in the upper part of a place will stay in the upper part of a place, and the animal in the lower part of a place will stay in the lower part of a place. </p>","","instructions","","","","","","","","","","","",""
"learning-instructions","26","210437","0.0-3.0-5.0-0.1","spark_pilot_norest","10612","8","17","Female","","","","","","","2450","<p> Each animal has two treasure chests for you to choose from. </p>
            <p> The amount of treasure in each chest can range from <b> 0 to 40 pieces.</b></p>","","instructions","","","","","","","","","","","",""
"learning-instructions","27","222856","0.0-3.0-5.0-0.2","spark_pilot_norest","10612","8","17","Female","","","","","","","1231.4000000059605","<p> You should decide which chest to search for treasure by using the <b>left</b> and <b>right</b> arrow keys. </p>
            <p><b> Pay attention to which animal is on the screen, as the animals have different treasure chests. </b></p>
            <img src='./assets/img/instructions/leftright.jpg' class='instructions-image'>","","instructions","","","","","","","","","","","",""
"learning-instructions","28","230340","0.0-3.0-5.0-0.3","spark_pilot_norest","10612","8","17","Female","","","","","","","1121.300000011921","<p> Let’s try practicing that now. </p>
            <p> When you see an animal, choose which chest to search for treasure. </p>
            <img src='./assets/img/instructions/chooseChest.jpg' class='instructions-image'>","","instructions","","","","","","","","","","","",""
"revaluation","29","234349","0.0-3.0-6.0-0.0","spark_pilot_norest","10612","8","17","Female","","false","","","","","[931.9000000059605]","./assets/img/space/animals/rabbit.jpg","[""ArrowRight""]","second stage practice","space","23","{""ArrowUp,ArrowLeft"":3,""ArrowUp,ArrowRight"":36,""ArrowDown,ArrowLeft"":15,""ArrowDown,ArrowRight"":23}","true","ArrowDown,ArrowRight","","","","","","",""
"html-keyboard-response","30","234855","0.0-3.0-6.0-1.0","spark_pilot_norest","10612","8","17","Female","","","","","","","null","<div style=""font-size:60px;"">+</div>","null","fixation","","","","","","","","","","","",""
"revaluation","31","238861","0.0-3.0-6.0-0.1","spark_pilot_norest","10612","8","17","Female","","false","","","","","[1090.7999999821186]","./assets/img/space/animals/rabbit.jpg","[""ArrowLeft""]","second stage practice","space","15","{""ArrowUp,ArrowLeft"":3,""ArrowUp,ArrowRight"":36,""ArrowDown,ArrowLeft"":15,""ArrowDown,ArrowRight"":23}","false","ArrowDown,ArrowLeft","","","","","","",""
"html-keyboard-response","32","239368","0.0-3.0-6.0-1.1","spark_pilot_norest","10612","8","17","Female","","","","","","","null","<div style=""font-size:60px;"">+</div>","null","fixation","","","","","","","","","","","",""
"revaluation","33","243377","0.0-3.0-6.0-0.2","spark_pilot_norest","10612","8","17","Female","","false","","","","","[512.0999999940395]","./assets/img/space/animals/cat.jpg","[""ArrowLeft""]","second stage practice","space","3","{""ArrowUp,ArrowLeft"":3,""ArrowUp,ArrowRight"":36,""ArrowDown,ArrowLeft"":15,""ArrowDown,ArrowRight"":23}","false","ArrowUp,ArrowLeft","","","","","","",""
"html-keyboard-response","34","243879","0.0-3.0-6.0-1.2","spark_pilot_norest","10612","8","17","Female","","","","","","","null","<div style=""font-size:60px;"">+</div>","null","fixation","","","","","","","","","","","",""
"revaluation","35","247886","0.0-3.0-6.0-0.3","spark_pilot_norest","10612","8","17","Female","","false","","","","","[366.80000001192093]","./assets/img/space/animals/cat.jpg","[""ArrowRight""]","second stage practice","space","36","{""ArrowUp,ArrowLeft"":3,""ArrowUp,ArrowRight"":36,""ArrowDown,ArrowLeft"":15,""ArrowDown,ArrowRight"":23}","true","ArrowUp,ArrowRight","","","","","","",""
"html-keyboard-response","36","248390","0.0-3.0-6.0-1.3","spark_pilot_norest","10612","8","17","Female","","","","","","","null","<div style=""font-size:60px;"">+</div>","null","fixation","","","","","","","","","","","",""
"learning-instructions","37","266418","0.0-3.0-7.0-0.0","spark_pilot_norest","10612","8","17","Female","","","","","","","1194","<p> Great job. Now let’s try putting it together. </p>
            <p> On each turn, you will first see a picture to remind you of the place you are in, and you need to choose whether to go up or down. </p>
            <p> Then you will see an animal and choose which of its chests to search for treasure. </p>","","instructions","","","","","","","","","","","",""
"learning-instructions","38","280081","0.0-3.0-7.0-0.1","spark_pilot_norest","10612","8","17","Female","","","","","","","5395.5999999940395","<p> When you choose whether to go up or down, try to go to the animal with the chest with the most treasure. </p>
            <p> Try practicing that now! </p>","","instructions","","","","","","","","","","","",""
"revaluation","39","286095","0.0-3.0-8.0-0.0","spark_pilot_norest","10612","8","17","Female","","false","","","","","[1750.2999999821186,574.0999999940395]","./assets/img/space/6.jpg","[""ArrowUp"",""ArrowRight""]","full practice","space","36","{""ArrowUp,ArrowLeft"":3,""ArrowUp,ArrowRight"":36,""ArrowDown,ArrowLeft"":15,""ArrowDown,ArrowRight"":23}","true","ArrowUp,ArrowRight","false","","","","","",""
"html-keyboard-response","40","286597","0.0-3.0-8.0-1.0","spark_pilot_norest","10612","8","17","Female","","","","","","","null","<div style=""font-size:60px;"">+</div>","null","fixation","","","","","","","","","","","",""
"revaluation","41","292606","0.0-3.0-8.0-0.1","spark_pilot_norest","10612","8","17","Female","","false","","","","","[671.3000000119209,527.3000000119209]","./assets/img/space/7.jpg","[""ArrowDown"",""ArrowRight""]","full practice","space","23","{""ArrowUp,ArrowLeft"":3,""ArrowUp,ArrowRight"":36,""ArrowDown,ArrowLeft"":15,""ArrowDown,ArrowRight"":23}","false","ArrowDown,ArrowRight","false","","","","","",""
"html-keyboard-response","42","293109","0.0-3.0-8.0-1.1","spark_pilot_norest","10612","8","17","Female","","","","","","","null","<div style=""font-size:60px;"">+</div>","null","fixation","","","","","","","","","","","",""
"revaluation","43","299124","0.0-3.0-8.0-0.2","spark_pilot_norest","10612","8","17","Female","","false","","","","","[762.5999999940395,543.5]","./assets/img/space/8.jpg","[""ArrowUp"",""ArrowRight""]","full practice","space","36","{""ArrowUp,ArrowLeft"":3,""ArrowUp,ArrowRight"":36,""ArrowDown,ArrowLeft"":15,""ArrowDown,ArrowRight"":23}","true","ArrowUp,ArrowRight","false","","","","","",""
"html-keyboard-response","44","299626","0.0-3.0-8.0-1.2","spark_pilot_norest","10612","8","17","Female","","","","","","","null","<div style=""font-size:60px;"">+</div>","null","fixation","","","","","","","","","","","",""
"revaluation","45","305641","0.0-3.0-8.0-0.3","spark_pilot_norest","10612","8","17","Female","","false","","","","","[316.39999997615814,335.7000000178814]","./assets/img/space/9.jpg","[""ArrowUp"",""ArrowRight""]","full practice","space","36","{""ArrowUp,ArrowLeft"":3,""ArrowUp,ArrowRight"":36,""ArrowDown,ArrowLeft"":15,""ArrowDown,ArrowRight"":23}","true","ArrowUp,ArrowRight","false","","","","","",""
"html-keyboard-response","46","306144","0.0-3.0-8.0-1.3","spark_pilot_norest","10612","8","17","Female","","","","","","","null","<div style=""font-size:60px;"">+</div>","null","fixation","","","","","","","","","","","",""
"revaluation","47","312154","0.0-3.0-8.0-0.4","spark_pilot_norest","10612","8","17","Female","","false","","","","","[396.2000000178814,669.8000000119209]","./assets/img/space/10.jpg","[""ArrowDown"",""ArrowLeft""]","full practice","space","15","{""ArrowUp,ArrowLeft"":3,""ArrowUp,ArrowRight"":36,""ArrowDown,ArrowLeft"":15,""ArrowDown,ArrowRight"":23}","false","ArrowDown,ArrowLeft","false","","","","","",""
"html-keyboard-response","48","312657","0.0-3.0-8.0-1.4","spark_pilot_norest","10612","8","17","Female","","","","","","","null","<div style=""font-size:60px;"">+</div>","null","fixation","","","","","","","","","","","",""
"learning-instructions","49","333388","0.0-3.0-9.0-0.0","spark_pilot_norest","10612","8","17","Female","","","","","","","10363.5","<p> One last thing: sometimes, you will see a robber. The robber can be anywhere in the picture. </p>
            <p> If you do not stop them, you will lose treasure. </p>
            <img src='./assets/img/instructions/robber.jpg' class='instructions-image'>","","instructions","","","","","","","","","","","",""
"learning-instructions","50","350151","0.0-3.0-9.0-0.1","spark_pilot_norest","10612","8","17","Female","","","","","","","9601.800000011921","<p> If you see the robber, you should <b>press the space bar</b> rather than using the arrow keys. </p>
            <p> Try practicing that now! </p>","","instructions","","","","","","","","","","","",""
"revaluation","51","354157","0.0-3.0-10.0-0.0","spark_pilot_norest","10612","8","17","Female","","false","","","","","[1537]","./assets/img/space/catch/0.jpg","[""spaceBar""]","catch practice","space","0","{""ArrowUp,ArrowLeft"":3,""ArrowUp,ArrowRight"":36,""ArrowDown,ArrowLeft"":15,""ArrowDown,ArrowRight"":23}","true","spaceBar","true","","","","","",""
"html-keyboard-response","52","354661","0.0-3.0-10.0-1.0","spark_pilot_norest","10612","8","17","Female","","","","","","","null","<div style=""font-size:60px;"">+</div>","null","fixation","","","","","","","","","","","",""
"revaluation","53","358671","0.0-3.0-10.0-0.1","spark_pilot_norest","10612","8","17","Female","","false","","","","","[1034.5999999940395]","./assets/img/space/catch/1.jpg","[""spaceBar""]","catch practice","space","0","{""ArrowUp,ArrowLeft"":3,""ArrowUp,ArrowRight"":36,""ArrowDown,ArrowLeft"":15,""ArrowDown,ArrowRight"":23}","true","spaceBar","true","","","","","",""
"html-keyboard-response","54","359172","0.0-3.0-10.0-1.1","spark_pilot_norest","10612","8","17","Female","","","","","","","null","<div style=""font-size:60px;"">+</div>","null","fixation","","","","","","","","","","","",""
"revaluation","55","363178","0.0-3.0-10.0-0.2","spark_pilot_norest","10612","8","17","Female","","false","","","","","[700.7999999821186]","./assets/img/space/catch/2.jpg","[""spaceBar""]","catch practice","space","0","{""ArrowUp,ArrowLeft"":3,""ArrowUp,ArrowRight"":36,""ArrowDown,ArrowLeft"":15,""ArrowDown,ArrowRight"":23}","true","spaceBar","true","","","","","",""
"html-keyboard-response","56","363682","0.0-3.0-10.0-1.2","spark_pilot_norest","10612","8","17","Female","","","","","","","null","<div style=""font-size:60px;"">+</div>","null","fixation","","","","","","","","","","","",""
"learning-instructions","57","374850","0.0-3.0-11.0-0.0-0.0","spark_pilot_norest","10612","8","17","Female","","","","","","","5911.5","<p> Now, you will practice a shortened version of the game to get a sense of how it all fits together. </p>","","instructions","","","","","","","","","","","",""
"learning-instructions","58","380937","0.0-3.0-11.0-0.0-0.1","spark_pilot_norest","10612","8","17","Female","","","","","","","2900.5","<p>This time you are searching for treasure in outer space.</p>","","instructions","","","","","","","","","","","",""
"learning-instructions","59","397063","0.0-3.0-11.0-1.0-0.0","spark_pilot_norest","10612","8","17","Female","","","","","","","1351.5999999940395","<p> Remember, when you see a picture of the place, use the up and down keys to <b>find an animal</b>.</p>
            <p> When you encounter an animal, you should use the left and right keys to <b>select a treasure chest</b>.</p>
            <p> Don't forget to look out for the robber! </p>","","instructions","","","","","","","","","","","",""
"revaluation","60","403076","0.0-3.0-11.0-2.0-0.0","spark_pilot_norest","10612","8","17","Female","","false","","","","","[1358.4000000059605,643.2000000178814]","./assets/img/space/11.jpg","[""ArrowUp"",""ArrowRight""]","practice block","space","36","{""ArrowUp,ArrowLeft"":3,""ArrowUp,ArrowRight"":36,""ArrowDown,ArrowLeft"":15,""ArrowDown,ArrowRight"":23}","true","ArrowUp,ArrowRight","false","","","","","",""
"html-keyboard-response","61","403582","0.0-3.0-11.0-2.0-1.0","spark_pilot_norest","10612","8","17","Female","","","","","","","null","<div style=""font-size:60px;"">+</div>","null","fixation","","","","","","","","","","","",""
"revaluation","62","409597","0.0-3.0-11.0-2.0-0.1","spark_pilot_norest","10612","8","17","Female","","false","","","","","[412.7999999821186,626.5999999940395]","./assets/img/space/12.jpg","[""ArrowDown"",""ArrowLeft""]","practice block","space","15","{""ArrowUp,ArrowLeft"":3,""ArrowUp,ArrowRight"":36,""ArrowDown,ArrowLeft"":15,""ArrowDown,ArrowRight"":23}","false","ArrowDown,ArrowLeft","false","","","","","",""
"html-keyboard-response","63","410100","0.0-3.0-11.0-2.0-1.1","spark_pilot_norest","10612","8","17","Female","","","","","","","null","<div style=""font-size:60px;"">+</div>","null","fixation","","","","","","","","","","","",""
"revaluation","64","416110","0.0-3.0-11.0-2.0-0.2","spark_pilot_norest","10612","8","17","Female","","false","","","","","[727.5,635.8000000119209]","./assets/img/space/13.jpg","[""ArrowUp"",""ArrowRight""]","practice block","space","36","{""ArrowUp,ArrowLeft"":3,""ArrowUp,ArrowRight"":36,""ArrowDown,ArrowLeft"":15,""ArrowDown,ArrowRight"":23}","true","ArrowUp,ArrowRight","false","","","","","",""
"html-keyboard-response","65","416612","0.0-3.0-11.0-2.0-1.2","spark_pilot_norest","10612","8","17","Female","","","","","","","null","<div style=""font-size:60px;"">+</div>","null","fixation","","","","","","","","","","","",""
"revaluation","66","422627","0.0-3.0-11.0-2.0-0.3","spark_pilot_norest","10612","8","17","Female","","false","","","","","[631,1103.4000000059605]","./assets/img/space/14.jpg","[""ArrowUp"",""ArrowLeft""]","practice block","space","3","{""ArrowUp,ArrowLeft"":3,""ArrowUp,ArrowRight"":36,""ArrowDown,ArrowLeft"":15,""ArrowDown,ArrowRight"":23}","false","ArrowUp,ArrowLeft","false","","","","","",""
"html-keyboard-response","67","423129","0.0-3.0-11.0-2.0-1.3","spark_pilot_norest","10612","8","17","Female","","","","","","","null","<div style=""font-size:60px;"">+</div>","null","fixation","","","","","","","","","","","",""
"revaluation","68","429147","0.0-3.0-11.0-2.0-0.4","spark_pilot_norest","10612","8","17","Female","","false","","","","","[482.40000000596046,429.5]","./assets/img/space/11.jpg","[""ArrowUp"",""ArrowRight""]","practice block","space","36","{""ArrowUp,ArrowLeft"":3,""ArrowUp,ArrowRight"":36,""ArrowDown,ArrowLeft"":15,""ArrowDown,ArrowRight"":23}","true","ArrowUp,ArrowRight","false","","","","","",""
"html-keyboard-response","69","429648","0.0-3.0-11.0-2.0-1.4","spark_pilot_norest","10612","8","17","Female","","","","","","","null","<div style=""font-size:60px;"">+</div>","null","fixation","","","","","","","","","","","",""
"revaluation","70","435659","0.0-3.0-11.0-2.0-0.5","spark_pilot_norest","10612","8","17","Female","","false","","","","","[500.7000000178814,366.90000000596046]","./assets/img/space/12.jpg","[""ArrowUp"",""ArrowRight""]","practice block","space","36","{""ArrowUp,ArrowLeft"":3,""ArrowUp,ArrowRight"":36,""ArrowDown,ArrowLeft"":15,""ArrowDown,ArrowRight"":23}","true","ArrowUp,ArrowRight","false","","","","","",""
"html-keyboard-response","71","436164","0.0-3.0-11.0-2.0-1.5","spark_pilot_norest","10612","8","17","Female","","","","","","","null","<div style=""font-size:60px;"">+</div>","null","fixation","","","","","","","","","","","",""
"revaluation","72","442171","0.0-3.0-11.0-2.0-0.6","spark_pilot_norest","10612","8","17","Female","","false","","","","","[493.69999998807907,1083.9000000059605]","./assets/img/space/13.jpg","[""ArrowUp"",""ArrowLeft""]","practice block","space","3","{""ArrowUp,ArrowLeft"":3,""ArrowUp,ArrowRight"":36,""ArrowDown,ArrowLeft"":15,""ArrowDown,ArrowRight"":23}","false","ArrowUp,ArrowLeft","false","","","","","",""
"html-keyboard-response","73","442672","0.0-3.0-11.0-2.0-1.6","spark_pilot_norest","10612","8","17","Female","","","","","","","null","<div style=""font-size:60px;"">+</div>","null","fixation","","","","","","","","","","","",""
"revaluation","74","448680","0.0-3.0-11.0-2.0-0.7","spark_pilot_norest","10612","8","17","Female","","false","","","","","[247.80000001192093,379.30000001192093]","./assets/img/space/14.jpg","[""ArrowUp"",""ArrowRight""]","practice block","space","36","{""ArrowUp,ArrowLeft"":3,""ArrowUp,ArrowRight"":36,""ArrowDown,ArrowLeft"":15,""ArrowDown,ArrowRight"":23}","true","ArrowUp,ArrowRight","false","","","","","",""
"html-keyboard-response","75","449183","0.0-3.0-11.0-2.0-1.7","spark_pilot_norest","10612","8","17","Female","","","","","","","null","<div style=""font-size:60px;"">+</div>","null","fixation","","","","","","","","","","","",""
"revaluation","76","453194","0.0-3.0-11.0-2.0-0.8","spark_pilot_norest","10612","8","17","Female","","false","","","","","[1282.5]","./assets/img/space/catch/3.jpg","[""spaceBar""]","practice block","space","0","{""ArrowUp,ArrowLeft"":3,""ArrowUp,ArrowRight"":36,""ArrowDown,ArrowLeft"":15,""ArrowDown,ArrowRight"":23}","true","spaceBar","true","","","","","",""
"html-keyboard-response","77","453696","0.0-3.0-11.0-2.0-1.8","spark_pilot_norest","10612","8","17","Female","","","","","","","null","<div style=""font-size:60px;"">+</div>","null","fixation","","","","","","","","","","","",""
"learning-instructions","78","468841","0.0-3.0-11.0-3.0-0.0","spark_pilot_norest","10612","8","17","Female","","","","","","","2176.2000000178814","<p> Now, you will travel with a friend who will choose whether you go up or down first. </p>
            <p> On these turns, you will just see the animal that they found. You will still get to choose which chest to search for treasure.</p>","","instructions","","","","","","","","","","","",""
"revaluation","79","472846","0.0-3.0-11.0-4.0-0.0","spark_pilot_norest","10612","8","17","Female","","false","","","","","[1501.5]","./assets/img/space/animals/rabbit.jpg","[""ArrowRight""]","practice block","space","23","{""ArrowUp,ArrowLeft"":3,""ArrowUp,ArrowRight"":36,""ArrowDown,ArrowLeft"":15,""ArrowDown,ArrowRight"":23}","true","ArrowDown,ArrowRight","","","","","","",""
"html-keyboard-response","80","473348","0.0-3.0-11.0-4.0-1.0","spark_pilot_norest","10612","8","17","Female","","","","","","","null","<div style=""font-size:60px;"">+</div>","null","fixation","","","","","","","","","","","",""
"revaluation","81","477355","0.0-3.0-11.0-4.0-0.1","spark_pilot_norest","10612","8","17","Female","","false","","","","","[370.40000000596046]","./assets/img/space/animals/cat.jpg","[""ArrowLeft""]","practice block","space","3","{""ArrowUp,ArrowLeft"":3,""ArrowUp,ArrowRight"":36,""ArrowDown,ArrowLeft"":15,""ArrowDown,ArrowRight"":23}","false","ArrowUp,ArrowLeft","","","","","","",""
"html-keyboard-response","82","477860","0.0-3.0-11.0-4.0-1.1","spark_pilot_norest","10612","8","17","Female","","","","","","","null","<div style=""font-size:60px;"">+</div>","null","fixation","","","","","","","","","","","",""
"revaluation","83","481869","0.0-3.0-11.0-4.0-0.2","spark_pilot_norest","10612","8","17","Female","","false","","","","","[840.4000000059605]","./assets/img/space/animals/cat.jpg","[""ArrowRight""]","practice block","space","36","{""ArrowUp,ArrowLeft"":3,""ArrowUp,ArrowRight"":36,""ArrowDown,ArrowLeft"":15,""ArrowDown,ArrowRight"":23}","true","ArrowUp,ArrowRight","","","","","","",""
"html-keyboard-response","84","482375","0.0-3.0-11.0-4.0-1.2","spark_pilot_norest","10612","8","17","Female","","","","","","","null","<div style=""font-size:60px;"">+</div>","null","fixation","","","","","","","","","","","",""
"revaluation","85","486380","0.0-3.0-11.0-4.0-0.3","spark_pilot_norest","10612","8","17","Female","","false","","","","","[325]","./assets/img/space/animals/rabbit.jpg","[""ArrowRight""]","practice block","space","23","{""ArrowUp,ArrowLeft"":3,""ArrowUp,ArrowRight"":36,""ArrowDown,ArrowLeft"":15,""ArrowDown,ArrowRight"":23}","true","ArrowDown,ArrowRight","","","","","","",""
"html-keyboard-response","86","486886","0.0-3.0-11.0-4.0-1.3","spark_pilot_norest","10612","8","17","Female","","","","","","","null","<div style=""font-size:60px;"">+</div>","null","fixation","","","","","","","","","","","",""
"learning-instructions","87","495009","0.0-3.0-11.0-5.0-0.0","spark_pilot_norest","10612","8","17","Female","","","","","","","null","<p> You have almost finished this part of the game! </p>
            <p> We are going to ask you to make a few more choices. </p>","","instructions","","","","","","","","","","","",""
"learning-instructions","88","511027","0.0-3.0-11.0-5.0-0.1","spark_pilot_norest","10612","8","17","Female","","","","","","","null","<p> First, you need to decide whether to go up or down. When you see each picture, use the arrow keys to make your choice. </p>
            <p><b>You will not see which animal you found, but try to get to the one that will give you the most treasure.</b></p>","","instructions","","","","","","","","","","","",""
"html-keyboard-response","89","512029","0.0-3.0-11.0-6.0-0.0","spark_pilot_norest","10612","8","17","Female","","","","","","","null","<div style=""font-size:100px;color:red;"">Starting in...</div>","null","","","","","","","","","","","","",""
"html-keyboard-response","90","513035","0.0-3.0-11.0-6.0-1.0","spark_pilot_norest","10612","8","17","Female","","","","","","","null","<div style=""font-size:200px;color:red;"">3</div>","null","","","","","","","","","","","","",""
"html-keyboard-response","91","514040","0.0-3.0-11.0-6.0-2.0","spark_pilot_norest","10612","8","17","Female","","","","","","","null","<div style=""font-size:200px;color:red;"">2</div>","null","","","","","","","","","","","","",""
"html-keyboard-response","92","515044","0.0-3.0-11.0-6.0-3.0","spark_pilot_norest","10612","8","17","Female","","","","","","","null","<div style=""font-size:200px;color:red;"">1</div>","null","","","","","","","","","","","","",""
"revaluation","93","515606","0.0-3.0-11.0-7.0","spark_pilot_norest","10612","8","17","Female","","false","","","","","[558.8999999761581]","./assets/img/space/15.jpg","[""ArrowDown""]","practice block","space","0","{""ArrowUp,ArrowLeft"":3,""ArrowUp,ArrowRight"":36,""ArrowDown,ArrowLeft"":15,""ArrowDown,ArrowRight"":23}","false","ArrowDown","false","","","","","",""
"html-keyboard-response","94","516108","0.0-3.0-11.0-8.0","spark_pilot_norest","10612","8","17","Female","","","","","","","null","<div style=""font-size:60px;"">+</div>","null","fixation","","","","","","","","","","","",""
"learning-instructions","95","529490","0.0-3.0-11.0-9.0-0.0","spark_pilot_norest","10612","8","17","Female","","","","","","","null","<p> Now you will see the animals again and can search their chests for treasure. </p>
            <p> This time, you will not see how much treasure you earned, but you will earn more bonus money for making better choices. </p>","","instructions","","","","","","","","","","","",""
"html-keyboard-response","96","530496","0.0-3.0-11.0-10.0-0.0","spark_pilot_norest","10612","8","17","Female","","","","","","","null","<div style=""font-size:100px;color:red;"">Starting in...</div>","null","","","","","","","","","","","","",""
"html-keyboard-response","97","531498","0.0-3.0-11.0-10.0-1.0","spark_pilot_norest","10612","8","17","Female","","","","","","","null","<div style=""font-size:200px;color:red;"">3</div>","null","","","","","","","","","","","","",""
"html-keyboard-response","98","532501","0.0-3.0-11.0-10.0-2.0","spark_pilot_norest","10612","8","17","Female","","","","","","","null","<div style=""font-size:200px;color:red;"">2</div>","null","","","","","","","","","","","","",""
"html-keyboard-response","99","533504","0.0-3.0-11.0-10.0-3.0","spark_pilot_norest","10612","8","17","Female","","","","","","","null","<div style=""font-size:200px;color:red;"">1</div>","null","","","","","","","","","","","","",""
"revaluation","100","534655","0.0-3.0-11.0-11.0-0.0","spark_pilot_norest","10612","8","17","Female","","false","","","","","[1148.7999999821186]","./assets/img/space/animals/cat.jpg","[""ArrowRight""]","practice block","space","0","{""ArrowUp,ArrowLeft"":3,""ArrowUp,ArrowRight"":36,""ArrowDown,ArrowLeft"":15,""ArrowDown,ArrowRight"":23}","true","ArrowUp,ArrowRight","","","","","","",""
"html-keyboard-response","101","535160","0.0-3.0-11.0-11.0-1.0","spark_pilot_norest","10612","8","17","Female","","","","","","","null","<div style=""font-size:60px;"">+</div>","null","fixation","","","","","","","","","","","",""
"revaluation","102","536007","0.0-3.0-11.0-11.0-0.1","spark_pilot_norest","10612","8","17","Female","","false","","","","","[844.9000000059605]","./assets/img/space/animals/rabbit.jpg","[""ArrowRight""]","practice block","space","0","{""ArrowUp,ArrowLeft"":3,""ArrowUp,ArrowRight"":36,""ArrowDown,ArrowLeft"":15,""ArrowDown,ArrowRight"":23}","true","ArrowDown,ArrowRight","","","","","","",""
"html-keyboard-response","103","536510","0.0-3.0-11.0-11.0-1.1","spark_pilot_norest","10612","8","17","Female","","","","","","","null","<div style=""font-size:60px;"">+</div>","null","fixation","","","","","","","","","","","",""
"learning-instructions","104","542690","0.0-3.0-12.0-0.0","spark_pilot_norest","10612","8","17","Female","","","","","","","1599.5","<p> Before you start, we're going to ask you a few questions about how the game works. </p>","","instructions","","","","","","","","","","","",""
"comp-q","105","549808","0.0-3.0-13.0-0.0-0.0","spark_pilot_norest","10612","8","17","Female","","","","","","","1530.4000000059605","<p> <b> True or False? </b> </p>
            <p> There can be 50 pieces of treasure in a given animal's chest. </p>","1","comp_question","","","","true","","","","","","","",""
"comp-q","106","558056","0.0-3.0-13.0-0.0-1.0","spark_pilot_norest","10612","8","17","Female","","","","","","","1589.699999988079","<p> <b> That's right! </b> The amount of treasure in each chest can range from 0 to 40 pieces. </p>","0","comp_answer","","","","","","","","","","","",""
"comp-q","107","566249","0.0-3.0-13.0-0.1-0.1","spark_pilot_norest","10612","8","17","Female","","","","","","","1072.800000011921","<p> <b> True or False? </b> </p><p> In this game, all animals have the same amount of treasure in their left and right chests. </p>","1","comp_question","","","","true","","","","","","","",""
"comp-q","108","573808","0.0-3.0-13.0-0.1-1.1","spark_pilot_norest","10612","8","17","Female","","","","","","","2328.4000000059605","<p> <b> That's right! </b> Animals have different amounts of treasure in their treasure chests. </p>","0","comp_answer","","","","","","","","","","","",""
"comp-q","109","580763","0.0-3.0-13.0-0.2-0.2","spark_pilot_norest","10612","8","17","Female","","","","","","","1112.3999999761581","<p> <b> True or False? </b> </p><p> The same animal will always be there if you go up in the same place. </p>","1","comp_question","","","","false","","","","","","","",""
"comp-q","110","589059","0.0-3.0-13.0-0.2-1.2","spark_pilot_norest","10612","8","17","Female","","","","","","","1995.5999999940395","<p> <b>Incorrect.</b> One animal lives in the upper part and one lives in the lower part of every place. </p>","0","comp_answer","","","","","","","","","","","",""
"comp-q","111","597403","0.0-3.0-13.0-0.3-0.3","spark_pilot_norest","10612","8","17","Female","","","","","","","2520.9000000059605","<p> <b> True or False? </b> </p><p> The same animal will always be there if you go up in the same place. </p>","1","comp_question","","","","false","","","","","","","",""
"comp-q","112","605803","0.0-3.0-13.0-0.3-1.3","spark_pilot_norest","10612","8","17","Female","","","","","","","2120.5999999940395","<p> <b>Incorrect.</b> One animal lives in the upper part and one lives in the lower part of every place. </p>","0","comp_answer","","","","","","","","","","","",""
"comp-q","113","612803","0.0-3.0-13.0-0.4-0.4","spark_pilot_norest","10612","8","17","Female","","","","","","","1179.6000000238419","<p> <b> True or False? </b> </p><p> The same animal will always be there if you go up in the same place. </p>","0","comp_question","","","","true","","","","","","","",""
"comp-q","114","622720","0.0-3.0-13.0-0.4-1.4","spark_pilot_norest","10612","8","17","Female","","","","","","","3475.199999988079","<p> <b> That's right! </b> One animal lives in the upper part and one lives in the lower part of every place. </p>","0","comp_answer","","","","","","","","","","","",""
"comp-q","115","629657","0.0-3.0-13.0-0.5-0.5","spark_pilot_norest","10612","8","17","Female","","","","","","","1415","<p> <b> True or False? </b> </p><p> If you see a different picture, it means you are in a new place. </p>","0","comp_question","","","","false","","","","","","","",""
"comp-q","116","642427","0.0-3.0-13.0-0.5-1.5","spark_pilot_norest","10612","8","17","Female","","","","","","","1673.0999999940395","<p> <b>Incorrect.</b> Lots of different images may show the same place. For example,  you may see three different images that all remind you that you are in outer space. </p>","0","comp_answer","","","","","","","","","","","",""
"comp-q","117","648989","0.0-3.0-13.0-0.6-0.6","spark_pilot_norest","10612","8","17","Female","","","","","","","1061.800000011921","<p> <b> True or False? </b> </p><p> If you see a different picture, it means you are in a new place. </p>","1","comp_question","","","","true","","","","","","","",""
"comp-q","118","663290","0.0-3.0-13.0-0.6-1.6","spark_pilot_norest","10612","8","17","Female","","","","","","","3074.7999999821186","<p> <b> That's right! </b> Lots of different images may show the same place. For example,  you may see three different images that all remind you that you are in outer space. </p>","0","comp_answer","","","","","","","","","","","",""
"learning-instructions","119","675911","0.0-3.0-14.0-0.0","spark_pilot_norest","10612","8","17","Female","","","","","","","2767.5999999940395","<p> Good job. Remember to do your best because the amount of treasure you earn will be converted into bonus money. </p>
            <p> It’s time to start the real game! </p>","","instructions","","","","","","","","","","","",""
"learning-instructions","120","682420","0.0-4.0-0.0-0.0","spark_pilot_norest","10612","8","17","Female","","","","","","","3746.300000011921","<p> This time you are searching for treasure in the <b>canyon</b>.</p>","","instructions","","","","","","","","","","","",""
"learning-instructions","121","702214","0.0-4.0-0.0-0.1","spark_pilot_norest","10612","8","17","Female","","","","","","","2495.2999999821186","<p><b>New</b> animals with <b>new</b> treasure chests live here. You need to explore to discover where the animal with the best treasure chest is.</p>
                    <p> Like before, once you figure out which animal has the chest with the most treasure, you should try to get to that animal and select that chest! </p>","","instructions","","","","","","","","","","","",""
"learning-instructions","122","720281","0.0-4.0-1.0-0.0","spark_pilot_norest","10612","8","17","Female","","","","","","","3335.899999976158","<p> Remember, when you see a picture of the place, use the up and down keys to <b>find an animal</b>.</p>
            <p> When you encounter an animal, you should use the left and right keys to <b>select a treasure chest</b>.</p>
            <p> Don't forget to look out for the robber! </p>","","instructions","","","","","","","","","","","",""
"revaluation","123","726290","0.0-4.0-2.0-0.0","spark_pilot_norest","10612","8","17","Female","","false","","","","","[1379.9000000059605,431]","./assets/img/canyon/memory/29.jpg","[""ArrowUp"",""ArrowRight""]","value training","canyon","10","{""ArrowUp,ArrowLeft"":26,""ArrowUp,ArrowRight"":10,""ArrowDown,ArrowLeft"":5,""ArrowDown,ArrowRight"":17}","false","ArrowUp,ArrowRight","false","revaluation","1","0","","",""
"html-keyboard-response","124","726795","0.0-4.0-2.0-1.0","spark_pilot_norest","10612","8","17","Female","","","","","","","null","<div style=""font-size:60px;"">+</div>","null","fixation","","","","","","","","","1","","",""
"revaluation","125","730800","0.0-4.0-2.0-0.1","spark_pilot_norest","10612","8","17","Female","","false","","","","","[1594.7000000178814]","./assets/img/canyon/catch/2.jpg","[""spaceBar""]","value training","canyon","0","{""ArrowUp,ArrowLeft"":26,""ArrowUp,ArrowRight"":10,""ArrowDown,ArrowLeft"":5,""ArrowDown,ArrowRight"":17}","true","spaceBar","true","revaluation","1","2","","",""
"html-keyboard-response","126","731302","0.0-4.0-2.0-1.1","spark_pilot_norest","10612","8","17","Female","","","","","","","null","<div style=""font-size:60px;"">+</div>","null","fixation","","","","","","","","","3","","",""
"revaluation","127","737311","0.0-4.0-2.0-0.2","spark_pilot_norest","10612","8","17","Female","","false","","","","","[1080.4000000059605,1146.199999988079]","./assets/img/canyon/memory/16.jpg","[""ArrowDown"",""ArrowRight""]","value training","canyon","17","{""ArrowUp,ArrowLeft"":26,""ArrowUp,ArrowRight"":10,""ArrowDown,ArrowLeft"":5,""ArrowDown,ArrowRight"":17}","false","ArrowDown,ArrowRight","false","revaluation","1","4","","",""
"html-keyboard-response","128","737814","0.0-4.0-2.0-1.2","spark_pilot_norest","10612","8","17","Female","","","","","","","null","<div style=""font-size:60px;"">+</div>","null","fixation","","","","","","","","","5","","",""
"revaluation","129","743826","0.0-4.0-2.0-0.3","spark_pilot_norest","10612","8","17","Female","","false","","","","","[368,513.5]","./assets/img/canyon/memory/24.jpg","[""ArrowUp"",""ArrowLeft""]","value training","canyon","26","{""ArrowUp,ArrowLeft"":26,""ArrowUp,ArrowRight"":10,""ArrowDown,ArrowLeft"":5,""ArrowDown,ArrowRight"":17}","true","ArrowUp,ArrowLeft","false","revaluation","1","6","","",""
"html-keyboard-response","130","744331","0.0-4.0-2.0-1.3","spark_pilot_norest","10612","8","17","Female","","","","","","","null","<div style=""font-size:60px;"">+</div>","null","fixation","","","","","","","","","7","","",""
"revaluation","131","750345","0.0-4.0-2.0-0.4","spark_pilot_norest","10612","8","17","Female","","false","","","","","[357.5,385]","./assets/img/canyon/memory/3.jpg","[""ArrowUp"",""ArrowLeft""]","value training","canyon","26","{""ArrowUp,ArrowLeft"":26,""ArrowUp,ArrowRight"":10,""ArrowDown,ArrowLeft"":5,""ArrowDown,ArrowRight"":17}","true","ArrowUp,ArrowLeft","false","revaluation","1","8","","",""
"html-keyboard-response","132","750847","0.0-4.0-2.0-1.4","spark_pilot_norest","10612","8","17","Female","","","","","","","null","<div style=""font-size:60px;"">+</div>","null","fixation","","","","","","","","","9","","",""
"revaluation","133","754853","0.0-4.0-2.0-0.5","spark_pilot_norest","10612","8","17","Female","","false","","","","","[477.59999999403954]","./assets/img/canyon/catch/1.jpg","[""ArrowDown""]","value training","canyon","-10","{""ArrowUp,ArrowLeft"":26,""ArrowUp,ArrowRight"":10,""ArrowDown,ArrowLeft"":5,""ArrowDown,ArrowRight"":17}","false","ArrowDown","true","revaluation","1","10","","",""
"html-keyboard-response","134","755356","0.0-4.0-2.0-1.5","spark_pilot_norest","10612","8","17","Female","","","","","","","null","<div style=""font-size:60px;"">+</div>","null","fixation","","","","","","","","","11","","",""
"revaluation","135","759367","0.0-4.0-2.0-0.6","spark_pilot_norest","10612","8","17","Female","","false","","","","","[1221.300000011921]","./assets/img/canyon/catch/7.jpg","[""spaceBar""]","value training","canyon","0","{""ArrowUp,ArrowLeft"":26,""ArrowUp,ArrowRight"":10,""ArrowDown,ArrowLeft"":5,""ArrowDown,ArrowRight"":17}","true","spaceBar","true","revaluation","1","12","","",""
"html-keyboard-response","136","759874","0.0-4.0-2.0-1.6","spark_pilot_norest","10612","8","17","Female","","","","","","","null","<div style=""font-size:60px;"">+</div>","null","fixation","","","","","","","","","13","","",""
"revaluation","137","765885","0.0-4.0-2.0-0.7","spark_pilot_norest","10612","8","17","Female","","false","","","","","[1791.5,552.2999999821186]","./assets/img/canyon/memory/12.jpg","[""ArrowDown"",""ArrowRight""]","value training","canyon","17","{""ArrowUp,ArrowLeft"":26,""ArrowUp,ArrowRight"":10,""ArrowDown,ArrowLeft"":5,""ArrowDown,ArrowRight"":17}","false","ArrowDown,ArrowRight","false","revaluation","1","14","","",""
"html-keyboard-response","138","766391","0.0-4.0-2.0-1.7","spark_pilot_norest","10612","8","17","Female","","","","","","","null","<div style=""font-size:60px;"">+</div>","null","fixation","","","","","","","","","15","","",""
"revaluation","139","770398","0.0-4.0-2.0-0.8","spark_pilot_norest","10612","8","17","Female","","true","","","","","[]","./assets/img/canyon/memory/2.jpg","[]","value training","canyon","-5","{""ArrowUp,ArrowLeft"":26,""ArrowUp,ArrowRight"":10,""ArrowDown,ArrowLeft"":5,""ArrowDown,ArrowRight"":17}","false","","false","revaluation","1","16","","",""
"html-keyboard-response","140","770900","0.0-4.0-2.0-1.8","spark_pilot_norest","10612","8","17","Female","","","","","","","null","<div style=""font-size:60px;"">+</div>","null","fixation","","","","","","","","","17","","",""
"revaluation","141","776909","0.0-4.0-2.0-0.9","spark_pilot_norest","10612","8","17","Female","","false","","","","","[623.8000000119209,512.6999999880791]","./assets/img/canyon/memory/0.jpg","[""ArrowUp"",""ArrowRight""]","value training","canyon","10","{""ArrowUp,ArrowLeft"":26,""ArrowUp,ArrowRight"":10,""ArrowDown,ArrowLeft"":5,""ArrowDown,ArrowRight"":17}","false","ArrowUp,ArrowRight","false","revaluation","1","18","","",""
"html-keyboard-response","142","777415","0.0-4.0-2.0-1.9","spark_pilot_norest","10612","8","17","Female","","","","","","","null","<div style=""font-size:60px;"">+</div>","null","fixation","","","","","","","","","19","","",""
"revaluation","143","783423","0.0-4.0-2.0-0.10","spark_pilot_norest","10612","8","17","Female","","false","","","","","[704,561.4000000059605]","./assets/img/canyon/memory/40.jpg","[""ArrowUp"",""ArrowLeft""]","value training","canyon","26","{""ArrowUp,ArrowLeft"":26,""ArrowUp,ArrowRight"":10,""ArrowDown,ArrowLeft"":5,""ArrowDown,ArrowRight"":17}","true","ArrowUp,ArrowLeft","false","revaluation","1","20","","",""
"html-keyboard-response","144","783925","0.0-4.0-2.0-1.10","spark_pilot_norest","10612","8","17","Female","","","","","","","null","<div style=""font-size:60px;"">+</div>","null","fixation","","","","","","","","","21","","",""
"revaluation","145","789936","0.0-4.0-2.0-0.11","spark_pilot_norest","10612","8","17","Female","","false","","","","","[1470.5,1155.800000011921]","./assets/img/canyon/memory/3.jpg","[""ArrowUp"",""ArrowLeft""]","value training","canyon","26","{""ArrowUp,ArrowLeft"":26,""ArrowUp,ArrowRight"":10,""ArrowDown,ArrowLeft"":5,""ArrowDown,ArrowRight"":17}","true","ArrowUp,ArrowLeft","false","revaluation","1","22","","",""
"html-keyboard-response","146","790439","0.0-4.0-2.0-1.11","spark_pilot_norest","10612","8","17","Female","","","","","","","null","<div style=""font-size:60px;"">+</div>","null","fixation","","","","","","","","","23","","",""
"revaluation","147","796449","0.0-4.0-2.0-0.12","spark_pilot_norest","10612","8","17","Female","","false","","","","","[837.6999999880791,1636.9000000059605]","./assets/img/canyon/memory/8.jpg","[""ArrowDown"",""ArrowLeft""]","value training","canyon","5","{""ArrowUp,ArrowLeft"":26,""ArrowUp,ArrowRight"":10,""ArrowDown,ArrowLeft"":5,""ArrowDown,ArrowRight"":17}","false","ArrowDown,ArrowLeft","false","revaluation","1","24","","",""
"html-keyboard-response","148","796951","0.0-4.0-2.0-1.12","spark_pilot_norest","10612","8","17","Female","","","","","","","null","<div style=""font-size:60px;"">+</div>","null","fixation","","","","","","","","","25","","",""
"revaluation","149","800958","0.0-4.0-2.0-0.13","spark_pilot_norest","10612","8","17","Female","","false","","","","","[1288.2000000178814]","./assets/img/canyon/catch/6.jpg","[""spaceBar""]","value training","canyon","0","{""ArrowUp,ArrowLeft"":26,""ArrowUp,ArrowRight"":10,""ArrowDown,ArrowLeft"":5,""ArrowDown,ArrowRight"":17}","true","spaceBar","true","revaluation","1","26","","",""
"html-keyboard-response","150","801463","0.0-4.0-2.0-1.13","spark_pilot_norest","10612","8","17","Female","","","","","","","null","<div style=""font-size:60px;"">+</div>","null","fixation","","","","","","","","","27","","",""
"revaluation","151","805474","0.0-4.0-2.0-0.14","spark_pilot_norest","10612","8","17","Female","","true","","","","","[]","./assets/img/canyon/memory/36.jpg","[]","value training","canyon","-5","{""ArrowUp,ArrowLeft"":26,""ArrowUp,ArrowRight"":10,""ArrowDown,ArrowLeft"":5,""ArrowDown,ArrowRight"":17}","false","","false","revaluation","1","28","","",""
"html-keyboard-response","152","805975","0.0-4.0-2.0-1.14","spark_pilot_norest","10612","8","17","Female","","","","","","","null","<div style=""font-size:60px;"">+</div>","null","fixation","","","","","","","","","29","","",""
"revaluation","153","811986","0.0-4.0-2.0-0.15","spark_pilot_norest","10612","8","17","Female","","false","","","","","[1034.800000011921,663.5]","./assets/img/canyon/memory/15.jpg","[""ArrowUp"",""ArrowRight""]","value training","canyon","10","{""ArrowUp,ArrowLeft"":26,""ArrowUp,ArrowRight"":10,""ArrowDown,ArrowLeft"":5,""ArrowDown,ArrowRight"":17}","false","ArrowUp,ArrowRight","false","revaluation","1","30","","",""
"html-keyboard-response","154","812493","0.0-4.0-2.0-1.15","spark_pilot_norest","10612","8","17","Female","","","","","","","null","<div style=""font-size:60px;"">+</div>","null","fixation","","","","","","","","","31","","",""
"revaluation","155","818500","0.0-4.0-2.0-0.16","spark_pilot_norest","10612","8","17","Female","","false","","","","","[1371.9000000059605,1474]","./assets/img/canyon/memory/9.jpg","[""ArrowUp"",""ArrowRight""]","value training","canyon","10","{""ArrowUp,ArrowLeft"":26,""ArrowUp,ArrowRight"":10,""ArrowDown,ArrowLeft"":5,""ArrowDown,ArrowRight"":17}","false","ArrowUp,ArrowRight","false","revaluation","1","32","","",""
"html-keyboard-response","156","819003","0.0-4.0-2.0-1.16","spark_pilot_norest","10612","8","17","Female","","","","","","","null","<div style=""font-size:60px;"">+</div>","null","fixation","","","","","","","","","33","","",""
"revaluation","157","825016","0.0-4.0-2.0-0.17","spark_pilot_norest","10612","8","17","Female","","true","","","","","[1188.2999999821186]","./assets/img/canyon/memory/24.jpg","[""ArrowUp""]","value training","canyon","-5","{""ArrowUp,ArrowLeft"":26,""ArrowUp,ArrowRight"":10,""ArrowDown,ArrowLeft"":5,""ArrowDown,ArrowRight"":17}","false","ArrowUp","false","revaluation","1","34","","",""
"html-keyboard-response","158","825517","0.0-4.0-2.0-1.17","spark_pilot_norest","10612","8","17","Female","","","","","","","null","<div style=""font-size:60px;"">+</div>","null","fixation","","","","","","","","","35","","",""
"revaluation","159","831528","0.0-4.0-2.0-0.18","spark_pilot_norest","10612","8","17","Female","","false","","","","","[1541.0999999940395,959.2999999821186]","./assets/img/canyon/memory/37.jpg","[""ArrowUp"",""ArrowRight""]","value training","canyon","10","{""ArrowUp,ArrowLeft"":26,""ArrowUp,ArrowRight"":10,""ArrowDown,ArrowLeft"":5,""ArrowDown,ArrowRight"":17}","false","ArrowUp,ArrowRight","false","revaluation","1","36","","",""
"html-keyboard-response","160","832029","0.0-4.0-2.0-1.18","spark_pilot_norest","10612","8","17","Female","","","","","","","null","<div style=""font-size:60px;"">+</div>","null","fixation","","","","","","","","","37","","",""
"revaluation","161","838045","0.0-4.0-2.0-0.19","spark_pilot_norest","10612","8","17","Female","","false","","","","","[1173,963.8000000119209]","./assets/img/canyon/memory/39.jpg","[""ArrowUp"",""ArrowRight""]","value training","canyon","10","{""ArrowUp,ArrowLeft"":26,""ArrowUp,ArrowRight"":10,""ArrowDown,ArrowLeft"":5,""ArrowDown,ArrowRight"":17}","false","ArrowUp,ArrowRight","false","revaluation","1","38","","",""
"html-keyboard-response","162","838548","0.0-4.0-2.0-1.19","spark_pilot_norest","10612","8","17","Female","","","","","","","null","<div style=""font-size:60px;"">+</div>","null","fixation","","","","","","","","","39","","",""
"revaluation","163","844556","0.0-4.0-2.0-0.20","spark_pilot_norest","10612","8","17","Female","","false","","","","","[818.2999999821186,570.3000000119209]","./assets/img/canyon/memory/35.jpg","[""ArrowDown"",""ArrowLeft""]","value training","canyon","5","{""ArrowUp,ArrowLeft"":26,""ArrowUp,ArrowRight"":10,""ArrowDown,ArrowLeft"":5,""ArrowDown,ArrowRight"":17}","false","ArrowDown,ArrowLeft","false","revaluation","1","40","","",""
"html-keyboard-response","164","845058","0.0-4.0-2.0-1.20","spark_pilot_norest","10612","8","17","Female","","","","","","","null","<div style=""font-size:60px;"">+</div>","null","fixation","","","","","","","","","41","","",""
"revaluation","165","851074","0.0-4.0-2.0-0.21","spark_pilot_norest","10612","8","17","Female","","false","","","","","[452.7999999821186,347.80000001192093]","./assets/img/canyon/memory/16.jpg","[""ArrowUp"",""ArrowRight""]","value training","canyon","10","{""ArrowUp,ArrowLeft"":26,""ArrowUp,ArrowRight"":10,""ArrowDown,ArrowLeft"":5,""ArrowDown,ArrowRight"":17}","false","ArrowUp,ArrowRight","false","revaluation","1","42","","",""
"html-keyboard-response","166","851580","0.0-4.0-2.0-1.21","spark_pilot_norest","10612","8","17","Female","","","","","","","null","<div style=""font-size:60px;"">+</div>","null","fixation","","","","","","","","","43","","",""
"revaluation","167","857594","0.0-4.0-2.0-0.22","spark_pilot_norest","10612","8","17","Female","","false","","","","","[1770.5999999940395,1468.5999999940395]","./assets/img/canyon/memory/17.jpg","[""ArrowUp"",""ArrowRight""]","value training","canyon","10","{""ArrowUp,ArrowLeft"":26,""ArrowUp,ArrowRight"":10,""ArrowDown,ArrowLeft"":5,""ArrowDown,ArrowRight"":17}","false","ArrowUp,ArrowRight","false","revaluation","1","44","","",""
"html-keyboard-response","168","858096","0.0-4.0-2.0-1.22","spark_pilot_norest","10612","8","17","Female","","","","","","","null","<div style=""font-size:60px;"">+</div>","null","fixation","","","","","","","","","45","","",""
"revaluation","169","864101","0.0-4.0-2.0-0.23","spark_pilot_norest","10612","8","17","Female","","false","","","","","[699.2999999821186,1322.300000011921]","./assets/img/canyon/memory/9.jpg","[""ArrowUp"",""ArrowRight""]","value training","canyon","10","{""ArrowUp,ArrowLeft"":26,""ArrowUp,ArrowRight"":10,""ArrowDown,ArrowLeft"":5,""ArrowDown,ArrowRight"":17}","false","ArrowUp,ArrowRight","false","revaluation","1","46","","",""
"html-keyboard-response","170","864604","0.0-4.0-2.0-1.23","spark_pilot_norest","10612","8","17","Female","","","","","","","null","<div style=""font-size:60px;"">+</div>","null","fixation","","","","","","","","","47","","",""
"revaluation","171","870619","0.0-4.0-2.0-0.24","spark_pilot_norest","10612","8","17","Female","","false","","","","","[576.0999999940395,1141]","./assets/img/canyon/memory/30.jpg","[""ArrowDown"",""ArrowRight""]","value training","canyon","17","{""ArrowUp,ArrowLeft"":26,""ArrowUp,ArrowRight"":10,""ArrowDown,ArrowLeft"":5,""ArrowDown,ArrowRight"":17}","false","ArrowDown,ArrowRight","false","revaluation","1","48","","",""
"html-keyboard-response","172","871126","0.0-4.0-2.0-1.24","spark_pilot_norest","10612","8","17","Female","","","","","","","null","<div style=""font-size:60px;"">+</div>","null","fixation","","","","","","","","","49","","",""
"revaluation","173","877144","0.0-4.0-2.0-0.25","spark_pilot_norest","10612","8","17","Female","","false","","","","","[787.5,1032.5]","./assets/img/canyon/memory/27.jpg","[""ArrowUp"",""ArrowRight""]","value training","canyon","10","{""ArrowUp,ArrowLeft"":26,""ArrowUp,ArrowRight"":10,""ArrowDown,ArrowLeft"":5,""ArrowDown,ArrowRight"":17}","false","ArrowUp,ArrowRight","false","revaluation","1","50","","",""
"html-keyboard-response","174","877645","0.0-4.0-2.0-1.25","spark_pilot_norest","10612","8","17","Female","","","","","","","null","<div style=""font-size:60px;"">+</div>","null","fixation","","","","","","","","","51","","",""
"revaluation","175","883653","0.0-4.0-2.0-0.26","spark_pilot_norest","10612","8","17","Female","","false","","","","","[635.3000000119209,480.90000000596046]","./assets/img/canyon/memory/21.jpg","[""ArrowDown"",""ArrowLeft""]","value training","canyon","5","{""ArrowUp,ArrowLeft"":26,""ArrowUp,ArrowRight"":10,""ArrowDown,ArrowLeft"":5,""ArrowDown,ArrowRight"":17}","false","ArrowDown,ArrowLeft","false","revaluation","1","52","","",""
"html-keyboard-response","176","884157","0.0-4.0-2.0-1.26","spark_pilot_norest","10612","8","17","Female","","","","","","","null","<div style=""font-size:60px;"">+</div>","null","fixation","","","","","","","","","53","","",""
"revaluation","177","888168","0.0-4.0-2.0-0.27","spark_pilot_norest","10612","8","17","Female","","false","","","","","[1179.9000000059605]","./assets/img/canyon/catch/4.jpg","[""spaceBar""]","value training","canyon","0","{""ArrowUp,ArrowLeft"":26,""ArrowUp,ArrowRight"":10,""ArrowDown,ArrowLeft"":5,""ArrowDown,ArrowRight"":17}","true","spaceBar","true","revaluation","1","54","","",""
"html-keyboard-response","178","888674","0.0-4.0-2.0-1.27","spark_pilot_norest","10612","8","17","Female","","","","","","","null","<div style=""font-size:60px;"">+</div>","null","fixation","","","","","","","","","55","","",""
"revaluation","179","894682","0.0-4.0-2.0-0.28","spark_pilot_norest","10612","8","17","Female","","false","","","","","[930.1999999880791,737]","./assets/img/canyon/memory/13.jpg","[""ArrowUp"",""ArrowRight""]","value training","canyon","10","{""ArrowUp,ArrowLeft"":26,""ArrowUp,ArrowRight"":10,""ArrowDown,ArrowLeft"":5,""ArrowDown,ArrowRight"":17}","false","ArrowUp,ArrowRight","false","revaluation","1","56","","",""
"html-keyboard-response","180","895184","0.0-4.0-2.0-1.28","spark_pilot_norest","10612","8","17","Female","","","","","","","null","<div style=""font-size:60px;"">+</div>","null","fixation","","","","","","","","","57","","",""
"revaluation","181","901195","0.0-4.0-2.0-0.29","spark_pilot_norest","10612","8","17","Female","","false","","","","","[1373.199999988079,686.6999999880791]","./assets/img/canyon/memory/29.jpg","[""ArrowUp"",""ArrowRight""]","value training","canyon","10","{""ArrowUp,ArrowLeft"":26,""ArrowUp,ArrowRight"":10,""ArrowDown,ArrowLeft"":5,""ArrowDown,ArrowRight"":17}","false","ArrowUp,ArrowRight","false","revaluation","1","58","","",""
"html-keyboard-response","182","901697","0.0-4.0-2.0-1.29","spark_pilot_norest","10612","8","17","Female","","","","","","","null","<div style=""font-size:60px;"">+</div>","null","fixation","","","","","","","","","59","","",""
"revaluation","183","907707","0.0-4.0-2.0-0.30","spark_pilot_norest","10612","8","17","Female","","false","","","","","[1284,757]","./assets/img/canyon/memory/27.jpg","[""ArrowDown"",""ArrowRight""]","value training","canyon","17","{""ArrowUp,ArrowLeft"":26,""ArrowUp,ArrowRight"":10,""ArrowDown,ArrowLeft"":5,""ArrowDown,ArrowRight"":17}","false","ArrowDown,ArrowRight","false","revaluation","1","60","","",""
"html-keyboard-response","184","908210","0.0-4.0-2.0-1.30","spark_pilot_norest","10612","8","17","Female","","","","","","","null","<div style=""font-size:60px;"">+</div>","null","fixation","","","","","","","","","61","","",""
"revaluation","185","914226","0.0-4.0-2.0-0.31","spark_pilot_norest","10612","8","17","Female","","true","","","","","[1186.5999999940395]","./assets/img/canyon/memory/37.jpg","[""ArrowUp""]","value training","canyon","-5","{""ArrowUp,ArrowLeft"":26,""ArrowUp,ArrowRight"":10,""ArrowDown,ArrowLeft"":5,""ArrowDown,ArrowRight"":17}","false","ArrowUp","false","revaluation","1","62","","",""
"html-keyboard-response","186","914733","0.0-4.0-2.0-1.31","spark_pilot_norest","10612","8","17","Female","","","","","","","null","<div style=""font-size:60px;"">+</div>","null","fixation","","","","","","","","","63","","",""
"revaluation","187","920747","0.0-4.0-2.0-0.32","spark_pilot_norest","10612","8","17","Female","","false","","","","","[1481.4000000059605,705.5999999940395]","./assets/img/canyon/memory/39.jpg","[""ArrowUp"",""ArrowRight""]","value training","canyon","10","{""ArrowUp,ArrowLeft"":26,""ArrowUp,ArrowRight"":10,""ArrowDown,ArrowLeft"":5,""ArrowDown,ArrowRight"":17}","false","ArrowUp,ArrowRight","false","revaluation","1","64","","",""
"html-keyboard-response","188","921249","0.0-4.0-2.0-1.32","spark_pilot_norest","10612","8","17","Female","","","","","","","null","<div style=""font-size:60px;"">+</div>","null","fixation","","","","","","","","","65","","",""
"revaluation","189","927259","0.0-4.0-2.0-0.33","spark_pilot_norest","10612","8","17","Female","","false","","","","","[926.8000000119209,1120.4000000059605]","./assets/img/canyon/memory/17.jpg","[""ArrowUp"",""ArrowRight""]","value training","canyon","10","{""ArrowUp,ArrowLeft"":26,""ArrowUp,ArrowRight"":10,""ArrowDown,ArrowLeft"":5,""ArrowDown,ArrowRight"":17}","false","ArrowUp,ArrowRight","false","revaluation","1","66","","",""
"html-keyboard-response","190","927765","0.0-4.0-2.0-1.33","spark_pilot_norest","10612","8","17","Female","","","","","","","null","<div style=""font-size:60px;"">+</div>","null","fixation","","","","","","","","","67","","",""
"revaluation","191","933780","0.0-4.0-2.0-0.34","spark_pilot_norest","10612","8","17","Female","","false","","","","","[683.7000000178814,631]","./assets/img/canyon/memory/38.jpg","[""ArrowDown"",""ArrowRight""]","value training","canyon","17","{""ArrowUp,ArrowLeft"":26,""ArrowUp,ArrowRight"":10,""ArrowDown,ArrowLeft"":5,""ArrowDown,ArrowRight"":17}","false","ArrowDown,ArrowRight","false","revaluation","1","68","","",""
"html-keyboard-response","192","934285","0.0-4.0-2.0-1.34","spark_pilot_norest","10612","8","17","Female","","","","","","","null","<div style=""font-size:60px;"">+</div>","null","fixation","","","","","","","","","69","","",""
"revaluation","193","940296","0.0-4.0-2.0-0.35","spark_pilot_norest","10612","8","17","Female","","false","","","","","[1647.9000000059605,838.4000000059605]","./assets/img/canyon/memory/0.jpg","[""ArrowDown"",""ArrowRight""]","value training","canyon","17","{""ArrowUp,ArrowLeft"":26,""ArrowUp,ArrowRight"":10,""ArrowDown,ArrowLeft"":5,""ArrowDown,ArrowRight"":17}","false","ArrowDown,ArrowRight","false","revaluation","1","70","","",""
"html-keyboard-response","194","940798","0.0-4.0-2.0-1.35","spark_pilot_norest","10612","8","17","Female","","","","","","","null","<div style=""font-size:60px;"">+</div>","null","fixation","","","","","","","","","71","","",""
"revaluation","195","944805","0.0-4.0-2.0-0.36","spark_pilot_norest","10612","8","17","Female","","false","","","","","[1068]","./assets/img/canyon/catch/0.jpg","[""ArrowUp""]","value training","canyon","-10","{""ArrowUp,ArrowLeft"":26,""ArrowUp,ArrowRight"":10,""ArrowDown,ArrowLeft"":5,""ArrowDown,ArrowRight"":17}","false","ArrowUp","true","revaluation","1","72","","",""
"html-keyboard-response","196","945309","0.0-4.0-2.0-1.36","spark_pilot_norest","10612","8","17","Female","","","","","","","null","<div style=""font-size:60px;"">+</div>","null","fixation","","","","","","","","","73","","",""
"revaluation","197","951326","0.0-4.0-2.0-0.37","spark_pilot_norest","10612","8","17","Female","","false","","","","","[1204.5,1359.699999988079]","./assets/img/canyon/memory/12.jpg","[""ArrowDown"",""ArrowRight""]","value training","canyon","17","{""ArrowUp,ArrowLeft"":26,""ArrowUp,ArrowRight"":10,""ArrowDown,ArrowLeft"":5,""ArrowDown,ArrowRight"":17}","false","ArrowDown,ArrowRight","false","revaluation","1","74","","",""
"html-keyboard-response","198","951832","0.0-4.0-2.0-1.37","spark_pilot_norest","10612","8","17","Female","","","","","","","null","<div style=""font-size:60px;"">+</div>","null","fixation","","","","","","","","","75","","",""
"revaluation","199","957843","0.0-4.0-2.0-0.38","spark_pilot_norest","10612","8","17","Female","","false","","","","","[1322.5999999940395,1276.0999999940395]","./assets/img/canyon/memory/35.jpg","[""ArrowDown"",""ArrowRight""]","value training","canyon","17","{""ArrowUp,ArrowLeft"":26,""ArrowUp,ArrowRight"":10,""ArrowDown,ArrowLeft"":5,""ArrowDown,ArrowRight"":17}","false","ArrowDown,ArrowRight","false","revaluation","1","76","","",""
"html-keyboard-response","200","958344","0.0-4.0-2.0-1.38","spark_pilot_norest","10612","8","17","Female","","","","","","","null","<div style=""font-size:60px;"">+</div>","null","fixation","","","","","","","","","77","","",""
"revaluation","201","964351","0.0-4.0-2.0-0.39","spark_pilot_norest","10612","8","17","Female","","false","","","","","[1000.8999999761581,960.4000000059605]","./assets/img/canyon/memory/8.jpg","[""ArrowDown"",""ArrowRight""]","value training","canyon","17","{""ArrowUp,ArrowLeft"":26,""ArrowUp,ArrowRight"":10,""ArrowDown,ArrowLeft"":5,""ArrowDown,ArrowRight"":17}","false","ArrowDown,ArrowRight","false","revaluation","1","78","","",""
"html-keyboard-response","202","964854","0.0-4.0-2.0-1.39","spark_pilot_norest","10612","8","17","Female","","","","","","","null","<div style=""font-size:60px;"">+</div>","null","fixation","","","","","","","","","79","","",""
"revaluation","203","970869","0.0-4.0-2.0-0.40","spark_pilot_norest","10612","8","17","Female","","false","","","","","[861.8000000119209,1243.199999988079]","./assets/img/canyon/memory/38.jpg","[""ArrowDown"",""ArrowRight""]","value training","canyon","17","{""ArrowUp,ArrowLeft"":26,""ArrowUp,ArrowRight"":10,""ArrowDown,ArrowLeft"":5,""ArrowDown,ArrowRight"":17}","false","ArrowDown,ArrowRight","false","revaluation","1","80","","",""
"html-keyboard-response","204","971373","0.0-4.0-2.0-1.40","spark_pilot_norest","10612","8","17","Female","","","","","","","null","<div style=""font-size:60px;"">+</div>","null","fixation","","","","","","","","","81","","",""
"revaluation","205","977390","0.0-4.0-2.0-0.41","spark_pilot_norest","10612","8","17","Female","","false","","","","","[1129.4000000059605,1697.5999999940395]","./assets/img/canyon/memory/36.jpg","[""ArrowUp"",""ArrowRight""]","value training","canyon","10","{""ArrowUp,ArrowLeft"":26,""ArrowUp,ArrowRight"":10,""ArrowDown,ArrowLeft"":5,""ArrowDown,ArrowRight"":17}","false","ArrowUp,ArrowRight","false","revaluation","1","82","","",""
"html-keyboard-response","206","977896","0.0-4.0-2.0-1.41","spark_pilot_norest","10612","8","17","Female","","","","","","","null","<div style=""font-size:60px;"">+</div>","null","fixation","","","","","","","","","83","","",""
"revaluation","207","983903","0.0-4.0-2.0-0.42","spark_pilot_norest","10612","8","17","Female","","false","","","","","[1256.300000011921,1135.4000000059605]","./assets/img/canyon/memory/21.jpg","[""ArrowDown"",""ArrowRight""]","value training","canyon","17","{""ArrowUp,ArrowLeft"":26,""ArrowUp,ArrowRight"":10,""ArrowDown,ArrowLeft"":5,""ArrowDown,ArrowRight"":17}","false","ArrowDown,ArrowRight","false","revaluation","1","84","","",""
"html-keyboard-response","208","984406","0.0-4.0-2.0-1.42","spark_pilot_norest","10612","8","17","Female","","","","","","","null","<div style=""font-size:60px;"">+</div>","null","fixation","","","","","","","","","85","","",""
"revaluation","209","990419","0.0-4.0-2.0-0.43","spark_pilot_norest","10612","8","17","Female","","false","","","","","[1457.699999988079,1033.5]","./assets/img/canyon/memory/2.jpg","[""ArrowUp"",""ArrowRight""]","value training","canyon","10","{""ArrowUp,ArrowLeft"":26,""ArrowUp,ArrowRight"":10,""ArrowDown,ArrowLeft"":5,""ArrowDown,ArrowRight"":17}","false","ArrowUp,ArrowRight","false","revaluation","1","86","","",""
"html-keyboard-response","210","990925","0.0-4.0-2.0-1.43","spark_pilot_norest","10612","8","17","Female","","","","","","","null","<div style=""font-size:60px;"">+</div>","null","fixation","","","","","","","","","87","","",""
"revaluation","211","996936","0.0-4.0-2.0-0.44","spark_pilot_norest","10612","8","17","Female","","false","","","","","[1876,1604.4000000059605]","./assets/img/canyon/memory/40.jpg","[""ArrowUp"",""ArrowRight""]","value training","canyon","10","{""ArrowUp,ArrowLeft"":26,""ArrowUp,ArrowRight"":10,""ArrowDown,ArrowLeft"":5,""ArrowDown,ArrowRight"":17}","false","ArrowUp,ArrowRight","false","revaluation","1","88","","",""
"html-keyboard-response","212","997437","0.0-4.0-2.0-1.44","spark_pilot_norest","10612","8","17","Female","","","","","","","null","<div style=""font-size:60px;"">+</div>","null","fixation","","","","","","","","","89","","",""
"revaluation","213","1003444","0.0-4.0-2.0-0.45","spark_pilot_norest","10612","8","17","Female","","false","","","","","[1683,1553.0999999940395]","./assets/img/canyon/memory/30.jpg","[""ArrowUp"",""ArrowRight""]","value training","canyon","10","{""ArrowUp,ArrowLeft"":26,""ArrowUp,ArrowRight"":10,""ArrowDown,ArrowLeft"":5,""ArrowDown,ArrowRight"":17}","false","ArrowUp,ArrowRight","false","revaluation","1","90","","",""
"html-keyboard-response","214","1003945","0.0-4.0-2.0-1.45","spark_pilot_norest","10612","8","17","Female","","","","","","","null","<div style=""font-size:60px;"">+</div>","null","fixation","","","","","","","","","91","","",""
"revaluation","215","1009953","0.0-4.0-2.0-0.46","spark_pilot_norest","10612","8","17","Female","","false","","","","","[1698.699999988079,1785.5]","./assets/img/canyon/memory/15.jpg","[""ArrowUp"",""ArrowRight""]","value training","canyon","10","{""ArrowUp,ArrowLeft"":26,""ArrowUp,ArrowRight"":10,""ArrowDown,ArrowLeft"":5,""ArrowDown,ArrowRight"":17}","false","ArrowUp,ArrowRight","false","revaluation","1","92","","",""
"html-keyboard-response","216","1010457","0.0-4.0-2.0-1.46","spark_pilot_norest","10612","8","17","Female","","","","","","","null","<div style=""font-size:60px;"">+</div>","null","fixation","","","","","","","","","93","","",""
"revaluation","217","1014463","0.0-4.0-2.0-0.47","spark_pilot_norest","10612","8","17","Female","","true","","","","","[]","./assets/img/canyon/catch/5.jpg","[]","value training","canyon","-5","{""ArrowUp,ArrowLeft"":26,""ArrowUp,ArrowRight"":10,""ArrowDown,ArrowLeft"":5,""ArrowDown,ArrowRight"":17}","false","","true","revaluation","1","94","","",""
"html-keyboard-response","218","1014968","0.0-4.0-2.0-1.47","spark_pilot_norest","10612","8","17","Female","","","","","","","null","<div style=""font-size:60px;"">+</div>","null","fixation","","","","","","","","","95","","",""
"revaluation","219","1020984","0.0-4.0-2.0-0.48","spark_pilot_norest","10612","8","17","Female","","false","","","","","[80.2000000178814,504.7000000178814]","./assets/img/canyon/memory/13.jpg","[""ArrowUp"",""ArrowRight""]","value training","canyon","10","{""ArrowUp,ArrowLeft"":26,""ArrowUp,ArrowRight"":10,""ArrowDown,ArrowLeft"":5,""ArrowDown,ArrowRight"":17}","false","ArrowUp,ArrowRight","false","revaluation","1","96","","",""
"html-keyboard-response","220","1021491","0.0-4.0-2.0-1.48","spark_pilot_norest","10612","8","17","Female","","","","","","","null","<div style=""font-size:60px;"">+</div>","null","fixation","","","","","","","","","97","","",""
"revaluation","221","1025496","0.0-4.0-2.0-0.49","spark_pilot_norest","10612","8","17","Female","","false","","","","","[1215.8999999761581]","./assets/img/canyon/catch/3.jpg","[""spaceBar""]","value training","canyon","0","{""ArrowUp,ArrowLeft"":26,""ArrowUp,ArrowRight"":10,""ArrowDown,ArrowLeft"":5,""ArrowDown,ArrowRight"":17}","true","spaceBar","true","revaluation","1","98","","",""
"html-keyboard-response","222","1025998","0.0-4.0-2.0-1.49","spark_pilot_norest","10612","8","17","Female","","","","","","","null","<div style=""font-size:60px;"">+</div>","null","fixation","","","","","","","","","99","","",""
"learning-instructions","223","1042613","0.0-4.0-3.0-0.0","spark_pilot_norest","10612","8","17","Female","","","","","","","3682.300000011921","<p> Now, you will travel with a friend who will choose whether you go up or down first. </p>
            <p> On these turns, you will just see the animal that they found. You will still get to choose which chest to search for treasure.</p>","","instructions","","","","","","","","","","","",""
"revaluation","224","1046624","0.0-4.0-4.0-0.0","spark_pilot_norest","10612","8","17","Female","","false","","","","","[1239.699999988079]","./assets/img/canyon/animals/lion.jpg","[""ArrowRight""]","revaluation","canyon","11","{""ArrowUp,ArrowLeft"":2,""ArrowUp,ArrowRight"":11,""ArrowDown,ArrowLeft"":8,""ArrowDown,ArrowRight"":27}","true","ArrowUp,ArrowRight","","revaluation","1","0","","",""
"html-keyboard-response","225","1047134","0.0-4.0-4.0-1.0","spark_pilot_norest","10612","8","17","Female","","","","","","","null","<div style=""font-size:60px;"">+</div>","null","fixation","","","","","","","","","1","","",""
"revaluation","226","1051144","0.0-4.0-4.0-0.1","spark_pilot_norest","10612","8","17","Female","","false","","","","","[710.7999999821186]","./assets/img/canyon/animals/giraffe.jpg","[""ArrowLeft""]","revaluation","canyon","8","{""ArrowUp,ArrowLeft"":2,""ArrowUp,ArrowRight"":11,""ArrowDown,ArrowLeft"":8,""ArrowDown,ArrowRight"":27}","false","ArrowDown,ArrowLeft","","revaluation","1","2","","",""
"html-keyboard-response","227","1051646","0.0-4.0-4.0-1.1","spark_pilot_norest","10612","8","17","Female","","","","","","","null","<div style=""font-size:60px;"">+</div>","null","fixation","","","","","","","","","3","","",""
"revaluation","228","1055652","0.0-4.0-4.0-0.2","spark_pilot_norest","10612","8","17","Female","","false","","","","","[505.40000000596046]","./assets/img/canyon/animals/lion.jpg","[""ArrowRight""]","revaluation","canyon","11","{""ArrowUp,ArrowLeft"":2,""ArrowUp,ArrowRight"":11,""ArrowDown,ArrowLeft"":8,""ArrowDown,ArrowRight"":27}","true","ArrowUp,ArrowRight","","revaluation","1","4","","",""
"html-keyboard-response","229","1056156","0.0-4.0-4.0-1.2","spark_pilot_norest","10612","8","17","Female","","","","","","","null","<div style=""font-size:60px;"">+</div>","null","fixation","","","","","","","","","5","","",""
"revaluation","230","1060163","0.0-4.0-4.0-0.3","spark_pilot_norest","10612","8","17","Female","","false","","","","","[1000]","./assets/img/canyon/animals/lion.jpg","[""ArrowRight""]","revaluation","canyon","11","{""ArrowUp,ArrowLeft"":2,""ArrowUp,ArrowRight"":11,""ArrowDown,ArrowLeft"":8,""ArrowDown,ArrowRight"":27}","true","ArrowUp,ArrowRight","","revaluation","1","6","","",""
"html-keyboard-response","231","1060667","0.0-4.0-4.0-1.3","spark_pilot_norest","10612","8","17","Female","","","","","","","null","<div style=""font-size:60px;"">+</div>","null","fixation","","","","","","","","","7","","",""
"revaluation","232","1064676","0.0-4.0-4.0-0.4","spark_pilot_norest","10612","8","17","Female","","false","","","","","[849.5999999940395]","./assets/img/canyon/animals/lion.jpg","[""ArrowRight""]","revaluation","canyon","11","{""ArrowUp,ArrowLeft"":2,""ArrowUp,ArrowRight"":11,""ArrowDown,ArrowLeft"":8,""ArrowDown,ArrowRight"":27}","true","ArrowUp,ArrowRight","","revaluation","1","8","","",""
"html-keyboard-response","233","1065179","0.0-4.0-4.0-1.4","spark_pilot_norest","10612","8","17","Female","","","","","","","null","<div style=""font-size:60px;"">+</div>","null","fixation","","","","","","","","","9","","",""
"revaluation","234","1069188","0.0-4.0-4.0-0.5","spark_pilot_norest","10612","8","17","Female","","false","","","","","[770.1999999880791]","./assets/img/canyon/animals/giraffe.jpg","[""ArrowRight""]","revaluation","canyon","27","{""ArrowUp,ArrowLeft"":2,""ArrowUp,ArrowRight"":11,""ArrowDown,ArrowLeft"":8,""ArrowDown,ArrowRight"":27}","true","ArrowDown,ArrowRight","","revaluation","1","10","","",""
"html-keyboard-response","235","1069689","0.0-4.0-4.0-1.5","spark_pilot_norest","10612","8","17","Female","","","","","","","null","<div style=""font-size:60px;"">+</div>","null","fixation","","","","","","","","","11","","",""
"revaluation","236","1073696","0.0-4.0-4.0-0.6","spark_pilot_norest","10612","8","17","Female","","false","","","","","[686.2000000178814]","./assets/img/canyon/animals/giraffe.jpg","[""ArrowRight""]","revaluation","canyon","27","{""ArrowUp,ArrowLeft"":2,""ArrowUp,ArrowRight"":11,""ArrowDown,ArrowLeft"":8,""ArrowDown,ArrowRight"":27}","true","ArrowDown,ArrowRight","","revaluation","1","12","","",""
"html-keyboard-response","237","1074198","0.0-4.0-4.0-1.6","spark_pilot_norest","10612","8","17","Female","","","","","","","null","<div style=""font-size:60px;"">+</div>","null","fixation","","","","","","","","","13","","",""
"revaluation","238","1078203","0.0-4.0-4.0-0.7","spark_pilot_norest","10612","8","17","Female","","false","","","","","[590.7999999821186]","./assets/img/canyon/animals/giraffe.jpg","[""ArrowLeft""]","revaluation","canyon","8","{""ArrowUp,ArrowLeft"":2,""ArrowUp,ArrowRight"":11,""ArrowDown,ArrowLeft"":8,""ArrowDown,ArrowRight"":27}","false","ArrowDown,ArrowLeft","","revaluation","1","14","","",""
"html-keyboard-response","239","1078707","0.0-4.0-4.0-1.7","spark_pilot_norest","10612","8","17","Female","","","","","","","null","<div style=""font-size:60px;"">+</div>","null","fixation","","","","","","","","","15","","",""
"revaluation","240","1082718","0.0-4.0-4.0-0.8","spark_pilot_norest","10612","8","17","Female","","false","","","","","[589.9000000059605]","./assets/img/canyon/animals/giraffe.jpg","[""ArrowRight""]","revaluation","canyon","27","{""ArrowUp,ArrowLeft"":2,""ArrowUp,ArrowRight"":11,""ArrowDown,ArrowLeft"":8,""ArrowDown,ArrowRight"":27}","true","ArrowDown,ArrowRight","","revaluation","1","16","","",""
"html-keyboard-response","241","1083225","0.0-4.0-4.0-1.8","spark_pilot_norest","10612","8","17","Female","","","","","","","null","<div style=""font-size:60px;"">+</div>","null","fixation","","","","","","","","","17","","",""
"revaluation","242","1087236","0.0-4.0-4.0-0.9","spark_pilot_norest","10612","8","17","Female","","false","","","","","[443.90000000596046]","./assets/img/canyon/animals/lion.jpg","[""ArrowRight""]","revaluation","canyon","11","{""ArrowUp,ArrowLeft"":2,""ArrowUp,ArrowRight"":11,""ArrowDown,ArrowLeft"":8,""ArrowDown,ArrowRight"":27}","true","ArrowUp,ArrowRight","","revaluation","1","18","","",""
"html-keyboard-response","243","1087742","0.0-4.0-4.0-1.9","spark_pilot_norest","10612","8","17","Female","","","","","","","null","<div style=""font-size:60px;"">+</div>","null","fixation","","","","","","","","","19","","",""
"revaluation","244","1091749","0.0-4.0-4.0-0.10","spark_pilot_norest","10612","8","17","Female","","true","","","","","[]","./assets/img/canyon/animals/giraffe.jpg","[]","revaluation","canyon","-5","{""ArrowUp,ArrowLeft"":2,""ArrowUp,ArrowRight"":11,""ArrowDown,ArrowLeft"":8,""ArrowDown,ArrowRight"":27}","false","ArrowDown","","revaluation","1","20","","",""
"html-keyboard-response","245","1092253","0.0-4.0-4.0-1.10","spark_pilot_norest","10612","8","17","Female","","","","","","","null","<div style=""font-size:60px;"">+</div>","null","fixation","","","","","","","","","21","","",""
"revaluation","246","1096260","0.0-4.0-4.0-0.11","spark_pilot_norest","10612","8","17","Female","","false","","","","","[429.60000002384186]","./assets/img/canyon/animals/giraffe.jpg","[""ArrowRight""]","revaluation","canyon","27","{""ArrowUp,ArrowLeft"":2,""ArrowUp,ArrowRight"":11,""ArrowDown,ArrowLeft"":8,""ArrowDown,ArrowRight"":27}","true","ArrowDown,ArrowRight","","revaluation","1","22","","",""
"html-keyboard-response","247","1096765","0.0-4.0-4.0-1.11","spark_pilot_norest","10612","8","17","Female","","","","","","","null","<div style=""font-size:60px;"">+</div>","null","fixation","","","","","","","","","23","","",""
"revaluation","248","1100773","0.0-4.0-4.0-0.12","spark_pilot_norest","10612","8","17","Female","","false","","","","","[814.5999999940395]","./assets/img/canyon/animals/giraffe.jpg","[""ArrowLeft""]","revaluation","canyon","8","{""ArrowUp,ArrowLeft"":2,""ArrowUp,ArrowRight"":11,""ArrowDown,ArrowLeft"":8,""ArrowDown,ArrowRight"":27}","false","ArrowDown,ArrowLeft","","revaluation","1","24","","",""
"html-keyboard-response","249","1101279","0.0-4.0-4.0-1.12","spark_pilot_norest","10612","8","17","Female","","","","","","","null","<div style=""font-size:60px;"">+</div>","null","fixation","","","","","","","","","25","","",""
"revaluation","250","1105289","0.0-4.0-4.0-0.13","spark_pilot_norest","10612","8","17","Female","","false","","","","","[473.40000000596046]","./assets/img/canyon/animals/lion.jpg","[""ArrowLeft""]","revaluation","canyon","2","{""ArrowUp,ArrowLeft"":2,""ArrowUp,ArrowRight"":11,""ArrowDown,ArrowLeft"":8,""ArrowDown,ArrowRight"":27}","false","ArrowUp,ArrowLeft","","revaluation","1","26","","",""
"html-keyboard-response","251","1105790","0.0-4.0-4.0-1.13","spark_pilot_norest","10612","8","17","Female","","","","","","","null","<div style=""font-size:60px;"">+</div>","null","fixation","","","","","","","","","27","","",""
"revaluation","252","1109801","0.0-4.0-4.0-0.14","spark_pilot_norest","10612","8","17","Female","","false","","","","","[375.69999998807907]","./assets/img/canyon/animals/lion.jpg","[""ArrowRight""]","revaluation","canyon","11","{""ArrowUp,ArrowLeft"":2,""ArrowUp,ArrowRight"":11,""ArrowDown,ArrowLeft"":8,""ArrowDown,ArrowRight"":27}","true","ArrowUp,ArrowRight","","revaluation","1","28","","",""
"html-keyboard-response","253","1110304","0.0-4.0-4.0-1.14","spark_pilot_norest","10612","8","17","Female","","","","","","","null","<div style=""font-size:60px;"">+</div>","null","fixation","","","","","","","","","29","","",""
"revaluation","254","1114311","0.0-4.0-4.0-0.15","spark_pilot_norest","10612","8","17","Female","","false","","","","","[570.8000000119209]","./assets/img/canyon/animals/lion.jpg","[""ArrowRight""]","revaluation","canyon","11","{""ArrowUp,ArrowLeft"":2,""ArrowUp,ArrowRight"":11,""ArrowDown,ArrowLeft"":8,""ArrowDown,ArrowRight"":27}","true","ArrowUp,ArrowRight","","revaluation","1","30","","",""
"html-keyboard-response","255","1114814","0.0-4.0-4.0-1.15","spark_pilot_norest","10612","8","17","Female","","","","","","","null","<div style=""font-size:60px;"">+</div>","null","fixation","","","","","","","","","31","","",""
"revaluation","256","1118825","0.0-4.0-4.0-0.16","spark_pilot_norest","10612","8","17","Female","","false","","","","","[629.7000000178814]","./assets/img/canyon/animals/giraffe.jpg","[""ArrowRight""]","revaluation","canyon","27","{""ArrowUp,ArrowLeft"":2,""ArrowUp,ArrowRight"":11,""ArrowDown,ArrowLeft"":8,""ArrowDown,ArrowRight"":27}","true","ArrowDown,ArrowRight","","revaluation","1","32","","",""
"html-keyboard-response","257","1119331","0.0-4.0-4.0-1.16","spark_pilot_norest","10612","8","17","Female","","","","","","","null","<div style=""font-size:60px;"">+</div>","null","fixation","","","","","","","","","33","","",""
"revaluation","258","1123343","0.0-4.0-4.0-0.17","spark_pilot_norest","10612","8","17","Female","","false","","","","","[636.6000000238419]","./assets/img/canyon/animals/lion.jpg","[""ArrowRight""]","revaluation","canyon","11","{""ArrowUp,ArrowLeft"":2,""ArrowUp,ArrowRight"":11,""ArrowDown,ArrowLeft"":8,""ArrowDown,ArrowRight"":27}","true","ArrowUp,ArrowRight","","revaluation","1","34","","",""
"html-keyboard-response","259","1123844","0.0-4.0-4.0-1.17","spark_pilot_norest","10612","8","17","Female","","","","","","","null","<div style=""font-size:60px;"">+</div>","null","fixation","","","","","","","","","35","","",""
"learning-instructions","260","1131997","0.0-4.0-5.0-0.0","spark_pilot_norest","10612","8","17","Female","","","","","","","null","<p> You have almost finished this part of the game! </p>
            <p> We are going to ask you to make a few more choices. </p>","","instructions","","","","","","","","","","","",""
"learning-instructions","261","1147975","0.0-4.0-5.0-0.1","spark_pilot_norest","10612","8","17","Female","","","","","","","null","<p> First, you need to decide whether to go up or down. When you see each picture, use the arrow keys to make your choice. </p>
            <p><b>You will not see which animal you found, but try to get to the one that will give you the most treasure.</b></p>","","instructions","","","","","","","","","","","",""
"html-keyboard-response","262","1148976","0.0-4.0-6.0-0.0","spark_pilot_norest","10612","8","17","Female","","","","","","","null","<div style=""font-size:100px;color:red;"">Starting in...</div>","null","","","","","","","","","","","","",""
"html-keyboard-response","263","1149979","0.0-4.0-6.0-1.0","spark_pilot_norest","10612","8","17","Female","","","","","","","null","<div style=""font-size:200px;color:red;"">3</div>","null","","","","","","","","","","","","",""
"html-keyboard-response","264","1150984","0.0-4.0-6.0-2.0","spark_pilot_norest","10612","8","17","Female","","","","","","","null","<div style=""font-size:200px;color:red;"">2</div>","null","","","","","","","","","","","","",""
"html-keyboard-response","265","1151986","0.0-4.0-6.0-3.0","spark_pilot_norest","10612","8","17","Female","","","","","","","null","<div style=""font-size:200px;color:red;"">1</div>","null","","","","","","","","","","","","",""
"revaluation","266","1153003","0.0-4.0-7.0-0.0","spark_pilot_norest","10612","8","17","Female","","false","","","","","[1014.7000000178814]","./assets/img/canyon/test/1.jpg","[""ArrowUp""]","first stage test","canyon","0","{""ArrowUp,ArrowLeft"":2,""ArrowUp,ArrowRight"":11,""ArrowDown,ArrowLeft"":8,""ArrowDown,ArrowRight"":27}","false","ArrowUp","false","revaluation","1","","","",""
"html-keyboard-response","267","1153504","0.0-4.0-7.0-1.0","spark_pilot_norest","10612","8","17","Female","","","","","","","null","<div style=""font-size:60px;"">+</div>","null","fixation","","","","","","","","","","","",""
"revaluation","268","1154386","0.0-4.0-7.0-0.1","spark_pilot_norest","10612","8","17","Female","","false","","","","","[879.5]","./assets/img/canyon/test/2.jpg","[""ArrowUp""]","first stage test","canyon","0","{""ArrowUp,ArrowLeft"":2,""ArrowUp,ArrowRight"":11,""ArrowDown,ArrowLeft"":8,""ArrowDown,ArrowRight"":27}","false","ArrowUp","false","revaluation","1","","","",""
"html-keyboard-response","269","1154891","0.0-4.0-7.0-1.1","spark_pilot_norest","10612","8","17","Female","","","","","","","null","<div style=""font-size:60px;"">+</div>","null","fixation","","","","","","","","","","","",""
"revaluation","270","1155875","0.0-4.0-7.0-0.2","spark_pilot_norest","10612","8","17","Female","","false","","","","","[982.4000000059605]","./assets/img/canyon/test/3.jpg","[""ArrowDown""]","first stage test","canyon","0","{""ArrowUp,ArrowLeft"":2,""ArrowUp,ArrowRight"":11,""ArrowDown,ArrowLeft"":8,""ArrowDown,ArrowRight"":27}","true","ArrowDown","false","revaluation","1","","","",""
"html-keyboard-response","271","1156379","0.0-4.0-7.0-1.2","spark_pilot_norest","10612","8","17","Female","","","","","","","null","<div style=""font-size:60px;"">+</div>","null","fixation","","","","","","","","","","","",""
"revaluation","272","1156878","0.0-4.0-7.0-0.3","spark_pilot_norest","10612","8","17","Female","","false","","","","","[496.5]","./assets/img/canyon/test/0.jpg","[""ArrowUp""]","first stage test","canyon","0","{""ArrowUp,ArrowLeft"":2,""ArrowUp,ArrowRight"":11,""ArrowDown,ArrowLeft"":8,""ArrowDown,ArrowRight"":27}","false","ArrowUp","false","revaluation","1","","","",""
"html-keyboard-response","273","1157383","0.0-4.0-7.0-1.3","spark_pilot_norest","10612","8","17","Female","","","","","","","null","<div style=""font-size:60px;"">+</div>","null","fixation","","","","","","","","","","","",""
"learning-instructions","274","1170731","0.0-4.0-8.0-0.0","spark_pilot_norest","10612","8","17","Female","","","","","","","null","<p> Now you will see the animals again and can search their chests for treasure. </p>
            <p> This time, you will not see how much treasure you earned, but you will earn more bonus money for making better choices. </p>","","instructions","","","","","","","","","","","",""
"html-keyboard-response","275","1171735","0.0-4.0-9.0-0.0","spark_pilot_norest","10612","8","17","Female","","","","","","","null","<div style=""font-size:100px;color:red;"">Starting in...</div>","null","","","","","","","","","","","","",""
"html-keyboard-response","276","1172740","0.0-4.0-9.0-1.0","spark_pilot_norest","10612","8","17","Female","","","","","","","null","<div style=""font-size:200px;color:red;"">3</div>","null","","","","","","","","","","","","",""
"html-keyboard-response","277","1173746","0.0-4.0-9.0-2.0","spark_pilot_norest","10612","8","17","Female","","","","","","","null","<div style=""font-size:200px;color:red;"">2</div>","null","","","","","","","","","","","","",""
"html-keyboard-response","278","1174749","0.0-4.0-9.0-3.0","spark_pilot_norest","10612","8","17","Female","","","","","","","null","<div style=""font-size:200px;color:red;"">1</div>","null","","","","","","","","","","","","",""
"revaluation","279","1175476","0.0-4.0-10.0-0.0","spark_pilot_norest","10612","8","17","Female","","false","","","","","[725]","./assets/img/canyon/animals/lion.jpg","[""ArrowRight""]","second stage test","canyon","0","{""ArrowUp,ArrowLeft"":2,""ArrowUp,ArrowRight"":11,""ArrowDown,ArrowLeft"":8,""ArrowDown,ArrowRight"":27}","true","ArrowUp,ArrowRight","","revaluation","1","","","",""
"html-keyboard-response","280","1175981","0.0-4.0-10.0-1.0","spark_pilot_norest","10612","8","17","Female","","","","","","","null","<div style=""font-size:60px;"">+</div>","null","fixation","","","","","","","","","","","",""
"revaluation","281","1176739","0.0-4.0-10.0-0.1","spark_pilot_norest","10612","8","17","Female","","false","","","","","[754.6999999880791]","./assets/img/canyon/animals/lion.jpg","[""ArrowRight""]","second stage test","canyon","0","{""ArrowUp,ArrowLeft"":2,""ArrowUp,ArrowRight"":11,""ArrowDown,ArrowLeft"":8,""ArrowDown,ArrowRight"":27}","true","ArrowUp,ArrowRight","","revaluation","1","","","",""
"html-keyboard-response","282","1177243","0.0-4.0-10.0-1.1","spark_pilot_norest","10612","8","17","Female","","","","","","","null","<div style=""font-size:60px;"">+</div>","null","fixation","","","","","","","","","","","",""
"revaluation","283","1178019","0.0-4.0-10.0-0.2","spark_pilot_norest","10612","8","17","Female","","false","","","","","[772.5]","./assets/img/canyon/animals/lion.jpg","[""ArrowRight""]","second stage test","canyon","0","{""ArrowUp,ArrowLeft"":2,""ArrowUp,ArrowRight"":11,""ArrowDown,ArrowLeft"":8,""ArrowDown,ArrowRight"":27}","true","ArrowUp,ArrowRight","","revaluation","1","","","",""
"html-keyboard-response","284","1178523","0.0-4.0-10.0-1.2","spark_pilot_norest","10612","8","17","Female","","","","","","","null","<div style=""font-size:60px;"">+</div>","null","fixation","","","","","","","","","","","",""
"revaluation","285","1180635","0.0-4.0-10.0-0.3","spark_pilot_norest","10612","8","17","Female","","false","","","","","[2110.100000023842]","./assets/img/canyon/animals/lion.jpg","[""ArrowRight""]","second stage test","canyon","0","{""ArrowUp,ArrowLeft"":2,""ArrowUp,ArrowRight"":11,""ArrowDown,ArrowLeft"":8,""ArrowDown,ArrowRight"":27}","true","ArrowUp,ArrowRight","","revaluation","1","","","",""
"html-keyboard-response","286","1181141","0.0-4.0-10.0-1.3","spark_pilot_norest","10612","8","17","Female","","","","","","","null","<div style=""font-size:60px;"">+</div>","null","fixation","","","","","","","","","","","",""
"revaluation","287","1182058","0.0-4.0-10.0-0.4","spark_pilot_norest","10612","8","17","Female","","false","","","","","[914.6000000238419]","./assets/img/canyon/animals/giraffe.jpg","[""ArrowLeft""]","second stage test","canyon","0","{""ArrowUp,ArrowLeft"":2,""ArrowUp,ArrowRight"":11,""ArrowDown,ArrowLeft"":8,""ArrowDown,ArrowRight"":27}","false","ArrowDown,ArrowLeft","","revaluation","1","","","",""
"html-keyboard-response","288","1182560","0.0-4.0-10.0-1.4","spark_pilot_norest","10612","8","17","Female","","","","","","","null","<div style=""font-size:60px;"">+</div>","null","fixation","","","","","","","","","","","",""
"revaluation","289","1183806","0.0-4.0-10.0-0.5","spark_pilot_norest","10612","8","17","Female","","false","","","","","[1243.9000000059605]","./assets/img/canyon/animals/giraffe.jpg","[""ArrowLeft""]","second stage test","canyon","0","{""ArrowUp,ArrowLeft"":2,""ArrowUp,ArrowRight"":11,""ArrowDown,ArrowLeft"":8,""ArrowDown,ArrowRight"":27}","false","ArrowDown,ArrowLeft","","revaluation","1","","","",""
"html-keyboard-response","290","1184308","0.0-4.0-10.0-1.5","spark_pilot_norest","10612","8","17","Female","","","","","","","null","<div style=""font-size:60px;"">+</div>","null","fixation","","","","","","","","","","","",""
"revaluation","291","1185445","0.0-4.0-10.0-0.6","spark_pilot_norest","10612","8","17","Female","","false","","","","","[1135.199999988079]","./assets/img/canyon/animals/giraffe.jpg","[""ArrowLeft""]","second stage test","canyon","0","{""ArrowUp,ArrowLeft"":2,""ArrowUp,ArrowRight"":11,""ArrowDown,ArrowLeft"":8,""ArrowDown,ArrowRight"":27}","false","ArrowDown,ArrowLeft","","revaluation","1","","","",""
"html-keyboard-response","292","1185947","0.0-4.0-10.0-1.6","spark_pilot_norest","10612","8","17","Female","","","","","","","null","<div style=""font-size:60px;"">+</div>","null","fixation","","","","","","","","","","","",""
"revaluation","293","1187672","0.0-4.0-10.0-0.7","spark_pilot_norest","10612","8","17","Female","","false","","","","","[1722.5999999940395]","./assets/img/canyon/animals/giraffe.jpg","[""ArrowLeft""]","second stage test","canyon","0","{""ArrowUp,ArrowLeft"":2,""ArrowUp,ArrowRight"":11,""ArrowDown,ArrowLeft"":8,""ArrowDown,ArrowRight"":27}","false","ArrowDown,ArrowLeft","","revaluation","1","","","",""
"html-keyboard-response","294","1188176","0.0-4.0-10.0-1.7","spark_pilot_norest","10612","8","17","Female","","","","","","","null","<div style=""font-size:60px;"">+</div>","null","fixation","","","","","","","","","","","",""
"learning-instructions","295","1194972","0.0-4.0-0.1-0.2","spark_pilot_norest","10612","8","17","Female","","","","","","","4091.899999976158","<p> This time you are searching for treasure in the <b>ocean</b>.</p>","","instructions","","","","","","","","","","","",""
"learning-instructions","296","1269585","0.0-4.0-0.1-0.3","spark_pilot_norest","10612","8","17","Female","","","","","","","57360.69999998808","<p><b>New</b> animals with <b>new</b> treasure chests live here. You need to explore to discover where the animal with the best treasure chest is.</p>
                    <p> Like before, once you figure out which animal has the chest with the most treasure, you should try to get to that animal and select that chest! </p>","","instructions","","","","","","","","","","","",""
"learning-instructions","297","1297326","0.0-4.0-1.1-0.1","spark_pilot_norest","10612","8","17","Female","","","","","","","12959.90000000596","<p> Remember, when you see a picture of the place, use the up and down keys to <b>find an animal</b>.</p>
            <p> When you encounter an animal, you should use the left and right keys to <b>select a treasure chest</b>.</p>
            <p> Don't forget to look out for the robber! </p>","","instructions","","","","","","","","","","","",""
"revaluation","298","1303345","0.0-4.0-2.1-0.50","spark_pilot_norest","10612","8","17","Female","","false","","","","","[1143.5999999940395,1550]","./assets/img/ocean/memory/12.jpg","[""ArrowUp"",""ArrowRight""]","value training","ocean","10","{""ArrowUp,ArrowLeft"":23,""ArrowUp,ArrowRight"":10,""ArrowDown,ArrowLeft"":8,""ArrowDown,ArrowRight"":30}","false","ArrowUp,ArrowRight","false","original","2","0","","",""
"html-keyboard-response","299","1303848","0.0-4.0-2.1-1.50","spark_pilot_norest","10612","8","17","Female","","","","","","","null","<div style=""font-size:60px;"">+</div>","null","fixation","","","","","","","","","1","","",""
"revaluation","300","1309856","0.0-4.0-2.1-0.51","spark_pilot_norest","10612","8","17","Female","","false","","","","","[449.59999999403954,933]","./assets/img/ocean/memory/17.jpg","[""ArrowUp"",""ArrowRight""]","value training","ocean","10","{""ArrowUp,ArrowLeft"":23,""ArrowUp,ArrowRight"":10,""ArrowDown,ArrowLeft"":8,""ArrowDown,ArrowRight"":30}","false","ArrowUp,ArrowRight","false","original","2","2","","",""
"html-keyboard-response","301","1310360","0.0-4.0-2.1-1.51","spark_pilot_norest","10612","8","17","Female","","","","","","","null","<div style=""font-size:60px;"">+</div>","null","fixation","","","","","","","","","3","","",""
"revaluation","302","1316372","0.0-4.0-2.1-0.52","spark_pilot_norest","10612","8","17","Female","","false","","","","","[1134.0999999940395,829.6999999880791]","./assets/img/ocean/memory/40.jpg","[""ArrowUp"",""ArrowRight""]","value training","ocean","10","{""ArrowUp,ArrowLeft"":23,""ArrowUp,ArrowRight"":10,""ArrowDown,ArrowLeft"":8,""ArrowDown,ArrowRight"":30}","false","ArrowUp,ArrowRight","false","original","2","4","","",""
"html-keyboard-response","303","1316873","0.0-4.0-2.1-1.52","spark_pilot_norest","10612","8","17","Female","","","","","","","null","<div style=""font-size:60px;"">+</div>","null","fixation","","","","","","","","","5","","",""
"revaluation","304","1322888","0.0-4.0-2.1-0.53","spark_pilot_norest","10612","8","17","Female","","false","","","","","[1023,653.3999999761581]","./assets/img/ocean/memory/9.jpg","[""ArrowDown"",""ArrowRight""]","value training","ocean","30","{""ArrowUp,ArrowLeft"":23,""ArrowUp,ArrowRight"":10,""ArrowDown,ArrowLeft"":8,""ArrowDown,ArrowRight"":30}","true","ArrowDown,ArrowRight","false","original","2","6","","",""
"html-keyboard-response","305","1323392","0.0-4.0-2.1-1.53","spark_pilot_norest","10612","8","17","Female","","","","","","","null","<div style=""font-size:60px;"">+</div>","null","fixation","","","","","","","","","7","","",""
"revaluation","306","1327398","0.0-4.0-2.1-0.54","spark_pilot_norest","10612","8","17","Female","","false","","","","","[1642.5999999940395]","./assets/img/ocean/catch/3.jpg","[""spaceBar""]","value training","ocean","0","{""ArrowUp,ArrowLeft"":23,""ArrowUp,ArrowRight"":10,""ArrowDown,ArrowLeft"":8,""ArrowDown,ArrowRight"":30}","true","spaceBar","true","original","2","8","","",""
"html-keyboard-response","307","1327900","0.0-4.0-2.1-1.54","spark_pilot_norest","10612","8","17","Female","","","","","","","null","<div style=""font-size:60px;"">+</div>","null","fixation","","","","","","","","","9","","",""
"revaluation","308","1333908","0.0-4.0-2.1-0.55","spark_pilot_norest","10612","8","17","Female","","false","","","","","[1130.2000000178814,1005.8000000119209]","./assets/img/ocean/memory/36.jpg","[""ArrowDown"",""ArrowRight""]","value training","ocean","30","{""ArrowUp,ArrowLeft"":23,""ArrowUp,ArrowRight"":10,""ArrowDown,ArrowLeft"":8,""ArrowDown,ArrowRight"":30}","true","ArrowDown,ArrowRight","false","original","2","10","","",""
"html-keyboard-response","309","1334410","0.0-4.0-2.1-1.55","spark_pilot_norest","10612","8","17","Female","","","","","","","null","<div style=""font-size:60px;"">+</div>","null","fixation","","","","","","","","","11","","",""
"revaluation","310","1340426","0.0-4.0-2.1-0.56","spark_pilot_norest","10612","8","17","Female","","false","","","","","[1500.4000000059605,1883.699999988079]","./assets/img/ocean/memory/21.jpg","[""ArrowDown"",""ArrowRight""]","value training","ocean","30","{""ArrowUp,ArrowLeft"":23,""ArrowUp,ArrowRight"":10,""ArrowDown,ArrowLeft"":8,""ArrowDown,ArrowRight"":30}","true","ArrowDown,ArrowRight","false","original","2","12","","",""
"html-keyboard-response","311","1340929","0.0-4.0-2.1-1.56","spark_pilot_norest","10612","8","17","Female","","","","","","","null","<div style=""font-size:60px;"">+</div>","null","fixation","","","","","","","","","13","","",""
