"trial_type","trial_index","time_elapsed","internal_node_id","task_version","subject_id","assigned_condition","age","gender","success","timeout","failed_images","failed_audio","failed_video","browser_interaction","rt","stimulus","response","task_part","environment","score","rewardMap","correct","fullState","isCatch","condition","order","trial_num","key_press","ground_truth","bonus"
"pavlovia","0","1020","0.0-0.0","spark_pilot_norest","8595","8","12","Male","","","","","","","","","","","","","","","","","","","","","",""
"preload","1","61422","0.0-1.0","spark_pilot_norest","8595","8","12","Male","true","false","[]","[]","[]","[{""event"":""fullscreenenter"",""trial"":2,""time"":68808}]","","","","","","","","","","","","","","","",""
"fullscreen","2","69795","0.0-2.0","spark_pilot_norest","8595","8","12","Male","true","","","","","","","","","","","","","","","","","","","","",""
"audio-button-response","3","81572","0.0-3.0-0.0-0.0","spark_pilot_norest","8595","8","12","Male","","","","","","","11139","./assets/audio/audiotest/turtle.mp3","4","audio_test","","","","","","","","","","","",""
"audio-button-response","4","84971","0.0-3.0-0.1-0.1","spark_pilot_norest","8595","8","12","Male","","","","","","","2389","./assets/audio/audiotest/turtle.mp3","2","audio_test","","","","","","","","","","","",""
"learning-instructions","5","94650","0.0-3.0-1.0-0.0","spark_pilot_norest","8595","8","12","Male","","","","","","","2699.60000000149","<p> Welcome! Please remember to stay in fullscreen mode and don't click away from the experiment. </p>","","instructions","","","","","","","","","","","",""
"learning-instructions","6","106088","0.0-3.0-1.0-0.1","spark_pilot_norest","8595","8","12","Male","","","","","","","3030","<p> Today you will be playing a game to earn treasure. </p>
            <p> At the end of the experiment, you will earn a bonus based on how much treasure you find. </p>
            <img src='./assets/img/instructions/treasure.jpg' class='instructions-image'>","","instructions","","","","","","","","","","","",""
"learning-instructions","7","116332","0.0-3.0-1.0-0.2","spark_pilot_norest","8595","8","12","Male","","","","","","","1983.2000000029802","<p> Animals have hidden treasure in treasure chests. </p>
            <p> You need to first find an animal and then choose which of their treasure chests to search. </p>
            <img src='./assets/img/space/animals/cat.jpg' class='instructions-image'>","","instructions","","","","","","","","","","","",""
"learning-instructions","8","131476","0.0-3.0-1.0-0.3","spark_pilot_norest","8595","8","12","Male","","","","","","","1997.9000000059605","<p> In each round, you will search for treasure in a different place. In the real game, there will be two rounds. </p>
            <p> You will begin with a separate, practice round where you will search for treasure in outer space. </p>
            <img src='./assets/img/space/0.jpg' class='instructions-image'>","","instructions","","","","","","","","","","","",""
"learning-instructions","9","144237","0.0-3.0-1.0-0.4","spark_pilot_norest","8595","8","12","Male","","","","","","","1358.3000000044703","<p> On every turn, you will see a picture of the place that you are in, but the specific image may be different each time. </p>
            <p> For example, both of these images mean you are in outer space. </p>
            <img src='./assets/img/instructions/outerspace.jpg' class='instructions-image'>","","instructions","","","","","","","","","","","",""
"learning-instructions","10","153533","0.0-3.0-1.0-0.5","spark_pilot_norest","8595","8","12","Male","","","","","","","1473.5","<p> You need to decide which direction to travel in. </p>
            <p> You can choose between going <b>up or down</b> by using the arrow keys. </p>
            <img src='./assets/img/instructions/updown.jpg' class='instructions-image'>","","instructions","","","","","","","","","","","",""
"learning-instructions","11","163885","0.0-3.0-1.0-0.6","spark_pilot_norest","8595","8","12","Male","","","","","","","1546.7000000029802","<p> You will have <b>2 seconds</b> to make your choice. </p>
            <p> If you do not make a choice within 2 seconds, you will not find an animal or earn treasure. </p>
            <img src='./assets/img/instructions/2seconds.jpg' class='instructions-image'>","","instructions","","","","","","","","","","","",""
"learning-instructions","12","172337","0.0-3.0-1.0-0.7","spark_pilot_norest","8595","8","12","Male","","","","","","","1428.2000000029802","<p> Let’s try practicing that now! </p>
            <p> When you see a picture of the place you are in, press the <b>up</b> key to travel up. </p>
            <img src='./assets/img/instructions/pressUp.jpg' class='instructions-image'>","","instructions","","","","","","","","","","","",""
"revaluation","13","176368","0.0-3.0-2.0-0.0","spark_pilot_norest","8595","8","12","Male","","false","","","","","[1129.8999999985099]","./assets/img/space/0.jpg","[""ArrowUp""]","first stage practice","space","0","null","null","ArrowUp","false","","","","","",""
"html-keyboard-response","14","176881","0.0-3.0-2.0-1.0","spark_pilot_norest","8595","8","12","Male","","","","","","","null","<div style=""font-size:60px;"">+</div>","null","fixation","","","","","","","","","","","",""
"revaluation","15","180913","0.0-3.0-2.0-0.1","spark_pilot_norest","8595","8","12","Male","","false","","","","","[1811.1000000014901]","./assets/img/space/1.jpg","[""ArrowUp""]","first stage practice","space","0","null","null","ArrowUp","false","","","","","",""
"html-keyboard-response","16","181429","0.0-3.0-2.0-1.1","spark_pilot_norest","8595","8","12","Male","","","","","","","null","<div style=""font-size:60px;"">+</div>","null","fixation","","","","","","","","","","","",""
"revaluation","17","185456","0.0-3.0-2.0-0.2","spark_pilot_norest","8595","8","12","Male","","false","","","","","[192.90000000596046]","./assets/img/space/2.jpg","[""ArrowUp""]","first stage practice","space","0","null","null","ArrowUp","false","","","","","",""
"html-keyboard-response","18","185973","0.0-3.0-2.0-1.2","spark_pilot_norest","8595","8","12","Male","","","","","","","null","<div style=""font-size:60px;"">+</div>","null","fixation","","","","","","","","","","","",""
"learning-instructions","19","191065","0.0-3.0-3.0-0.0","spark_pilot_norest","8595","8","12","Male","","","","","","","395.5","<p> Great job! Now try pressing the <b>down</b> key to travel down. </p>
            <img src='./assets/img/instructions/pressDown.jpg' class='instructions-image'>","","instructions","","","","","","","","","","","",""
"revaluation","20","195081","0.0-3.0-4.0-0.0","spark_pilot_norest","8595","8","12","Male","","false","","","","","[1215.1999999955297]","./assets/img/space/3.jpg","[""ArrowDown""]","first stage practice","space","0","null","null","ArrowDown","false","","","","","",""
"html-keyboard-response","21","195595","0.0-3.0-4.0-1.0","spark_pilot_norest","8595","8","12","Male","","","","","","","null","<div style=""font-size:60px;"">+</div>","null","fixation","","","","","","","","","","","",""
"revaluation","22","199616","0.0-3.0-4.0-0.1","spark_pilot_norest","8595","8","12","Male","","false","","","","","[170.39999999850988]","./assets/img/space/4.jpg","[""ArrowDown""]","first stage practice","space","0","null","null","ArrowDown","false","","","","","",""
"html-keyboard-response","23","200132","0.0-3.0-4.0-1.1","spark_pilot_norest","8595","8","12","Male","","","","","","","null","<div style=""font-size:60px;"">+</div>","null","fixation","","","","","","","","","","","",""
"revaluation","24","204155","0.0-3.0-4.0-0.2","spark_pilot_norest","8595","8","12","Male","","false","","","","","[240]","./assets/img/space/5.jpg","[""ArrowDown""]","first stage practice","space","0","null","null","ArrowDown","false","","","","","",""
"html-keyboard-response","25","204656","0.0-3.0-4.0-1.2","spark_pilot_norest","8595","8","12","Male","","","","","","","null","<div style=""font-size:60px;"">+</div>","null","fixation","","","","","","","","","","","",""
"learning-instructions","26","216746","0.0-3.0-5.0-0.0","spark_pilot_norest","8595","8","12","Male","","","","","","","2236.5999999940395","<p> The animals don’t move, so the animal in the upper part of a place will stay in the upper part of a place, and the animal in the lower part of a place will stay in the lower part of a place. </p>","","instructions","","","","","","","","","","","",""
"learning-instructions","27","227674","0.0-3.0-5.0-0.1","spark_pilot_norest","8595","8","12","Male","","","","","","","1806","<p> Each animal has two treasure chests for you to choose from. </p>
            <p> The amount of treasure in each chest can range from <b> 0 to 40 pieces.</b></p>","","instructions","","","","","","","","","","","",""
"learning-instructions","28","242906","0.0-3.0-5.0-0.2","spark_pilot_norest","8595","8","12","Male","","","","","","","4046.89999999851","<p> You should decide which chest to search for treasure by using the <b>left</b> and <b>right</b> arrow keys. </p>
            <p><b> Pay attention to which animal is on the screen, as the animals have different treasure chests. </b></p>
            <img src='./assets/img/instructions/leftright.jpg' class='instructions-image'>","","instructions","","","","","","","","","","","",""
"learning-instructions","29","250989","0.0-3.0-5.0-0.3","spark_pilot_norest","8595","8","12","Male","","","","","","","1720.7999999970198","<p> Let’s try practicing that now. </p>
            <p> When you see an animal, choose which chest to search for treasure. </p>
            <img src='./assets/img/instructions/chooseChest.jpg' class='instructions-image'>","","instructions","","","","","","","","","","","",""
"revaluation","30","255016","0.0-3.0-6.0-0.0","spark_pilot_norest","8595","8","12","Male","","false","","","","","[1048]","./assets/img/space/animals/cat.jpg","[""ArrowRight""]","second stage practice","space","36","{""ArrowUp,ArrowLeft"":3,""ArrowUp,ArrowRight"":36,""ArrowDown,ArrowLeft"":15,""ArrowDown,ArrowRight"":23}","true","ArrowUp,ArrowRight","","","","","","",""
"html-keyboard-response","31","255529","0.0-3.0-6.0-1.0","spark_pilot_norest","8595","8","12","Male","","","","","","","null","<div style=""font-size:60px;"">+</div>","null","fixation","","","","","","","","","","","",""
"revaluation","32","259551","0.0-3.0-6.0-0.1","spark_pilot_norest","8595","8","12","Male","","false","","","","","[500.59999999403954]","./assets/img/space/animals/rabbit.jpg","[""ArrowLeft""]","second stage practice","space","15","{""ArrowUp,ArrowLeft"":3,""ArrowUp,ArrowRight"":36,""ArrowDown,ArrowLeft"":15,""ArrowDown,ArrowRight"":23}","false","ArrowDown,ArrowLeft","","","","","","",""
"html-keyboard-response","33","260067","0.0-3.0-6.0-1.1","spark_pilot_norest","8595","8","12","Male","","","","","","","null","<div style=""font-size:60px;"">+</div>","null","fixation","","","","","","","","","","","",""
"revaluation","34","264083","0.0-3.0-6.0-0.2","spark_pilot_norest","8595","8","12","Male","","false","","","","","[387.20000000298023]","./assets/img/space/animals/cat.jpg","[""ArrowRight""]","second stage practice","space","36","{""ArrowUp,ArrowLeft"":3,""ArrowUp,ArrowRight"":36,""ArrowDown,ArrowLeft"":15,""ArrowDown,ArrowRight"":23}","true","ArrowUp,ArrowRight","","","","","","",""
"html-keyboard-response","35","264596","0.0-3.0-6.0-1.2","spark_pilot_norest","8595","8","12","Male","","","","","","","null","<div style=""font-size:60px;"">+</div>","null","fixation","","","","","","","","","","","",""
"revaluation","36","268612","0.0-3.0-6.0-0.3","spark_pilot_norest","8595","8","12","Male","","false","","","","","[314.70000000298023]","./assets/img/space/animals/rabbit.jpg","[""ArrowRight""]","second stage practice","space","23","{""ArrowUp,ArrowLeft"":3,""ArrowUp,ArrowRight"":36,""ArrowDown,ArrowLeft"":15,""ArrowDown,ArrowRight"":23}","true","ArrowDown,ArrowRight","","","","","","",""
"html-keyboard-response","37","269113","0.0-3.0-6.0-1.3","spark_pilot_norest","8595","8","12","Male","","","","","","","null","<div style=""font-size:60px;"">+</div>","null","fixation","","","","","","","","","","","",""
"learning-instructions","38","286329","0.0-3.0-7.0-0.0","spark_pilot_norest","8595","8","12","Male","","","","","","","411.09999999403954","<p> Great job. Now let’s try putting it together. </p>
            <p> On each turn, you will first see a picture to remind you of the place you are in, and you need to choose whether to go up or down. </p>
            <p> Then you will see an animal and choose which of its chests to search for treasure. </p>","","instructions","","","","","","","","","","","",""
"learning-instructions","39","303081","0.0-3.0-7.0-0.1","spark_pilot_norest","8595","8","12","Male","","","","","","","8482.70000000298","<p> When you choose whether to go up or down, try to go to the animal with the chest with the most treasure. </p>
            <p> Try practicing that now! </p>","","instructions","","","","","","","","","","","",""
"revaluation","40","309114","0.0-3.0-8.0-0.0","spark_pilot_norest","8595","8","12","Male","","false","","","","","[738.2000000029802,417.3999999985099]","./assets/img/space/6.jpg","[""ArrowUp"",""ArrowRight""]","full practice","space","36","{""ArrowUp,ArrowLeft"":3,""ArrowUp,ArrowRight"":36,""ArrowDown,ArrowLeft"":15,""ArrowDown,ArrowRight"":23}","true","ArrowUp,ArrowRight","false","","","","","",""
"html-keyboard-response","41","309616","0.0-3.0-8.0-1.0","spark_pilot_norest","8595","8","12","Male","","","","","","","null","<div style=""font-size:60px;"">+</div>","null","fixation","","","","","","","","","","","",""
"revaluation","42","315652","0.0-3.0-8.0-0.1","spark_pilot_norest","8595","8","12","Male","","false","","","","","[420.79999999701977,596]","./assets/img/space/7.jpg","[""ArrowUp"",""ArrowRight""]","full practice","space","36","{""ArrowUp,ArrowLeft"":3,""ArrowUp,ArrowRight"":36,""ArrowDown,ArrowLeft"":15,""ArrowDown,ArrowRight"":23}","true","ArrowUp,ArrowRight","false","","","","","",""
"html-keyboard-response","43","316155","0.0-3.0-8.0-1.1","spark_pilot_norest","8595","8","12","Male","","","","","","","null","<div style=""font-size:60px;"">+</div>","null","fixation","","","","","","","","","","","",""
"revaluation","44","322196","0.0-3.0-8.0-0.2","spark_pilot_norest","8595","8","12","Male","","false","","","","","[329.6000000014901,452.70000000298023]","./assets/img/space/8.jpg","[""ArrowUp"",""ArrowRight""]","full practice","space","36","{""ArrowUp,ArrowLeft"":3,""ArrowUp,ArrowRight"":36,""ArrowDown,ArrowLeft"":15,""ArrowDown,ArrowRight"":23}","true","ArrowUp,ArrowRight","false","","","","","",""
"html-keyboard-response","45","322710","0.0-3.0-8.0-1.2","spark_pilot_norest","8595","8","12","Male","","","","","","","null","<div style=""font-size:60px;"">+</div>","null","fixation","","","","","","","","","","","",""
"revaluation","46","328734","0.0-3.0-8.0-0.3","spark_pilot_norest","8595","8","12","Male","","false","","","","","[698.3999999985099,509.20000000298023]","./assets/img/space/9.jpg","[""ArrowUp"",""ArrowLeft""]","full practice","space","3","{""ArrowUp,ArrowLeft"":3,""ArrowUp,ArrowRight"":36,""ArrowDown,ArrowLeft"":15,""ArrowDown,ArrowRight"":23}","false","ArrowUp,ArrowLeft","false","","","","","",""
"html-keyboard-response","47","329236","0.0-3.0-8.0-1.3","spark_pilot_norest","8595","8","12","Male","","","","","","","null","<div style=""font-size:60px;"">+</div>","null","fixation","","","","","","","","","","","",""
"revaluation","48","335244","0.0-3.0-8.0-0.4","spark_pilot_norest","8595","8","12","Male","","false","","","","","[610.5,422.6000000014901]","./assets/img/space/10.jpg","[""ArrowUp"",""ArrowRight""]","full practice","space","36","{""ArrowUp,ArrowLeft"":3,""ArrowUp,ArrowRight"":36,""ArrowDown,ArrowLeft"":15,""ArrowDown,ArrowRight"":23}","true","ArrowUp,ArrowRight","false","","","","","",""
"html-keyboard-response","49","335745","0.0-3.0-8.0-1.4","spark_pilot_norest","8595","8","12","Male","","","","","","","null","<div style=""font-size:60px;"">+</div>","null","fixation","","","","","","","","","","","",""
"learning-instructions","50","350494","0.0-3.0-9.0-0.0","spark_pilot_norest","8595","8","12","Male","","","","","","","3397.4000000059605","<p> One last thing: sometimes, you will see a robber. The robber can be anywhere in the picture. </p>
            <p> If you do not stop them, you will lose treasure. </p>
            <img src='./assets/img/instructions/robber.jpg' class='instructions-image'>","","instructions","","","","","","","","","","","",""
"learning-instructions","51","358924","0.0-3.0-9.0-0.1","spark_pilot_norest","8595","8","12","Male","","","","","","","1257.3999999985099","<p> If you see the robber, you should <b>press the space bar</b> rather than using the arrow keys. </p>
            <p> Try practicing that now! </p>","","instructions","","","","","","","","","","","",""
"revaluation","52","362954","0.0-3.0-10.0-0.0","spark_pilot_norest","8595","8","12","Male","","false","","","","","[514.6999999955297]","./assets/img/space/catch/0.jpg","[""spaceBar""]","catch practice","space","0","{""ArrowUp,ArrowLeft"":3,""ArrowUp,ArrowRight"":36,""ArrowDown,ArrowLeft"":15,""ArrowDown,ArrowRight"":23}","true","spaceBar","true","","","","","",""
"html-keyboard-response","53","363469","0.0-3.0-10.0-1.0","spark_pilot_norest","8595","8","12","Male","","","","","","","null","<div style=""font-size:60px;"">+</div>","null","fixation","","","","","","","","","","","",""
"revaluation","54","367488","0.0-3.0-10.0-0.1","spark_pilot_norest","8595","8","12","Male","","false","","","","","[206.30000000447035]","./assets/img/space/catch/1.jpg","[""spaceBar""]","catch practice","space","0","{""ArrowUp,ArrowLeft"":3,""ArrowUp,ArrowRight"":36,""ArrowDown,ArrowLeft"":15,""ArrowDown,ArrowRight"":23}","true","spaceBar","true","","","","","",""
"html-keyboard-response","55","368002","0.0-3.0-10.0-1.1","spark_pilot_norest","8595","8","12","Male","","","","","","","null","<div style=""font-size:60px;"">+</div>","null","fixation","","","","","","","","","","","",""
"revaluation","56","372018","0.0-3.0-10.0-0.2","spark_pilot_norest","8595","8","12","Male","","false","","","","","[81.39999999850988]","./assets/img/space/catch/2.jpg","[""spaceBar""]","catch practice","space","0","{""ArrowUp,ArrowLeft"":3,""ArrowUp,ArrowRight"":36,""ArrowDown,ArrowLeft"":15,""ArrowDown,ArrowRight"":23}","true","spaceBar","true","","","","","",""
"html-keyboard-response","57","372533","0.0-3.0-10.0-1.2","spark_pilot_norest","8595","8","12","Male","","","","","","","null","<div style=""font-size:60px;"">+</div>","null","fixation","","","","","","","","","","","",""
"learning-instructions","58","378540","0.0-3.0-11.0-0.0-0.0","spark_pilot_norest","8595","8","12","Male","","","","","","","754.1000000014901","<p> Now, you will practice a shortened version of the game to get a sense of how it all fits together. </p>","","instructions","","","","","","","","","","","",""
"learning-instructions","59","382428","0.0-3.0-11.0-0.0-0.1","spark_pilot_norest","8595","8","12","Male","","","","","","","711.7999999970198","<p>This time you are searching for treasure in outer space.</p>","","instructions","","","","","","","","","","","",""
"learning-instructions","60","400416","0.0-3.0-11.0-1.0-0.0","spark_pilot_norest","8595","8","12","Male","","","","","","","3230.7999999970198","<p> Remember, when you see a picture of the place, use the up and down keys to <b>find an animal</b>.</p>
            <p> When you encounter an animal, you should use the left and right keys to <b>select a treasure chest</b>.</p>
            <p> Don't forget to look out for the robber! </p>","","instructions","","","","","","","","","","","",""
"revaluation","61","406438","0.0-3.0-11.0-2.0-0.0","spark_pilot_norest","8595","8","12","Male","","false","","","","","[1334.3999999985099,556.3999999985099]","./assets/img/space/11.jpg","[""ArrowUp"",""ArrowRight""]","practice block","space","36","{""ArrowUp,ArrowLeft"":3,""ArrowUp,ArrowRight"":36,""ArrowDown,ArrowLeft"":15,""ArrowDown,ArrowRight"":23}","true","ArrowUp,ArrowRight","false","","","","","",""
"html-keyboard-response","62","406941","0.0-3.0-11.0-2.0-1.0","spark_pilot_norest","8595","8","12","Male","","","","","","","null","<div style=""font-size:60px;"">+</div>","null","fixation","","","","","","","","","","","",""
"revaluation","63","412969","0.0-3.0-11.0-2.0-0.1","spark_pilot_norest","8595","8","12","Male","","false","","","","","[598,320]","./assets/img/space/12.jpg","[""ArrowUp"",""ArrowRight""]","practice block","space","36","{""ArrowUp,ArrowLeft"":3,""ArrowUp,ArrowRight"":36,""ArrowDown,ArrowLeft"":15,""ArrowDown,ArrowRight"":23}","true","ArrowUp,ArrowRight","false","","","","","",""
"html-keyboard-response","64","413484","0.0-3.0-11.0-2.0-1.1","spark_pilot_norest","8595","8","12","Male","","","","","","","null","<div style=""font-size:60px;"">+</div>","null","fixation","","","","","","","","","","","",""
"revaluation","65","419525","0.0-3.0-11.0-2.0-0.2","spark_pilot_norest","8595","8","12","Male","","false","","","","","[1016.3999999985099,532.8999999985099]","./assets/img/space/13.jpg","[""ArrowUp"",""ArrowRight""]","practice block","space","36","{""ArrowUp,ArrowLeft"":3,""ArrowUp,ArrowRight"":36,""ArrowDown,ArrowLeft"":15,""ArrowDown,ArrowRight"":23}","true","ArrowUp,ArrowRight","false","","","","","",""
"html-keyboard-response","66","420029","0.0-3.0-11.0-2.0-1.2","spark_pilot_norest","8595","8","12","Male","","","","","","","null","<div style=""font-size:60px;"">+</div>","null","fixation","","","","","","","","","","","",""
"revaluation","67","426062","0.0-3.0-11.0-2.0-0.3","spark_pilot_norest","8595","8","12","Male","","false","","","","","[217,223.89999999850988]","./assets/img/space/14.jpg","[""ArrowUp"",""ArrowRight""]","practice block","space","36","{""ArrowUp,ArrowLeft"":3,""ArrowUp,ArrowRight"":36,""ArrowDown,ArrowLeft"":15,""ArrowDown,ArrowRight"":23}","true","ArrowUp,ArrowRight","false","","","","","",""
"html-keyboard-response","68","426564","0.0-3.0-11.0-2.0-1.3","spark_pilot_norest","8595","8","12","Male","","","","","","","null","<div style=""font-size:60px;"">+</div>","null","fixation","","","","","","","","","","","",""
"revaluation","69","432570","0.0-3.0-11.0-2.0-0.4","spark_pilot_norest","8595","8","12","Male","","false","","","","","[682.5,349]","./assets/img/space/11.jpg","[""ArrowUp"",""ArrowRight""]","practice block","space","36","{""ArrowUp,ArrowLeft"":3,""ArrowUp,ArrowRight"":36,""ArrowDown,ArrowLeft"":15,""ArrowDown,ArrowRight"":23}","true","ArrowUp,ArrowRight","false","","","","","",""
"html-keyboard-response","70","433072","0.0-3.0-11.0-2.0-1.4","spark_pilot_norest","8595","8","12","Male","","","","","","","null","<div style=""font-size:60px;"">+</div>","null","fixation","","","","","","","","","","","",""
"revaluation","71","439078","0.0-3.0-11.0-2.0-0.5","spark_pilot_norest","8595","8","12","Male","","false","","","","","[1051.1000000014901,183.39999999850988]","./assets/img/space/12.jpg","[""ArrowUp"",""ArrowRight""]","practice block","space","36","{""ArrowUp,ArrowLeft"":3,""ArrowUp,ArrowRight"":36,""ArrowDown,ArrowLeft"":15,""ArrowDown,ArrowRight"":23}","true","ArrowUp,ArrowRight","false","","","","","",""
"html-keyboard-response","72","439580","0.0-3.0-11.0-2.0-1.5","spark_pilot_norest","8595","8","12","Male","","","","","","","null","<div style=""font-size:60px;"">+</div>","null","fixation","","","","","","","","","","","",""
"revaluation","73","445586","0.0-3.0-11.0-2.0-0.6","spark_pilot_norest","8595","8","12","Male","","false","","","","","[491.59999999403954,121.5]","./assets/img/space/13.jpg","[""ArrowUp"",""ArrowRight""]","practice block","space","36","{""ArrowUp,ArrowLeft"":3,""ArrowUp,ArrowRight"":36,""ArrowDown,ArrowLeft"":15,""ArrowDown,ArrowRight"":23}","true","ArrowUp,ArrowRight","false","","","","","",""
"html-keyboard-response","74","446088","0.0-3.0-11.0-2.0-1.6","spark_pilot_norest","8595","8","12","Male","","","","","","","null","<div style=""font-size:60px;"">+</div>","null","fixation","","","","","","","","","","","",""
"revaluation","75","452096","0.0-3.0-11.0-2.0-0.7","spark_pilot_norest","8595","8","12","Male","","false","","","","","[822.6000000014901,165.70000000298023]","./assets/img/space/14.jpg","[""ArrowUp"",""ArrowRight""]","practice block","space","36","{""ArrowUp,ArrowLeft"":3,""ArrowUp,ArrowRight"":36,""ArrowDown,ArrowLeft"":15,""ArrowDown,ArrowRight"":23}","true","ArrowUp,ArrowRight","false","","","","","",""
"html-keyboard-response","76","452598","0.0-3.0-11.0-2.0-1.7","spark_pilot_norest","8595","8","12","Male","","","","","","","null","<div style=""font-size:60px;"">+</div>","null","fixation","","","","","","","","","","","",""
"revaluation","77","456603","0.0-3.0-11.0-2.0-0.8","spark_pilot_norest","8595","8","12","Male","","false","","","","","[350.59999999403954]","./assets/img/space/catch/3.jpg","[""spaceBar""]","practice block","space","0","{""ArrowUp,ArrowLeft"":3,""ArrowUp,ArrowRight"":36,""ArrowDown,ArrowLeft"":15,""ArrowDown,ArrowRight"":23}","true","spaceBar","true","","","","","",""
"html-keyboard-response","78","457105","0.0-3.0-11.0-2.0-1.8","spark_pilot_norest","8595","8","12","Male","","","","","","","null","<div style=""font-size:60px;"">+</div>","null","fixation","","","","","","","","","","","",""
"learning-instructions","79","472513","0.0-3.0-11.0-3.0-0.0","spark_pilot_norest","8595","8","12","Male","","","","","","","1813.2999999970198","<p> Now, you will travel with a friend who will choose whether you go up or down first. </p>
            <p> On these turns, you will just see the animal that they found. You will still get to choose which chest to search for treasure.</p>","","instructions","","","","","","","","","","","",""
"revaluation","80","476539","0.0-3.0-11.0-4.0-0.0","spark_pilot_norest","8595","8","12","Male","","false","","","","","[1067.1000000014901]","./assets/img/space/animals/rabbit.jpg","[""ArrowRight""]","practice block","space","23","{""ArrowUp,ArrowLeft"":3,""ArrowUp,ArrowRight"":36,""ArrowDown,ArrowLeft"":15,""ArrowDown,ArrowRight"":23}","true","ArrowDown,ArrowRight","","","","","","",""
"html-keyboard-response","81","477053","0.0-3.0-11.0-4.0-1.0","spark_pilot_norest","8595","8","12","Male","","","","","","","null","<div style=""font-size:60px;"">+</div>","null","fixation","","","","","","","","","","","",""
"revaluation","82","481082","0.0-3.0-11.0-4.0-0.1","spark_pilot_norest","8595","8","12","Male","","false","","","","","[198.5]","./assets/img/space/animals/cat.jpg","[""ArrowRight""]","practice block","space","36","{""ArrowUp,ArrowLeft"":3,""ArrowUp,ArrowRight"":36,""ArrowDown,ArrowLeft"":15,""ArrowDown,ArrowRight"":23}","true","ArrowUp,ArrowRight","","","","","","",""
"html-keyboard-response","83","481598","0.0-3.0-11.0-4.0-1.1","spark_pilot_norest","8595","8","12","Male","","","","","","","null","<div style=""font-size:60px;"">+</div>","null","fixation","","","","","","","","","","","",""
"revaluation","84","485623","0.0-3.0-11.0-4.0-0.2","spark_pilot_norest","8595","8","12","Male","","false","","","","","[260.5]","./assets/img/space/animals/rabbit.jpg","[""ArrowRight""]","practice block","space","23","{""ArrowUp,ArrowLeft"":3,""ArrowUp,ArrowRight"":36,""ArrowDown,ArrowLeft"":15,""ArrowDown,ArrowRight"":23}","true","ArrowDown,ArrowRight","","","","","","",""
"html-keyboard-response","85","486140","0.0-3.0-11.0-4.0-1.2","spark_pilot_norest","8595","8","12","Male","","","","","","","null","<div style=""font-size:60px;"">+</div>","null","fixation","","","","","","","","","","","",""
"revaluation","86","490168","0.0-3.0-11.0-4.0-0.3","spark_pilot_norest","8595","8","12","Male","","false","","","","","[384.90000000596046]","./assets/img/space/animals/cat.jpg","[""ArrowRight""]","practice block","space","36","{""ArrowUp,ArrowLeft"":3,""ArrowUp,ArrowRight"":36,""ArrowDown,ArrowLeft"":15,""ArrowDown,ArrowRight"":23}","true","ArrowUp,ArrowRight","","","","","","",""
"html-keyboard-response","87","490683","0.0-3.0-11.0-4.0-1.3","spark_pilot_norest","8595","8","12","Male","","","","","","","null","<div style=""font-size:60px;"">+</div>","null","fixation","","","","","","","","","","","",""
"learning-instructions","88","498819","0.0-3.0-11.0-5.0-0.0","spark_pilot_norest","8595","8","12","Male","","","","","","","null","<p> You have almost finished this part of the game! </p>
            <p> We are going to ask you to make a few more choices. </p>","","instructions","","","","","","","","","","","",""
"learning-instructions","89","514822","0.0-3.0-11.0-5.0-0.1","spark_pilot_norest","8595","8","12","Male","","","","","","","null","<p> First, you need to decide whether to go up or down. When you see each picture, use the arrow keys to make your choice. </p>
            <p><b>You will not see which animal you found, but try to get to the one that will give you the most treasure.</b></p>","","instructions","","","","","","","","","","","",""
"html-keyboard-response","90","515829","0.0-3.0-11.0-6.0-0.0","spark_pilot_norest","8595","8","12","Male","","","","","","","null","<div style=""font-size:100px;color:red;"">Starting in...</div>","null","","","","","","","","","","","","",""
"html-keyboard-response","91","516831","0.0-3.0-11.0-6.0-1.0","spark_pilot_norest","8595","8","12","Male","","","","","","","null","<div style=""font-size:200px;color:red;"">3</div>","null","","","","","","","","","","","","",""
"html-keyboard-response","92","517833","0.0-3.0-11.0-6.0-2.0","spark_pilot_norest","8595","8","12","Male","","","","","","","null","<div style=""font-size:200px;color:red;"">2</div>","null","","","","","","","","","","","","",""
"html-keyboard-response","93","518847","0.0-3.0-11.0-6.0-3.0","spark_pilot_norest","8595","8","12","Male","","","","","","","null","<div style=""font-size:200px;color:red;"">1</div>","null","","","","","","","","","","","","",""
"revaluation","94","519392","0.0-3.0-11.0-7.0","spark_pilot_norest","8595","8","12","Male","","false","","","","","[541.6999999955297]","./assets/img/space/15.jpg","[""ArrowUp""]","practice block","space","0","{""ArrowUp,ArrowLeft"":3,""ArrowUp,ArrowRight"":36,""ArrowDown,ArrowLeft"":15,""ArrowDown,ArrowRight"":23}","true","ArrowUp","false","","","","","",""
"html-keyboard-response","95","519895","0.0-3.0-11.0-8.0","spark_pilot_norest","8595","8","12","Male","","","","","","","null","<div style=""font-size:60px;"">+</div>","null","fixation","","","","","","","","","","","",""
"learning-instructions","96","533275","0.0-3.0-11.0-9.0-0.0","spark_pilot_norest","8595","8","12","Male","","","","","","","null","<p> Now you will see the animals again and can search their chests for treasure. </p>
            <p> This time, you will not see how much treasure you earned, but you will earn more bonus money for making better choices. </p>","","instructions","","","","","","","","","","","",""
"html-keyboard-response","97","534280","0.0-3.0-11.0-10.0-0.0","spark_pilot_norest","8595","8","12","Male","","","","","","","null","<div style=""font-size:100px;color:red;"">Starting in...</div>","null","","","","","","","","","","","","",""
"html-keyboard-response","98","535283","0.0-3.0-11.0-10.0-1.0","spark_pilot_norest","8595","8","12","Male","","","","","","","null","<div style=""font-size:200px;color:red;"">3</div>","null","","","","","","","","","","","","",""
"html-keyboard-response","99","536295","0.0-3.0-11.0-10.0-2.0","spark_pilot_norest","8595","8","12","Male","","","","","","","null","<div style=""font-size:200px;color:red;"">2</div>","null","","","","","","","","","","","","",""
"html-keyboard-response","100","537307","0.0-3.0-11.0-10.0-3.0","spark_pilot_norest","8595","8","12","Male","","","","","","","null","<div style=""font-size:200px;color:red;"">1</div>","null","","","","","","","","","","","","",""
"revaluation","101","538039","0.0-3.0-11.0-11.0-0.0","spark_pilot_norest","8595","8","12","Male","","false","","","","","[728.6000000014901]","./assets/img/space/animals/cat.jpg","[""ArrowRight""]","practice block","space","0","{""ArrowUp,ArrowLeft"":3,""ArrowUp,ArrowRight"":36,""ArrowDown,ArrowLeft"":15,""ArrowDown,ArrowRight"":23}","true","ArrowUp,ArrowRight","","","","","","",""
"html-keyboard-response","102","538547","0.0-3.0-11.0-11.0-1.0","spark_pilot_norest","8595","8","12","Male","","","","","","","null","<div style=""font-size:60px;"">+</div>","null","fixation","","","","","","","","","","","",""
"revaluation","103","539136","0.0-3.0-11.0-11.0-0.1","spark_pilot_norest","8595","8","12","Male","","false","","","","","[586.3000000044703]","./assets/img/space/animals/rabbit.jpg","[""ArrowRight""]","practice block","space","0","{""ArrowUp,ArrowLeft"":3,""ArrowUp,ArrowRight"":36,""ArrowDown,ArrowLeft"":15,""ArrowDown,ArrowRight"":23}","true","ArrowDown,ArrowRight","","","","","","",""
"html-keyboard-response","104","539640","0.0-3.0-11.0-11.0-1.1","spark_pilot_norest","8595","8","12","Male","","","","","","","null","<div style=""font-size:60px;"">+</div>","null","fixation","","","","","","","","","","","",""
"learning-instructions","105","545324","0.0-3.0-12.0-0.0","spark_pilot_norest","8595","8","12","Male","","","","","","","1104.2999999970198","<p> Before you start, we're going to ask you a few questions about how the game works. </p>","","instructions","","","","","","","","","","","",""
"comp-q","106","552190","0.0-3.0-13.0-0.0-0.0","spark_pilot_norest","8595","8","12","Male","","","","","","","1288.7999999970198","<p> <b> True or False? </b> </p>
            <p> There can be 50 pieces of treasure in a given animal's chest. </p>","1","comp_question","","","","true","","","","","","","",""
"comp-q","107","561749","0.0-3.0-13.0-0.0-1.0","spark_pilot_norest","8595","8","12","Male","","","","","","","2900.39999999851","<p> <b> That's right! </b> The amount of treasure in each chest can range from 0 to 40 pieces. </p>","0","comp_answer","","","","","","","","","","","",""
"comp-q","108","571915","0.0-3.0-13.0-0.1-0.1","spark_pilot_norest","8595","8","12","Male","","","","","","","3055.5","<p> <b> True or False? </b> </p><p> In this game, all animals have the same amount of treasure in their left and right chests. </p>","1","comp_question","","","","true","","","","","","","",""
"comp-q","109","578991","0.0-3.0-13.0-0.1-1.1","spark_pilot_norest","8595","8","12","Male","","","","","","","1851.8999999985099","<p> <b> That's right! </b> Animals have different amounts of treasure in their treasure chests. </p>","0","comp_answer","","","","","","","","","","","",""
"comp-q","110","588385","0.0-3.0-13.0-0.2-0.2","spark_pilot_norest","8595","8","12","Male","","","","","","","3565.89999999851","<p> <b> True or False? </b> </p><p> The same animal will always be there if you go up in the same place. </p>","0","comp_question","","","","true","","","","","","","",""
"comp-q","111","597745","0.0-3.0-13.0-0.2-1.2","spark_pilot_norest","8595","8","12","Male","","","","","","","2926","<p> <b> That's right! </b> One animal lives in the upper part and one lives in the lower part of every place. </p>","0","comp_answer","","","","","","","","","","","",""
"comp-q","112","604284","0.0-3.0-13.0-0.3-0.3","spark_pilot_norest","8595","8","12","Male","","","","","","","1025.1000000014901","<p> <b> True or False? </b> </p><p> If you see a different picture, it means you are in a new place. </p>","0","comp_question","","","","false","","","","","","","",""
"comp-q","113","616907","0.0-3.0-13.0-0.3-1.3","spark_pilot_norest","8595","8","12","Male","","","","","","","1527.6999999955297","<p> <b>Incorrect.</b> Lots of different images may show the same place. For example,  you may see three different images that all remind you that you are in outer space. </p>","0","comp_answer","","","","","","","","","","","",""
"comp-q","114","624159","0.0-3.0-13.0-0.4-0.4","spark_pilot_norest","8595","8","12","Male","","","","","","","1740.3999999985099","<p> <b> True or False? </b> </p><p> If you see a different picture, it means you are in a new place. </p>","1","comp_question","","","","true","","","","","","","",""
"comp-q","115","638673","0.0-3.0-13.0-0.4-1.4","spark_pilot_norest","8595","8","12","Male","","","","","","","3293.7000000029802","<p> <b> That's right! </b> Lots of different images may show the same place. For example,  you may see three different images that all remind you that you are in outer space. </p>","0","comp_answer","","","","","","","","","","","",""
"learning-instructions","116","650164","0.0-3.0-14.0-0.0","spark_pilot_norest","8595","8","12","Male","","","","","","","1635.6000000014901","<p> Good job. Remember to do your best because the amount of treasure you earn will be converted into bonus money. </p>
            <p> It’s time to start the real game! </p>","","instructions","","","","","","","","","","","",""
"learning-instructions","117","653740","0.0-4.0-0.0-0.0","spark_pilot_norest","8595","8","12","Male","","","","","","","812.1000000014901","<p> This time you are searching for treasure in the <b>canyon</b>.</p>","","instructions","","","","","","","","","","","",""
"learning-instructions","118","672174","0.0-4.0-0.0-0.1","spark_pilot_norest","8595","8","12","Male","","","","","","","1156.2999999970198","<p><b>New</b> animals with <b>new</b> treasure chests live here. You need to explore to discover where the animal with the best treasure chest is.</p>
                    <p> Like before, once you figure out which animal has the chest with the most treasure, you should try to get to that animal and select that chest! </p>","","instructions","","","","","","","","","","","",""
"learning-instructions","119","688903","0.0-4.0-1.0-0.0","spark_pilot_norest","8595","8","12","Male","","","","","","","2004.2999999970198","<p> Remember, when you see a picture of the place, use the up and down keys to <b>find an animal</b>.</p>
            <p> When you encounter an animal, you should use the left and right keys to <b>select a treasure chest</b>.</p>
            <p> Don't forget to look out for the robber! </p>","","instructions","","","","","","","","","","","",""
"revaluation","120","694938","0.0-4.0-2.0-0.0","spark_pilot_norest","8595","8","12","Male","","false","","","","","[1399.8999999985099,452.1000000014901]","./assets/img/canyon/memory/30.jpg","[""ArrowUp"",""ArrowRight""]","value training","canyon","10","{""ArrowUp,ArrowLeft"":26,""ArrowUp,ArrowRight"":10,""ArrowDown,ArrowLeft"":5,""ArrowDown,ArrowRight"":17}","false","ArrowUp,ArrowRight","false","revaluation","1","0","","",""
"html-keyboard-response","121","695455","0.0-4.0-2.0-1.0","spark_pilot_norest","8595","8","12","Male","","","","","","","null","<div style=""font-size:60px;"">+</div>","null","fixation","","","","","","","","","1","","",""
"revaluation","122","701489","0.0-4.0-2.0-0.1","spark_pilot_norest","8595","8","12","Male","","false","","","","","[67.70000000298023,18.69999999552965]","./assets/img/canyon/memory/12.jpg","[""ArrowUp"",""ArrowLeft""]","value training","canyon","26","{""ArrowUp,ArrowLeft"":26,""ArrowUp,ArrowRight"":10,""ArrowDown,ArrowLeft"":5,""ArrowDown,ArrowRight"":17}","true","ArrowUp,ArrowLeft","false","revaluation","1","2","","",""
"html-keyboard-response","123","701991","0.0-4.0-2.0-1.1","spark_pilot_norest","8595","8","12","Male","","","","","","","null","<div style=""font-size:60px;"">+</div>","null","fixation","","","","","","","","","3","","",""
"revaluation","124","708036","0.0-4.0-2.0-0.2","spark_pilot_norest","8595","8","12","Male","","false","","","","","[586.5,868.5]","./assets/img/canyon/memory/17.jpg","[""ArrowDown"",""ArrowRight""]","value training","canyon","17","{""ArrowUp,ArrowLeft"":26,""ArrowUp,ArrowRight"":10,""ArrowDown,ArrowLeft"":5,""ArrowDown,ArrowRight"":17}","false","ArrowDown,ArrowRight","false","revaluation","1","4","","",""
"html-keyboard-response","125","708547","0.0-4.0-2.0-1.2","spark_pilot_norest","8595","8","12","Male","","","","","","","null","<div style=""font-size:60px;"">+</div>","null","fixation","","","","","","","","","5","","",""
"revaluation","126","712552","0.0-4.0-2.0-0.3","spark_pilot_norest","8595","8","12","Male","","false","","","","","[269.20000000298023]","./assets/img/canyon/catch/4.jpg","[""spaceBar""]","value training","canyon","0","{""ArrowUp,ArrowLeft"":26,""ArrowUp,ArrowRight"":10,""ArrowDown,ArrowLeft"":5,""ArrowDown,ArrowRight"":17}","true","spaceBar","true","revaluation","1","6","","",""
"html-keyboard-response","127","713068","0.0-4.0-2.0-1.3","spark_pilot_norest","8595","8","12","Male","","","","","","","null","<div style=""font-size:60px;"">+</div>","null","fixation","","","","","","","","","7","","",""
"revaluation","128","719087","0.0-4.0-2.0-0.4","spark_pilot_norest","8595","8","12","Male","","false","","","","","[675.5,275.59999999403954]","./assets/img/canyon/memory/3.jpg","[""ArrowDown"",""ArrowLeft""]","value training","canyon","5","{""ArrowUp,ArrowLeft"":26,""ArrowUp,ArrowRight"":10,""ArrowDown,ArrowLeft"":5,""ArrowDown,ArrowRight"":17}","false","ArrowDown,ArrowLeft","false","revaluation","1","8","","",""
"html-keyboard-response","129","719589","0.0-4.0-2.0-1.4","spark_pilot_norest","8595","8","12","Male","","","","","","","null","<div style=""font-size:60px;"">+</div>","null","fixation","","","","","","","","","9","","",""
"revaluation","130","725594","0.0-4.0-2.0-0.5","spark_pilot_norest","8595","8","12","Male","","false","","","","","[438.6000000014901,450.69999999552965]","./assets/img/canyon/memory/19.jpg","[""ArrowUp"",""ArrowLeft""]","value training","canyon","26","{""ArrowUp,ArrowLeft"":26,""ArrowUp,ArrowRight"":10,""ArrowDown,ArrowLeft"":5,""ArrowDown,ArrowRight"":17}","true","ArrowUp,ArrowLeft","false","revaluation","1","10","","",""
"html-keyboard-response","131","726095","0.0-4.0-2.0-1.5","spark_pilot_norest","8595","8","12","Male","","","","","","","null","<div style=""font-size:60px;"">+</div>","null","fixation","","","","","","","","","11","","",""
"revaluation","132","732099","0.0-4.0-2.0-0.6","spark_pilot_norest","8595","8","12","Male","","false","","","","","[1147.2999999970198,638.5]","./assets/img/canyon/memory/16.jpg","[""ArrowUp"",""ArrowLeft""]","value training","canyon","26","{""ArrowUp,ArrowLeft"":26,""ArrowUp,ArrowRight"":10,""ArrowDown,ArrowLeft"":5,""ArrowDown,ArrowRight"":17}","true","ArrowUp,ArrowLeft","false","revaluation","1","12","","",""
"html-keyboard-response","133","732601","0.0-4.0-2.0-1.6","spark_pilot_norest","8595","8","12","Male","","","","","","","null","<div style=""font-size:60px;"">+</div>","null","fixation","","","","","","","","","13","","",""
"revaluation","134","738607","0.0-4.0-2.0-0.7","spark_pilot_norest","8595","8","12","Male","","false","","","","","[777.5,537.6999999955297]","./assets/img/canyon/memory/17.jpg","[""ArrowUp"",""ArrowLeft""]","value training","canyon","26","{""ArrowUp,ArrowLeft"":26,""ArrowUp,ArrowRight"":10,""ArrowDown,ArrowLeft"":5,""ArrowDown,ArrowRight"":17}","true","ArrowUp,ArrowLeft","false","revaluation","1","14","","",""
"html-keyboard-response","135","739108","0.0-4.0-2.0-1.7","spark_pilot_norest","8595","8","12","Male","","","","","","","null","<div style=""font-size:60px;"">+</div>","null","fixation","","","","","","","","","15","","",""
"revaluation","136","745114","0.0-4.0-2.0-0.8","spark_pilot_norest","8595","8","12","Male","","false","","","","","[1099.8999999985099,790.3999999985099]","./assets/img/canyon/memory/1.jpg","[""ArrowUp"",""ArrowLeft""]","value training","canyon","26","{""ArrowUp,ArrowLeft"":26,""ArrowUp,ArrowRight"":10,""ArrowDown,ArrowLeft"":5,""ArrowDown,ArrowRight"":17}","true","ArrowUp,ArrowLeft","false","revaluation","1","16","","",""
"html-keyboard-response","137","745616","0.0-4.0-2.0-1.8","spark_pilot_norest","8595","8","12","Male","","","","","","","null","<div style=""font-size:60px;"">+</div>","null","fixation","","","","","","","","","17","","",""
"revaluation","138","751620","0.0-4.0-2.0-0.9","spark_pilot_norest","8595","8","12","Male","","false","","","","","[707.7000000029802,259.29999999701977]","./assets/img/canyon/memory/3.jpg","[""ArrowUp"",""ArrowLeft""]","value training","canyon","26","{""ArrowUp,ArrowLeft"":26,""ArrowUp,ArrowRight"":10,""ArrowDown,ArrowLeft"":5,""ArrowDown,ArrowRight"":17}","true","ArrowUp,ArrowLeft","false","revaluation","1","18","","",""
"html-keyboard-response","139","752122","0.0-4.0-2.0-1.9","spark_pilot_norest","8595","8","12","Male","","","","","","","null","<div style=""font-size:60px;"">+</div>","null","fixation","","","","","","","","","19","","",""
"revaluation","140","758128","0.0-4.0-2.0-0.10","spark_pilot_norest","8595","8","12","Male","","false","","","","","[502.3999999985099,263.19999999552965]","./assets/img/canyon/memory/15.jpg","[""ArrowUp"",""ArrowLeft""]","value training","canyon","26","{""ArrowUp,ArrowLeft"":26,""ArrowUp,ArrowRight"":10,""ArrowDown,ArrowLeft"":5,""ArrowDown,ArrowRight"":17}","true","ArrowUp,ArrowLeft","false","revaluation","1","20","","",""
"html-keyboard-response","141","758630","0.0-4.0-2.0-1.10","spark_pilot_norest","8595","8","12","Male","","","","","","","null","<div style=""font-size:60px;"">+</div>","null","fixation","","","","","","","","","21","","",""
"revaluation","142","764637","0.0-4.0-2.0-0.11","spark_pilot_norest","8595","8","12","Male","","false","","","","","[742.2000000029802,365.19999999552965]","./assets/img/canyon/memory/8.jpg","[""ArrowUp"",""ArrowLeft""]","value training","canyon","26","{""ArrowUp,ArrowLeft"":26,""ArrowUp,ArrowRight"":10,""ArrowDown,ArrowLeft"":5,""ArrowDown,ArrowRight"":17}","true","ArrowUp,ArrowLeft","false","revaluation","1","22","","",""
"html-keyboard-response","143","765139","0.0-4.0-2.0-1.11","spark_pilot_norest","8595","8","12","Male","","","","","","","null","<div style=""font-size:60px;"">+</div>","null","fixation","","","","","","","","","23","","",""
"revaluation","144","771148","0.0-4.0-2.0-0.12","spark_pilot_norest","8595","8","12","Male","","false","","","","","[738,393.40000000596046]","./assets/img/canyon/memory/11.jpg","[""ArrowUp"",""ArrowLeft""]","value training","canyon","26","{""ArrowUp,ArrowLeft"":26,""ArrowUp,ArrowRight"":10,""ArrowDown,ArrowLeft"":5,""ArrowDown,ArrowRight"":17}","true","ArrowUp,ArrowLeft","false","revaluation","1","24","","",""
"html-keyboard-response","145","771650","0.0-4.0-2.0-1.12","spark_pilot_norest","8595","8","12","Male","","","","","","","null","<div style=""font-size:60px;"">+</div>","null","fixation","","","","","","","","","25","","",""
"revaluation","146","777657","0.0-4.0-2.0-0.13","spark_pilot_norest","8595","8","12","Male","","false","","","","","[871,710]","./assets/img/canyon/memory/23.jpg","[""ArrowUp"",""ArrowLeft""]","value training","canyon","26","{""ArrowUp,ArrowLeft"":26,""ArrowUp,ArrowRight"":10,""ArrowDown,ArrowLeft"":5,""ArrowDown,ArrowRight"":17}","true","ArrowUp,ArrowLeft","false","revaluation","1","26","","",""
"html-keyboard-response","147","778158","0.0-4.0-2.0-1.13","spark_pilot_norest","8595","8","12","Male","","","","","","","null","<div style=""font-size:60px;"">+</div>","null","fixation","","","","","","","","","27","","",""
"revaluation","148","784177","0.0-4.0-2.0-0.14","spark_pilot_norest","8595","8","12","Male","","false","","","","","[1277.7000000029802,618.9000000059605]","./assets/img/canyon/memory/30.jpg","[""ArrowUp"",""ArrowLeft""]","value training","canyon","26","{""ArrowUp,ArrowLeft"":26,""ArrowUp,ArrowRight"":10,""ArrowDown,ArrowLeft"":5,""ArrowDown,ArrowRight"":17}","true","ArrowUp,ArrowLeft","false","revaluation","1","28","","",""
"html-keyboard-response","149","784679","0.0-4.0-2.0-1.14","spark_pilot_norest","8595","8","12","Male","","","","","","","null","<div style=""font-size:60px;"">+</div>","null","fixation","","","","","","","","","29","","",""
"revaluation","150","790685","0.0-4.0-2.0-0.15","spark_pilot_norest","8595","8","12","Male","","false","","","","","[579.5,783.8000000044703]","./assets/img/canyon/memory/21.jpg","[""ArrowUp"",""ArrowLeft""]","value training","canyon","26","{""ArrowUp,ArrowLeft"":26,""ArrowUp,ArrowRight"":10,""ArrowDown,ArrowLeft"":5,""ArrowDown,ArrowRight"":17}","true","ArrowUp,ArrowLeft","false","revaluation","1","30","","",""
"html-keyboard-response","151","791186","0.0-4.0-2.0-1.15","spark_pilot_norest","8595","8","12","Male","","","","","","","null","<div style=""font-size:60px;"">+</div>","null","fixation","","","","","","","","","31","","",""
"revaluation","152","797191","0.0-4.0-2.0-0.16","spark_pilot_norest","8595","8","12","Male","","false","","","","","[1346.0999999940395,1237.3000000044703]","./assets/img/canyon/memory/29.jpg","[""ArrowUp"",""ArrowLeft""]","value training","canyon","26","{""ArrowUp,ArrowLeft"":26,""ArrowUp,ArrowRight"":10,""ArrowDown,ArrowLeft"":5,""ArrowDown,ArrowRight"":17}","true","ArrowUp,ArrowLeft","false","revaluation","1","32","","",""
"html-keyboard-response","153","797692","0.0-4.0-2.0-1.16","spark_pilot_norest","8595","8","12","Male","","","","","","","null","<div style=""font-size:60px;"">+</div>","null","fixation","","","","","","","","","33","","",""
"revaluation","154","803700","0.0-4.0-2.0-0.17","spark_pilot_norest","8595","8","12","Male","","false","","","","","[1111.7999999970198,12.600000001490116]","./assets/img/canyon/memory/7.jpg","[""ArrowUp"",""ArrowLeft""]","value training","canyon","26","{""ArrowUp,ArrowLeft"":26,""ArrowUp,ArrowRight"":10,""ArrowDown,ArrowLeft"":5,""ArrowDown,ArrowRight"":17}","true","ArrowUp,ArrowLeft","false","revaluation","1","34","","",""
"html-keyboard-response","155","804200","0.0-4.0-2.0-1.17","spark_pilot_norest","8595","8","12","Male","","","","","","","null","<div style=""font-size:60px;"">+</div>","null","fixation","","","","","","","","","35","","",""
"revaluation","156","808204","0.0-4.0-2.0-0.18","spark_pilot_norest","8595","8","12","Male","","false","","","","","[141.29999999701977]","./assets/img/canyon/catch/2.jpg","[""ArrowUp""]","value training","canyon","-10","{""ArrowUp,ArrowLeft"":26,""ArrowUp,ArrowRight"":10,""ArrowDown,ArrowLeft"":5,""ArrowDown,ArrowRight"":17}","false","ArrowUp","true","revaluation","1","36","","",""
"html-keyboard-response","157","808705","0.0-4.0-2.0-1.18","spark_pilot_norest","8595","8","12","Male","","","","","","","null","<div style=""font-size:60px;"">+</div>","null","fixation","","","","","","","","","37","","",""
"revaluation","158","814713","0.0-4.0-2.0-0.19","spark_pilot_norest","8595","8","12","Male","","false","","","","","[1006,618.2999999970198]","./assets/img/canyon/memory/22.jpg","[""ArrowUp"",""ArrowLeft""]","value training","canyon","26","{""ArrowUp,ArrowLeft"":26,""ArrowUp,ArrowRight"":10,""ArrowDown,ArrowLeft"":5,""ArrowDown,ArrowRight"":17}","true","ArrowUp,ArrowLeft","false","revaluation","1","38","","",""
"html-keyboard-response","159","815215","0.0-4.0-2.0-1.19","spark_pilot_norest","8595","8","12","Male","","","","","","","null","<div style=""font-size:60px;"">+</div>","null","fixation","","","","","","","","","39","","",""
"revaluation","160","819221","0.0-4.0-2.0-0.20","spark_pilot_norest","8595","8","12","Male","","false","","","","","[65.29999999701977]","./assets/img/canyon/catch/7.jpg","[""spaceBar""]","value training","canyon","0","{""ArrowUp,ArrowLeft"":26,""ArrowUp,ArrowRight"":10,""ArrowDown,ArrowLeft"":5,""ArrowDown,ArrowRight"":17}","true","spaceBar","true","revaluation","1","40","","",""
"html-keyboard-response","161","819723","0.0-4.0-2.0-1.20","spark_pilot_norest","8595","8","12","Male","","","","","","","null","<div style=""font-size:60px;"">+</div>","null","fixation","","","","","","","","","41","","",""
"revaluation","162","825729","0.0-4.0-2.0-0.21","spark_pilot_norest","8595","8","12","Male","","false","","","","","[1026.5,582]","./assets/img/canyon/memory/12.jpg","[""ArrowUp"",""ArrowLeft""]","value training","canyon","26","{""ArrowUp,ArrowLeft"":26,""ArrowUp,ArrowRight"":10,""ArrowDown,ArrowLeft"":5,""ArrowDown,ArrowRight"":17}","true","ArrowUp,ArrowLeft","false","revaluation","1","42","","",""
"html-keyboard-response","163","826231","0.0-4.0-2.0-1.21","spark_pilot_norest","8595","8","12","Male","","","","","","","null","<div style=""font-size:60px;"">+</div>","null","fixation","","","","","","","","","43","","",""
"revaluation","164","832235","0.0-4.0-2.0-0.22","spark_pilot_norest","8595","8","12","Male","","false","","","","","[590.1000000014901,622.7000000029802]","./assets/img/canyon/memory/22.jpg","[""ArrowUp"",""ArrowLeft""]","value training","canyon","26","{""ArrowUp,ArrowLeft"":26,""ArrowUp,ArrowRight"":10,""ArrowDown,ArrowLeft"":5,""ArrowDown,ArrowRight"":17}","true","ArrowUp,ArrowLeft","false","revaluation","1","44","","",""
"html-keyboard-response","165","832737","0.0-4.0-2.0-1.22","spark_pilot_norest","8595","8","12","Male","","","","","","","null","<div style=""font-size:60px;"">+</div>","null","fixation","","","","","","","","","45","","",""
"revaluation","166","838745","0.0-4.0-2.0-0.23","spark_pilot_norest","8595","8","12","Male","","false","","","","","[900.3999999985099,306.09999999403954]","./assets/img/canyon/memory/16.jpg","[""ArrowUp"",""ArrowLeft""]","value training","canyon","26","{""ArrowUp,ArrowLeft"":26,""ArrowUp,ArrowRight"":10,""ArrowDown,ArrowLeft"":5,""ArrowDown,ArrowRight"":17}","true","ArrowUp,ArrowLeft","false","revaluation","1","46","","",""
"html-keyboard-response","167","839246","0.0-4.0-2.0-1.23","spark_pilot_norest","8595","8","12","Male","","","","","","","null","<div style=""font-size:60px;"">+</div>","null","fixation","","","","","","","","","47","","",""
"revaluation","168","845252","0.0-4.0-2.0-0.24","spark_pilot_norest","8595","8","12","Male","","false","","","","","[1041.7999999970198,488.29999999701977]","./assets/img/canyon/memory/8.jpg","[""ArrowUp"",""ArrowLeft""]","value training","canyon","26","{""ArrowUp,ArrowLeft"":26,""ArrowUp,ArrowRight"":10,""ArrowDown,ArrowLeft"":5,""ArrowDown,ArrowRight"":17}","true","ArrowUp,ArrowLeft","false","revaluation","1","48","","",""
"html-keyboard-response","169","845753","0.0-4.0-2.0-1.24","spark_pilot_norest","8595","8","12","Male","","","","","","","null","<div style=""font-size:60px;"">+</div>","null","fixation","","","","","","","","","49","","",""
"revaluation","170","851760","0.0-4.0-2.0-0.25","spark_pilot_norest","8595","8","12","Male","","false","","","","","[1124.2999999970198,725]","./assets/img/canyon/memory/5.jpg","[""ArrowUp"",""ArrowLeft""]","value training","canyon","26","{""ArrowUp,ArrowLeft"":26,""ArrowUp,ArrowRight"":10,""ArrowDown,ArrowLeft"":5,""ArrowDown,ArrowRight"":17}","true","ArrowUp,ArrowLeft","false","revaluation","1","50","","",""
"html-keyboard-response","171","852261","0.0-4.0-2.0-1.25","spark_pilot_norest","8595","8","12","Male","","","","","","","null","<div style=""font-size:60px;"">+</div>","null","fixation","","","","","","","","","51","","",""
"revaluation","172","858270","0.0-4.0-2.0-0.26","spark_pilot_norest","8595","8","12","Male","","false","","","","","[1411.2000000029802,539]","./assets/img/canyon/memory/11.jpg","[""ArrowUp"",""ArrowLeft""]","value training","canyon","26","{""ArrowUp,ArrowLeft"":26,""ArrowUp,ArrowRight"":10,""ArrowDown,ArrowLeft"":5,""ArrowDown,ArrowRight"":17}","true","ArrowUp,ArrowLeft","false","revaluation","1","52","","",""
"html-keyboard-response","173","858772","0.0-4.0-2.0-1.26","spark_pilot_norest","8595","8","12","Male","","","","","","","null","<div style=""font-size:60px;"">+</div>","null","fixation","","","","","","","","","53","","",""
"revaluation","174","862776","0.0-4.0-2.0-0.27","spark_pilot_norest","8595","8","12","Male","","false","","","","","[415.8999999985099]","./assets/img/canyon/catch/1.jpg","[""spaceBar""]","value training","canyon","0","{""ArrowUp,ArrowLeft"":26,""ArrowUp,ArrowRight"":10,""ArrowDown,ArrowLeft"":5,""ArrowDown,ArrowRight"":17}","true","spaceBar","true","revaluation","1","54","","",""
"html-keyboard-response","175","863278","0.0-4.0-2.0-1.27","spark_pilot_norest","8595","8","12","Male","","","","","","","null","<div style=""font-size:60px;"">+</div>","null","fixation","","","","","","","","","55","","",""
"revaluation","176","869284","0.0-4.0-2.0-0.28","spark_pilot_norest","8595","8","12","Male","","false","","","","","[1213.5,629]","./assets/img/canyon/memory/14.jpg","[""ArrowUp"",""ArrowLeft""]","value training","canyon","26","{""ArrowUp,ArrowLeft"":26,""ArrowUp,ArrowRight"":10,""ArrowDown,ArrowLeft"":5,""ArrowDown,ArrowRight"":17}","true","ArrowUp,ArrowLeft","false","revaluation","1","56","","",""
"html-keyboard-response","177","869785","0.0-4.0-2.0-1.28","spark_pilot_norest","8595","8","12","Male","","","","","","","null","<div style=""font-size:60px;"">+</div>","null","fixation","","","","","","","","","57","","",""
"revaluation","178","875792","0.0-4.0-2.0-0.29","spark_pilot_norest","8595","8","12","Male","","false","","","","","[518.8000000044703,799.6999999955297]","./assets/img/canyon/memory/14.jpg","[""ArrowUp"",""ArrowLeft""]","value training","canyon","26","{""ArrowUp,ArrowLeft"":26,""ArrowUp,ArrowRight"":10,""ArrowDown,ArrowLeft"":5,""ArrowDown,ArrowRight"":17}","true","ArrowUp,ArrowLeft","false","revaluation","1","58","","",""
"html-keyboard-response","179","876294","0.0-4.0-2.0-1.29","spark_pilot_norest","8595","8","12","Male","","","","","","","null","<div style=""font-size:60px;"">+</div>","null","fixation","","","","","","","","","59","","",""
"revaluation","180","882300","0.0-4.0-2.0-0.30","spark_pilot_norest","8595","8","12","Male","","false","","","","","[1064.3999999985099,814.6999999955297]","./assets/img/canyon/memory/5.jpg","[""ArrowUp"",""ArrowLeft""]","value training","canyon","26","{""ArrowUp,ArrowLeft"":26,""ArrowUp,ArrowRight"":10,""ArrowDown,ArrowLeft"":5,""ArrowDown,ArrowRight"":17}","true","ArrowUp,ArrowLeft","false","revaluation","1","60","","",""
"html-keyboard-response","181","882813","0.0-4.0-2.0-1.30","spark_pilot_norest","8595","8","12","Male","","","","","","","null","<div style=""font-size:60px;"">+</div>","null","fixation","","","","","","","","","61","","",""
"revaluation","182","888827","0.0-4.0-2.0-0.31","spark_pilot_norest","8595","8","12","Male","","false","","","","","[635.2999999970198,420.20000000298023]","./assets/img/canyon/memory/23.jpg","[""ArrowUp"",""ArrowLeft""]","value training","canyon","26","{""ArrowUp,ArrowLeft"":26,""ArrowUp,ArrowRight"":10,""ArrowDown,ArrowLeft"":5,""ArrowDown,ArrowRight"":17}","true","ArrowUp,ArrowLeft","false","revaluation","1","62","","",""
"html-keyboard-response","183","889328","0.0-4.0-2.0-1.31","spark_pilot_norest","8595","8","12","Male","","","","","","","null","<div style=""font-size:60px;"">+</div>","null","fixation","","","","","","","","","63","","",""
"revaluation","184","895336","0.0-4.0-2.0-0.32","spark_pilot_norest","8595","8","12","Male","","false","","","","","[601.1000000014901,206.59999999403954]","./assets/img/canyon/memory/31.jpg","[""ArrowUp"",""ArrowLeft""]","value training","canyon","26","{""ArrowUp,ArrowLeft"":26,""ArrowUp,ArrowRight"":10,""ArrowDown,ArrowLeft"":5,""ArrowDown,ArrowRight"":17}","true","ArrowUp,ArrowLeft","false","revaluation","1","64","","",""
"html-keyboard-response","185","895837","0.0-4.0-2.0-1.32","spark_pilot_norest","8595","8","12","Male","","","","","","","null","<div style=""font-size:60px;"">+</div>","null","fixation","","","","","","","","","65","","",""
"revaluation","186","901844","0.0-4.0-2.0-0.33","spark_pilot_norest","8595","8","12","Male","","false","","","","","[1155.4000000059605,76.80000000447035]","./assets/img/canyon/memory/33.jpg","[""ArrowUp"",""ArrowLeft""]","value training","canyon","26","{""ArrowUp,ArrowLeft"":26,""ArrowUp,ArrowRight"":10,""ArrowDown,ArrowLeft"":5,""ArrowDown,ArrowRight"":17}","true","ArrowUp,ArrowLeft","false","revaluation","1","66","","",""
"html-keyboard-response","187","902346","0.0-4.0-2.0-1.33","spark_pilot_norest","8595","8","12","Male","","","","","","","null","<div style=""font-size:60px;"">+</div>","null","fixation","","","","","","","","","67","","",""
"revaluation","188","908354","0.0-4.0-2.0-0.34","spark_pilot_norest","8595","8","12","Male","","false","","","","","[868.7000000029802,472.1000000014901]","./assets/img/canyon/memory/18.jpg","[""ArrowUp"",""ArrowLeft""]","value training","canyon","26","{""ArrowUp,ArrowLeft"":26,""ArrowUp,ArrowRight"":10,""ArrowDown,ArrowLeft"":5,""ArrowDown,ArrowRight"":17}","true","ArrowUp,ArrowLeft","false","revaluation","1","68","","",""
"html-keyboard-response","189","908856","0.0-4.0-2.0-1.34","spark_pilot_norest","8595","8","12","Male","","","","","","","null","<div style=""font-size:60px;"">+</div>","null","fixation","","","","","","","","","69","","",""
"revaluation","190","914861","0.0-4.0-2.0-0.35","spark_pilot_norest","8595","8","12","Male","","false","","","","","[150.39999999850988,60.79999999701977]","./assets/img/canyon/memory/29.jpg","[""ArrowUp"",""ArrowLeft""]","value training","canyon","26","{""ArrowUp,ArrowLeft"":26,""ArrowUp,ArrowRight"":10,""ArrowDown,ArrowLeft"":5,""ArrowDown,ArrowRight"":17}","true","ArrowUp,ArrowLeft","false","revaluation","1","70","","",""
"html-keyboard-response","191","915363","0.0-4.0-2.0-1.35","spark_pilot_norest","8595","8","12","Male","","","","","","","null","<div style=""font-size:60px;"">+</div>","null","fixation","","","","","","","","","71","","",""
"revaluation","192","921369","0.0-4.0-2.0-0.36","spark_pilot_norest","8595","8","12","Male","","false","","","","","[913.2000000029802,181.39999999850988]","./assets/img/canyon/memory/19.jpg","[""ArrowUp"",""ArrowLeft""]","value training","canyon","26","{""ArrowUp,ArrowLeft"":26,""ArrowUp,ArrowRight"":10,""ArrowDown,ArrowLeft"":5,""ArrowDown,ArrowRight"":17}","true","ArrowUp,ArrowLeft","false","revaluation","1","72","","",""
"html-keyboard-response","193","921870","0.0-4.0-2.0-1.36","spark_pilot_norest","8595","8","12","Male","","","","","","","null","<div style=""font-size:60px;"">+</div>","null","fixation","","","","","","","","","73","","",""
"revaluation","194","925876","0.0-4.0-2.0-0.37","spark_pilot_norest","8595","8","12","Male","","true","","","","","[]","./assets/img/canyon/memory/33.jpg","[]","value training","canyon","-5","{""ArrowUp,ArrowLeft"":26,""ArrowUp,ArrowRight"":10,""ArrowDown,ArrowLeft"":5,""ArrowDown,ArrowRight"":17}","false","","false","revaluation","1","74","","",""
"html-keyboard-response","195","926379","0.0-4.0-2.0-1.37","spark_pilot_norest","8595","8","12","Male","","","","","","","null","<div style=""font-size:60px;"">+</div>","null","fixation","","","","","","","","","75","","",""
"revaluation","196","932386","0.0-4.0-2.0-0.38","spark_pilot_norest","8595","8","12","Male","","false","","","","","[667.4000000059605,1049.1999999955297]","./assets/img/canyon/memory/13.jpg","[""ArrowUp"",""ArrowLeft""]","value training","canyon","26","{""ArrowUp,ArrowLeft"":26,""ArrowUp,ArrowRight"":10,""ArrowDown,ArrowLeft"":5,""ArrowDown,ArrowRight"":17}","true","ArrowUp,ArrowLeft","false","revaluation","1","76","","",""
"html-keyboard-response","197","932888","0.0-4.0-2.0-1.38","spark_pilot_norest","8595","8","12","Male","","","","","","","null","<div style=""font-size:60px;"">+</div>","null","fixation","","","","","","","","","77","","",""
"revaluation","198","938895","0.0-4.0-2.0-0.39","spark_pilot_norest","8595","8","12","Male","","false","","","","","[980,155.19999999552965]","./assets/img/canyon/memory/7.jpg","[""ArrowUp"",""ArrowLeft""]","value training","canyon","26","{""ArrowUp,ArrowLeft"":26,""ArrowUp,ArrowRight"":10,""ArrowDown,ArrowLeft"":5,""ArrowDown,ArrowRight"":17}","true","ArrowUp,ArrowLeft","false","revaluation","1","78","","",""
"html-keyboard-response","199","939397","0.0-4.0-2.0-1.39","spark_pilot_norest","8595","8","12","Male","","","","","","","null","<div style=""font-size:60px;"">+</div>","null","fixation","","","","","","","","","79","","",""
"revaluation","200","945404","0.0-4.0-2.0-0.40","spark_pilot_norest","8595","8","12","Male","","false","","","","","[860.6000000014901,130.29999999701977]","./assets/img/canyon/memory/21.jpg","[""ArrowUp"",""ArrowLeft""]","value training","canyon","26","{""ArrowUp,ArrowLeft"":26,""ArrowUp,ArrowRight"":10,""ArrowDown,ArrowLeft"":5,""ArrowDown,ArrowRight"":17}","true","ArrowUp,ArrowLeft","false","revaluation","1","80","","",""
"html-keyboard-response","201","945906","0.0-4.0-2.0-1.40","spark_pilot_norest","8595","8","12","Male","","","","","","","null","<div style=""font-size:60px;"">+</div>","null","fixation","","","","","","","","","81","","",""
"revaluation","202","949912","0.0-4.0-2.0-0.41","spark_pilot_norest","8595","8","12","Male","","false","","","","","[188.29999999701977]","./assets/img/canyon/catch/6.jpg","[""spaceBar""]","value training","canyon","0","{""ArrowUp,ArrowLeft"":26,""ArrowUp,ArrowRight"":10,""ArrowDown,ArrowLeft"":5,""ArrowDown,ArrowRight"":17}","true","spaceBar","true","revaluation","1","82","","",""
"html-keyboard-response","203","950413","0.0-4.0-2.0-1.41","spark_pilot_norest","8595","8","12","Male","","","","","","","null","<div style=""font-size:60px;"">+</div>","null","fixation","","","","","","","","","83","","",""
"revaluation","204","956420","0.0-4.0-2.0-0.42","spark_pilot_norest","8595","8","12","Male","","false","","","","","[953.8999999985099,170]","./assets/img/canyon/memory/13.jpg","[""ArrowUp"",""ArrowLeft""]","value training","canyon","26","{""ArrowUp,ArrowLeft"":26,""ArrowUp,ArrowRight"":10,""ArrowDown,ArrowLeft"":5,""ArrowDown,ArrowRight"":17}","true","ArrowUp,ArrowLeft","false","revaluation","1","84","","",""
"html-keyboard-response","205","956923","0.0-4.0-2.0-1.42","spark_pilot_norest","8595","8","12","Male","","","","","","","null","<div style=""font-size:60px;"">+</div>","null","fixation","","","","","","","","","85","","",""
"revaluation","206","960926","0.0-4.0-2.0-0.43","spark_pilot_norest","8595","8","12","Male","","false","","","","","[859.1000000014901]","./assets/img/canyon/catch/0.jpg","[""spaceBar""]","value training","canyon","0","{""ArrowUp,ArrowLeft"":26,""ArrowUp,ArrowRight"":10,""ArrowDown,ArrowLeft"":5,""ArrowDown,ArrowRight"":17}","true","spaceBar","true","revaluation","1","86","","",""
"html-keyboard-response","207","961428","0.0-4.0-2.0-1.43","spark_pilot_norest","8595","8","12","Male","","","","","","","null","<div style=""font-size:60px;"">+</div>","null","fixation","","","","","","","","","87","","",""
"revaluation","208","965432","0.0-4.0-2.0-0.44","spark_pilot_norest","8595","8","12","Male","","false","","","","","[826.7999999970198]","./assets/img/canyon/catch/5.jpg","[""spaceBar""]","value training","canyon","0","{""ArrowUp,ArrowLeft"":26,""ArrowUp,ArrowRight"":10,""ArrowDown,ArrowLeft"":5,""ArrowDown,ArrowRight"":17}","true","spaceBar","true","revaluation","1","88","","",""
"html-keyboard-response","209","965934","0.0-4.0-2.0-1.44","spark_pilot_norest","8595","8","12","Male","","","","","","","null","<div style=""font-size:60px;"">+</div>","null","fixation","","","","","","","","","89","","",""
"revaluation","210","971941","0.0-4.0-2.0-0.45","spark_pilot_norest","8595","8","12","Male","","false","","","","","[1094.9000000059605,415.19999999552965]","./assets/img/canyon/memory/1.jpg","[""ArrowUp"",""ArrowLeft""]","value training","canyon","26","{""ArrowUp,ArrowLeft"":26,""ArrowUp,ArrowRight"":10,""ArrowDown,ArrowLeft"":5,""ArrowDown,ArrowRight"":17}","true","ArrowUp,ArrowLeft","false","revaluation","1","90","","",""
"html-keyboard-response","211","972443","0.0-4.0-2.0-1.45","spark_pilot_norest","8595","8","12","Male","","","","","","","null","<div style=""font-size:60px;"">+</div>","null","fixation","","","","","","","","","91","","",""
"revaluation","212","978458","0.0-4.0-2.0-0.46","spark_pilot_norest","8595","8","12","Male","","false","","","","","[927.2999999970198,516.5]","./assets/img/canyon/memory/15.jpg","[""ArrowUp"",""ArrowLeft""]","value training","canyon","26","{""ArrowUp,ArrowLeft"":26,""ArrowUp,ArrowRight"":10,""ArrowDown,ArrowLeft"":5,""ArrowDown,ArrowRight"":17}","true","ArrowUp,ArrowLeft","false","revaluation","1","92","","",""
"html-keyboard-response","213","978973","0.0-4.0-2.0-1.46","spark_pilot_norest","8595","8","12","Male","","","","","","","null","<div style=""font-size:60px;"">+</div>","null","fixation","","","","","","","","","93","","",""
"revaluation","214","982978","0.0-4.0-2.0-0.47","spark_pilot_norest","8595","8","12","Male","","false","","","","","[147.20000000298023]","./assets/img/canyon/catch/3.jpg","[""spaceBar""]","value training","canyon","0","{""ArrowUp,ArrowLeft"":26,""ArrowUp,ArrowRight"":10,""ArrowDown,ArrowLeft"":5,""ArrowDown,ArrowRight"":17}","true","spaceBar","true","revaluation","1","94","","",""
"html-keyboard-response","215","983480","0.0-4.0-2.0-1.47","spark_pilot_norest","8595","8","12","Male","","","","","","","null","<div style=""font-size:60px;"">+</div>","null","fixation","","","","","","","","","95","","",""
"revaluation","216","989488","0.0-4.0-2.0-0.48","spark_pilot_norest","8595","8","12","Male","","false","","","","","[1597.3999999985099,231.20000000298023]","./assets/img/canyon/memory/18.jpg","[""ArrowUp"",""ArrowLeft""]","value training","canyon","26","{""ArrowUp,ArrowLeft"":26,""ArrowUp,ArrowRight"":10,""ArrowDown,ArrowLeft"":5,""ArrowDown,ArrowRight"":17}","true","ArrowUp,ArrowLeft","false","revaluation","1","96","","",""
"html-keyboard-response","217","989990","0.0-4.0-2.0-1.48","spark_pilot_norest","8595","8","12","Male","","","","","","","null","<div style=""font-size:60px;"">+</div>","null","fixation","","","","","","","","","97","","",""
"revaluation","218","995997","0.0-4.0-2.0-0.49","spark_pilot_norest","8595","8","12","Male","","false","","","","","[598.6000000014901,26.30000000447035]","./assets/img/canyon/memory/31.jpg","[""ArrowUp"",""ArrowLeft""]","value training","canyon","26","{""ArrowUp,ArrowLeft"":26,""ArrowUp,ArrowRight"":10,""ArrowDown,ArrowLeft"":5,""ArrowDown,ArrowRight"":17}","true","ArrowUp,ArrowLeft","false","revaluation","1","98","","",""
"html-keyboard-response","219","996499","0.0-4.0-2.0-1.49","spark_pilot_norest","8595","8","12","Male","","","","","","","null","<div style=""font-size:60px;"">+</div>","null","fixation","","","","","","","","","99","","",""
"learning-instructions","220","1011403","0.0-4.0-3.0-0.0","spark_pilot_norest","8595","8","12","Male","","","","","","","1349.3999999985099","<p> Now, you will travel with a friend who will choose whether you go up or down first. </p>
            <p> On these turns, you will just see the animal that they found. You will still get to choose which chest to search for treasure.</p>","","instructions","","","","","","","","","","","",""
"revaluation","221","1015409","0.0-4.0-4.0-0.0","spark_pilot_norest","8595","8","12","Male","","false","","","","","[1307]","./assets/img/canyon/animals/lion.jpg","[""ArrowLeft""]","revaluation","canyon","2","{""ArrowUp,ArrowLeft"":2,""ArrowUp,ArrowRight"":11,""ArrowDown,ArrowLeft"":8,""ArrowDown,ArrowRight"":27}","false","ArrowUp,ArrowLeft","","revaluation","1","0","","",""
"html-keyboard-response","222","1015924","0.0-4.0-4.0-1.0","spark_pilot_norest","8595","8","12","Male","","","","","","","null","<div style=""font-size:60px;"">+</div>","null","fixation","","","","","","","","","1","","",""
"revaluation","223","1019951","0.0-4.0-4.0-0.1","spark_pilot_norest","8595","8","12","Male","","false","","","","","[581.8999999985099]","./assets/img/canyon/animals/giraffe.jpg","[""ArrowRight""]","revaluation","canyon","27","{""ArrowUp,ArrowLeft"":2,""ArrowUp,ArrowRight"":11,""ArrowDown,ArrowLeft"":8,""ArrowDown,ArrowRight"":27}","true","ArrowDown,ArrowRight","","revaluation","1","2","","",""
"html-keyboard-response","224","1020466","0.0-4.0-4.0-1.1","spark_pilot_norest","8595","8","12","Male","","","","","","","null","<div style=""font-size:60px;"">+</div>","null","fixation","","","","","","","","","3","","",""
"revaluation","225","1024492","0.0-4.0-4.0-0.2","spark_pilot_norest","8595","8","12","Male","","false","","","","","[438.8999999985099]","./assets/img/canyon/animals/lion.jpg","[""ArrowRight""]","revaluation","canyon","11","{""ArrowUp,ArrowLeft"":2,""ArrowUp,ArrowRight"":11,""ArrowDown,ArrowLeft"":8,""ArrowDown,ArrowRight"":27}","true","ArrowUp,ArrowRight","","revaluation","1","4","","",""
"html-keyboard-response","226","1025006","0.0-4.0-4.0-1.2","spark_pilot_norest","8595","8","12","Male","","","","","","","null","<div style=""font-size:60px;"">+</div>","null","fixation","","","","","","","","","5","","",""
"revaluation","227","1029029","0.0-4.0-4.0-0.3","spark_pilot_norest","8595","8","12","Male","","false","","","","","[821.6000000014901]","./assets/img/canyon/animals/lion.jpg","[""ArrowLeft""]","revaluation","canyon","2","{""ArrowUp,ArrowLeft"":2,""ArrowUp,ArrowRight"":11,""ArrowDown,ArrowLeft"":8,""ArrowDown,ArrowRight"":27}","false","ArrowUp,ArrowLeft","","revaluation","1","6","","",""
"html-keyboard-response","228","1029544","0.0-4.0-4.0-1.3","spark_pilot_norest","8595","8","12","Male","","","","","","","null","<div style=""font-size:60px;"">+</div>","null","fixation","","","","","","","","","7","","",""
"revaluation","229","1033562","0.0-4.0-4.0-0.4","spark_pilot_norest","8595","8","12","Male","","false","","","","","[502.6000000014901]","./assets/img/canyon/animals/lion.jpg","[""ArrowRight""]","revaluation","canyon","11","{""ArrowUp,ArrowLeft"":2,""ArrowUp,ArrowRight"":11,""ArrowDown,ArrowLeft"":8,""ArrowDown,ArrowRight"":27}","true","ArrowUp,ArrowRight","","revaluation","1","8","","",""
"html-keyboard-response","230","1034077","0.0-4.0-4.0-1.4","spark_pilot_norest","8595","8","12","Male","","","","","","","null","<div style=""font-size:60px;"">+</div>","null","fixation","","","","","","","","","9","","",""
"revaluation","231","1038095","0.0-4.0-4.0-0.5","spark_pilot_norest","8595","8","12","Male","","false","","","","","[651.1999999955297]","./assets/img/canyon/animals/giraffe.jpg","[""ArrowLeft""]","revaluation","canyon","8","{""ArrowUp,ArrowLeft"":2,""ArrowUp,ArrowRight"":11,""ArrowDown,ArrowLeft"":8,""ArrowDown,ArrowRight"":27}","false","ArrowDown,ArrowLeft","","revaluation","1","10","","",""
"html-keyboard-response","232","1038598","0.0-4.0-4.0-1.5","spark_pilot_norest","8595","8","12","Male","","","","","","","null","<div style=""font-size:60px;"">+</div>","null","fixation","","","","","","","","","11","","",""
"revaluation","233","1042614","0.0-4.0-4.0-0.6","spark_pilot_norest","8595","8","12","Male","","false","","","","","[1002.5]","./assets/img/canyon/animals/giraffe.jpg","[""ArrowRight""]","revaluation","canyon","27","{""ArrowUp,ArrowLeft"":2,""ArrowUp,ArrowRight"":11,""ArrowDown,ArrowLeft"":8,""ArrowDown,ArrowRight"":27}","true","ArrowDown,ArrowRight","","revaluation","1","12","","",""
"html-keyboard-response","234","1043115","0.0-4.0-4.0-1.6","spark_pilot_norest","8595","8","12","Male","","","","","","","null","<div style=""font-size:60px;"">+</div>","null","fixation","","","","","","","","","13","","",""
"revaluation","235","1047121","0.0-4.0-4.0-0.7","spark_pilot_norest","8595","8","12","Male","","false","","","","","[11.399999998509884]","./assets/img/canyon/animals/giraffe.jpg","[""ArrowRight""]","revaluation","canyon","27","{""ArrowUp,ArrowLeft"":2,""ArrowUp,ArrowRight"":11,""ArrowDown,ArrowLeft"":8,""ArrowDown,ArrowRight"":27}","true","ArrowDown,ArrowRight","","revaluation","1","14","","",""
"html-keyboard-response","236","1047622","0.0-4.0-4.0-1.7","spark_pilot_norest","8595","8","12","Male","","","","","","","null","<div style=""font-size:60px;"">+</div>","null","fixation","","","","","","","","","15","","",""
"revaluation","237","1051627","0.0-4.0-4.0-0.8","spark_pilot_norest","8595","8","12","Male","","false","","","","","[10.600000001490116]","./assets/img/canyon/animals/giraffe.jpg","[""ArrowRight""]","revaluation","canyon","27","{""ArrowUp,ArrowLeft"":2,""ArrowUp,ArrowRight"":11,""ArrowDown,ArrowLeft"":8,""ArrowDown,ArrowRight"":27}","true","ArrowDown,ArrowRight","","revaluation","1","16","","",""
"html-keyboard-response","238","1052128","0.0-4.0-4.0-1.8","spark_pilot_norest","8595","8","12","Male","","","","","","","null","<div style=""font-size:60px;"">+</div>","null","fixation","","","","","","","","","17","","",""
"revaluation","239","1056132","0.0-4.0-4.0-0.9","spark_pilot_norest","8595","8","12","Male","","false","","","","","[14.600000001490116]","./assets/img/canyon/animals/lion.jpg","[""ArrowRight""]","revaluation","canyon","11","{""ArrowUp,ArrowLeft"":2,""ArrowUp,ArrowRight"":11,""ArrowDown,ArrowLeft"":8,""ArrowDown,ArrowRight"":27}","true","ArrowUp,ArrowRight","","revaluation","1","18","","",""
"html-keyboard-response","240","1056634","0.0-4.0-4.0-1.9","spark_pilot_norest","8595","8","12","Male","","","","","","","null","<div style=""font-size:60px;"">+</div>","null","fixation","","","","","","","","","19","","",""
"revaluation","241","1060639","0.0-4.0-4.0-0.10","spark_pilot_norest","8595","8","12","Male","","false","","","","","[16.30000000447035]","./assets/img/canyon/animals/lion.jpg","[""ArrowRight""]","revaluation","canyon","11","{""ArrowUp,ArrowLeft"":2,""ArrowUp,ArrowRight"":11,""ArrowDown,ArrowLeft"":8,""ArrowDown,ArrowRight"":27}","true","ArrowUp,ArrowRight","","revaluation","1","20","","",""
"html-keyboard-response","242","1061141","0.0-4.0-4.0-1.10","spark_pilot_norest","8595","8","12","Male","","","","","","","null","<div style=""font-size:60px;"">+</div>","null","fixation","","","","","","","","","21","","",""
"revaluation","243","1065152","0.0-4.0-4.0-0.11","spark_pilot_norest","8595","8","12","Male","","false","","","","","[0.20000000298023224]","./assets/img/canyon/animals/giraffe.jpg","[""ArrowRight""]","revaluation","canyon","27","{""ArrowUp,ArrowLeft"":2,""ArrowUp,ArrowRight"":11,""ArrowDown,ArrowLeft"":8,""ArrowDown,ArrowRight"":27}","true","ArrowDown,ArrowRight","","revaluation","1","22","","",""
"html-keyboard-response","244","1065654","0.0-4.0-4.0-1.11","spark_pilot_norest","8595","8","12","Male","","","","","","","null","<div style=""font-size:60px;"">+</div>","null","fixation","","","","","","","","","23","","",""
"revaluation","245","1069659","0.0-4.0-4.0-0.12","spark_pilot_norest","8595","8","12","Male","","false","","","","","[429.3999999985099]","./assets/img/canyon/animals/lion.jpg","[""ArrowRight""]","revaluation","canyon","11","{""ArrowUp,ArrowLeft"":2,""ArrowUp,ArrowRight"":11,""ArrowDown,ArrowLeft"":8,""ArrowDown,ArrowRight"":27}","true","ArrowUp,ArrowRight","","revaluation","1","24","","",""
"html-keyboard-response","246","1070161","0.0-4.0-4.0-1.12","spark_pilot_norest","8595","8","12","Male","","","","","","","null","<div style=""font-size:60px;"">+</div>","null","fixation","","","","","","","","","25","","",""
"revaluation","247","1074164","0.0-4.0-4.0-0.13","spark_pilot_norest","8595","8","12","Male","","false","","","","","[394.3999999985099]","./assets/img/canyon/animals/giraffe.jpg","[""ArrowRight""]","revaluation","canyon","27","{""ArrowUp,ArrowLeft"":2,""ArrowUp,ArrowRight"":11,""ArrowDown,ArrowLeft"":8,""ArrowDown,ArrowRight"":27}","true","ArrowDown,ArrowRight","","revaluation","1","26","","",""
"html-keyboard-response","248","1074666","0.0-4.0-4.0-1.13","spark_pilot_norest","8595","8","12","Male","","","","","","","null","<div style=""font-size:60px;"">+</div>","null","fixation","","","","","","","","","27","","",""
"revaluation","249","1078671","0.0-4.0-4.0-0.14","spark_pilot_norest","8595","8","12","Male","","false","","","","","[104.29999999701977]","./assets/img/canyon/animals/lion.jpg","[""ArrowRight""]","revaluation","canyon","11","{""ArrowUp,ArrowLeft"":2,""ArrowUp,ArrowRight"":11,""ArrowDown,ArrowLeft"":8,""ArrowDown,ArrowRight"":27}","true","ArrowUp,ArrowRight","","revaluation","1","28","","",""
"html-keyboard-response","250","1079173","0.0-4.0-4.0-1.14","spark_pilot_norest","8595","8","12","Male","","","","","","","null","<div style=""font-size:60px;"">+</div>","null","fixation","","","","","","","","","29","","",""
"revaluation","251","1083176","0.0-4.0-4.0-0.15","spark_pilot_norest","8595","8","12","Male","","false","","","","","[131.59999999403954]","./assets/img/canyon/animals/giraffe.jpg","[""ArrowRight""]","revaluation","canyon","27","{""ArrowUp,ArrowLeft"":2,""ArrowUp,ArrowRight"":11,""ArrowDown,ArrowLeft"":8,""ArrowDown,ArrowRight"":27}","true","ArrowDown,ArrowRight","","revaluation","1","30","","",""
"html-keyboard-response","252","1083677","0.0-4.0-4.0-1.15","spark_pilot_norest","8595","8","12","Male","","","","","","","null","<div style=""font-size:60px;"">+</div>","null","fixation","","","","","","","","","31","","",""
"revaluation","253","1087679","0.0-4.0-4.0-0.16","spark_pilot_norest","8595","8","12","Male","","false","","","","","[19.5]","./assets/img/canyon/animals/giraffe.jpg","[""ArrowRight""]","revaluation","canyon","27","{""ArrowUp,ArrowLeft"":2,""ArrowUp,ArrowRight"":11,""ArrowDown,ArrowLeft"":8,""ArrowDown,ArrowRight"":27}","true","ArrowDown,ArrowRight","","revaluation","1","32","","",""
"html-keyboard-response","254","1088180","0.0-4.0-4.0-1.16","spark_pilot_norest","8595","8","12","Male","","","","","","","null","<div style=""font-size:60px;"">+</div>","null","fixation","","","","","","","","","33","","",""
"revaluation","255","1092183","0.0-4.0-4.0-0.17","spark_pilot_norest","8595","8","12","Male","","false","","","","","[19.5]","./assets/img/canyon/animals/lion.jpg","[""ArrowRight""]","revaluation","canyon","11","{""ArrowUp,ArrowLeft"":2,""ArrowUp,ArrowRight"":11,""ArrowDown,ArrowLeft"":8,""ArrowDown,ArrowRight"":27}","true","ArrowUp,ArrowRight","","revaluation","1","34","","",""
"html-keyboard-response","256","1092684","0.0-4.0-4.0-1.17","spark_pilot_norest","8595","8","12","Male","","","","","","","null","<div style=""font-size:60px;"">+</div>","null","fixation","","","","","","","","","35","","",""
"learning-instructions","257","1101472","0.0-4.0-5.0-0.0","spark_pilot_norest","8595","8","12","Male","","","","","","","null","<p> You have almost finished this part of the game! </p>
            <p> We are going to ask you to make a few more choices. </p>","","instructions","","","","","","","","","","","",""
"learning-instructions","258","1117441","0.0-4.0-5.0-0.1","spark_pilot_norest","8595","8","12","Male","","","","","","","null","<p> First, you need to decide whether to go up or down. When you see each picture, use the arrow keys to make your choice. </p>
            <p><b>You will not see which animal you found, but try to get to the one that will give you the most treasure.</b></p>","","instructions","","","","","","","","","","","",""
"html-keyboard-response","259","1118455","0.0-4.0-6.0-0.0","spark_pilot_norest","8595","8","12","Male","","","","","","","null","<div style=""font-size:100px;color:red;"">Starting in...</div>","null","","","","","","","","","","","","",""
"html-keyboard-response","260","1119472","0.0-4.0-6.0-1.0","spark_pilot_norest","8595","8","12","Male","","","","","","","null","<div style=""font-size:200px;color:red;"">3</div>","null","","","","","","","","","","","","",""
"html-keyboard-response","261","1120485","0.0-4.0-6.0-2.0","spark_pilot_norest","8595","8","12","Male","","","","","","","null","<div style=""font-size:200px;color:red;"">2</div>","null","","","","","","","","","","","","",""
"html-keyboard-response","262","1121499","0.0-4.0-6.0-3.0","spark_pilot_norest","8595","8","12","Male","","","","","","","null","<div style=""font-size:200px;color:red;"">1</div>","null","","","","","","","","","","","","",""
"revaluation","263","1122119","0.0-4.0-7.0-0.0","spark_pilot_norest","8595","8","12","Male","","false","","","","","[617.1000000014901]","./assets/img/canyon/test/2.jpg","[""ArrowUp""]","first stage test","canyon","0","{""ArrowUp,ArrowLeft"":2,""ArrowUp,ArrowRight"":11,""ArrowDown,ArrowLeft"":8,""ArrowDown,ArrowRight"":27}","false","ArrowUp","false","revaluation","1","","","",""
"html-keyboard-response","264","1122625","0.0-4.0-7.0-1.0","spark_pilot_norest","8595","8","12","Male","","","","","","","null","<div style=""font-size:60px;"">+</div>","null","fixation","","","","","","","","","","","",""
"revaluation","265","1123683","0.0-4.0-7.0-0.1","spark_pilot_norest","8595","8","12","Male","","false","","","","","[1056.2999999970198]","./assets/img/canyon/test/0.jpg","[""ArrowUp""]","first stage test","canyon","0","{""ArrowUp,ArrowLeft"":2,""ArrowUp,ArrowRight"":11,""ArrowDown,ArrowLeft"":8,""ArrowDown,ArrowRight"":27}","false","ArrowUp","false","revaluation","1","","","",""
"html-keyboard-response","266","1124197","0.0-4.0-7.0-1.1","spark_pilot_norest","8595","8","12","Male","","","","","","","null","<div style=""font-size:60px;"">+</div>","null","fixation","","","","","","","","","","","",""
"revaluation","267","1125266","0.0-4.0-7.0-0.2","spark_pilot_norest","8595","8","12","Male","","false","","","","","[1065.2999999970198]","./assets/img/canyon/test/3.jpg","[""ArrowUp""]","first stage test","canyon","0","{""ArrowUp,ArrowLeft"":2,""ArrowUp,ArrowRight"":11,""ArrowDown,ArrowLeft"":8,""ArrowDown,ArrowRight"":27}","false","ArrowUp","false","revaluation","1","","","",""
"html-keyboard-response","268","1125779","0.0-4.0-7.0-1.2","spark_pilot_norest","8595","8","12","Male","","","","","","","null","<div style=""font-size:60px;"">+</div>","null","fixation","","","","","","","","","","","",""
"revaluation","269","1127068","0.0-4.0-7.0-0.3","spark_pilot_norest","8595","8","12","Male","","false","","","","","[1287]","./assets/img/canyon/test/1.jpg","[""ArrowDown""]","first stage test","canyon","0","{""ArrowUp,ArrowLeft"":2,""ArrowUp,ArrowRight"":11,""ArrowDown,ArrowLeft"":8,""ArrowDown,ArrowRight"":27}","true","ArrowDown","false","revaluation","1","","","",""
"html-keyboard-response","270","1127583","0.0-4.0-7.0-1.3","spark_pilot_norest","8595","8","12","Male","","","","","","","null","<div style=""font-size:60px;"">+</div>","null","fixation","","","","","","","","","","","",""
"learning-instructions","271","1140928","0.0-4.0-8.0-0.0","spark_pilot_norest","8595","8","12","Male","","","","","","","null","<p> Now you will see the animals again and can search their chests for treasure. </p>
            <p> This time, you will not see how much treasure you earned, but you will earn more bonus money for making better choices. </p>","","instructions","","","","","","","","","","","",""
"html-keyboard-response","272","1141935","0.0-4.0-9.0-0.0","spark_pilot_norest","8595","8","12","Male","","","","","","","null","<div style=""font-size:100px;color:red;"">Starting in...</div>","null","","","","","","","","","","","","",""
"html-keyboard-response","273","1142949","0.0-4.0-9.0-1.0","spark_pilot_norest","8595","8","12","Male","","","","","","","null","<div style=""font-size:200px;color:red;"">3</div>","null","","","","","","","","","","","","",""
"html-keyboard-response","274","1143962","0.0-4.0-9.0-2.0","spark_pilot_norest","8595","8","12","Male","","","","","","","null","<div style=""font-size:200px;color:red;"">2</div>","null","","","","","","","","","","","","",""
"html-keyboard-response","275","1144963","0.0-4.0-9.0-3.0","spark_pilot_norest","8595","8","12","Male","","","","","","","null","<div style=""font-size:200px;color:red;"">1</div>","null","","","","","","","","","","","","",""
"revaluation","276","1146505","0.0-4.0-10.0-0.0","spark_pilot_norest","8595","8","12","Male","","false","","","","","[1540.3999999985099]","./assets/img/canyon/animals/lion.jpg","[""ArrowRight""]","second stage test","canyon","0","{""ArrowUp,ArrowLeft"":2,""ArrowUp,ArrowRight"":11,""ArrowDown,ArrowLeft"":8,""ArrowDown,ArrowRight"":27}","true","ArrowUp,ArrowRight","","revaluation","1","","","",""
"html-keyboard-response","277","1147014","0.0-4.0-10.0-1.0","spark_pilot_norest","8595","8","12","Male","","","","","","","null","<div style=""font-size:60px;"">+</div>","null","fixation","","","","","","","","","","","",""
"revaluation","278","1148233","0.0-4.0-10.0-0.1","spark_pilot_norest","8595","8","12","Male","","false","","","","","[1215.5]","./assets/img/canyon/animals/lion.jpg","[""ArrowRight""]","second stage test","canyon","0","{""ArrowUp,ArrowLeft"":2,""ArrowUp,ArrowRight"":11,""ArrowDown,ArrowLeft"":8,""ArrowDown,ArrowRight"":27}","true","ArrowUp,ArrowRight","","revaluation","1","","","",""
"html-keyboard-response","279","1148735","0.0-4.0-10.0-1.1","spark_pilot_norest","8595","8","12","Male","","","","","","","null","<div style=""font-size:60px;"">+</div>","null","fixation","","","","","","","","","","","",""
"revaluation","280","1149618","0.0-4.0-10.0-0.2","spark_pilot_norest","8595","8","12","Male","","false","","","","","[880.0999999940395]","./assets/img/canyon/animals/lion.jpg","[""ArrowLeft""]","second stage test","canyon","0","{""ArrowUp,ArrowLeft"":2,""ArrowUp,ArrowRight"":11,""ArrowDown,ArrowLeft"":8,""ArrowDown,ArrowRight"":27}","false","ArrowUp,ArrowLeft","","revaluation","1","","","",""
"html-keyboard-response","281","1150126","0.0-4.0-10.0-1.2","spark_pilot_norest","8595","8","12","Male","","","","","","","null","<div style=""font-size:60px;"">+</div>","null","fixation","","","","","","","","","","","",""
"revaluation","282","1150820","0.0-4.0-10.0-0.3","spark_pilot_norest","8595","8","12","Male","","false","","","","","[690.6999999955297]","./assets/img/canyon/animals/lion.jpg","[""ArrowRight""]","second stage test","canyon","0","{""ArrowUp,ArrowLeft"":2,""ArrowUp,ArrowRight"":11,""ArrowDown,ArrowLeft"":8,""ArrowDown,ArrowRight"":27}","true","ArrowUp,ArrowRight","","revaluation","1","","","",""
"html-keyboard-response","283","1151331","0.0-4.0-10.0-1.3","spark_pilot_norest","8595","8","12","Male","","","","","","","null","<div style=""font-size:60px;"">+</div>","null","fixation","","","","","","","","","","","",""
"revaluation","284","1151671","0.0-4.0-10.0-0.4","spark_pilot_norest","8595","8","12","Male","","false","","","","","[336.8999999985099]","./assets/img/canyon/animals/giraffe.jpg","[""ArrowLeft""]","second stage test","canyon","0","{""ArrowUp,ArrowLeft"":2,""ArrowUp,ArrowRight"":11,""ArrowDown,ArrowLeft"":8,""ArrowDown,ArrowRight"":27}","false","ArrowDown,ArrowLeft","","revaluation","1","","","",""
"html-keyboard-response","285","1152180","0.0-4.0-10.0-1.4","spark_pilot_norest","8595","8","12","Male","","","","","","","null","<div style=""font-size:60px;"">+</div>","null","fixation","","","","","","","","","","","",""
"revaluation","286","1152477","0.0-4.0-10.0-0.5","spark_pilot_norest","8595","8","12","Male","","false","","","","","[293.8999999985099]","./assets/img/canyon/animals/giraffe.jpg","[""ArrowRight""]","second stage test","canyon","0","{""ArrowUp,ArrowLeft"":2,""ArrowUp,ArrowRight"":11,""ArrowDown,ArrowLeft"":8,""ArrowDown,ArrowRight"":27}","true","ArrowDown,ArrowRight","","revaluation","1","","","",""
"html-keyboard-response","287","1152981","0.0-4.0-10.0-1.5","spark_pilot_norest","8595","8","12","Male","","","","","","","null","<div style=""font-size:60px;"">+</div>","null","fixation","","","","","","","","","","","",""
"revaluation","288","1153228","0.0-4.0-10.0-0.6","spark_pilot_norest","8595","8","12","Male","","false","","","","","[243]","./assets/img/canyon/animals/giraffe.jpg","[""ArrowLeft""]","second stage test","canyon","0","{""ArrowUp,ArrowLeft"":2,""ArrowUp,ArrowRight"":11,""ArrowDown,ArrowLeft"":8,""ArrowDown,ArrowRight"":27}","false","ArrowDown,ArrowLeft","","revaluation","1","","","",""
"html-keyboard-response","289","1153733","0.0-4.0-10.0-1.6","spark_pilot_norest","8595","8","12","Male","","","","","","","null","<div style=""font-size:60px;"">+</div>","null","fixation","","","","","","","","","","","",""
"revaluation","290","1153980","0.0-4.0-10.0-0.7","spark_pilot_norest","8595","8","12","Male","","false","","","","","[244.19999999552965]","./assets/img/canyon/animals/giraffe.jpg","[""ArrowRight""]","second stage test","canyon","0","{""ArrowUp,ArrowLeft"":2,""ArrowUp,ArrowRight"":11,""ArrowDown,ArrowLeft"":8,""ArrowDown,ArrowRight"":27}","true","ArrowDown,ArrowRight","","revaluation","1","","","",""
"html-keyboard-response","291","1154482","0.0-4.0-10.0-1.7","spark_pilot_norest","8595","8","12","Male","","","","","","","null","<div style=""font-size:60px;"">+</div>","null","fixation","","","","","","","","","","","",""
"learning-instructions","292","1158382","0.0-4.0-0.1-0.2","spark_pilot_norest","8595","8","12","Male","","","","","","","1196.3999999985099","<p> This time you are searching for treasure in the <b>ocean</b>.</p>","","instructions","","","","","","","","","","","",""
"learning-instructions","293","1178303","0.0-4.0-0.1-0.3","spark_pilot_norest","8595","8","12","Male","","","","","","","2677.5","<p><b>New</b> animals with <b>new</b> treasure chests live here. You need to explore to discover where the animal with the best treasure chest is.</p>
                    <p> Like before, once you figure out which animal has the chest with the most treasure, you should try to get to that animal and select that chest! </p>","","instructions","","","","","","","","","","","",""
"learning-instructions","294","1193918","0.0-4.0-1.1-0.1","spark_pilot_norest","8595","8","12","Male","","","","","","","893.8999999985099","<p> Remember, when you see a picture of the place, use the up and down keys to <b>find an animal</b>.</p>
            <p> When you encounter an animal, you should use the left and right keys to <b>select a treasure chest</b>.</p>
            <p> Don't forget to look out for the robber! </p>","","instructions","","","","","","","","","","","",""
"revaluation","295","1199949","0.0-4.0-2.1-0.50","spark_pilot_norest","8595","8","12","Male","","false","","","","","[1042.1000000014901,322.40000000596046]","./assets/img/ocean/memory/11.jpg","[""ArrowDown"",""ArrowRight""]","value training","ocean","30","{""ArrowUp,ArrowLeft"":23,""ArrowUp,ArrowRight"":10,""ArrowDown,ArrowLeft"":8,""ArrowDown,ArrowRight"":30}","true","ArrowDown,ArrowRight","false","original","2","0","","",""
"html-keyboard-response","296","1200465","0.0-4.0-2.1-1.50","spark_pilot_norest","8595","8","12","Male","","","","","","","null","<div style=""font-size:60px;"">+</div>","null","fixation","","","","","","","","","1","","",""
"revaluation","297","1206499","0.0-4.0-2.1-0.51","spark_pilot_norest","8595","8","12","Male","","false","","","","","[320.90000000596046,386.8999999985099]","./assets/img/ocean/memory/33.jpg","[""ArrowUp"",""ArrowRight""]","value training","ocean","10","{""ArrowUp,ArrowLeft"":23,""ArrowUp,ArrowRight"":10,""ArrowDown,ArrowLeft"":8,""ArrowDown,ArrowRight"":30}","false","ArrowUp,ArrowRight","false","original","2","2","","",""
"html-keyboard-response","298","1207014","0.0-4.0-2.1-1.51","spark_pilot_norest","8595","8","12","Male","","","","","","","null","<div style=""font-size:60px;"">+</div>","null","fixation","","","","","","","","","3","","",""
"revaluation","299","1213050","0.0-4.0-2.1-0.52","spark_pilot_norest","8595","8","12","Male","","false","","","","","[379.29999999701977,496.8999999985099]","./assets/img/ocean/memory/16.jpg","[""ArrowUp"",""ArrowLeft""]","value training","ocean","23","{""ArrowUp,ArrowLeft"":23,""ArrowUp,ArrowRight"":10,""ArrowDown,ArrowLeft"":8,""ArrowDown,ArrowRight"":30}","false","ArrowUp,ArrowLeft","false","original","2","4","","",""
"html-keyboard-response","300","1213564","0.0-4.0-2.1-1.52","spark_pilot_norest","8595","8","12","Male","","","","","","","null","<div style=""font-size:60px;"">+</div>","null","fixation","","","","","","","","","5","","",""
"revaluation","301","1219596","0.0-4.0-2.1-0.53","spark_pilot_norest","8595","8","12","Male","","false","","","","","[593.8999999985099,384.8999999985099]","./assets/img/ocean/memory/22.jpg","[""ArrowDown"",""ArrowLeft""]","value training","ocean","8","{""ArrowUp,ArrowLeft"":23,""ArrowUp,ArrowRight"":10,""ArrowDown,ArrowLeft"":8,""ArrowDown,ArrowRight"":30}","false","ArrowDown,ArrowLeft","false","original","2","6","","",""
"html-keyboard-response","302","1220111","0.0-4.0-2.1-1.53","spark_pilot_norest","8595","8","12","Male","","","","","","","null","<div style=""font-size:60px;"">+</div>","null","fixation","","","","","","","","","7","","",""
"revaluation","303","1226126","0.0-4.0-2.1-0.54","spark_pilot_norest","8595","8","12","Male","","false","","","","","[635.9000000059605,15.199999995529652]","./assets/img/ocean/memory/14.jpg","[""ArrowDown"",""ArrowRight""]","value training","ocean","30","{""ArrowUp,ArrowLeft"":23,""ArrowUp,ArrowRight"":10,""ArrowDown,ArrowLeft"":8,""ArrowDown,ArrowRight"":30}","true","ArrowDown,ArrowRight","false","original","2","8","","",""
"html-keyboard-response","304","1226627","0.0-4.0-2.1-1.54","spark_pilot_norest","8595","8","12","Male","","","","","","","null","<div style=""font-size:60px;"">+</div>","null","fixation","","","","","","","","","9","","",""
"revaluation","305","1232632","0.0-4.0-2.1-0.55","spark_pilot_norest","8595","8","12","Male","","false","","","","","[520.7000000029802,18.19999999552965]","./assets/img/ocean/memory/5.jpg","[""ArrowDown"",""ArrowRight""]","value training","ocean","30","{""ArrowUp,ArrowLeft"":23,""ArrowUp,ArrowRight"":10,""ArrowDown,ArrowLeft"":8,""ArrowDown,ArrowRight"":30}","true","ArrowDown,ArrowRight","false","original","2","10","","",""
"html-keyboard-response","306","1233135","0.0-4.0-2.1-1.55","spark_pilot_norest","8595","8","12","Male","","","","","","","null","<div style=""font-size:60px;"">+</div>","null","fixation","","","","","","","","","11","","",""
"revaluation","307","1239140","0.0-4.0-2.1-0.56","spark_pilot_norest","8595","8","12","Male","","false","","","","","[483.20000000298023,4.300000004470348]","./assets/img/ocean/memory/30.jpg","[""ArrowDown"",""ArrowRight""]","value training","ocean","30","{""ArrowUp,ArrowLeft"":23,""ArrowUp,ArrowRight"":10,""ArrowDown,ArrowLeft"":8,""ArrowDown,ArrowRight"":30}","true","ArrowDown,ArrowRight","false","original","2","12","","",""
"html-keyboard-response","308","1239642","0.0-4.0-2.1-1.56","spark_pilot_norest","8595","8","12","Male","","","","","","","null","<div style=""font-size:60px;"">+</div>","null","fixation","","","","","","","","","13","","",""
"revaluation","309","1243646","0.0-4.0-2.1-0.57","spark_pilot_norest","8595","8","12","Male","","false","","","","","[8]","./assets/img/ocean/catch/5.jpg","[""spaceBar""]","value training","ocean","0","{""ArrowUp,ArrowLeft"":23,""ArrowUp,ArrowRight"":10,""ArrowDown,ArrowLeft"":8,""ArrowDown,ArrowRight"":30}","true","spaceBar","true","original","2","14","","",""
"html-keyboard-response","310","1244148","0.0-4.0-2.1-1.57","spark_pilot_norest","8595","8","12","Male","","","","","","","null","<div style=""font-size:60px;"">+</div>","null","fixation","","","","","","","","","15","","",""
"revaluation","311","1250156","0.0-4.0-2.1-0.58","spark_pilot_norest","8595","8","12","Male","","false","","","","","[554.3999999985099,0.8999999985098839]","./assets/img/ocean/memory/23.jpg","[""ArrowDown"",""ArrowRight""]","value training","ocean","30","{""ArrowUp,ArrowLeft"":23,""ArrowUp,ArrowRight"":10,""ArrowDown,ArrowLeft"":8,""ArrowDown,ArrowRight"":30}","true","ArrowDown,ArrowRight","false","original","2","16","","",""
"html-keyboard-response","312","1250657","0.0-4.0-2.1-1.58","spark_pilot_norest","8595","8","12","Male","","","","","","","null","<div style=""font-size:60px;"">+</div>","null","fixation","","","","","","","","","17","","",""
"revaluation","313","1256664","0.0-4.0-2.1-0.59","spark_pilot_norest","8595","8","12","Male","","false","","","","","[1169.6000000014901,210.60000000149012]","./assets/img/ocean/memory/29.jpg","[""ArrowDown"",""ArrowRight""]","value training","ocean","30","{""ArrowUp,ArrowLeft"":23,""ArrowUp,ArrowRight"":10,""ArrowDown,ArrowLeft"":8,""ArrowDown,ArrowRight"":30}","true","ArrowDown,ArrowRight","false","original","2","18","","",""
