"trial_type","trial_index","time_elapsed","internal_node_id","task_version","subject_id","assigned_condition","age","gender","success","timeout","failed_images","failed_audio","failed_video","browser_interaction","rt","stimulus","response","task_part","environment","score","rewardMap","correct","fullState","isCatch","condition","order","trial_num","key_press","ground_truth","bonus"
"pavlovia","0","1486","0.0-0.0","spark_pilot_norest","9180","7","12","Male","","","","","","","","","","","","","","","","","","","","","",""
"preload","1","14723","0.0-1.0","spark_pilot_norest","9180","7","12","Male","true","false","[]","[]","[]","[{""event"":""fullscreenenter"",""trial"":2,""time"":22463}]","","","","","","","","","","","","","","","",""
"fullscreen","2","23426","0.0-2.0","spark_pilot_norest","9180","7","12","Male","true","","","","","","","","","","","","","","","","","","","","",""
"audio-button-response","3","25057","0.0-3.0-0.0-0.0","spark_pilot_norest","9180","7","12","Male","","","","","","","1491","./assets/audio/audiotest/turtle.mp3","2","audio_test","","","","","","","","","","","",""
"learning-instructions","4","34720","0.0-3.0-1.0-0.0","spark_pilot_norest","9180","7","12","Male","","","","","","","2675.699999988079","<p> Welcome! Please remember to stay in fullscreen mode and don't click away from the experiment. </p>","","instructions","","","","","","","","","","","",""
"learning-instructions","5","44291","0.0-3.0-1.0-0.1","spark_pilot_norest","9180","7","12","Male","","","","","","","1166","<p> Today you will be playing a game to earn treasure. </p>
            <p> At the end of the experiment, you will earn a bonus based on how much treasure you find. </p>
            <img src='./assets/img/instructions/treasure.jpg' class='instructions-image'>","","instructions","","","","","","","","","","","",""
"learning-instructions","6","53692","0.0-3.0-1.0-0.2","spark_pilot_norest","9180","7","12","Male","","","","","","","1147.699999988079","<p> Animals have hidden treasure in treasure chests. </p>
            <p> You need to first find an animal and then choose which of their treasure chests to search. </p>
            <img src='./assets/img/space/animals/cat.jpg' class='instructions-image'>","","instructions","","","","","","","","","","","",""
"learning-instructions","7","69499","0.0-3.0-1.0-0.3","spark_pilot_norest","9180","7","12","Male","","","","","","","2653.5","<p> In each round, you will search for treasure in a different place. In the real game, there will be two rounds. </p>
            <p> You will begin with a separate, practice round where you will search for treasure in outer space. </p>
            <img src='./assets/img/space/0.jpg' class='instructions-image'>","","instructions","","","","","","","","","","","",""
"learning-instructions","8","83193","0.0-3.0-1.0-0.4","spark_pilot_norest","9180","7","12","Male","","","","","","","2286.5999999940395","<p> On every turn, you will see a picture of the place that you are in, but the specific image may be different each time. </p>
            <p> For example, both of these images mean you are in outer space. </p>
            <img src='./assets/img/instructions/outerspace.jpg' class='instructions-image'>","","instructions","","","","","","","","","","","",""
"learning-instructions","9","92566","0.0-3.0-1.0-0.5","spark_pilot_norest","9180","7","12","Male","","","","","","","1549.2999999821186","<p> You need to decide which direction to travel in. </p>
            <p> You can choose between going <b>up or down</b> by using the arrow keys. </p>
            <img src='./assets/img/instructions/updown.jpg' class='instructions-image'>","","instructions","","","","","","","","","","","",""
"learning-instructions","10","104638","0.0-3.0-1.0-0.6","spark_pilot_norest","9180","7","12","Male","","","","","","","3260.800000011921","<p> You will have <b>2 seconds</b> to make your choice. </p>
            <p> If you do not make a choice within 2 seconds, you will not find an animal or earn treasure. </p>
            <img src='./assets/img/instructions/2seconds.jpg' class='instructions-image'>","","instructions","","","","","","","","","","","",""
"learning-instructions","11","113338","0.0-3.0-1.0-0.7","spark_pilot_norest","9180","7","12","Male","","","","","","","1671.4000000059605","<p> Let’s try practicing that now! </p>
            <p> When you see a picture of the place you are in, press the <b>up</b> key to travel up. </p>
            <img src='./assets/img/instructions/pressUp.jpg' class='instructions-image'>","","instructions","","","","","","","","","","","",""
"revaluation","12","117365","0.0-3.0-2.0-0.0","spark_pilot_norest","9180","7","12","Male","","false","","","","","[242]","./assets/img/space/0.jpg","[""ArrowUp""]","first stage practice","space","0","null","null","ArrowUp","false","","","","","",""
"html-keyboard-response","13","117870","0.0-3.0-2.0-1.0","spark_pilot_norest","9180","7","12","Male","","","","","","","null","<div style=""font-size:60px;"">+</div>","null","fixation","","","","","","","","","","","",""
"revaluation","14","121903","0.0-3.0-2.0-0.1","spark_pilot_norest","9180","7","12","Male","","false","","","","","[548.0999999940395]","./assets/img/space/1.jpg","[""ArrowUp""]","first stage practice","space","0","null","null","ArrowUp","false","","","","","",""
"html-keyboard-response","15","122417","0.0-3.0-2.0-1.1","spark_pilot_norest","9180","7","12","Male","","","","","","","null","<div style=""font-size:60px;"">+</div>","null","fixation","","","","","","","","","","","",""
"revaluation","16","126440","0.0-3.0-2.0-0.2","spark_pilot_norest","9180","7","12","Male","","false","","","","","[169]","./assets/img/space/2.jpg","[""ArrowUp""]","first stage practice","space","0","null","null","ArrowUp","false","","","","","",""
"html-keyboard-response","17","126948","0.0-3.0-2.0-1.2","spark_pilot_norest","9180","7","12","Male","","","","","","","null","<div style=""font-size:60px;"">+</div>","null","fixation","","","","","","","","","","","",""
"learning-instructions","18","137398","0.0-3.0-3.0-0.0","spark_pilot_norest","9180","7","12","Male","","","","","","","5759.5","<p> Great job! Now try pressing the <b>down</b> key to travel down. </p>
            <img src='./assets/img/instructions/pressDown.jpg' class='instructions-image'>","","instructions","","","","","","","","","","","",""
"revaluation","19","141416","0.0-3.0-4.0-0.0","spark_pilot_norest","9180","7","12","Male","","false","","","","","[125.59999999403954]","./assets/img/space/3.jpg","[""ArrowDown""]","first stage practice","space","0","null","null","ArrowDown","false","","","","","",""
"html-keyboard-response","20","141933","0.0-3.0-4.0-1.0","spark_pilot_norest","9180","7","12","Male","","","","","","","null","<div style=""font-size:60px;"">+</div>","null","fixation","","","","","","","","","","","",""
"revaluation","21","145958","0.0-3.0-4.0-0.1","spark_pilot_norest","9180","7","12","Male","","false","","","","","[342.19999998807907]","./assets/img/space/4.jpg","[""ArrowDown""]","first stage practice","space","0","null","null","ArrowDown","false","","","","","",""
"html-keyboard-response","22","146474","0.0-3.0-4.0-1.1","spark_pilot_norest","9180","7","12","Male","","","","","","","null","<div style=""font-size:60px;"">+</div>","null","fixation","","","","","","","","","","","",""
"revaluation","23","150480","0.0-3.0-4.0-0.2","spark_pilot_norest","9180","7","12","Male","","false","","","","","[553.5999999940395]","./assets/img/space/5.jpg","[""ArrowDown""]","first stage practice","space","0","null","null","ArrowDown","false","","","","","",""
"html-keyboard-response","24","150986","0.0-3.0-4.0-1.2","spark_pilot_norest","9180","7","12","Male","","","","","","","null","<div style=""font-size:60px;"">+</div>","null","fixation","","","","","","","","","","","",""
"learning-instructions","25","162693","0.0-3.0-5.0-0.0","spark_pilot_norest","9180","7","12","Male","","","","","","","1865","<p> The animals don’t move, so the animal in the upper part of a place will stay in the upper part of a place, and the animal in the lower part of a place will stay in the lower part of a place. </p>","","instructions","","","","","","","","","","","",""
"learning-instructions","26","173344","0.0-3.0-5.0-0.1","spark_pilot_norest","9180","7","12","Male","","","","","","","1525.0999999940395","<p> Each animal has two treasure chests for you to choose from. </p>
            <p> The amount of treasure in each chest can range from <b> 0 to 40 pieces.</b></p>","","instructions","","","","","","","","","","","",""
"learning-instructions","27","185490","0.0-3.0-5.0-0.2","spark_pilot_norest","9180","7","12","Male","","","","","","","960.5999999940395","<p> You should decide which chest to search for treasure by using the <b>left</b> and <b>right</b> arrow keys. </p>
            <p><b> Pay attention to which animal is on the screen, as the animals have different treasure chests. </b></p>
            <img src='./assets/img/instructions/leftright.jpg' class='instructions-image'>","","instructions","","","","","","","","","","","",""
"learning-instructions","28","193383","0.0-3.0-5.0-0.3","spark_pilot_norest","9180","7","12","Male","","","","","","","1523.2000000178814","<p> Let’s try practicing that now. </p>
            <p> When you see an animal, choose which chest to search for treasure. </p>
            <img src='./assets/img/instructions/chooseChest.jpg' class='instructions-image'>","","instructions","","","","","","","","","","","",""
"revaluation","29","197410","0.0-3.0-6.0-0.0","spark_pilot_norest","9180","7","12","Male","","false","","","","","[814]","./assets/img/space/animals/cat.jpg","[""ArrowLeft""]","second stage practice","space","3","{""ArrowUp,ArrowLeft"":3,""ArrowUp,ArrowRight"":36,""ArrowDown,ArrowLeft"":15,""ArrowDown,ArrowRight"":23}","false","ArrowUp,ArrowLeft","","","","","","",""
"html-keyboard-response","30","197912","0.0-3.0-6.0-1.0","spark_pilot_norest","9180","7","12","Male","","","","","","","null","<div style=""font-size:60px;"">+</div>","null","fixation","","","","","","","","","","","",""
"revaluation","31","201943","0.0-3.0-6.0-0.1","spark_pilot_norest","9180","7","12","Male","","false","","","","","[597.4000000059605]","./assets/img/space/animals/rabbit.jpg","[""ArrowLeft""]","second stage practice","space","15","{""ArrowUp,ArrowLeft"":3,""ArrowUp,ArrowRight"":36,""ArrowDown,ArrowLeft"":15,""ArrowDown,ArrowRight"":23}","false","ArrowDown,ArrowLeft","","","","","","",""
"html-keyboard-response","32","202449","0.0-3.0-6.0-1.1","spark_pilot_norest","9180","7","12","Male","","","","","","","null","<div style=""font-size:60px;"">+</div>","null","fixation","","","","","","","","","","","",""
"revaluation","33","206469","0.0-3.0-6.0-0.2","spark_pilot_norest","9180","7","12","Male","","false","","","","","[299.30000001192093]","./assets/img/space/animals/cat.jpg","[""ArrowRight""]","second stage practice","space","36","{""ArrowUp,ArrowLeft"":3,""ArrowUp,ArrowRight"":36,""ArrowDown,ArrowLeft"":15,""ArrowDown,ArrowRight"":23}","true","ArrowUp,ArrowRight","","","","","","",""
"html-keyboard-response","34","206982","0.0-3.0-6.0-1.2","spark_pilot_norest","9180","7","12","Male","","","","","","","null","<div style=""font-size:60px;"">+</div>","null","fixation","","","","","","","","","","","",""
"revaluation","35","210997","0.0-3.0-6.0-0.3","spark_pilot_norest","9180","7","12","Male","","false","","","","","[719.3000000119209]","./assets/img/space/animals/rabbit.jpg","[""ArrowRight""]","second stage practice","space","23","{""ArrowUp,ArrowLeft"":3,""ArrowUp,ArrowRight"":36,""ArrowDown,ArrowLeft"":15,""ArrowDown,ArrowRight"":23}","true","ArrowDown,ArrowRight","","","","","","",""
"html-keyboard-response","36","211511","0.0-3.0-6.0-1.3","spark_pilot_norest","9180","7","12","Male","","","","","","","null","<div style=""font-size:60px;"">+</div>","null","fixation","","","","","","","","","","","",""
"learning-instructions","37","230058","0.0-3.0-7.0-0.0","spark_pilot_norest","9180","7","12","Male","","","","","","","1727.9000000059605","<p> Great job. Now let’s try putting it together. </p>
            <p> On each turn, you will first see a picture to remind you of the place you are in, and you need to choose whether to go up or down. </p>
            <p> Then you will see an animal and choose which of its chests to search for treasure. </p>","","instructions","","","","","","","","","","","",""
"learning-instructions","38","239972","0.0-3.0-7.0-0.1","spark_pilot_norest","9180","7","12","Male","","","","","","","1661.4000000059605","<p> When you choose whether to go up or down, try to go to the animal with the chest with the most treasure. </p>
            <p> Try practicing that now! </p>","","instructions","","","","","","","","","","","",""
"revaluation","39","246009","0.0-3.0-8.0-0.0","spark_pilot_norest","9180","7","12","Male","","false","","","","","[610.5,325.80000001192093]","./assets/img/space/6.jpg","[""ArrowUp"",""ArrowLeft""]","full practice","space","3","{""ArrowUp,ArrowLeft"":3,""ArrowUp,ArrowRight"":36,""ArrowDown,ArrowLeft"":15,""ArrowDown,ArrowRight"":23}","false","ArrowUp,ArrowLeft","false","","","","","",""
"html-keyboard-response","40","246511","0.0-3.0-8.0-1.0","spark_pilot_norest","9180","7","12","Male","","","","","","","null","<div style=""font-size:60px;"">+</div>","null","fixation","","","","","","","","","","","",""
"revaluation","41","252539","0.0-3.0-8.0-0.1","spark_pilot_norest","9180","7","12","Male","","false","","","","","[231.2000000178814,79.7999999821186]","./assets/img/space/7.jpg","[""ArrowUp"",""ArrowRight""]","full practice","space","36","{""ArrowUp,ArrowLeft"":3,""ArrowUp,ArrowRight"":36,""ArrowDown,ArrowLeft"":15,""ArrowDown,ArrowRight"":23}","true","ArrowUp,ArrowRight","false","","","","","",""
"html-keyboard-response","42","253040","0.0-3.0-8.0-1.1","spark_pilot_norest","9180","7","12","Male","","","","","","","null","<div style=""font-size:60px;"">+</div>","null","fixation","","","","","","","","","","","",""
"revaluation","43","259073","0.0-3.0-8.0-0.2","spark_pilot_norest","9180","7","12","Male","","false","","","","","[432,271.80000001192093]","./assets/img/space/8.jpg","[""ArrowUp"",""ArrowRight""]","full practice","space","36","{""ArrowUp,ArrowLeft"":3,""ArrowUp,ArrowRight"":36,""ArrowDown,ArrowLeft"":15,""ArrowDown,ArrowRight"":23}","true","ArrowUp,ArrowRight","false","","","","","",""
"html-keyboard-response","44","259588","0.0-3.0-8.0-1.2","spark_pilot_norest","9180","7","12","Male","","","","","","","null","<div style=""font-size:60px;"">+</div>","null","fixation","","","","","","","","","","","",""
"revaluation","45","265618","0.0-3.0-8.0-0.3","spark_pilot_norest","9180","7","12","Male","","false","","","","","[594.9000000059605,366.80000001192093]","./assets/img/space/9.jpg","[""ArrowDown"",""ArrowLeft""]","full practice","space","15","{""ArrowUp,ArrowLeft"":3,""ArrowUp,ArrowRight"":36,""ArrowDown,ArrowLeft"":15,""ArrowDown,ArrowRight"":23}","false","ArrowDown,ArrowLeft","false","","","","","",""
"html-keyboard-response","46","266132","0.0-3.0-8.0-1.3","spark_pilot_norest","9180","7","12","Male","","","","","","","null","<div style=""font-size:60px;"">+</div>","null","fixation","","","","","","","","","","","",""
"revaluation","47","272143","0.0-3.0-8.0-0.4","spark_pilot_norest","9180","7","12","Male","","false","","","","","[683.2999999821186,900.5]","./assets/img/space/10.jpg","[""ArrowDown"",""ArrowRight""]","full practice","space","23","{""ArrowUp,ArrowLeft"":3,""ArrowUp,ArrowRight"":36,""ArrowDown,ArrowLeft"":15,""ArrowDown,ArrowRight"":23}","false","ArrowDown,ArrowRight","false","","","","","",""
"html-keyboard-response","48","272644","0.0-3.0-8.0-1.4","spark_pilot_norest","9180","7","12","Male","","","","","","","null","<div style=""font-size:60px;"">+</div>","null","fixation","","","","","","","","","","","",""
"learning-instructions","49","284651","0.0-3.0-9.0-0.0","spark_pilot_norest","9180","7","12","Male","","","","","","","1711.0999999940395","<p> One last thing: sometimes, you will see a robber. The robber can be anywhere in the picture. </p>
            <p> If you do not stop them, you will lose treasure. </p>
            <img src='./assets/img/instructions/robber.jpg' class='instructions-image'>","","instructions","","","","","","","","","","","",""
"learning-instructions","50","293064","0.0-3.0-9.0-0.1","spark_pilot_norest","9180","7","12","Male","","","","","","","1253.5","<p> If you see the robber, you should <b>press the space bar</b> rather than using the arrow keys. </p>
            <p> Try practicing that now! </p>","","instructions","","","","","","","","","","","",""
"revaluation","51","297081","0.0-3.0-10.0-0.0","spark_pilot_norest","9180","7","12","Male","","false","","","","","[793.4000000059605]","./assets/img/space/catch/0.jpg","[""spaceBar""]","catch practice","space","0","{""ArrowUp,ArrowLeft"":3,""ArrowUp,ArrowRight"":36,""ArrowDown,ArrowLeft"":15,""ArrowDown,ArrowRight"":23}","true","spaceBar","true","","","","","",""
"html-keyboard-response","52","297583","0.0-3.0-10.0-1.0","spark_pilot_norest","9180","7","12","Male","","","","","","","null","<div style=""font-size:60px;"">+</div>","null","fixation","","","","","","","","","","","",""
"revaluation","53","301592","0.0-3.0-10.0-0.1","spark_pilot_norest","9180","7","12","Male","","false","","","","","[480.59999999403954]","./assets/img/space/catch/1.jpg","[""spaceBar""]","catch practice","space","0","{""ArrowUp,ArrowLeft"":3,""ArrowUp,ArrowRight"":36,""ArrowDown,ArrowLeft"":15,""ArrowDown,ArrowRight"":23}","true","spaceBar","true","","","","","",""
"html-keyboard-response","54","302095","0.0-3.0-10.0-1.1","spark_pilot_norest","9180","7","12","Male","","","","","","","null","<div style=""font-size:60px;"">+</div>","null","fixation","","","","","","","","","","","",""
"revaluation","55","306115","0.0-3.0-10.0-0.2","spark_pilot_norest","9180","7","12","Male","","false","","","","","[656.9000000059605]","./assets/img/space/catch/2.jpg","[""spaceBar""]","catch practice","space","0","{""ArrowUp,ArrowLeft"":3,""ArrowUp,ArrowRight"":36,""ArrowDown,ArrowLeft"":15,""ArrowDown,ArrowRight"":23}","true","spaceBar","true","","","","","",""
"html-keyboard-response","56","306619","0.0-3.0-10.0-1.2","spark_pilot_norest","9180","7","12","Male","","","","","","","null","<div style=""font-size:60px;"">+</div>","null","fixation","","","","","","","","","","","",""
"learning-instructions","57","313187","0.0-3.0-11.0-0.0-0.0","spark_pilot_norest","9180","7","12","Male","","","","","","","1316.0999999940395","<p> Now, you will practice a shortened version of the game to get a sense of how it all fits together. </p>","","instructions","","","","","","","","","","","",""
"learning-instructions","58","318954","0.0-3.0-11.0-0.0-0.1","spark_pilot_norest","9180","7","12","Male","","","","","","","2582.5","<p>This time you are searching for treasure in outer space.</p>","","instructions","","","","","","","","","","","",""
"learning-instructions","59","360564","0.0-3.0-11.0-1.0-0.0","spark_pilot_norest","9180","7","12","Male","","","","","","","26851.69999998808","<p> Remember, when you see a picture of the place, use the up and down keys to <b>find an animal</b>.</p>
            <p> When you encounter an animal, you should use the left and right keys to <b>select a treasure chest</b>.</p>
            <p> Don't forget to look out for the robber! </p>","","instructions","","","","","","","","","","","",""
"revaluation","60","366584","0.0-3.0-11.0-2.0-0.0","spark_pilot_norest","9180","7","12","Male","","false","","","","","[982.5999999940395,283.7000000178814]","./assets/img/space/11.jpg","[""ArrowUp"",""ArrowRight""]","practice block","space","36","{""ArrowUp,ArrowLeft"":3,""ArrowUp,ArrowRight"":36,""ArrowDown,ArrowLeft"":15,""ArrowDown,ArrowRight"":23}","true","ArrowUp,ArrowRight","false","","","","","",""
"html-keyboard-response","61","367085","0.0-3.0-11.0-2.0-1.0","spark_pilot_norest","9180","7","12","Male","","","","","","","null","<div style=""font-size:60px;"">+</div>","null","fixation","","","","","","","","","","","",""
"revaluation","62","373090","0.0-3.0-11.0-2.0-0.1","spark_pilot_norest","9180","7","12","Male","","false","","","","","[461.10000002384186,333.30000001192093]","./assets/img/space/12.jpg","[""ArrowUp"",""ArrowRight""]","practice block","space","36","{""ArrowUp,ArrowLeft"":3,""ArrowUp,ArrowRight"":36,""ArrowDown,ArrowLeft"":15,""ArrowDown,ArrowRight"":23}","true","ArrowUp,ArrowRight","false","","","","","",""
"html-keyboard-response","63","373592","0.0-3.0-11.0-2.0-1.1","spark_pilot_norest","9180","7","12","Male","","","","","","","null","<div style=""font-size:60px;"">+</div>","null","fixation","","","","","","","","","","","",""
"revaluation","64","379597","0.0-3.0-11.0-2.0-0.2","spark_pilot_norest","9180","7","12","Male","","false","","","","","[755.2999999821186,402.5]","./assets/img/space/13.jpg","[""ArrowUp"",""ArrowRight""]","practice block","space","36","{""ArrowUp,ArrowLeft"":3,""ArrowUp,ArrowRight"":36,""ArrowDown,ArrowLeft"":15,""ArrowDown,ArrowRight"":23}","true","ArrowUp,ArrowRight","false","","","","","",""
"html-keyboard-response","65","380098","0.0-3.0-11.0-2.0-1.2","spark_pilot_norest","9180","7","12","Male","","","","","","","null","<div style=""font-size:60px;"">+</div>","null","fixation","","","","","","","","","","","",""
"revaluation","66","386102","0.0-3.0-11.0-2.0-0.3","spark_pilot_norest","9180","7","12","Male","","false","","","","","[601.2999999821186,432.2000000178814]","./assets/img/space/14.jpg","[""ArrowUp"",""ArrowRight""]","practice block","space","36","{""ArrowUp,ArrowLeft"":3,""ArrowUp,ArrowRight"":36,""ArrowDown,ArrowLeft"":15,""ArrowDown,ArrowRight"":23}","true","ArrowUp,ArrowRight","false","","","","","",""
"html-keyboard-response","67","386603","0.0-3.0-11.0-2.0-1.3","spark_pilot_norest","9180","7","12","Male","","","","","","","null","<div style=""font-size:60px;"">+</div>","null","fixation","","","","","","","","","","","",""
"revaluation","68","392608","0.0-3.0-11.0-2.0-0.4","spark_pilot_norest","9180","7","12","Male","","false","","","","","[560.9000000059605,335.30000001192093]","./assets/img/space/11.jpg","[""ArrowUp"",""ArrowRight""]","practice block","space","36","{""ArrowUp,ArrowLeft"":3,""ArrowUp,ArrowRight"":36,""ArrowDown,ArrowLeft"":15,""ArrowDown,ArrowRight"":23}","true","ArrowUp,ArrowRight","false","","","","","",""
"html-keyboard-response","69","393109","0.0-3.0-11.0-2.0-1.4","spark_pilot_norest","9180","7","12","Male","","","","","","","null","<div style=""font-size:60px;"">+</div>","null","fixation","","","","","","","","","","","",""
"revaluation","70","399113","0.0-3.0-11.0-2.0-0.5","spark_pilot_norest","9180","7","12","Male","","false","","","","","[990.2999999821186,422]","./assets/img/space/12.jpg","[""ArrowUp"",""ArrowRight""]","practice block","space","36","{""ArrowUp,ArrowLeft"":3,""ArrowUp,ArrowRight"":36,""ArrowDown,ArrowLeft"":15,""ArrowDown,ArrowRight"":23}","true","ArrowUp,ArrowRight","false","","","","","",""
"html-keyboard-response","71","399615","0.0-3.0-11.0-2.0-1.5","spark_pilot_norest","9180","7","12","Male","","","","","","","null","<div style=""font-size:60px;"">+</div>","null","fixation","","","","","","","","","","","",""
"revaluation","72","405619","0.0-3.0-11.0-2.0-0.6","spark_pilot_norest","9180","7","12","Male","","false","","","","","[965.9000000059605,405.60000002384186]","./assets/img/space/13.jpg","[""ArrowUp"",""ArrowRight""]","practice block","space","36","{""ArrowUp,ArrowLeft"":3,""ArrowUp,ArrowRight"":36,""ArrowDown,ArrowLeft"":15,""ArrowDown,ArrowRight"":23}","true","ArrowUp,ArrowRight","false","","","","","",""
"html-keyboard-response","73","406120","0.0-3.0-11.0-2.0-1.6","spark_pilot_norest","9180","7","12","Male","","","","","","","null","<div style=""font-size:60px;"">+</div>","null","fixation","","","","","","","","","","","",""
"revaluation","74","412135","0.0-3.0-11.0-2.0-0.7","spark_pilot_norest","9180","7","12","Male","","false","","","","","[603.1999999880791,304.90000000596046]","./assets/img/space/14.jpg","[""ArrowUp"",""ArrowRight""]","practice block","space","36","{""ArrowUp,ArrowLeft"":3,""ArrowUp,ArrowRight"":36,""ArrowDown,ArrowLeft"":15,""ArrowDown,ArrowRight"":23}","true","ArrowUp,ArrowRight","false","","","","","",""
"html-keyboard-response","75","412636","0.0-3.0-11.0-2.0-1.7","spark_pilot_norest","9180","7","12","Male","","","","","","","null","<div style=""font-size:60px;"">+</div>","null","fixation","","","","","","","","","","","",""
"revaluation","76","416642","0.0-3.0-11.0-2.0-0.8","spark_pilot_norest","9180","7","12","Male","","false","","","","","[912.1999999880791]","./assets/img/space/catch/3.jpg","[""spaceBar""]","practice block","space","0","{""ArrowUp,ArrowLeft"":3,""ArrowUp,ArrowRight"":36,""ArrowDown,ArrowLeft"":15,""ArrowDown,ArrowRight"":23}","true","spaceBar","true","","","","","",""
"html-keyboard-response","77","417143","0.0-3.0-11.0-2.0-1.8","spark_pilot_norest","9180","7","12","Male","","","","","","","null","<div style=""font-size:60px;"">+</div>","null","fixation","","","","","","","","","","","",""
"learning-instructions","78","431366","0.0-3.0-11.0-3.0-0.0","spark_pilot_norest","9180","7","12","Male","","","","","","","1259.9000000059605","<p> Now, you will travel with a friend who will choose whether you go up or down first. </p>
            <p> On these turns, you will just see the animal that they found. You will still get to choose which chest to search for treasure.</p>","","instructions","","","","","","","","","","","",""
"revaluation","79","435384","0.0-3.0-11.0-4.0-0.0","spark_pilot_norest","9180","7","12","Male","","false","","","","","[1486.800000011921]","./assets/img/space/animals/rabbit.jpg","[""ArrowRight""]","practice block","space","23","{""ArrowUp,ArrowLeft"":3,""ArrowUp,ArrowRight"":36,""ArrowDown,ArrowLeft"":15,""ArrowDown,ArrowRight"":23}","true","ArrowDown,ArrowRight","","","","","","",""
"html-keyboard-response","80","435898","0.0-3.0-11.0-4.0-1.0","spark_pilot_norest","9180","7","12","Male","","","","","","","null","<div style=""font-size:60px;"">+</div>","null","fixation","","","","","","","","","","","",""
"revaluation","81","439929","0.0-3.0-11.0-4.0-0.1","spark_pilot_norest","9180","7","12","Male","","false","","","","","[417.5]","./assets/img/space/animals/rabbit.jpg","[""ArrowLeft""]","practice block","space","15","{""ArrowUp,ArrowLeft"":3,""ArrowUp,ArrowRight"":36,""ArrowDown,ArrowLeft"":15,""ArrowDown,ArrowRight"":23}","false","ArrowDown,ArrowLeft","","","","","","",""
"html-keyboard-response","82","440443","0.0-3.0-11.0-4.0-1.1","spark_pilot_norest","9180","7","12","Male","","","","","","","null","<div style=""font-size:60px;"">+</div>","null","fixation","","","","","","","","","","","",""
"revaluation","83","444450","0.0-3.0-11.0-4.0-0.2","spark_pilot_norest","9180","7","12","Male","","false","","","","","[274.30000001192093]","./assets/img/space/animals/cat.jpg","[""ArrowLeft""]","practice block","space","3","{""ArrowUp,ArrowLeft"":3,""ArrowUp,ArrowRight"":36,""ArrowDown,ArrowLeft"":15,""ArrowDown,ArrowRight"":23}","false","ArrowUp,ArrowLeft","","","","","","",""
"html-keyboard-response","84","444967","0.0-3.0-11.0-4.0-1.2","spark_pilot_norest","9180","7","12","Male","","","","","","","null","<div style=""font-size:60px;"">+</div>","null","fixation","","","","","","","","","","","",""
"revaluation","85","448975","0.0-3.0-11.0-4.0-0.3","spark_pilot_norest","9180","7","12","Male","","false","","","","","[454.7999999821186]","./assets/img/space/animals/cat.jpg","[""ArrowRight""]","practice block","space","36","{""ArrowUp,ArrowLeft"":3,""ArrowUp,ArrowRight"":36,""ArrowDown,ArrowLeft"":15,""ArrowDown,ArrowRight"":23}","true","ArrowUp,ArrowRight","","","","","","",""
"html-keyboard-response","86","449476","0.0-3.0-11.0-4.0-1.3","spark_pilot_norest","9180","7","12","Male","","","","","","","null","<div style=""font-size:60px;"">+</div>","null","fixation","","","","","","","","","","","",""
"learning-instructions","87","457598","0.0-3.0-11.0-5.0-0.0","spark_pilot_norest","9180","7","12","Male","","","","","","","null","<p> You have almost finished this part of the game! </p>
            <p> We are going to ask you to make a few more choices. </p>","","instructions","","","","","","","","","","","",""
"learning-instructions","88","473597","0.0-3.0-11.0-5.0-0.1","spark_pilot_norest","9180","7","12","Male","","","","","","","null","<p> First, you need to decide whether to go up or down. When you see each picture, use the arrow keys to make your choice. </p>
            <p><b>You will not see which animal you found, but try to get to the one that will give you the most treasure.</b></p>","","instructions","","","","","","","","","","","",""
"html-keyboard-response","89","474598","0.0-3.0-11.0-6.0-0.0","spark_pilot_norest","9180","7","12","Male","","","","","","","null","<div style=""font-size:100px;color:red;"">Starting in...</div>","null","","","","","","","","","","","","",""
"html-keyboard-response","90","475609","0.0-3.0-11.0-6.0-1.0","spark_pilot_norest","9180","7","12","Male","","","","","","","null","<div style=""font-size:200px;color:red;"">3</div>","null","","","","","","","","","","","","",""
"html-keyboard-response","91","476616","0.0-3.0-11.0-6.0-2.0","spark_pilot_norest","9180","7","12","Male","","","","","","","null","<div style=""font-size:200px;color:red;"">2</div>","null","","","","","","","","","","","","",""
"html-keyboard-response","92","477617","0.0-3.0-11.0-6.0-3.0","spark_pilot_norest","9180","7","12","Male","","","","","","","null","<div style=""font-size:200px;color:red;"">1</div>","null","","","","","","","","","","","","",""
"revaluation","93","478088","0.0-3.0-11.0-7.0","spark_pilot_norest","9180","7","12","Male","","false","","","","","[469.69999998807907]","./assets/img/space/15.jpg","[""ArrowUp""]","practice block","space","0","{""ArrowUp,ArrowLeft"":3,""ArrowUp,ArrowRight"":36,""ArrowDown,ArrowLeft"":15,""ArrowDown,ArrowRight"":23}","true","ArrowUp","false","","","","","",""
"html-keyboard-response","94","478598","0.0-3.0-11.0-8.0","spark_pilot_norest","9180","7","12","Male","","","","","","","null","<div style=""font-size:60px;"">+</div>","null","fixation","","","","","","","","","","","",""
"learning-instructions","95","491968","0.0-3.0-11.0-9.0-0.0","spark_pilot_norest","9180","7","12","Male","","","","","","","null","<p> Now you will see the animals again and can search their chests for treasure. </p>
            <p> This time, you will not see how much treasure you earned, but you will earn more bonus money for making better choices. </p>","","instructions","","","","","","","","","","","",""
"html-keyboard-response","96","492970","0.0-3.0-11.0-10.0-0.0","spark_pilot_norest","9180","7","12","Male","","","","","","","null","<div style=""font-size:100px;color:red;"">Starting in...</div>","null","","","","","","","","","","","","",""
"html-keyboard-response","97","493971","0.0-3.0-11.0-10.0-1.0","spark_pilot_norest","9180","7","12","Male","","","","","","","null","<div style=""font-size:200px;color:red;"">3</div>","null","","","","","","","","","","","","",""
"html-keyboard-response","98","494973","0.0-3.0-11.0-10.0-2.0","spark_pilot_norest","9180","7","12","Male","","","","","","","null","<div style=""font-size:200px;color:red;"">2</div>","null","","","","","","","","","","","","",""
"html-keyboard-response","99","495979","0.0-3.0-11.0-10.0-3.0","spark_pilot_norest","9180","7","12","Male","","","","","","","null","<div style=""font-size:200px;color:red;"">1</div>","null","","","","","","","","","","","","",""
"revaluation","100","496656","0.0-3.0-11.0-11.0-0.0","spark_pilot_norest","9180","7","12","Male","","false","","","","","[674.6999999880791]","./assets/img/space/animals/cat.jpg","[""ArrowRight""]","practice block","space","0","{""ArrowUp,ArrowLeft"":3,""ArrowUp,ArrowRight"":36,""ArrowDown,ArrowLeft"":15,""ArrowDown,ArrowRight"":23}","true","ArrowUp,ArrowRight","","","","","","",""
"html-keyboard-response","101","497165","0.0-3.0-11.0-11.0-1.0","spark_pilot_norest","9180","7","12","Male","","","","","","","null","<div style=""font-size:60px;"">+</div>","null","fixation","","","","","","","","","","","",""
"revaluation","102","497624","0.0-3.0-11.0-11.0-0.1","spark_pilot_norest","9180","7","12","Male","","false","","","","","[457]","./assets/img/space/animals/rabbit.jpg","[""ArrowRight""]","practice block","space","0","{""ArrowUp,ArrowLeft"":3,""ArrowUp,ArrowRight"":36,""ArrowDown,ArrowLeft"":15,""ArrowDown,ArrowRight"":23}","true","ArrowDown,ArrowRight","","","","","","",""
"html-keyboard-response","103","498125","0.0-3.0-11.0-11.0-1.1","spark_pilot_norest","9180","7","12","Male","","","","","","","null","<div style=""font-size:60px;"">+</div>","null","fixation","","","","","","","","","","","",""
"learning-instructions","104","504683","0.0-3.0-12.0-0.0","spark_pilot_norest","9180","7","12","Male","","","","","","","1984.4000000059605","<p> Before you start, we're going to ask you a few questions about how the game works. </p>","","instructions","","","","","","","","","","","",""
"comp-q","105","511096","0.0-3.0-13.0-0.0-0.0","spark_pilot_norest","9180","7","12","Male","","","","","","","835.8999999761581","<p> <b> True or False? </b> </p>
            <p> There can be 50 pieces of treasure in a given animal's chest. </p>","1","comp_question","","","","true","","","","","","","",""
"comp-q","106","519306","0.0-3.0-13.0-0.0-1.0","spark_pilot_norest","9180","7","12","Male","","","","","","","1567.5","<p> <b> That's right! </b> The amount of treasure in each chest can range from 0 to 40 pieces. </p>","0","comp_answer","","","","","","","","","","","",""
"comp-q","107","527053","0.0-3.0-13.0-0.1-0.1","spark_pilot_norest","9180","7","12","Male","","","","","","","634.0999999940395","<p> <b> True or False? </b> </p><p> In this game, all animals have the same amount of treasure in their left and right chests. </p>","1","comp_question","","","","true","","","","","","","",""
"comp-q","108","534199","0.0-3.0-13.0-0.1-1.1","spark_pilot_norest","9180","7","12","Male","","","","","","","1919.9000000059605","<p> <b> That's right! </b> Animals have different amounts of treasure in their treasure chests. </p>","0","comp_answer","","","","","","","","","","","",""
"comp-q","109","540507","0.0-3.0-13.0-0.2-0.2","spark_pilot_norest","9180","7","12","Male","","","","","","","468","<p> <b> True or False? </b> </p><p> The same animal will always be there if you go up in the same place. </p>","0","comp_question","","","","true","","","","","","","",""
"comp-q","110","550728","0.0-3.0-13.0-0.2-1.2","spark_pilot_norest","9180","7","12","Male","","","","","","","3788.600000023842","<p> <b> That's right! </b> One animal lives in the upper part and one lives in the lower part of every place. </p>","0","comp_answer","","","","","","","","","","","",""
"comp-q","111","556611","0.0-3.0-13.0-0.3-0.3","spark_pilot_norest","9180","7","12","Male","","","","","","","361.5","<p> <b> True or False? </b> </p><p> If you see a different picture, it means you are in a new place. </p>","1","comp_question","","","","true","","","","","","","",""
"comp-q","112","571399","0.0-3.0-13.0-0.3-1.3","spark_pilot_norest","9180","7","12","Male","","","","","","","3558.4000000059605","<p> <b> That's right! </b> Lots of different images may show the same place. For example,  you may see three different images that all remind you that you are in outer space. </p>","0","comp_answer","","","","","","","","","","","",""
"learning-instructions","113","583347","0.0-3.0-14.0-0.0","spark_pilot_norest","9180","7","12","Male","","","","","","","2096.9000000059605","<p> Good job. Remember to do your best because the amount of treasure you earn will be converted into bonus money. </p>
            <p> It’s time to start the real game! </p>","","instructions","","","","","","","","","","","",""
"learning-instructions","114","587413","0.0-4.0-0.0-0.0","spark_pilot_norest","9180","7","12","Male","","","","","","","1312","<p> This time you are searching for treasure in the <b>canyon</b>.</p>","","instructions","","","","","","","","","","","",""
"learning-instructions","115","609101","0.0-4.0-0.0-0.1","spark_pilot_norest","9180","7","12","Male","","","","","","","4400.300000011921","<p><b>New</b> animals with <b>new</b> treasure chests live here. You need to explore to discover where the animal with the best treasure chest is.</p>
                    <p> Like before, once you figure out which animal has the chest with the most treasure, you should try to get to that animal and select that chest! </p>","","instructions","","","","","","","","","","","",""
"learning-instructions","116","624944","0.0-4.0-1.0-0.0","spark_pilot_norest","9180","7","12","Male","","","","","","","1102.2999999821186","<p> Remember, when you see a picture of the place, use the up and down keys to <b>find an animal</b>.</p>
            <p> When you encounter an animal, you should use the left and right keys to <b>select a treasure chest</b>.</p>
            <p> Don't forget to look out for the robber! </p>","","instructions","","","","","","","","","","","",""
"revaluation","117","628959","0.0-4.0-2.0-0.0","spark_pilot_norest","9180","7","12","Male","","false","","","","","[786]","./assets/img/canyon/catch/7.jpg","[""ArrowUp""]","value training","canyon","-10","{""ArrowUp,ArrowLeft"":23,""ArrowUp,ArrowRight"":10,""ArrowDown,ArrowLeft"":8,""ArrowDown,ArrowRight"":30}","false","ArrowUp","true","original","1","0","","",""
"html-keyboard-response","118","629472","0.0-4.0-2.0-1.0","spark_pilot_norest","9180","7","12","Male","","","","","","","null","<div style=""font-size:60px;"">+</div>","null","fixation","","","","","","","","","1","","",""
"revaluation","119","635513","0.0-4.0-2.0-0.1","spark_pilot_norest","9180","7","12","Male","","false","","","","","[714.8000000119209,420.09999999403954]","./assets/img/canyon/memory/36.jpg","[""ArrowUp"",""ArrowRight""]","value training","canyon","10","{""ArrowUp,ArrowLeft"":23,""ArrowUp,ArrowRight"":10,""ArrowDown,ArrowLeft"":8,""ArrowDown,ArrowRight"":30}","false","ArrowUp,ArrowRight","false","original","1","2","","",""
"html-keyboard-response","120","636015","0.0-4.0-2.0-1.1","spark_pilot_norest","9180","7","12","Male","","","","","","","null","<div style=""font-size:60px;"">+</div>","null","fixation","","","","","","","","","3","","",""
"revaluation","121","642046","0.0-4.0-2.0-0.2","spark_pilot_norest","9180","7","12","Male","","false","","","","","[708.6999999880791,292.69999998807907]","./assets/img/canyon/memory/40.jpg","[""ArrowUp"",""ArrowLeft""]","value training","canyon","23","{""ArrowUp,ArrowLeft"":23,""ArrowUp,ArrowRight"":10,""ArrowDown,ArrowLeft"":8,""ArrowDown,ArrowRight"":30}","false","ArrowUp,ArrowLeft","false","original","1","4","","",""
"html-keyboard-response","122","642547","0.0-4.0-2.0-1.2","spark_pilot_norest","9180","7","12","Male","","","","","","","null","<div style=""font-size:60px;"">+</div>","null","fixation","","","","","","","","","5","","",""
"revaluation","123","648575","0.0-4.0-2.0-0.3","spark_pilot_norest","9180","7","12","Male","","false","","","","","[599.5,434]","./assets/img/canyon/memory/34.jpg","[""ArrowDown"",""ArrowLeft""]","value training","canyon","8","{""ArrowUp,ArrowLeft"":23,""ArrowUp,ArrowRight"":10,""ArrowDown,ArrowLeft"":8,""ArrowDown,ArrowRight"":30}","false","ArrowDown,ArrowLeft","false","original","1","6","","",""
"html-keyboard-response","124","649090","0.0-4.0-2.0-1.3","spark_pilot_norest","9180","7","12","Male","","","","","","","null","<div style=""font-size:60px;"">+</div>","null","fixation","","","","","","","","","7","","",""
"revaluation","125","653112","0.0-4.0-2.0-0.4","spark_pilot_norest","9180","7","12","Male","","false","","","","","[713.5999999940395]","./assets/img/canyon/catch/3.jpg","[""spaceBar""]","value training","canyon","0","{""ArrowUp,ArrowLeft"":23,""ArrowUp,ArrowRight"":10,""ArrowDown,ArrowLeft"":8,""ArrowDown,ArrowRight"":30}","true","spaceBar","true","original","1","8","","",""
"html-keyboard-response","126","653617","0.0-4.0-2.0-1.4","spark_pilot_norest","9180","7","12","Male","","","","","","","null","<div style=""font-size:60px;"">+</div>","null","fixation","","","","","","","","","9","","",""
"revaluation","127","657620","0.0-4.0-2.0-0.5","spark_pilot_norest","9180","7","12","Male","","false","","","","","[106]","./assets/img/canyon/catch/0.jpg","[""ArrowDown""]","value training","canyon","-10","{""ArrowUp,ArrowLeft"":23,""ArrowUp,ArrowRight"":10,""ArrowDown,ArrowLeft"":8,""ArrowDown,ArrowRight"":30}","false","ArrowDown","true","original","1","10","","",""
"html-keyboard-response","128","658122","0.0-4.0-2.0-1.5","spark_pilot_norest","9180","7","12","Male","","","","","","","null","<div style=""font-size:60px;"">+</div>","null","fixation","","","","","","","","","11","","",""
"revaluation","129","664140","0.0-4.0-2.0-0.6","spark_pilot_norest","9180","7","12","Male","","false","","","","","[531,452.5]","./assets/img/canyon/memory/22.jpg","[""ArrowDown"",""ArrowRight""]","value training","canyon","30","{""ArrowUp,ArrowLeft"":23,""ArrowUp,ArrowRight"":10,""ArrowDown,ArrowLeft"":8,""ArrowDown,ArrowRight"":30}","true","ArrowDown,ArrowRight","false","original","1","12","","",""
"html-keyboard-response","130","664654","0.0-4.0-2.0-1.6","spark_pilot_norest","9180","7","12","Male","","","","","","","null","<div style=""font-size:60px;"">+</div>","null","fixation","","","","","","","","","13","","",""
"revaluation","131","670660","0.0-4.0-2.0-0.7","spark_pilot_norest","9180","7","12","Male","","false","","","","","[566.2999999821186,380.40000000596046]","./assets/img/canyon/memory/37.jpg","[""ArrowDown"",""ArrowRight""]","value training","canyon","30","{""ArrowUp,ArrowLeft"":23,""ArrowUp,ArrowRight"":10,""ArrowDown,ArrowLeft"":8,""ArrowDown,ArrowRight"":30}","true","ArrowDown,ArrowRight","false","original","1","14","","",""
"html-keyboard-response","132","671161","0.0-4.0-2.0-1.7","spark_pilot_norest","9180","7","12","Male","","","","","","","null","<div style=""font-size:60px;"">+</div>","null","fixation","","","","","","","","","15","","",""
"revaluation","133","677166","0.0-4.0-2.0-0.8","spark_pilot_norest","9180","7","12","Male","","false","","","","","[531.3000000119209,433.7999999821186]","./assets/img/canyon/memory/11.jpg","[""ArrowDown"",""ArrowRight""]","value training","canyon","30","{""ArrowUp,ArrowLeft"":23,""ArrowUp,ArrowRight"":10,""ArrowDown,ArrowLeft"":8,""ArrowDown,ArrowRight"":30}","true","ArrowDown,ArrowRight","false","original","1","16","","",""
"html-keyboard-response","134","677667","0.0-4.0-2.0-1.8","spark_pilot_norest","9180","7","12","Male","","","","","","","null","<div style=""font-size:60px;"">+</div>","null","fixation","","","","","","","","","17","","",""
"revaluation","135","683677","0.0-4.0-2.0-0.9","spark_pilot_norest","9180","7","12","Male","","false","","","","","[640.9000000059605,339.5]","./assets/img/canyon/memory/18.jpg","[""ArrowDown"",""ArrowRight""]","value training","canyon","30","{""ArrowUp,ArrowLeft"":23,""ArrowUp,ArrowRight"":10,""ArrowDown,ArrowLeft"":8,""ArrowDown,ArrowRight"":30}","true","ArrowDown,ArrowRight","false","original","1","18","","",""
"html-keyboard-response","136","684178","0.0-4.0-2.0-1.9","spark_pilot_norest","9180","7","12","Male","","","","","","","null","<div style=""font-size:60px;"">+</div>","null","fixation","","","","","","","","","19","","",""
"revaluation","137","690184","0.0-4.0-2.0-0.10","spark_pilot_norest","9180","7","12","Male","","false","","","","","[530.5999999940395,480.30000001192093]","./assets/img/canyon/memory/11.jpg","[""ArrowDown"",""ArrowRight""]","value training","canyon","30","{""ArrowUp,ArrowLeft"":23,""ArrowUp,ArrowRight"":10,""ArrowDown,ArrowLeft"":8,""ArrowDown,ArrowRight"":30}","true","ArrowDown,ArrowRight","false","original","1","20","","",""
"html-keyboard-response","138","690685","0.0-4.0-2.0-1.10","spark_pilot_norest","9180","7","12","Male","","","","","","","null","<div style=""font-size:60px;"">+</div>","null","fixation","","","","","","","","","21","","",""
"revaluation","139","696690","0.0-4.0-2.0-0.11","spark_pilot_norest","9180","7","12","Male","","false","","","","","[807.2999999821186,551.0999999940395]","./assets/img/canyon/memory/39.jpg","[""ArrowDown"",""ArrowRight""]","value training","canyon","30","{""ArrowUp,ArrowLeft"":23,""ArrowUp,ArrowRight"":10,""ArrowDown,ArrowLeft"":8,""ArrowDown,ArrowRight"":30}","true","ArrowDown,ArrowRight","false","original","1","22","","",""
"html-keyboard-response","140","697192","0.0-4.0-2.0-1.11","spark_pilot_norest","9180","7","12","Male","","","","","","","null","<div style=""font-size:60px;"">+</div>","null","fixation","","","","","","","","","23","","",""
"revaluation","141","703197","0.0-4.0-2.0-0.12","spark_pilot_norest","9180","7","12","Male","","false","","","","","[556.8000000119209,499.69999998807907]","./assets/img/canyon/memory/20.jpg","[""ArrowDown"",""ArrowRight""]","value training","canyon","30","{""ArrowUp,ArrowLeft"":23,""ArrowUp,ArrowRight"":10,""ArrowDown,ArrowLeft"":8,""ArrowDown,ArrowRight"":30}","true","ArrowDown,ArrowRight","false","original","1","24","","",""
"html-keyboard-response","142","703698","0.0-4.0-2.0-1.12","spark_pilot_norest","9180","7","12","Male","","","","","","","null","<div style=""font-size:60px;"">+</div>","null","fixation","","","","","","","","","25","","",""
"revaluation","143","709703","0.0-4.0-2.0-0.13","spark_pilot_norest","9180","7","12","Male","","false","","","","","[555.5,850]","./assets/img/canyon/memory/16.jpg","[""ArrowDown"",""ArrowRight""]","value training","canyon","30","{""ArrowUp,ArrowLeft"":23,""ArrowUp,ArrowRight"":10,""ArrowDown,ArrowLeft"":8,""ArrowDown,ArrowRight"":30}","true","ArrowDown,ArrowRight","false","original","1","26","","",""
"html-keyboard-response","144","710204","0.0-4.0-2.0-1.13","spark_pilot_norest","9180","7","12","Male","","","","","","","null","<div style=""font-size:60px;"">+</div>","null","fixation","","","","","","","","","27","","",""
"revaluation","145","716210","0.0-4.0-2.0-0.14","spark_pilot_norest","9180","7","12","Male","","false","","","","","[561,175.19999998807907]","./assets/img/canyon/memory/0.jpg","[""ArrowDown"",""ArrowRight""]","value training","canyon","30","{""ArrowUp,ArrowLeft"":23,""ArrowUp,ArrowRight"":10,""ArrowDown,ArrowLeft"":8,""ArrowDown,ArrowRight"":30}","true","ArrowDown,ArrowRight","false","original","1","28","","",""
"html-keyboard-response","146","716712","0.0-4.0-2.0-1.14","spark_pilot_norest","9180","7","12","Male","","","","","","","null","<div style=""font-size:60px;"">+</div>","null","fixation","","","","","","","","","29","","",""
"revaluation","147","722716","0.0-4.0-2.0-0.15","spark_pilot_norest","9180","7","12","Male","","false","","","","","[373.59999999403954,613]","./assets/img/canyon/memory/16.jpg","[""ArrowDown"",""ArrowRight""]","value training","canyon","30","{""ArrowUp,ArrowLeft"":23,""ArrowUp,ArrowRight"":10,""ArrowDown,ArrowLeft"":8,""ArrowDown,ArrowRight"":30}","true","ArrowDown,ArrowRight","false","original","1","30","","",""
"html-keyboard-response","148","723217","0.0-4.0-2.0-1.15","spark_pilot_norest","9180","7","12","Male","","","","","","","null","<div style=""font-size:60px;"">+</div>","null","fixation","","","","","","","","","31","","",""
"revaluation","149","729234","0.0-4.0-2.0-0.16","spark_pilot_norest","9180","7","12","Male","","false","","","","","[470.39999997615814,236.5]","./assets/img/canyon/memory/41.jpg","[""ArrowDown"",""ArrowRight""]","value training","canyon","30","{""ArrowUp,ArrowLeft"":23,""ArrowUp,ArrowRight"":10,""ArrowDown,ArrowLeft"":8,""ArrowDown,ArrowRight"":30}","true","ArrowDown,ArrowRight","false","original","1","32","","",""
"html-keyboard-response","150","729735","0.0-4.0-2.0-1.16","spark_pilot_norest","9180","7","12","Male","","","","","","","null","<div style=""font-size:60px;"">+</div>","null","fixation","","","","","","","","","33","","",""
"revaluation","151","735751","0.0-4.0-2.0-0.17","spark_pilot_norest","9180","7","12","Male","","false","","","","","[438.40000000596046,556.6999999880791]","./assets/img/canyon/memory/34.jpg","[""ArrowDown"",""ArrowRight""]","value training","canyon","30","{""ArrowUp,ArrowLeft"":23,""ArrowUp,ArrowRight"":10,""ArrowDown,ArrowLeft"":8,""ArrowDown,ArrowRight"":30}","true","ArrowDown,ArrowRight","false","original","1","34","","",""
"html-keyboard-response","152","736252","0.0-4.0-2.0-1.17","spark_pilot_norest","9180","7","12","Male","","","","","","","null","<div style=""font-size:60px;"">+</div>","null","fixation","","","","","","","","","35","","",""
"revaluation","153","742257","0.0-4.0-2.0-0.18","spark_pilot_norest","9180","7","12","Male","","false","","","","","[898.5,208.7000000178814]","./assets/img/canyon/memory/20.jpg","[""ArrowDown"",""ArrowRight""]","value training","canyon","30","{""ArrowUp,ArrowLeft"":23,""ArrowUp,ArrowRight"":10,""ArrowDown,ArrowLeft"":8,""ArrowDown,ArrowRight"":30}","true","ArrowDown,ArrowRight","false","original","1","36","","",""
"html-keyboard-response","154","742759","0.0-4.0-2.0-1.18","spark_pilot_norest","9180","7","12","Male","","","","","","","null","<div style=""font-size:60px;"">+</div>","null","fixation","","","","","","","","","37","","",""
"revaluation","155","748765","0.0-4.0-2.0-0.19","spark_pilot_norest","9180","7","12","Male","","false","","","","","[558.7999999821186,357.40000000596046]","./assets/img/canyon/memory/12.jpg","[""ArrowDown"",""ArrowRight""]","value training","canyon","30","{""ArrowUp,ArrowLeft"":23,""ArrowUp,ArrowRight"":10,""ArrowDown,ArrowLeft"":8,""ArrowDown,ArrowRight"":30}","true","ArrowDown,ArrowRight","false","original","1","38","","",""
"html-keyboard-response","156","749267","0.0-4.0-2.0-1.19","spark_pilot_norest","9180","7","12","Male","","","","","","","null","<div style=""font-size:60px;"">+</div>","null","fixation","","","","","","","","","39","","",""
"revaluation","157","755272","0.0-4.0-2.0-0.20","spark_pilot_norest","9180","7","12","Male","","false","","","","","[684.4000000059605,619]","./assets/img/canyon/memory/29.jpg","[""ArrowDown"",""ArrowRight""]","value training","canyon","30","{""ArrowUp,ArrowLeft"":23,""ArrowUp,ArrowRight"":10,""ArrowDown,ArrowLeft"":8,""ArrowDown,ArrowRight"":30}","true","ArrowDown,ArrowRight","false","original","1","40","","",""
"html-keyboard-response","158","755774","0.0-4.0-2.0-1.20","spark_pilot_norest","9180","7","12","Male","","","","","","","null","<div style=""font-size:60px;"">+</div>","null","fixation","","","","","","","","","41","","",""
"revaluation","159","761780","0.0-4.0-2.0-0.21","spark_pilot_norest","9180","7","12","Male","","false","","","","","[536.2000000178814,871.4000000059605]","./assets/img/canyon/memory/22.jpg","[""ArrowDown"",""ArrowRight""]","value training","canyon","30","{""ArrowUp,ArrowLeft"":23,""ArrowUp,ArrowRight"":10,""ArrowDown,ArrowLeft"":8,""ArrowDown,ArrowRight"":30}","true","ArrowDown,ArrowRight","false","original","1","42","","",""
"html-keyboard-response","160","762281","0.0-4.0-2.0-1.21","spark_pilot_norest","9180","7","12","Male","","","","","","","null","<div style=""font-size:60px;"">+</div>","null","fixation","","","","","","","","","43","","",""
"revaluation","161","766284","0.0-4.0-2.0-0.22","spark_pilot_norest","9180","7","12","Male","","false","","","","","[773.9000000059605]","./assets/img/canyon/catch/2.jpg","[""spaceBar""]","value training","canyon","0","{""ArrowUp,ArrowLeft"":23,""ArrowUp,ArrowRight"":10,""ArrowDown,ArrowLeft"":8,""ArrowDown,ArrowRight"":30}","true","spaceBar","true","original","1","44","","",""
"html-keyboard-response","162","766786","0.0-4.0-2.0-1.22","spark_pilot_norest","9180","7","12","Male","","","","","","","null","<div style=""font-size:60px;"">+</div>","null","fixation","","","","","","","","","45","","",""
"revaluation","163","772790","0.0-4.0-2.0-0.23","spark_pilot_norest","9180","7","12","Male","","false","","","","","[582.1000000238419,213]","./assets/img/canyon/memory/41.jpg","[""ArrowDown"",""ArrowRight""]","value training","canyon","30","{""ArrowUp,ArrowLeft"":23,""ArrowUp,ArrowRight"":10,""ArrowDown,ArrowLeft"":8,""ArrowDown,ArrowRight"":30}","true","ArrowDown,ArrowRight","false","original","1","46","","",""
"html-keyboard-response","164","773292","0.0-4.0-2.0-1.23","spark_pilot_norest","9180","7","12","Male","","","","","","","null","<div style=""font-size:60px;"">+</div>","null","fixation","","","","","","","","","47","","",""
"revaluation","165","779298","0.0-4.0-2.0-0.24","spark_pilot_norest","9180","7","12","Male","","false","","","","","[419.2000000178814,129.7999999821186]","./assets/img/canyon/memory/40.jpg","[""ArrowDown"",""ArrowRight""]","value training","canyon","30","{""ArrowUp,ArrowLeft"":23,""ArrowUp,ArrowRight"":10,""ArrowDown,ArrowLeft"":8,""ArrowDown,ArrowRight"":30}","true","ArrowDown,ArrowRight","false","original","1","48","","",""
"html-keyboard-response","166","779799","0.0-4.0-2.0-1.24","spark_pilot_norest","9180","7","12","Male","","","","","","","null","<div style=""font-size:60px;"">+</div>","null","fixation","","","","","","","","","49","","",""
"revaluation","167","785803","0.0-4.0-2.0-0.25","spark_pilot_norest","9180","7","12","Male","","false","","","","","[400.80000001192093,479.30000001192093]","./assets/img/canyon/memory/6.jpg","[""ArrowDown"",""ArrowRight""]","value training","canyon","30","{""ArrowUp,ArrowLeft"":23,""ArrowUp,ArrowRight"":10,""ArrowDown,ArrowLeft"":8,""ArrowDown,ArrowRight"":30}","true","ArrowDown,ArrowRight","false","original","1","50","","",""
"html-keyboard-response","168","786304","0.0-4.0-2.0-1.25","spark_pilot_norest","9180","7","12","Male","","","","","","","null","<div style=""font-size:60px;"">+</div>","null","fixation","","","","","","","","","51","","",""
"revaluation","169","792308","0.0-4.0-2.0-0.26","spark_pilot_norest","9180","7","12","Male","","false","","","","","[712.1000000238419,1286.0999999940395]","./assets/img/canyon/memory/30.jpg","[""ArrowDown"",""ArrowRight""]","value training","canyon","30","{""ArrowUp,ArrowLeft"":23,""ArrowUp,ArrowRight"":10,""ArrowDown,ArrowLeft"":8,""ArrowDown,ArrowRight"":30}","true","ArrowDown,ArrowRight","false","original","1","52","","",""
"html-keyboard-response","170","792809","0.0-4.0-2.0-1.26","spark_pilot_norest","9180","7","12","Male","","","","","","","null","<div style=""font-size:60px;"">+</div>","null","fixation","","","","","","","","","53","","",""
"revaluation","171","798814","0.0-4.0-2.0-0.27","spark_pilot_norest","9180","7","12","Male","","false","","","","","[694.2999999821186,1132.5]","./assets/img/canyon/memory/30.jpg","[""ArrowDown"",""ArrowRight""]","value training","canyon","30","{""ArrowUp,ArrowLeft"":23,""ArrowUp,ArrowRight"":10,""ArrowDown,ArrowLeft"":8,""ArrowDown,ArrowRight"":30}","true","ArrowDown,ArrowRight","false","original","1","54","","",""
"html-keyboard-response","172","799316","0.0-4.0-2.0-1.27","spark_pilot_norest","9180","7","12","Male","","","","","","","null","<div style=""font-size:60px;"">+</div>","null","fixation","","","","","","","","","55","","",""
"revaluation","173","805322","0.0-4.0-2.0-0.28","spark_pilot_norest","9180","7","12","Male","","false","","","","","[835.3000000119209,1434]","./assets/img/canyon/memory/17.jpg","[""ArrowDown"",""ArrowRight""]","value training","canyon","30","{""ArrowUp,ArrowLeft"":23,""ArrowUp,ArrowRight"":10,""ArrowDown,ArrowLeft"":8,""ArrowDown,ArrowRight"":30}","true","ArrowDown,ArrowRight","false","original","1","56","","",""
"html-keyboard-response","174","805824","0.0-4.0-2.0-1.28","spark_pilot_norest","9180","7","12","Male","","","","","","","null","<div style=""font-size:60px;"">+</div>","null","fixation","","","","","","","","","57","","",""
"revaluation","175","811829","0.0-4.0-2.0-0.29","spark_pilot_norest","9180","7","12","Male","","false","","","","","[745.3999999761581,719.4000000059605]","./assets/img/canyon/memory/35.jpg","[""ArrowDown"",""ArrowRight""]","value training","canyon","30","{""ArrowUp,ArrowLeft"":23,""ArrowUp,ArrowRight"":10,""ArrowDown,ArrowLeft"":8,""ArrowDown,ArrowRight"":30}","true","ArrowDown,ArrowRight","false","original","1","58","","",""
"html-keyboard-response","176","812330","0.0-4.0-2.0-1.29","spark_pilot_norest","9180","7","12","Male","","","","","","","null","<div style=""font-size:60px;"">+</div>","null","fixation","","","","","","","","","59","","",""
"revaluation","177","818335","0.0-4.0-2.0-0.30","spark_pilot_norest","9180","7","12","Male","","false","","","","","[421.7000000178814,846.4000000059605]","./assets/img/canyon/memory/5.jpg","[""ArrowDown"",""ArrowRight""]","value training","canyon","30","{""ArrowUp,ArrowLeft"":23,""ArrowUp,ArrowRight"":10,""ArrowDown,ArrowLeft"":8,""ArrowDown,ArrowRight"":30}","true","ArrowDown,ArrowRight","false","original","1","60","","",""
"html-keyboard-response","178","818837","0.0-4.0-2.0-1.30","spark_pilot_norest","9180","7","12","Male","","","","","","","null","<div style=""font-size:60px;"">+</div>","null","fixation","","","","","","","","","61","","",""
"revaluation","179","824843","0.0-4.0-2.0-0.31","spark_pilot_norest","9180","7","12","Male","","false","","","","","[427,386.09999999403954]","./assets/img/canyon/memory/6.jpg","[""ArrowDown"",""ArrowRight""]","value training","canyon","30","{""ArrowUp,ArrowLeft"":23,""ArrowUp,ArrowRight"":10,""ArrowDown,ArrowLeft"":8,""ArrowDown,ArrowRight"":30}","true","ArrowDown,ArrowRight","false","original","1","62","","",""
"html-keyboard-response","180","825345","0.0-4.0-2.0-1.31","spark_pilot_norest","9180","7","12","Male","","","","","","","null","<div style=""font-size:60px;"">+</div>","null","fixation","","","","","","","","","63","","",""
"revaluation","181","831348","0.0-4.0-2.0-0.32","spark_pilot_norest","9180","7","12","Male","","false","","","","","[632.4000000059605,1896.1000000238419]","./assets/img/canyon/memory/2.jpg","[""ArrowDown"",""ArrowRight""]","value training","canyon","30","{""ArrowUp,ArrowLeft"":23,""ArrowUp,ArrowRight"":10,""ArrowDown,ArrowLeft"":8,""ArrowDown,ArrowRight"":30}","true","ArrowDown,ArrowRight","false","original","1","64","","",""
"html-keyboard-response","182","831851","0.0-4.0-2.0-1.32","spark_pilot_norest","9180","7","12","Male","","","","","","","null","<div style=""font-size:60px;"">+</div>","null","fixation","","","","","","","","","65","","",""
"revaluation","183","837855","0.0-4.0-2.0-0.33","spark_pilot_norest","9180","7","12","Male","","false","","","","","[429.7999999821186,773.4000000059605]","./assets/img/canyon/memory/0.jpg","[""ArrowDown"",""ArrowRight""]","value training","canyon","30","{""ArrowUp,ArrowLeft"":23,""ArrowUp,ArrowRight"":10,""ArrowDown,ArrowLeft"":8,""ArrowDown,ArrowRight"":30}","true","ArrowDown,ArrowRight","false","original","1","66","","",""
"html-keyboard-response","184","838356","0.0-4.0-2.0-1.33","spark_pilot_norest","9180","7","12","Male","","","","","","","null","<div style=""font-size:60px;"">+</div>","null","fixation","","","","","","","","","67","","",""
"revaluation","185","844361","0.0-4.0-2.0-0.34","spark_pilot_norest","9180","7","12","Male","","false","","","","","[741.4000000059605,605.3000000119209]","./assets/img/canyon/memory/39.jpg","[""ArrowDown"",""ArrowRight""]","value training","canyon","30","{""ArrowUp,ArrowLeft"":23,""ArrowUp,ArrowRight"":10,""ArrowDown,ArrowLeft"":8,""ArrowDown,ArrowRight"":30}","true","ArrowDown,ArrowRight","false","original","1","68","","",""
"html-keyboard-response","186","844862","0.0-4.0-2.0-1.34","spark_pilot_norest","9180","7","12","Male","","","","","","","null","<div style=""font-size:60px;"">+</div>","null","fixation","","","","","","","","","69","","",""
"revaluation","187","848866","0.0-4.0-2.0-0.35","spark_pilot_norest","9180","7","12","Male","","false","","","","","[643]","./assets/img/canyon/catch/6.jpg","[""spaceBar""]","value training","canyon","0","{""ArrowUp,ArrowLeft"":23,""ArrowUp,ArrowRight"":10,""ArrowDown,ArrowLeft"":8,""ArrowDown,ArrowRight"":30}","true","spaceBar","true","original","1","70","","",""
"html-keyboard-response","188","849368","0.0-4.0-2.0-1.35","spark_pilot_norest","9180","7","12","Male","","","","","","","null","<div style=""font-size:60px;"">+</div>","null","fixation","","","","","","","","","71","","",""
"revaluation","189","855376","0.0-4.0-2.0-0.36","spark_pilot_norest","9180","7","12","Male","","false","","","","","[457.40000000596046,592.1999999880791]","./assets/img/canyon/memory/37.jpg","[""ArrowDown"",""ArrowRight""]","value training","canyon","30","{""ArrowUp,ArrowLeft"":23,""ArrowUp,ArrowRight"":10,""ArrowDown,ArrowLeft"":8,""ArrowDown,ArrowRight"":30}","true","ArrowDown,ArrowRight","false","original","1","72","","",""
"html-keyboard-response","190","855877","0.0-4.0-2.0-1.36","spark_pilot_norest","9180","7","12","Male","","","","","","","null","<div style=""font-size:60px;"">+</div>","null","fixation","","","","","","","","","73","","",""
"revaluation","191","861881","0.0-4.0-2.0-0.37","spark_pilot_norest","9180","7","12","Male","","false","","","","","[573.5999999940395,580.0999999940395]","./assets/img/canyon/memory/2.jpg","[""ArrowDown"",""ArrowRight""]","value training","canyon","30","{""ArrowUp,ArrowLeft"":23,""ArrowUp,ArrowRight"":10,""ArrowDown,ArrowLeft"":8,""ArrowDown,ArrowRight"":30}","true","ArrowDown,ArrowRight","false","original","1","74","","",""
"html-keyboard-response","192","862384","0.0-4.0-2.0-1.37","spark_pilot_norest","9180","7","12","Male","","","","","","","null","<div style=""font-size:60px;"">+</div>","null","fixation","","","","","","","","","75","","",""
"revaluation","193","868389","0.0-4.0-2.0-0.38","spark_pilot_norest","9180","7","12","Male","","false","","","","","[522.3999999761581,512.9000000059605]","./assets/img/canyon/memory/18.jpg","[""ArrowDown"",""ArrowRight""]","value training","canyon","30","{""ArrowUp,ArrowLeft"":23,""ArrowUp,ArrowRight"":10,""ArrowDown,ArrowLeft"":8,""ArrowDown,ArrowRight"":30}","true","ArrowDown,ArrowRight","false","original","1","76","","",""
"html-keyboard-response","194","868891","0.0-4.0-2.0-1.38","spark_pilot_norest","9180","7","12","Male","","","","","","","null","<div style=""font-size:60px;"">+</div>","null","fixation","","","","","","","","","77","","",""
"revaluation","195","872894","0.0-4.0-2.0-0.39","spark_pilot_norest","9180","7","12","Male","","false","","","","","[767.2000000178814]","./assets/img/canyon/catch/1.jpg","[""spaceBar""]","value training","canyon","0","{""ArrowUp,ArrowLeft"":23,""ArrowUp,ArrowRight"":10,""ArrowDown,ArrowLeft"":8,""ArrowDown,ArrowRight"":30}","true","spaceBar","true","original","1","78","","",""
"html-keyboard-response","196","873396","0.0-4.0-2.0-1.39","spark_pilot_norest","9180","7","12","Male","","","","","","","null","<div style=""font-size:60px;"">+</div>","null","fixation","","","","","","","","","79","","",""
"revaluation","197","879411","0.0-4.0-2.0-0.40","spark_pilot_norest","9180","7","12","Male","","false","","","","","[854.4000000059605,1173.5999999940395]","./assets/img/canyon/memory/5.jpg","[""ArrowDown"",""ArrowRight""]","value training","canyon","30","{""ArrowUp,ArrowLeft"":23,""ArrowUp,ArrowRight"":10,""ArrowDown,ArrowLeft"":8,""ArrowDown,ArrowRight"":30}","true","ArrowDown,ArrowRight","false","original","1","80","","",""
"html-keyboard-response","198","879913","0.0-4.0-2.0-1.40","spark_pilot_norest","9180","7","12","Male","","","","","","","null","<div style=""font-size:60px;"">+</div>","null","fixation","","","","","","","","","81","","",""
"revaluation","199","885917","0.0-4.0-2.0-0.41","spark_pilot_norest","9180","7","12","Male","","false","","","","","[1065.699999988079,560.5]","./assets/img/canyon/memory/1.jpg","[""ArrowDown"",""ArrowRight""]","value training","canyon","30","{""ArrowUp,ArrowLeft"":23,""ArrowUp,ArrowRight"":10,""ArrowDown,ArrowLeft"":8,""ArrowDown,ArrowRight"":30}","true","ArrowDown,ArrowRight","false","original","1","82","","",""
"html-keyboard-response","200","886417","0.0-4.0-2.0-1.41","spark_pilot_norest","9180","7","12","Male","","","","","","","null","<div style=""font-size:60px;"">+</div>","null","fixation","","","","","","","","","83","","",""
"revaluation","201","892422","0.0-4.0-2.0-0.42","spark_pilot_norest","9180","7","12","Male","","false","","","","","[633.9000000059605,560.1999999880791]","./assets/img/canyon/memory/36.jpg","[""ArrowDown"",""ArrowRight""]","value training","canyon","30","{""ArrowUp,ArrowLeft"":23,""ArrowUp,ArrowRight"":10,""ArrowDown,ArrowLeft"":8,""ArrowDown,ArrowRight"":30}","true","ArrowDown,ArrowRight","false","original","1","84","","",""
"html-keyboard-response","202","892924","0.0-4.0-2.0-1.42","spark_pilot_norest","9180","7","12","Male","","","","","","","null","<div style=""font-size:60px;"">+</div>","null","fixation","","","","","","","","","85","","",""
"revaluation","203","898936","0.0-4.0-2.0-0.43","spark_pilot_norest","9180","7","12","Male","","true","","","","","[503]","./assets/img/canyon/memory/1.jpg","[""ArrowDown""]","value training","canyon","-5","{""ArrowUp,ArrowLeft"":23,""ArrowUp,ArrowRight"":10,""ArrowDown,ArrowLeft"":8,""ArrowDown,ArrowRight"":30}","false","ArrowDown","false","original","1","86","","",""
"html-keyboard-response","204","899437","0.0-4.0-2.0-1.43","spark_pilot_norest","9180","7","12","Male","","","","","","","null","<div style=""font-size:60px;"">+</div>","null","fixation","","","","","","","","","87","","",""
"revaluation","205","903440","0.0-4.0-2.0-0.44","spark_pilot_norest","9180","7","12","Male","","false","","","","","[622.7999999821186]","./assets/img/canyon/catch/5.jpg","[""spaceBar""]","value training","canyon","0","{""ArrowUp,ArrowLeft"":23,""ArrowUp,ArrowRight"":10,""ArrowDown,ArrowLeft"":8,""ArrowDown,ArrowRight"":30}","true","spaceBar","true","original","1","88","","",""
"html-keyboard-response","206","903942","0.0-4.0-2.0-1.44","spark_pilot_norest","9180","7","12","Male","","","","","","","null","<div style=""font-size:60px;"">+</div>","null","fixation","","","","","","","","","89","","",""
"revaluation","207","909947","0.0-4.0-2.0-0.45","spark_pilot_norest","9180","7","12","Male","","false","","","","","[461.2999999821186,676.7999999821186]","./assets/img/canyon/memory/29.jpg","[""ArrowDown"",""ArrowRight""]","value training","canyon","30","{""ArrowUp,ArrowLeft"":23,""ArrowUp,ArrowRight"":10,""ArrowDown,ArrowLeft"":8,""ArrowDown,ArrowRight"":30}","true","ArrowDown,ArrowRight","false","original","1","90","","",""
"html-keyboard-response","208","910448","0.0-4.0-2.0-1.45","spark_pilot_norest","9180","7","12","Male","","","","","","","null","<div style=""font-size:60px;"">+</div>","null","fixation","","","","","","","","","91","","",""
"revaluation","209","916461","0.0-4.0-2.0-0.46","spark_pilot_norest","9180","7","12","Male","","false","","","","","[443.80000001192093,291.19999998807907]","./assets/img/canyon/memory/17.jpg","[""ArrowDown"",""ArrowRight""]","value training","canyon","30","{""ArrowUp,ArrowLeft"":23,""ArrowUp,ArrowRight"":10,""ArrowDown,ArrowLeft"":8,""ArrowDown,ArrowRight"":30}","true","ArrowDown,ArrowRight","false","original","1","92","","",""
"html-keyboard-response","210","916963","0.0-4.0-2.0-1.46","spark_pilot_norest","9180","7","12","Male","","","","","","","null","<div style=""font-size:60px;"">+</div>","null","fixation","","","","","","","","","93","","",""
"revaluation","211","920967","0.0-4.0-2.0-0.47","spark_pilot_norest","9180","7","12","Male","","false","","","","","[679.9000000059605]","./assets/img/canyon/catch/4.jpg","[""spaceBar""]","value training","canyon","0","{""ArrowUp,ArrowLeft"":23,""ArrowUp,ArrowRight"":10,""ArrowDown,ArrowLeft"":8,""ArrowDown,ArrowRight"":30}","true","spaceBar","true","original","1","94","","",""
"html-keyboard-response","212","921469","0.0-4.0-2.0-1.47","spark_pilot_norest","9180","7","12","Male","","","","","","","null","<div style=""font-size:60px;"">+</div>","null","fixation","","","","","","","","","95","","",""
"revaluation","213","927481","0.0-4.0-2.0-0.48","spark_pilot_norest","9180","7","12","Male","","false","","","","","[471.59999999403954,525.0999999940395]","./assets/img/canyon/memory/35.jpg","[""ArrowDown"",""ArrowRight""]","value training","canyon","30","{""ArrowUp,ArrowLeft"":23,""ArrowUp,ArrowRight"":10,""ArrowDown,ArrowLeft"":8,""ArrowDown,ArrowRight"":30}","true","ArrowDown,ArrowRight","false","original","1","96","","",""
"html-keyboard-response","214","927982","0.0-4.0-2.0-1.48","spark_pilot_norest","9180","7","12","Male","","","","","","","null","<div style=""font-size:60px;"">+</div>","null","fixation","","","","","","","","","97","","",""
"revaluation","215","933993","0.0-4.0-2.0-0.49","spark_pilot_norest","9180","7","12","Male","","false","","","","","[454.2999999821186,630.8000000119209]","./assets/img/canyon/memory/12.jpg","[""ArrowDown"",""ArrowRight""]","value training","canyon","30","{""ArrowUp,ArrowLeft"":23,""ArrowUp,ArrowRight"":10,""ArrowDown,ArrowLeft"":8,""ArrowDown,ArrowRight"":30}","true","ArrowDown,ArrowRight","false","original","1","98","","",""
"html-keyboard-response","216","934496","0.0-4.0-2.0-1.49","spark_pilot_norest","9180","7","12","Male","","","","","","","null","<div style=""font-size:60px;"">+</div>","null","fixation","","","","","","","","","99","","",""
"learning-instructions","217","950145","0.0-4.0-3.0-0.0","spark_pilot_norest","9180","7","12","Male","","","","","","","2718.199999988079","<p> Now, you will travel with a friend who will choose whether you go up or down first. </p>
            <p> On these turns, you will just see the animal that they found. You will still get to choose which chest to search for treasure.</p>","","instructions","","","","","","","","","","","",""
"revaluation","218","954164","0.0-4.0-4.0-0.0","spark_pilot_norest","9180","7","12","Male","","false","","","","","[731.4000000059605]","./assets/img/canyon/animals/giraffe.jpg","[""ArrowRight""]","revaluation","canyon","10","{""ArrowUp,ArrowLeft"":23,""ArrowUp,ArrowRight"":10,""ArrowDown,ArrowLeft"":8,""ArrowDown,ArrowRight"":30}","false","ArrowUp,ArrowRight","","original","1","0","","",""
"html-keyboard-response","219","954679","0.0-4.0-4.0-1.0","spark_pilot_norest","9180","7","12","Male","","","","","","","null","<div style=""font-size:60px;"">+</div>","null","fixation","","","","","","","","","1","","",""
"revaluation","220","958709","0.0-4.0-4.0-0.1","spark_pilot_norest","9180","7","12","Male","","false","","","","","[430.09999999403954]","./assets/img/canyon/animals/giraffe.jpg","[""ArrowLeft""]","revaluation","canyon","23","{""ArrowUp,ArrowLeft"":23,""ArrowUp,ArrowRight"":10,""ArrowDown,ArrowLeft"":8,""ArrowDown,ArrowRight"":30}","true","ArrowUp,ArrowLeft","","original","1","2","","",""
"html-keyboard-response","221","959211","0.0-4.0-4.0-1.1","spark_pilot_norest","9180","7","12","Male","","","","","","","null","<div style=""font-size:60px;"">+</div>","null","fixation","","","","","","","","","3","","",""
"revaluation","222","963242","0.0-4.0-4.0-0.2","spark_pilot_norest","9180","7","12","Male","","false","","","","","[378]","./assets/img/canyon/animals/giraffe.jpg","[""ArrowLeft""]","revaluation","canyon","23","{""ArrowUp,ArrowLeft"":23,""ArrowUp,ArrowRight"":10,""ArrowDown,ArrowLeft"":8,""ArrowDown,ArrowRight"":30}","true","ArrowUp,ArrowLeft","","original","1","4","","",""
"html-keyboard-response","223","963743","0.0-4.0-4.0-1.2","spark_pilot_norest","9180","7","12","Male","","","","","","","null","<div style=""font-size:60px;"">+</div>","null","fixation","","","","","","","","","5","","",""
"revaluation","224","967748","0.0-4.0-4.0-0.3","spark_pilot_norest","9180","7","12","Male","","false","","","","","[454.7999999821186]","./assets/img/canyon/animals/giraffe.jpg","[""ArrowLeft""]","revaluation","canyon","23","{""ArrowUp,ArrowLeft"":23,""ArrowUp,ArrowRight"":10,""ArrowDown,ArrowLeft"":8,""ArrowDown,ArrowRight"":30}","true","ArrowUp,ArrowLeft","","original","1","6","","",""
"html-keyboard-response","225","968250","0.0-4.0-4.0-1.3","spark_pilot_norest","9180","7","12","Male","","","","","","","null","<div style=""font-size:60px;"">+</div>","null","fixation","","","","","","","","","7","","",""
"revaluation","226","972261","0.0-4.0-4.0-0.4","spark_pilot_norest","9180","7","12","Male","","false","","","","","[618.0999999940395]","./assets/img/canyon/animals/giraffe.jpg","[""ArrowLeft""]","revaluation","canyon","23","{""ArrowUp,ArrowLeft"":23,""ArrowUp,ArrowRight"":10,""ArrowDown,ArrowLeft"":8,""ArrowDown,ArrowRight"":30}","true","ArrowUp,ArrowLeft","","original","1","8","","",""
"html-keyboard-response","227","972763","0.0-4.0-4.0-1.4","spark_pilot_norest","9180","7","12","Male","","","","","","","null","<div style=""font-size:60px;"">+</div>","null","fixation","","","","","","","","","9","","",""
"revaluation","228","976779","0.0-4.0-4.0-0.5","spark_pilot_norest","9180","7","12","Male","","false","","","","","[577.5]","./assets/img/canyon/animals/lion.jpg","[""ArrowRight""]","revaluation","canyon","30","{""ArrowUp,ArrowLeft"":23,""ArrowUp,ArrowRight"":10,""ArrowDown,ArrowLeft"":8,""ArrowDown,ArrowRight"":30}","true","ArrowDown,ArrowRight","","original","1","10","","",""
"html-keyboard-response","229","977293","0.0-4.0-4.0-1.5","spark_pilot_norest","9180","7","12","Male","","","","","","","null","<div style=""font-size:60px;"">+</div>","null","fixation","","","","","","","","","11","","",""
"revaluation","230","981301","0.0-4.0-4.0-0.6","spark_pilot_norest","9180","7","12","Male","","false","","","","","[513.1999999880791]","./assets/img/canyon/animals/lion.jpg","[""ArrowRight""]","revaluation","canyon","30","{""ArrowUp,ArrowLeft"":23,""ArrowUp,ArrowRight"":10,""ArrowDown,ArrowLeft"":8,""ArrowDown,ArrowRight"":30}","true","ArrowDown,ArrowRight","","original","1","12","","",""
"html-keyboard-response","231","981802","0.0-4.0-4.0-1.6","spark_pilot_norest","9180","7","12","Male","","","","","","","null","<div style=""font-size:60px;"">+</div>","null","fixation","","","","","","","","","13","","",""
"revaluation","232","985806","0.0-4.0-4.0-0.7","spark_pilot_norest","9180","7","12","Male","","false","","","","","[587.7999999821186]","./assets/img/canyon/animals/lion.jpg","[""ArrowRight""]","revaluation","canyon","30","{""ArrowUp,ArrowLeft"":23,""ArrowUp,ArrowRight"":10,""ArrowDown,ArrowLeft"":8,""ArrowDown,ArrowRight"":30}","true","ArrowDown,ArrowRight","","original","1","14","","",""
"html-keyboard-response","233","986307","0.0-4.0-4.0-1.7","spark_pilot_norest","9180","7","12","Male","","","","","","","null","<div style=""font-size:60px;"">+</div>","null","fixation","","","","","","","","","15","","",""
"revaluation","234","990313","0.0-4.0-4.0-0.8","spark_pilot_norest","9180","7","12","Male","","false","","","","","[545.9000000059605]","./assets/img/canyon/animals/lion.jpg","[""ArrowRight""]","revaluation","canyon","30","{""ArrowUp,ArrowLeft"":23,""ArrowUp,ArrowRight"":10,""ArrowDown,ArrowLeft"":8,""ArrowDown,ArrowRight"":30}","true","ArrowDown,ArrowRight","","original","1","16","","",""
"html-keyboard-response","235","990814","0.0-4.0-4.0-1.8","spark_pilot_norest","9180","7","12","Male","","","","","","","null","<div style=""font-size:60px;"">+</div>","null","fixation","","","","","","","","","17","","",""
"revaluation","236","994818","0.0-4.0-4.0-0.9","spark_pilot_norest","9180","7","12","Male","","false","","","","","[488.19999998807907]","./assets/img/canyon/animals/lion.jpg","[""ArrowRight""]","revaluation","canyon","30","{""ArrowUp,ArrowLeft"":23,""ArrowUp,ArrowRight"":10,""ArrowDown,ArrowLeft"":8,""ArrowDown,ArrowRight"":30}","true","ArrowDown,ArrowRight","","original","1","18","","",""
"html-keyboard-response","237","995320","0.0-4.0-4.0-1.9","spark_pilot_norest","9180","7","12","Male","","","","","","","null","<div style=""font-size:60px;"">+</div>","null","fixation","","","","","","","","","19","","",""
"revaluation","238","999324","0.0-4.0-4.0-0.10","spark_pilot_norest","9180","7","12","Male","","false","","","","","[613.6000000238419]","./assets/img/canyon/animals/giraffe.jpg","[""ArrowRight""]","revaluation","canyon","10","{""ArrowUp,ArrowLeft"":23,""ArrowUp,ArrowRight"":10,""ArrowDown,ArrowLeft"":8,""ArrowDown,ArrowRight"":30}","false","ArrowUp,ArrowRight","","original","1","20","","",""
"html-keyboard-response","239","999825","0.0-4.0-4.0-1.10","spark_pilot_norest","9180","7","12","Male","","","","","","","null","<div style=""font-size:60px;"">+</div>","null","fixation","","","","","","","","","21","","",""
"revaluation","240","1003828","0.0-4.0-4.0-0.11","spark_pilot_norest","9180","7","12","Male","","false","","","","","[484.69999998807907]","./assets/img/canyon/animals/giraffe.jpg","[""ArrowLeft""]","revaluation","canyon","23","{""ArrowUp,ArrowLeft"":23,""ArrowUp,ArrowRight"":10,""ArrowDown,ArrowLeft"":8,""ArrowDown,ArrowRight"":30}","true","ArrowUp,ArrowLeft","","original","1","22","","",""
"html-keyboard-response","241","1004330","0.0-4.0-4.0-1.11","spark_pilot_norest","9180","7","12","Male","","","","","","","null","<div style=""font-size:60px;"">+</div>","null","fixation","","","","","","","","","23","","",""
"revaluation","242","1008333","0.0-4.0-4.0-0.12","spark_pilot_norest","9180","7","12","Male","","false","","","","","[733.5]","./assets/img/canyon/animals/lion.jpg","[""ArrowRight""]","revaluation","canyon","30","{""ArrowUp,ArrowLeft"":23,""ArrowUp,ArrowRight"":10,""ArrowDown,ArrowLeft"":8,""ArrowDown,ArrowRight"":30}","true","ArrowDown,ArrowRight","","original","1","24","","",""
"html-keyboard-response","243","1008835","0.0-4.0-4.0-1.12","spark_pilot_norest","9180","7","12","Male","","","","","","","null","<div style=""font-size:60px;"">+</div>","null","fixation","","","","","","","","","25","","",""
"revaluation","244","1012837","0.0-4.0-4.0-0.13","spark_pilot_norest","9180","7","12","Male","","false","","","","","[619.9000000059605]","./assets/img/canyon/animals/giraffe.jpg","[""ArrowLeft""]","revaluation","canyon","23","{""ArrowUp,ArrowLeft"":23,""ArrowUp,ArrowRight"":10,""ArrowDown,ArrowLeft"":8,""ArrowDown,ArrowRight"":30}","true","ArrowUp,ArrowLeft","","original","1","26","","",""
"html-keyboard-response","245","1013339","0.0-4.0-4.0-1.13","spark_pilot_norest","9180","7","12","Male","","","","","","","null","<div style=""font-size:60px;"">+</div>","null","fixation","","","","","","","","","27","","",""
"revaluation","246","1017343","0.0-4.0-4.0-0.14","spark_pilot_norest","9180","7","12","Male","","false","","","","","[595.7000000178814]","./assets/img/canyon/animals/lion.jpg","[""ArrowRight""]","revaluation","canyon","30","{""ArrowUp,ArrowLeft"":23,""ArrowUp,ArrowRight"":10,""ArrowDown,ArrowLeft"":8,""ArrowDown,ArrowRight"":30}","true","ArrowDown,ArrowRight","","original","1","28","","",""
"html-keyboard-response","247","1017845","0.0-4.0-4.0-1.14","spark_pilot_norest","9180","7","12","Male","","","","","","","null","<div style=""font-size:60px;"">+</div>","null","fixation","","","","","","","","","29","","",""
"revaluation","248","1021849","0.0-4.0-4.0-0.15","spark_pilot_norest","9180","7","12","Male","","false","","","","","[825.5999999940395]","./assets/img/canyon/animals/giraffe.jpg","[""ArrowLeft""]","revaluation","canyon","23","{""ArrowUp,ArrowLeft"":23,""ArrowUp,ArrowRight"":10,""ArrowDown,ArrowLeft"":8,""ArrowDown,ArrowRight"":30}","true","ArrowUp,ArrowLeft","","original","1","30","","",""
"html-keyboard-response","249","1022350","0.0-4.0-4.0-1.15","spark_pilot_norest","9180","7","12","Male","","","","","","","null","<div style=""font-size:60px;"">+</div>","null","fixation","","","","","","","","","31","","",""
"revaluation","250","1026355","0.0-4.0-4.0-0.16","spark_pilot_norest","9180","7","12","Male","","false","","","","","[824.4000000059605]","./assets/img/canyon/animals/lion.jpg","[""ArrowRight""]","revaluation","canyon","30","{""ArrowUp,ArrowLeft"":23,""ArrowUp,ArrowRight"":10,""ArrowDown,ArrowLeft"":8,""ArrowDown,ArrowRight"":30}","true","ArrowDown,ArrowRight","","original","1","32","","",""
"html-keyboard-response","251","1026856","0.0-4.0-4.0-1.16","spark_pilot_norest","9180","7","12","Male","","","","","","","null","<div style=""font-size:60px;"">+</div>","null","fixation","","","","","","","","","33","","",""
"revaluation","252","1030861","0.0-4.0-4.0-0.17","spark_pilot_norest","9180","7","12","Male","","false","","","","","[998.2999999821186]","./assets/img/canyon/animals/lion.jpg","[""ArrowRight""]","revaluation","canyon","30","{""ArrowUp,ArrowLeft"":23,""ArrowUp,ArrowRight"":10,""ArrowDown,ArrowLeft"":8,""ArrowDown,ArrowRight"":30}","true","ArrowDown,ArrowRight","","original","1","34","","",""
"html-keyboard-response","253","1031362","0.0-4.0-4.0-1.17","spark_pilot_norest","9180","7","12","Male","","","","","","","null","<div style=""font-size:60px;"">+</div>","null","fixation","","","","","","","","","35","","",""
"learning-instructions","254","1039521","0.0-4.0-5.0-0.0","spark_pilot_norest","9180","7","12","Male","","","","","","","null","<p> You have almost finished this part of the game! </p>
            <p> We are going to ask you to make a few more choices. </p>","","instructions","","","","","","","","","","","",""
"learning-instructions","255","1055502","0.0-4.0-5.0-0.1","spark_pilot_norest","9180","7","12","Male","","","","","","","null","<p> First, you need to decide whether to go up or down. When you see each picture, use the arrow keys to make your choice. </p>
            <p><b>You will not see which animal you found, but try to get to the one that will give you the most treasure.</b></p>","","instructions","","","","","","","","","","","",""
"html-keyboard-response","256","1056504","0.0-4.0-6.0-0.0","spark_pilot_norest","9180","7","12","Male","","","","","","","null","<div style=""font-size:100px;color:red;"">Starting in...</div>","null","","","","","","","","","","","","",""
"html-keyboard-response","257","1057506","0.0-4.0-6.0-1.0","spark_pilot_norest","9180","7","12","Male","","","","","","","null","<div style=""font-size:200px;color:red;"">3</div>","null","","","","","","","","","","","","",""
"html-keyboard-response","258","1058515","0.0-4.0-6.0-2.0","spark_pilot_norest","9180","7","12","Male","","","","","","","null","<div style=""font-size:200px;color:red;"">2</div>","null","","","","","","","","","","","","",""
"html-keyboard-response","259","1059517","0.0-4.0-6.0-3.0","spark_pilot_norest","9180","7","12","Male","","","","","","","null","<div style=""font-size:200px;color:red;"">1</div>","null","","","","","","","","","","","","",""
"revaluation","260","1060178","0.0-4.0-7.0-0.0","spark_pilot_norest","9180","7","12","Male","","false","","","","","[659]","./assets/img/canyon/test/1.jpg","[""ArrowUp""]","first stage test","canyon","0","{""ArrowUp,ArrowLeft"":23,""ArrowUp,ArrowRight"":10,""ArrowDown,ArrowLeft"":8,""ArrowDown,ArrowRight"":30}","false","ArrowUp","false","original","1","","","",""
"html-keyboard-response","261","1060683","0.0-4.0-7.0-1.0","spark_pilot_norest","9180","7","12","Male","","","","","","","null","<div style=""font-size:60px;"">+</div>","null","fixation","","","","","","","","","","","",""
"revaluation","262","1061458","0.0-4.0-7.0-0.1","spark_pilot_norest","9180","7","12","Male","","false","","","","","[774.1999999880791]","./assets/img/canyon/test/2.jpg","[""ArrowDown""]","first stage test","canyon","0","{""ArrowUp,ArrowLeft"":23,""ArrowUp,ArrowRight"":10,""ArrowDown,ArrowLeft"":8,""ArrowDown,ArrowRight"":30}","true","ArrowDown","false","original","1","","","",""
"html-keyboard-response","263","1061969","0.0-4.0-7.0-1.1","spark_pilot_norest","9180","7","12","Male","","","","","","","null","<div style=""font-size:60px;"">+</div>","null","fixation","","","","","","","","","","","",""
"revaluation","264","1062393","0.0-4.0-7.0-0.2","spark_pilot_norest","9180","7","12","Male","","false","","","","","[422.30000001192093]","./assets/img/canyon/test/3.jpg","[""ArrowDown""]","first stage test","canyon","0","{""ArrowUp,ArrowLeft"":23,""ArrowUp,ArrowRight"":10,""ArrowDown,ArrowLeft"":8,""ArrowDown,ArrowRight"":30}","true","ArrowDown","false","original","1","","","",""
"html-keyboard-response","265","1062906","0.0-4.0-7.0-1.2","spark_pilot_norest","9180","7","12","Male","","","","","","","null","<div style=""font-size:60px;"">+</div>","null","fixation","","","","","","","","","","","",""
"revaluation","266","1063154","0.0-4.0-7.0-0.3","spark_pilot_norest","9180","7","12","Male","","false","","","","","[245.89999997615814]","./assets/img/canyon/test/0.jpg","[""ArrowDown""]","first stage test","canyon","0","{""ArrowUp,ArrowLeft"":23,""ArrowUp,ArrowRight"":10,""ArrowDown,ArrowLeft"":8,""ArrowDown,ArrowRight"":30}","true","ArrowDown","false","original","1","","","",""
"html-keyboard-response","267","1063657","0.0-4.0-7.0-1.3","spark_pilot_norest","9180","7","12","Male","","","","","","","null","<div style=""font-size:60px;"">+</div>","null","fixation","","","","","","","","","","","",""
"learning-instructions","268","1077000","0.0-4.0-8.0-0.0","spark_pilot_norest","9180","7","12","Male","","","","","","","null","<p> Now you will see the animals again and can search their chests for treasure. </p>
            <p> This time, you will not see how much treasure you earned, but you will earn more bonus money for making better choices. </p>","","instructions","","","","","","","","","","","",""
"html-keyboard-response","269","1078016","0.0-4.0-9.0-0.0","spark_pilot_norest","9180","7","12","Male","","","","","","","null","<div style=""font-size:100px;color:red;"">Starting in...</div>","null","","","","","","","","","","","","",""
"html-keyboard-response","270","1079016","0.0-4.0-9.0-1.0","spark_pilot_norest","9180","7","12","Male","","","","","","","null","<div style=""font-size:200px;color:red;"">3</div>","null","","","","","","","","","","","","",""
"html-keyboard-response","271","1080020","0.0-4.0-9.0-2.0","spark_pilot_norest","9180","7","12","Male","","","","","","","null","<div style=""font-size:200px;color:red;"">2</div>","null","","","","","","","","","","","","",""
"html-keyboard-response","272","1081021","0.0-4.0-9.0-3.0","spark_pilot_norest","9180","7","12","Male","","","","","","","null","<div style=""font-size:200px;color:red;"">1</div>","null","","","","","","","","","","","","",""
"revaluation","273","1081682","0.0-4.0-10.0-0.0","spark_pilot_norest","9180","7","12","Male","","false","","","","","[658.7000000178814]","./assets/img/canyon/animals/giraffe.jpg","[""ArrowRight""]","second stage test","canyon","0","{""ArrowUp,ArrowLeft"":23,""ArrowUp,ArrowRight"":10,""ArrowDown,ArrowLeft"":8,""ArrowDown,ArrowRight"":30}","false","ArrowUp,ArrowRight","","original","1","","","",""
"html-keyboard-response","274","1082192","0.0-4.0-10.0-1.0","spark_pilot_norest","9180","7","12","Male","","","","","","","null","<div style=""font-size:60px;"">+</div>","null","fixation","","","","","","","","","","","",""
"revaluation","275","1082922","0.0-4.0-10.0-0.1","spark_pilot_norest","9180","7","12","Male","","false","","","","","[728.5999999940395]","./assets/img/canyon/animals/giraffe.jpg","[""ArrowLeft""]","second stage test","canyon","0","{""ArrowUp,ArrowLeft"":23,""ArrowUp,ArrowRight"":10,""ArrowDown,ArrowLeft"":8,""ArrowDown,ArrowRight"":30}","true","ArrowUp,ArrowLeft","","original","1","","","",""
"html-keyboard-response","276","1083424","0.0-4.0-10.0-1.1","spark_pilot_norest","9180","7","12","Male","","","","","","","null","<div style=""font-size:60px;"">+</div>","null","fixation","","","","","","","","","","","",""
"revaluation","277","1083818","0.0-4.0-10.0-0.2","spark_pilot_norest","9180","7","12","Male","","false","","","","","[393.40000000596046]","./assets/img/canyon/animals/giraffe.jpg","[""ArrowLeft""]","second stage test","canyon","0","{""ArrowUp,ArrowLeft"":23,""ArrowUp,ArrowRight"":10,""ArrowDown,ArrowLeft"":8,""ArrowDown,ArrowRight"":30}","true","ArrowUp,ArrowLeft","","original","1","","","",""
"html-keyboard-response","278","1084320","0.0-4.0-10.0-1.2","spark_pilot_norest","9180","7","12","Male","","","","","","","null","<div style=""font-size:60px;"">+</div>","null","fixation","","","","","","","","","","","",""
"revaluation","279","1084658","0.0-4.0-10.0-0.3","spark_pilot_norest","9180","7","12","Male","","false","","","","","[336]","./assets/img/canyon/animals/giraffe.jpg","[""ArrowLeft""]","second stage test","canyon","0","{""ArrowUp,ArrowLeft"":23,""ArrowUp,ArrowRight"":10,""ArrowDown,ArrowLeft"":8,""ArrowDown,ArrowRight"":30}","true","ArrowUp,ArrowLeft","","original","1","","","",""
"html-keyboard-response","280","1085161","0.0-4.0-10.0-1.3","spark_pilot_norest","9180","7","12","Male","","","","","","","null","<div style=""font-size:60px;"">+</div>","null","fixation","","","","","","","","","","","",""
"revaluation","281","1085499","0.0-4.0-10.0-0.4","spark_pilot_norest","9180","7","12","Male","","false","","","","","[336.5]","./assets/img/canyon/animals/lion.jpg","[""ArrowLeft""]","second stage test","canyon","0","{""ArrowUp,ArrowLeft"":23,""ArrowUp,ArrowRight"":10,""ArrowDown,ArrowLeft"":8,""ArrowDown,ArrowRight"":30}","false","ArrowDown,ArrowLeft","","original","1","","","",""
"html-keyboard-response","282","1086000","0.0-4.0-10.0-1.4","spark_pilot_norest","9180","7","12","Male","","","","","","","null","<div style=""font-size:60px;"">+</div>","null","fixation","","","","","","","","","","","",""
"revaluation","283","1086267","0.0-4.0-10.0-0.5","spark_pilot_norest","9180","7","12","Male","","false","","","","","[264.80000001192093]","./assets/img/canyon/animals/lion.jpg","[""ArrowRight""]","second stage test","canyon","0","{""ArrowUp,ArrowLeft"":23,""ArrowUp,ArrowRight"":10,""ArrowDown,ArrowLeft"":8,""ArrowDown,ArrowRight"":30}","true","ArrowDown,ArrowRight","","original","1","","","",""
"html-keyboard-response","284","1086781","0.0-4.0-10.0-1.5","spark_pilot_norest","9180","7","12","Male","","","","","","","null","<div style=""font-size:60px;"">+</div>","null","fixation","","","","","","","","","","","",""
"revaluation","285","1087227","0.0-4.0-10.0-0.6","spark_pilot_norest","9180","7","12","Male","","false","","","","","[444.40000000596046]","./assets/img/canyon/animals/lion.jpg","[""ArrowRight""]","second stage test","canyon","0","{""ArrowUp,ArrowLeft"":23,""ArrowUp,ArrowRight"":10,""ArrowDown,ArrowLeft"":8,""ArrowDown,ArrowRight"":30}","true","ArrowDown,ArrowRight","","original","1","","","",""
"html-keyboard-response","286","1087735","0.0-4.0-10.0-1.6","spark_pilot_norest","9180","7","12","Male","","","","","","","null","<div style=""font-size:60px;"">+</div>","null","fixation","","","","","","","","","","","",""
"revaluation","287","1088402","0.0-4.0-10.0-0.7","spark_pilot_norest","9180","7","12","Male","","false","","","","","[665.8000000119209]","./assets/img/canyon/animals/lion.jpg","[""ArrowRight""]","second stage test","canyon","0","{""ArrowUp,ArrowLeft"":23,""ArrowUp,ArrowRight"":10,""ArrowDown,ArrowLeft"":8,""ArrowDown,ArrowRight"":30}","true","ArrowDown,ArrowRight","","original","1","","","",""
"html-keyboard-response","288","1088916","0.0-4.0-10.0-1.7","spark_pilot_norest","9180","7","12","Male","","","","","","","null","<div style=""font-size:60px;"">+</div>","null","fixation","","","","","","","","","","","",""
"learning-instructions","289","1097726","0.0-4.0-0.1-0.2","spark_pilot_norest","9180","7","12","Male","","","","","","","6105.4000000059605","<p> This time you are searching for treasure in the <b>ocean</b>.</p>","","instructions","","","","","","","","","","","",""
"learning-instructions","290","1129003","0.0-4.0-0.1-0.3","spark_pilot_norest","9180","7","12","Male","","","","","","","14031.699999988079","<p><b>New</b> animals with <b>new</b> treasure chests live here. You need to explore to discover where the animal with the best treasure chest is.</p>
                    <p> Like before, once you figure out which animal has the chest with the most treasure, you should try to get to that animal and select that chest! </p>","","instructions","","","","","","","","","","","",""
"learning-instructions","291","1151529","0.0-4.0-1.1-0.1","spark_pilot_norest","9180","7","12","Male","","","","","","","7795.899999976158","<p> Remember, when you see a picture of the place, use the up and down keys to <b>find an animal</b>.</p>
            <p> When you encounter an animal, you should use the left and right keys to <b>select a treasure chest</b>.</p>
            <p> Don't forget to look out for the robber! </p>","","instructions","","","","","","","","","","","",""
"revaluation","292","1157558","0.0-4.0-2.1-0.50","spark_pilot_norest","9180","7","12","Male","","false","","","","","[754.6999999880791,303.69999998807907]","./assets/img/ocean/memory/0.jpg","[""ArrowUp"",""ArrowLeft""]","value training","ocean","26","{""ArrowUp,ArrowLeft"":26,""ArrowUp,ArrowRight"":10,""ArrowDown,ArrowLeft"":5,""ArrowDown,ArrowRight"":17}","true","ArrowUp,ArrowLeft","false","revaluation","2","0","","",""
"html-keyboard-response","293","1158062","0.0-4.0-2.1-1.50","spark_pilot_norest","9180","7","12","Male","","","","","","","null","<div style=""font-size:60px;"">+</div>","null","fixation","","","","","","","","","1","","",""
"revaluation","294","1164103","0.0-4.0-2.1-0.51","spark_pilot_norest","9180","7","12","Male","","false","","","","","[532.5999999940395,289.40000000596046]","./assets/img/ocean/memory/18.jpg","[""ArrowUp"",""ArrowRight""]","value training","ocean","10","{""ArrowUp,ArrowLeft"":26,""ArrowUp,ArrowRight"":10,""ArrowDown,ArrowLeft"":5,""ArrowDown,ArrowRight"":17}","false","ArrowUp,ArrowRight","false","revaluation","2","2","","",""
"html-keyboard-response","295","1164605","0.0-4.0-2.1-1.51","spark_pilot_norest","9180","7","12","Male","","","","","","","null","<div style=""font-size:60px;"">+</div>","null","fixation","","","","","","","","","3","","",""
"revaluation","296","1170636","0.0-4.0-2.1-0.52","spark_pilot_norest","9180","7","12","Male","","false","","","","","[607.1000000238419,575]","./assets/img/ocean/memory/40.jpg","[""ArrowDown"",""ArrowRight""]","value training","ocean","17","{""ArrowUp,ArrowLeft"":26,""ArrowUp,ArrowRight"":10,""ArrowDown,ArrowLeft"":5,""ArrowDown,ArrowRight"":17}","false","ArrowDown,ArrowRight","false","revaluation","2","4","","",""
"html-keyboard-response","297","1171152","0.0-4.0-2.1-1.52","spark_pilot_norest","9180","7","12","Male","","","","","","","null","<div style=""font-size:60px;"">+</div>","null","fixation","","","","","","","","","5","","",""
"revaluation","298","1175164","0.0-4.0-2.1-0.53","spark_pilot_norest","9180","7","12","Male","","false","","","","","[291]","./assets/img/ocean/catch/0.jpg","[""ArrowDown""]","value training","ocean","-10","{""ArrowUp,ArrowLeft"":26,""ArrowUp,ArrowRight"":10,""ArrowDown,ArrowLeft"":5,""ArrowDown,ArrowRight"":17}","false","ArrowDown","true","revaluation","2","6","","",""
"html-keyboard-response","299","1175665","0.0-4.0-2.1-1.53","spark_pilot_norest","9180","7","12","Male","","","","","","","null","<div style=""font-size:60px;"">+</div>","null","fixation","","","","","","","","","7","","",""
"revaluation","300","1181674","0.0-4.0-2.1-0.54","spark_pilot_norest","9180","7","12","Male","","false","","","","","[435.5,321.09999999403954]","./assets/img/ocean/memory/22.jpg","[""ArrowDown"",""ArrowLeft""]","value training","ocean","5","{""ArrowUp,ArrowLeft"":26,""ArrowUp,ArrowRight"":10,""ArrowDown,ArrowLeft"":5,""ArrowDown,ArrowRight"":17}","false","ArrowDown,ArrowLeft","false","revaluation","2","8","","",""
"html-keyboard-response","301","1182175","0.0-4.0-2.1-1.54","spark_pilot_norest","9180","7","12","Male","","","","","","","null","<div style=""font-size:60px;"">+</div>","null","fixation","","","","","","","","","9","","",""
"revaluation","302","1188181","0.0-4.0-2.1-0.55","spark_pilot_norest","9180","7","12","Male","","false","","","","","[36.900000005960464,316]","./assets/img/ocean/memory/11.jpg","[""ArrowUp"",""ArrowLeft""]","value training","ocean","26","{""ArrowUp,ArrowLeft"":26,""ArrowUp,ArrowRight"":10,""ArrowDown,ArrowLeft"":5,""ArrowDown,ArrowRight"":17}","true","ArrowUp,ArrowLeft","false","revaluation","2","10","","",""
"html-keyboard-response","303","1188683","0.0-4.0-2.1-1.55","spark_pilot_norest","9180","7","12","Male","","","","","","","null","<div style=""font-size:60px;"">+</div>","null","fixation","","","","","","","","","11","","",""
"revaluation","304","1194687","0.0-4.0-2.1-0.56","spark_pilot_norest","9180","7","12","Male","","false","","","","","[385.40000000596046,465.30000001192093]","./assets/img/ocean/memory/2.jpg","[""ArrowUp"",""ArrowLeft""]","value training","ocean","26","{""ArrowUp,ArrowLeft"":26,""ArrowUp,ArrowRight"":10,""ArrowDown,ArrowLeft"":5,""ArrowDown,ArrowRight"":17}","true","ArrowUp,ArrowLeft","false","revaluation","2","12","","",""
"html-keyboard-response","305","1195190","0.0-4.0-2.1-1.56","spark_pilot_norest","9180","7","12","Male","","","","","","","null","<div style=""font-size:60px;"">+</div>","null","fixation","","","","","","","","","13","","",""
"revaluation","306","1199193","0.0-4.0-2.1-0.57","spark_pilot_norest","9180","7","12","Male","","false","","","","","[126.5]","./assets/img/ocean/catch/6.jpg","[""ArrowUp""]","value training","ocean","-10","{""ArrowUp,ArrowLeft"":26,""ArrowUp,ArrowRight"":10,""ArrowDown,ArrowLeft"":5,""ArrowDown,ArrowRight"":17}","false","ArrowUp","true","revaluation","2","14","","",""
"html-keyboard-response","307","1199694","0.0-4.0-2.1-1.57","spark_pilot_norest","9180","7","12","Male","","","","","","","null","<div style=""font-size:60px;"">+</div>","null","fixation","","","","","","","","","15","","",""
"revaluation","308","1205700","0.0-4.0-2.1-0.58","spark_pilot_norest","9180","7","12","Male","","false","","","","","[366.09999999403954,524.9000000059605]","./assets/img/ocean/memory/20.jpg","[""ArrowUp"",""ArrowLeft""]","value training","ocean","26","{""ArrowUp,ArrowLeft"":26,""ArrowUp,ArrowRight"":10,""ArrowDown,ArrowLeft"":5,""ArrowDown,ArrowRight"":17}","true","ArrowUp,ArrowLeft","false","revaluation","2","16","","",""
"html-keyboard-response","309","1206201","0.0-4.0-2.1-1.58","spark_pilot_norest","9180","7","12","Male","","","","","","","null","<div style=""font-size:60px;"">+</div>","null","fixation","","","","","","","","","17","","",""
"revaluation","310","1212213","0.0-4.0-2.1-0.59","spark_pilot_norest","9180","7","12","Male","","false","","","","","[555.8999999761581,578.5999999940395]","./assets/img/ocean/memory/12.jpg","[""ArrowUp"",""ArrowLeft""]","value training","ocean","26","{""ArrowUp,ArrowLeft"":26,""ArrowUp,ArrowRight"":10,""ArrowDown,ArrowLeft"":5,""ArrowDown,ArrowRight"":17}","true","ArrowUp,ArrowLeft","false","revaluation","2","18","","",""
"html-keyboard-response","311","1212715","0.0-4.0-2.1-1.59","spark_pilot_norest","9180","7","12","Male","","","","","","","null","<div style=""font-size:60px;"">+</div>","null","fixation","","","","","","","","","19","","",""
"revaluation","312","1218719","0.0-4.0-2.1-0.60","spark_pilot_norest","9180","7","12","Male","","false","","","","","[481.69999998807907,761.9000000059605]","./assets/img/ocean/memory/39.jpg","[""ArrowUp"",""ArrowLeft""]","value training","ocean","26","{""ArrowUp,ArrowLeft"":26,""ArrowUp,ArrowRight"":10,""ArrowDown,ArrowLeft"":5,""ArrowDown,ArrowRight"":17}","true","ArrowUp,ArrowLeft","false","revaluation","2","20","","",""
"html-keyboard-response","313","1219220","0.0-4.0-2.1-1.60","spark_pilot_norest","9180","7","12","Male","","","","","","","null","<div style=""font-size:60px;"">+</div>","null","fixation","","","","","","","","","21","","",""
