"trial_type","trial_index","time_elapsed","internal_node_id","task_version","subject_id","assigned_condition","age","gender","success","timeout","failed_images","failed_audio","failed_video","browser_interaction","rt","stimulus","response","task_part","environment","score","rewardMap","correct","fullState","isCatch","condition","order","trial_num","key_press","ground_truth","bonus"
"pavlovia","0","1228","0.0-0.0","spark_pilot_norest","8702","4","19","Female","","","","","","","","","","","","","","","","","","","","","",""
"preload","1","42640","0.0-1.0","spark_pilot_norest","8702","4","19","Female","true","false","[]","[]","[]","[{""event"":""fullscreenenter"",""trial"":2,""time"":51645}]","","","","","","","","","","","","","","","",""
"fullscreen","2","52626","0.0-2.0","spark_pilot_norest","8702","4","19","Female","true","","","","","","","","","","","","","","","","","","","","",""
"audio-button-response","3","59755","0.0-3.0-0.0-0.0","spark_pilot_norest","8702","4","19","Female","","","","","","","6752","./assets/audio/audiotest/turtle.mp3","4","audio_test","","","","","","","","","","","",""
"audio-button-response","4","62149","0.0-3.0-0.1-0.1","spark_pilot_norest","8702","4","19","Female","","","","","","","1387","./assets/audio/audiotest/turtle.mp3","2","audio_test","","","","","","","","","","","",""
"learning-instructions","5","72953","0.0-3.0-1.0-0.0","spark_pilot_norest","8702","4","19","Female","","","","","","","2638.300000190735","<p> Welcome! Please remember to stay in fullscreen mode and don't click away from the experiment. </p>","","instructions","","","","","","","","","","","",""
"learning-instructions","6","84236","0.0-3.0-1.0-0.1","spark_pilot_norest","8702","4","19","Female","","","","","","","2864.3999996185303","<p> Today you will be playing a game to earn treasure. </p>
            <p> At the end of the experiment, you will earn a bonus based on how much treasure you find. </p>
            <img src='./assets/img/instructions/treasure.jpg' class='instructions-image'>","","instructions","","","","","","","","","","","",""
"learning-instructions","7","96334","0.0-3.0-1.0-0.2","spark_pilot_norest","8702","4","19","Female","","","","","","","3840.5999999046326","<p> Animals have hidden treasure in treasure chests. </p>
            <p> You need to first find an animal and then choose which of their treasure chests to search. </p>
            <img src='./assets/img/space/animals/cat.jpg' class='instructions-image'>","","instructions","","","","","","","","","","","",""
"learning-instructions","8","110799","0.0-3.0-1.0-0.3","spark_pilot_norest","8702","4","19","Female","","","","","","","1309.5","<p> In each round, you will search for treasure in a different place. In the real game, there will be two rounds. </p>
            <p> You will begin with a separate, practice round where you will search for treasure in outer space. </p>
            <img src='./assets/img/space/0.jpg' class='instructions-image'>","","instructions","","","","","","","","","","","",""
"learning-instructions","9","124001","0.0-3.0-1.0-0.4","spark_pilot_norest","8702","4","19","Female","","","","","","","1794","<p> On every turn, you will see a picture of the place that you are in, but the specific image may be different each time. </p>
            <p> For example, both of these images mean you are in outer space. </p>
            <img src='./assets/img/instructions/outerspace.jpg' class='instructions-image'>","","instructions","","","","","","","","","","","",""
"learning-instructions","10","132953","0.0-3.0-1.0-0.5","spark_pilot_norest","8702","4","19","Female","","","","","","","1128","<p> You need to decide which direction to travel in. </p>
            <p> You can choose between going <b>up or down</b> by using the arrow keys. </p>
            <img src='./assets/img/instructions/updown.jpg' class='instructions-image'>","","instructions","","","","","","","","","","","",""
"learning-instructions","11","142835","0.0-3.0-1.0-0.6","spark_pilot_norest","8702","4","19","Female","","","","","","","1078.4000000953674","<p> You will have <b>2 seconds</b> to make your choice. </p>
            <p> If you do not make a choice within 2 seconds, you will not find an animal or earn treasure. </p>
            <img src='./assets/img/instructions/2seconds.jpg' class='instructions-image'>","","instructions","","","","","","","","","","","",""
"learning-instructions","12","150885","0.0-3.0-1.0-0.7","spark_pilot_norest","8702","4","19","Female","","","","","","","967.7000002861023","<p> Let’s try practicing that now! </p>
            <p> When you see a picture of the place you are in, press the <b>up</b> key to travel up. </p>
            <img src='./assets/img/instructions/pressUp.jpg' class='instructions-image'>","","instructions","","","","","","","","","","","",""
"revaluation","13","154900","0.0-3.0-2.0-0.0","spark_pilot_norest","8702","4","19","Female","","false","","","","","[1118.7999997138977]","./assets/img/space/0.jpg","[""ArrowUp""]","first stage practice","space","0","null","null","ArrowUp","false","","","","","",""
"html-keyboard-response","14","155401","0.0-3.0-2.0-1.0","spark_pilot_norest","8702","4","19","Female","","","","","","","null","<div style=""font-size:60px;"">+</div>","null","fixation","","","","","","","","","","","",""
"revaluation","15","159405","0.0-3.0-2.0-0.1","spark_pilot_norest","8702","4","19","Female","","false","","","","","[1177.4000000953674]","./assets/img/space/1.jpg","[""ArrowUp""]","first stage practice","space","0","null","null","ArrowUp","false","","","","","",""
"html-keyboard-response","16","159909","0.0-3.0-2.0-1.1","spark_pilot_norest","8702","4","19","Female","","","","","","","null","<div style=""font-size:60px;"">+</div>","null","fixation","","","","","","","","","","","",""
"revaluation","17","163912","0.0-3.0-2.0-0.2","spark_pilot_norest","8702","4","19","Female","","false","","","","","[424.2999997138977]","./assets/img/space/2.jpg","[""ArrowUp""]","first stage practice","space","0","null","null","ArrowUp","false","","","","","",""
"html-keyboard-response","18","164413","0.0-3.0-2.0-1.2","spark_pilot_norest","8702","4","19","Female","","","","","","","null","<div style=""font-size:60px;"">+</div>","null","fixation","","","","","","","","","","","",""
"learning-instructions","19","170966","0.0-3.0-3.0-0.0","spark_pilot_norest","8702","4","19","Female","","","","","","","1849.2999997138977","<p> Great job! Now try pressing the <b>down</b> key to travel down. </p>
            <img src='./assets/img/instructions/pressDown.jpg' class='instructions-image'>","","instructions","","","","","","","","","","","",""
"revaluation","20","174972","0.0-3.0-4.0-0.0","spark_pilot_norest","8702","4","19","Female","","false","","","","","[691.2999997138977]","./assets/img/space/3.jpg","[""ArrowDown""]","first stage practice","space","0","null","null","ArrowDown","false","","","","","",""
"html-keyboard-response","21","175473","0.0-3.0-4.0-1.0","spark_pilot_norest","8702","4","19","Female","","","","","","","null","<div style=""font-size:60px;"">+</div>","null","fixation","","","","","","","","","","","",""
"revaluation","22","179479","0.0-3.0-4.0-0.1","spark_pilot_norest","8702","4","19","Female","","false","","","","","[542]","./assets/img/space/4.jpg","[""ArrowDown""]","first stage practice","space","0","null","null","ArrowDown","false","","","","","",""
"html-keyboard-response","23","179981","0.0-3.0-4.0-1.1","spark_pilot_norest","8702","4","19","Female","","","","","","","null","<div style=""font-size:60px;"">+</div>","null","fixation","","","","","","","","","","","",""
"revaluation","24","183984","0.0-3.0-4.0-0.2","spark_pilot_norest","8702","4","19","Female","","false","","","","","[769.2999997138977]","./assets/img/space/5.jpg","[""ArrowDown""]","first stage practice","space","0","null","null","ArrowDown","false","","","","","",""
"html-keyboard-response","25","184484","0.0-3.0-4.0-1.2","spark_pilot_norest","8702","4","19","Female","","","","","","","null","<div style=""font-size:60px;"">+</div>","null","fixation","","","","","","","","","","","",""
"learning-instructions","26","195449","0.0-3.0-5.0-0.0","spark_pilot_norest","8702","4","19","Female","","","","","","","1116.3000001907349","<p> The animals don’t move, so the animal in the upper part of a place will stay in the upper part of a place, and the animal in the lower part of a place will stay in the lower part of a place. </p>","","instructions","","","","","","","","","","","",""
"learning-instructions","27","206050","0.0-3.0-5.0-0.1","spark_pilot_norest","8702","4","19","Female","","","","","","","1477.2000002861023","<p> Each animal has two treasure chests for you to choose from. </p>
            <p> The amount of treasure in each chest can range from <b> 0 to 40 pieces.</b></p>","","instructions","","","","","","","","","","","",""
"learning-instructions","28","218433","0.0-3.0-5.0-0.2","spark_pilot_norest","8702","4","19","Female","","","","","","","1204.5999999046326","<p> You should decide which chest to search for treasure by using the <b>left</b> and <b>right</b> arrow keys. </p>
            <p><b> Pay attention to which animal is on the screen, as the animals have different treasure chests. </b></p>
            <img src='./assets/img/instructions/leftright.jpg' class='instructions-image'>","","instructions","","","","","","","","","","","",""
"learning-instructions","29","226565","0.0-3.0-5.0-0.3","spark_pilot_norest","8702","4","19","Female","","","","","","","1768.9000000953674","<p> Let’s try practicing that now. </p>
            <p> When you see an animal, choose which chest to search for treasure. </p>
            <img src='./assets/img/instructions/chooseChest.jpg' class='instructions-image'>","","instructions","","","","","","","","","","","",""
"revaluation","30","230569","0.0-3.0-6.0-0.0","spark_pilot_norest","8702","4","19","Female","","false","","","","","[654.6999998092651]","./assets/img/space/animals/rabbit.jpg","[""ArrowRight""]","second stage practice","space","23","{""ArrowUp,ArrowLeft"":3,""ArrowUp,ArrowRight"":36,""ArrowDown,ArrowLeft"":15,""ArrowDown,ArrowRight"":23}","true","ArrowDown,ArrowRight","","","","","","",""
"html-keyboard-response","31","231070","0.0-3.0-6.0-1.0","spark_pilot_norest","8702","4","19","Female","","","","","","","null","<div style=""font-size:60px;"">+</div>","null","fixation","","","","","","","","","","","",""
"revaluation","32","235075","0.0-3.0-6.0-0.1","spark_pilot_norest","8702","4","19","Female","","false","","","","","[1131.5999999046326]","./assets/img/space/animals/cat.jpg","[""ArrowRight""]","second stage practice","space","36","{""ArrowUp,ArrowLeft"":3,""ArrowUp,ArrowRight"":36,""ArrowDown,ArrowLeft"":15,""ArrowDown,ArrowRight"":23}","true","ArrowUp,ArrowRight","","","","","","",""
"html-keyboard-response","33","235576","0.0-3.0-6.0-1.1","spark_pilot_norest","8702","4","19","Female","","","","","","","null","<div style=""font-size:60px;"">+</div>","null","fixation","","","","","","","","","","","",""
"revaluation","34","239579","0.0-3.0-6.0-0.2","spark_pilot_norest","8702","4","19","Female","","false","","","","","[548.8000001907349]","./assets/img/space/animals/rabbit.jpg","[""ArrowLeft""]","second stage practice","space","15","{""ArrowUp,ArrowLeft"":3,""ArrowUp,ArrowRight"":36,""ArrowDown,ArrowLeft"":15,""ArrowDown,ArrowRight"":23}","false","ArrowDown,ArrowLeft","","","","","","",""
"html-keyboard-response","35","240080","0.0-3.0-6.0-1.2","spark_pilot_norest","8702","4","19","Female","","","","","","","null","<div style=""font-size:60px;"">+</div>","null","fixation","","","","","","","","","","","",""
"revaluation","36","244083","0.0-3.0-6.0-0.3","spark_pilot_norest","8702","4","19","Female","","false","","","","","[472.2000002861023]","./assets/img/space/animals/cat.jpg","[""ArrowRight""]","second stage practice","space","36","{""ArrowUp,ArrowLeft"":3,""ArrowUp,ArrowRight"":36,""ArrowDown,ArrowLeft"":15,""ArrowDown,ArrowRight"":23}","true","ArrowUp,ArrowRight","","","","","","",""
"html-keyboard-response","37","244584","0.0-3.0-6.0-1.3","spark_pilot_norest","8702","4","19","Female","","","","","","","null","<div style=""font-size:60px;"">+</div>","null","fixation","","","","","","","","","","","",""
"learning-instructions","38","262833","0.0-3.0-7.0-0.0","spark_pilot_norest","8702","4","19","Female","","","","","","","1444.4000000953674","<p> Great job. Now let’s try putting it together. </p>
            <p> On each turn, you will first see a picture to remind you of the place you are in, and you need to choose whether to go up or down. </p>
            <p> Then you will see an animal and choose which of its chests to search for treasure. </p>","","instructions","","","","","","","","","","","",""
"learning-instructions","39","271849","0.0-3.0-7.0-0.1","spark_pilot_norest","8702","4","19","Female","","","","","","","764.8999996185303","<p> When you choose whether to go up or down, try to go to the animal with the chest with the most treasure. </p>
            <p> Try practicing that now! </p>","","instructions","","","","","","","","","","","",""
"revaluation","40","277854","0.0-3.0-8.0-0.0","spark_pilot_norest","8702","4","19","Female","","false","","","","","[1077.6999998092651,713.3000001907349]","./assets/img/space/6.jpg","[""ArrowUp"",""ArrowRight""]","full practice","space","36","{""ArrowUp,ArrowLeft"":3,""ArrowUp,ArrowRight"":36,""ArrowDown,ArrowLeft"":15,""ArrowDown,ArrowRight"":23}","true","ArrowUp,ArrowRight","false","","","","","",""
"html-keyboard-response","41","278358","0.0-3.0-8.0-1.0","spark_pilot_norest","8702","4","19","Female","","","","","","","null","<div style=""font-size:60px;"">+</div>","null","fixation","","","","","","","","","","","",""
"revaluation","42","284363","0.0-3.0-8.0-0.1","spark_pilot_norest","8702","4","19","Female","","false","","","","","[610.4000000953674,1200.4000000953674]","./assets/img/space/7.jpg","[""ArrowDown"",""ArrowRight""]","full practice","space","23","{""ArrowUp,ArrowLeft"":3,""ArrowUp,ArrowRight"":36,""ArrowDown,ArrowLeft"":15,""ArrowDown,ArrowRight"":23}","false","ArrowDown,ArrowRight","false","","","","","",""
"html-keyboard-response","43","284863","0.0-3.0-8.0-1.1","spark_pilot_norest","8702","4","19","Female","","","","","","","null","<div style=""font-size:60px;"">+</div>","null","fixation","","","","","","","","","","","",""
"revaluation","44","290871","0.0-3.0-8.0-0.2","spark_pilot_norest","8702","4","19","Female","","false","","","","","[875.5999999046326,572.5]","./assets/img/space/8.jpg","[""ArrowUp"",""ArrowRight""]","full practice","space","36","{""ArrowUp,ArrowLeft"":3,""ArrowUp,ArrowRight"":36,""ArrowDown,ArrowLeft"":15,""ArrowDown,ArrowRight"":23}","true","ArrowUp,ArrowRight","false","","","","","",""
"html-keyboard-response","45","291372","0.0-3.0-8.0-1.2","spark_pilot_norest","8702","4","19","Female","","","","","","","null","<div style=""font-size:60px;"">+</div>","null","fixation","","","","","","","","","","","",""
"revaluation","46","297375","0.0-3.0-8.0-0.3","spark_pilot_norest","8702","4","19","Female","","false","","","","","[1077,577.4000000953674]","./assets/img/space/9.jpg","[""ArrowUp"",""ArrowRight""]","full practice","space","36","{""ArrowUp,ArrowLeft"":3,""ArrowUp,ArrowRight"":36,""ArrowDown,ArrowLeft"":15,""ArrowDown,ArrowRight"":23}","true","ArrowUp,ArrowRight","false","","","","","",""
"html-keyboard-response","47","297876","0.0-3.0-8.0-1.3","spark_pilot_norest","8702","4","19","Female","","","","","","","null","<div style=""font-size:60px;"">+</div>","null","fixation","","","","","","","","","","","",""
"revaluation","48","303887","0.0-3.0-8.0-0.4","spark_pilot_norest","8702","4","19","Female","","false","","","","","[1202.0999999046326,614.9000000953674]","./assets/img/space/10.jpg","[""ArrowUp"",""ArrowRight""]","full practice","space","36","{""ArrowUp,ArrowLeft"":3,""ArrowUp,ArrowRight"":36,""ArrowDown,ArrowLeft"":15,""ArrowDown,ArrowRight"":23}","true","ArrowUp,ArrowRight","false","","","","","",""
"html-keyboard-response","49","304393","0.0-3.0-8.0-1.4","spark_pilot_norest","8702","4","19","Female","","","","","","","null","<div style=""font-size:60px;"">+</div>","null","fixation","","","","","","","","","","","",""
"learning-instructions","50","315932","0.0-3.0-9.0-0.0","spark_pilot_norest","8702","4","19","Female","","","","","","","1127.8000001907349","<p> One last thing: sometimes, you will see a robber. The robber can be anywhere in the picture. </p>
            <p> If you do not stop them, you will lose treasure. </p>
            <img src='./assets/img/instructions/robber.jpg' class='instructions-image'>","","instructions","","","","","","","","","","","",""
"learning-instructions","51","323882","0.0-3.0-9.0-0.1","spark_pilot_norest","8702","4","19","Female","","","","","","","795.4000000953674","<p> If you see the robber, you should <b>press the space bar</b> rather than using the arrow keys. </p>
            <p> Try practicing that now! </p>","","instructions","","","","","","","","","","","",""
"revaluation","52","327888","0.0-3.0-10.0-0.0","spark_pilot_norest","8702","4","19","Female","","false","","","","","[865.1999998092651]","./assets/img/space/catch/0.jpg","[""spaceBar""]","catch practice","space","0","{""ArrowUp,ArrowLeft"":3,""ArrowUp,ArrowRight"":36,""ArrowDown,ArrowLeft"":15,""ArrowDown,ArrowRight"":23}","true","spaceBar","true","","","","","",""
"html-keyboard-response","53","328389","0.0-3.0-10.0-1.0","spark_pilot_norest","8702","4","19","Female","","","","","","","null","<div style=""font-size:60px;"">+</div>","null","fixation","","","","","","","","","","","",""
"revaluation","54","332392","0.0-3.0-10.0-0.1","spark_pilot_norest","8702","4","19","Female","","false","","","","","[534.0999999046326]","./assets/img/space/catch/1.jpg","[""spaceBar""]","catch practice","space","0","{""ArrowUp,ArrowLeft"":3,""ArrowUp,ArrowRight"":36,""ArrowDown,ArrowLeft"":15,""ArrowDown,ArrowRight"":23}","true","spaceBar","true","","","","","",""
"html-keyboard-response","55","332893","0.0-3.0-10.0-1.1","spark_pilot_norest","8702","4","19","Female","","","","","","","null","<div style=""font-size:60px;"">+</div>","null","fixation","","","","","","","","","","","",""
"revaluation","56","336896","0.0-3.0-10.0-0.2","spark_pilot_norest","8702","4","19","Female","","false","","","","","[563.5]","./assets/img/space/catch/2.jpg","[""spaceBar""]","catch practice","space","0","{""ArrowUp,ArrowLeft"":3,""ArrowUp,ArrowRight"":36,""ArrowDown,ArrowLeft"":15,""ArrowDown,ArrowRight"":23}","true","spaceBar","true","","","","","",""
"html-keyboard-response","57","337397","0.0-3.0-10.0-1.2","spark_pilot_norest","8702","4","19","Female","","","","","","","null","<div style=""font-size:60px;"">+</div>","null","fixation","","","","","","","","","","","",""
"learning-instructions","58","343565","0.0-3.0-11.0-0.0-0.0","spark_pilot_norest","8702","4","19","Female","","","","","","","916.1000003814697","<p> Now, you will practice a shortened version of the game to get a sense of how it all fits together. </p>","","instructions","","","","","","","","","","","",""
"learning-instructions","59","347819","0.0-3.0-11.0-0.0-0.1","spark_pilot_norest","8702","4","19","Female","","","","","","","1074.1000003814697","<p>This time you are searching for treasure in outer space.</p>","","instructions","","","","","","","","","","","",""
"learning-instructions","60","366302","0.0-3.0-11.0-1.0-0.0","spark_pilot_norest","8702","4","19","Female","","","","","","","3728.4000000953674","<p> Remember, when you see a picture of the place, use the up and down keys to <b>find an animal</b>.</p>
            <p> When you encounter an animal, you should use the left and right keys to <b>select a treasure chest</b>.</p>
            <p> Don't forget to look out for the robber! </p>","","instructions","","","","","","","","","","","",""
"revaluation","61","372307","0.0-3.0-11.0-2.0-0.0","spark_pilot_norest","8702","4","19","Female","","false","","","","","[1279.8000001907349,907.6999998092651]","./assets/img/space/11.jpg","[""ArrowUp"",""ArrowRight""]","practice block","space","36","{""ArrowUp,ArrowLeft"":3,""ArrowUp,ArrowRight"":36,""ArrowDown,ArrowLeft"":15,""ArrowDown,ArrowRight"":23}","true","ArrowUp,ArrowRight","false","","","","","",""
"html-keyboard-response","62","372812","0.0-3.0-11.0-2.0-1.0","spark_pilot_norest","8702","4","19","Female","","","","","","","null","<div style=""font-size:60px;"">+</div>","null","fixation","","","","","","","","","","","",""
"revaluation","63","378821","0.0-3.0-11.0-2.0-0.1","spark_pilot_norest","8702","4","19","Female","","false","","","","","[788.0999999046326,343.19999980926514]","./assets/img/space/12.jpg","[""ArrowUp"",""ArrowRight""]","practice block","space","36","{""ArrowUp,ArrowLeft"":3,""ArrowUp,ArrowRight"":36,""ArrowDown,ArrowLeft"":15,""ArrowDown,ArrowRight"":23}","true","ArrowUp,ArrowRight","false","","","","","",""
"html-keyboard-response","64","379325","0.0-3.0-11.0-2.0-1.1","spark_pilot_norest","8702","4","19","Female","","","","","","","null","<div style=""font-size:60px;"">+</div>","null","fixation","","","","","","","","","","","",""
"revaluation","65","385329","0.0-3.0-11.0-2.0-0.2","spark_pilot_norest","8702","4","19","Female","","false","","","","","[782.5999999046326,467]","./assets/img/space/13.jpg","[""ArrowUp"",""ArrowRight""]","practice block","space","36","{""ArrowUp,ArrowLeft"":3,""ArrowUp,ArrowRight"":36,""ArrowDown,ArrowLeft"":15,""ArrowDown,ArrowRight"":23}","true","ArrowUp,ArrowRight","false","","","","","",""
"html-keyboard-response","66","385829","0.0-3.0-11.0-2.0-1.2","spark_pilot_norest","8702","4","19","Female","","","","","","","null","<div style=""font-size:60px;"">+</div>","null","fixation","","","","","","","","","","","",""
"revaluation","67","391835","0.0-3.0-11.0-2.0-0.3","spark_pilot_norest","8702","4","19","Female","","false","","","","","[857.5999999046326,545.3000001907349]","./assets/img/space/14.jpg","[""ArrowUp"",""ArrowRight""]","practice block","space","36","{""ArrowUp,ArrowLeft"":3,""ArrowUp,ArrowRight"":36,""ArrowDown,ArrowLeft"":15,""ArrowDown,ArrowRight"":23}","true","ArrowUp,ArrowRight","false","","","","","",""
"html-keyboard-response","68","392337","0.0-3.0-11.0-2.0-1.3","spark_pilot_norest","8702","4","19","Female","","","","","","","null","<div style=""font-size:60px;"">+</div>","null","fixation","","","","","","","","","","","",""
"revaluation","69","398349","0.0-3.0-11.0-2.0-0.4","spark_pilot_norest","8702","4","19","Female","","false","","","","","[908.8000001907349,490.69999980926514]","./assets/img/space/11.jpg","[""ArrowUp"",""ArrowRight""]","practice block","space","36","{""ArrowUp,ArrowLeft"":3,""ArrowUp,ArrowRight"":36,""ArrowDown,ArrowLeft"":15,""ArrowDown,ArrowRight"":23}","true","ArrowUp,ArrowRight","false","","","","","",""
"html-keyboard-response","70","398852","0.0-3.0-11.0-2.0-1.4","spark_pilot_norest","8702","4","19","Female","","","","","","","null","<div style=""font-size:60px;"">+</div>","null","fixation","","","","","","","","","","","",""
"revaluation","71","404862","0.0-3.0-11.0-2.0-0.5","spark_pilot_norest","8702","4","19","Female","","false","","","","","[816.0999999046326,446.5]","./assets/img/space/12.jpg","[""ArrowUp"",""ArrowRight""]","practice block","space","36","{""ArrowUp,ArrowLeft"":3,""ArrowUp,ArrowRight"":36,""ArrowDown,ArrowLeft"":15,""ArrowDown,ArrowRight"":23}","true","ArrowUp,ArrowRight","false","","","","","",""
"html-keyboard-response","72","405364","0.0-3.0-11.0-2.0-1.5","spark_pilot_norest","8702","4","19","Female","","","","","","","null","<div style=""font-size:60px;"">+</div>","null","fixation","","","","","","","","","","","",""
"revaluation","73","411374","0.0-3.0-11.0-2.0-0.6","spark_pilot_norest","8702","4","19","Female","","false","","","","","[1005.9000000953674,499.2999997138977]","./assets/img/space/13.jpg","[""ArrowUp"",""ArrowRight""]","practice block","space","36","{""ArrowUp,ArrowLeft"":3,""ArrowUp,ArrowRight"":36,""ArrowDown,ArrowLeft"":15,""ArrowDown,ArrowRight"":23}","true","ArrowUp,ArrowRight","false","","","","","",""
"html-keyboard-response","74","411875","0.0-3.0-11.0-2.0-1.6","spark_pilot_norest","8702","4","19","Female","","","","","","","null","<div style=""font-size:60px;"">+</div>","null","fixation","","","","","","","","","","","",""
"revaluation","75","417886","0.0-3.0-11.0-2.0-0.7","spark_pilot_norest","8702","4","19","Female","","false","","","","","[764.2000002861023,416]","./assets/img/space/14.jpg","[""ArrowUp"",""ArrowRight""]","practice block","space","36","{""ArrowUp,ArrowLeft"":3,""ArrowUp,ArrowRight"":36,""ArrowDown,ArrowLeft"":15,""ArrowDown,ArrowRight"":23}","true","ArrowUp,ArrowRight","false","","","","","",""
"html-keyboard-response","76","418387","0.0-3.0-11.0-2.0-1.7","spark_pilot_norest","8702","4","19","Female","","","","","","","null","<div style=""font-size:60px;"">+</div>","null","fixation","","","","","","","","","","","",""
"revaluation","77","422393","0.0-3.0-11.0-2.0-0.8","spark_pilot_norest","8702","4","19","Female","","false","","","","","[663.5999999046326]","./assets/img/space/catch/3.jpg","[""spaceBar""]","practice block","space","0","{""ArrowUp,ArrowLeft"":3,""ArrowUp,ArrowRight"":36,""ArrowDown,ArrowLeft"":15,""ArrowDown,ArrowRight"":23}","true","spaceBar","true","","","","","",""
"html-keyboard-response","78","422899","0.0-3.0-11.0-2.0-1.8","spark_pilot_norest","8702","4","19","Female","","","","","","","null","<div style=""font-size:60px;"">+</div>","null","fixation","","","","","","","","","","","",""
"learning-instructions","79","437833","0.0-3.0-11.0-3.0-0.0","spark_pilot_norest","8702","4","19","Female","","","","","","","1900.1999998092651","<p> Now, you will travel with a friend who will choose whether you go up or down first. </p>
            <p> On these turns, you will just see the animal that they found. You will still get to choose which chest to search for treasure.</p>","","instructions","","","","","","","","","","","",""
"revaluation","80","441836","0.0-3.0-11.0-4.0-0.0","spark_pilot_norest","8702","4","19","Female","","false","","","","","[1793.6999998092651]","./assets/img/space/animals/rabbit.jpg","[""ArrowLeft""]","practice block","space","15","{""ArrowUp,ArrowLeft"":3,""ArrowUp,ArrowRight"":36,""ArrowDown,ArrowLeft"":15,""ArrowDown,ArrowRight"":23}","false","ArrowDown,ArrowLeft","","","","","","",""
"html-keyboard-response","81","442337","0.0-3.0-11.0-4.0-1.0","spark_pilot_norest","8702","4","19","Female","","","","","","","null","<div style=""font-size:60px;"">+</div>","null","fixation","","","","","","","","","","","",""
"revaluation","82","446340","0.0-3.0-11.0-4.0-0.1","spark_pilot_norest","8702","4","19","Female","","false","","","","","[656.8000001907349]","./assets/img/space/animals/rabbit.jpg","[""ArrowRight""]","practice block","space","23","{""ArrowUp,ArrowLeft"":3,""ArrowUp,ArrowRight"":36,""ArrowDown,ArrowLeft"":15,""ArrowDown,ArrowRight"":23}","true","ArrowDown,ArrowRight","","","","","","",""
"html-keyboard-response","83","446840","0.0-3.0-11.0-4.0-1.1","spark_pilot_norest","8702","4","19","Female","","","","","","","null","<div style=""font-size:60px;"">+</div>","null","fixation","","","","","","","","","","","",""
"revaluation","84","450844","0.0-3.0-11.0-4.0-0.2","spark_pilot_norest","8702","4","19","Female","","false","","","","","[626]","./assets/img/space/animals/cat.jpg","[""ArrowRight""]","practice block","space","36","{""ArrowUp,ArrowLeft"":3,""ArrowUp,ArrowRight"":36,""ArrowDown,ArrowLeft"":15,""ArrowDown,ArrowRight"":23}","true","ArrowUp,ArrowRight","","","","","","",""
"html-keyboard-response","85","451344","0.0-3.0-11.0-4.0-1.2","spark_pilot_norest","8702","4","19","Female","","","","","","","null","<div style=""font-size:60px;"">+</div>","null","fixation","","","","","","","","","","","",""
"revaluation","86","455348","0.0-3.0-11.0-4.0-0.3","spark_pilot_norest","8702","4","19","Female","","false","","","","","[539.5999999046326]","./assets/img/space/animals/cat.jpg","[""ArrowRight""]","practice block","space","36","{""ArrowUp,ArrowLeft"":3,""ArrowUp,ArrowRight"":36,""ArrowDown,ArrowLeft"":15,""ArrowDown,ArrowRight"":23}","true","ArrowUp,ArrowRight","","","","","","",""
"html-keyboard-response","87","455849","0.0-3.0-11.0-4.0-1.3","spark_pilot_norest","8702","4","19","Female","","","","","","","null","<div style=""font-size:60px;"">+</div>","null","fixation","","","","","","","","","","","",""
"learning-instructions","88","463965","0.0-3.0-11.0-5.0-0.0","spark_pilot_norest","8702","4","19","Female","","","","","","","null","<p> You have almost finished this part of the game! </p>
            <p> We are going to ask you to make a few more choices. </p>","","instructions","","","","","","","","","","","",""
"learning-instructions","89","479970","0.0-3.0-11.0-5.0-0.1","spark_pilot_norest","8702","4","19","Female","","","","","","","null","<p> First, you need to decide whether to go up or down. When you see each picture, use the arrow keys to make your choice. </p>
            <p><b>You will not see which animal you found, but try to get to the one that will give you the most treasure.</b></p>","","instructions","","","","","","","","","","","",""
"html-keyboard-response","90","480971","0.0-3.0-11.0-6.0-0.0","spark_pilot_norest","8702","4","19","Female","","","","","","","null","<div style=""font-size:100px;color:red;"">Starting in...</div>","null","","","","","","","","","","","","",""
"html-keyboard-response","91","481972","0.0-3.0-11.0-6.0-1.0","spark_pilot_norest","8702","4","19","Female","","","","","","","null","<div style=""font-size:200px;color:red;"">3</div>","null","","","","","","","","","","","","",""
"html-keyboard-response","92","482973","0.0-3.0-11.0-6.0-2.0","spark_pilot_norest","8702","4","19","Female","","","","","","","null","<div style=""font-size:200px;color:red;"">2</div>","null","","","","","","","","","","","","",""
"html-keyboard-response","93","483974","0.0-3.0-11.0-6.0-3.0","spark_pilot_norest","8702","4","19","Female","","","","","","","null","<div style=""font-size:200px;color:red;"">1</div>","null","","","","","","","","","","","","",""
"revaluation","94","484918","0.0-3.0-11.0-7.0","spark_pilot_norest","8702","4","19","Female","","false","","","","","[941]","./assets/img/space/15.jpg","[""ArrowUp""]","practice block","space","0","{""ArrowUp,ArrowLeft"":3,""ArrowUp,ArrowRight"":36,""ArrowDown,ArrowLeft"":15,""ArrowDown,ArrowRight"":23}","true","ArrowUp","false","","","","","",""
"html-keyboard-response","95","485418","0.0-3.0-11.0-8.0","spark_pilot_norest","8702","4","19","Female","","","","","","","null","<div style=""font-size:60px;"">+</div>","null","fixation","","","","","","","","","","","",""
"learning-instructions","96","498791","0.0-3.0-11.0-9.0-0.0","spark_pilot_norest","8702","4","19","Female","","","","","","","null","<p> Now you will see the animals again and can search their chests for treasure. </p>
            <p> This time, you will not see how much treasure you earned, but you will earn more bonus money for making better choices. </p>","","instructions","","","","","","","","","","","",""
"html-keyboard-response","97","499792","0.0-3.0-11.0-10.0-0.0","spark_pilot_norest","8702","4","19","Female","","","","","","","null","<div style=""font-size:100px;color:red;"">Starting in...</div>","null","","","","","","","","","","","","",""
"html-keyboard-response","98","500793","0.0-3.0-11.0-10.0-1.0","spark_pilot_norest","8702","4","19","Female","","","","","","","null","<div style=""font-size:200px;color:red;"">3</div>","null","","","","","","","","","","","","",""
"html-keyboard-response","99","501794","0.0-3.0-11.0-10.0-2.0","spark_pilot_norest","8702","4","19","Female","","","","","","","null","<div style=""font-size:200px;color:red;"">2</div>","null","","","","","","","","","","","","",""
"html-keyboard-response","100","502796","0.0-3.0-11.0-10.0-3.0","spark_pilot_norest","8702","4","19","Female","","","","","","","null","<div style=""font-size:200px;color:red;"">1</div>","null","","","","","","","","","","","","",""
"revaluation","101","503262","0.0-3.0-11.0-11.0-0.0","spark_pilot_norest","8702","4","19","Female","","false","","","","","[457.2000002861023]","./assets/img/space/animals/cat.jpg","[""ArrowRight""]","practice block","space","0","{""ArrowUp,ArrowLeft"":3,""ArrowUp,ArrowRight"":36,""ArrowDown,ArrowLeft"":15,""ArrowDown,ArrowRight"":23}","true","ArrowUp,ArrowRight","","","","","","",""
"html-keyboard-response","102","503763","0.0-3.0-11.0-11.0-1.0","spark_pilot_norest","8702","4","19","Female","","","","","","","null","<div style=""font-size:60px;"">+</div>","null","fixation","","","","","","","","","","","",""
"revaluation","103","504457","0.0-3.0-11.0-11.0-0.1","spark_pilot_norest","8702","4","19","Female","","false","","","","","[693.3000001907349]","./assets/img/space/animals/rabbit.jpg","[""ArrowRight""]","practice block","space","0","{""ArrowUp,ArrowLeft"":3,""ArrowUp,ArrowRight"":36,""ArrowDown,ArrowLeft"":15,""ArrowDown,ArrowRight"":23}","true","ArrowDown,ArrowRight","","","","","","",""
"html-keyboard-response","104","504958","0.0-3.0-11.0-11.0-1.1","spark_pilot_norest","8702","4","19","Female","","","","","","","null","<div style=""font-size:60px;"">+</div>","null","fixation","","","","","","","","","","","",""
"learning-instructions","105","510699","0.0-3.0-12.0-0.0","spark_pilot_norest","8702","4","19","Female","","","","","","","1161.1999998092651","<p> Before you start, we're going to ask you a few questions about how the game works. </p>","","instructions","","","","","","","","","","","",""
"comp-q","106","517498","0.0-3.0-13.0-0.0-0.0","spark_pilot_norest","8702","4","19","Female","","","","","","","1217","<p> <b> True or False? </b> </p>
            <p> There can be 50 pieces of treasure in a given animal's chest. </p>","1","comp_question","","","","true","","","","","","","",""
"comp-q","107","525987","0.0-3.0-13.0-0.0-1.0","spark_pilot_norest","8702","4","19","Female","","","","","","","1835.7000002861023","<p> <b> That's right! </b> The amount of treasure in each chest can range from 0 to 40 pieces. </p>","0","comp_answer","","","","","","","","","","","",""
"comp-q","108","533931","0.0-3.0-13.0-0.1-0.1","spark_pilot_norest","8702","4","19","Female","","","","","","","793.8000001907349","<p> <b> True or False? </b> </p><p> In this game, all animals have the same amount of treasure in their left and right chests. </p>","1","comp_question","","","","true","","","","","","","",""
"comp-q","109","540865","0.0-3.0-13.0-0.1-1.1","spark_pilot_norest","8702","4","19","Female","","","","","","","1711","<p> <b> That's right! </b> Animals have different amounts of treasure in their treasure chests. </p>","0","comp_answer","","","","","","","","","","","",""
"comp-q","110","547932","0.0-3.0-13.0-0.2-0.2","spark_pilot_norest","8702","4","19","Female","","","","","","","1226.9000000953674","<p> <b> True or False? </b> </p><p> The same animal will always be there if you go up in the same place. </p>","0","comp_question","","","","true","","","","","","","",""
"comp-q","111","556531","0.0-3.0-13.0-0.2-1.2","spark_pilot_norest","8702","4","19","Female","","","","","","","2161.9000000953674","<p> <b> That's right! </b> One animal lives in the upper part and one lives in the lower part of every place. </p>","0","comp_answer","","","","","","","","","","","",""
"comp-q","112","563015","0.0-3.0-13.0-0.3-0.3","spark_pilot_norest","8702","4","19","Female","","","","","","","960.6000003814697","<p> <b> True or False? </b> </p><p> If you see a different picture, it means you are in a new place. </p>","1","comp_question","","","","true","","","","","","","",""
"comp-q","113","577015","0.0-3.0-13.0-0.3-1.3","spark_pilot_norest","8702","4","19","Female","","","","","","","2783.800000190735","<p> <b> That's right! </b> Lots of different images may show the same place. For example,  you may see three different images that all remind you that you are in outer space. </p>","0","comp_answer","","","","","","","","","","","",""
"learning-instructions","114","589147","0.0-3.0-14.0-0.0","spark_pilot_norest","8702","4","19","Female","","","","","","","2291.7999997138977","<p> Good job. Remember to do your best because the amount of treasure you earn will be converted into bonus money. </p>
            <p> It’s time to start the real game! </p>","","instructions","","","","","","","","","","","",""
"learning-instructions","115","592914","0.0-4.0-0.0-0.0","spark_pilot_norest","8702","4","19","Female","","","","","","","1062.6000003814697","<p> This time you are searching for treasure in the <b>ocean</b>.</p>","","instructions","","","","","","","","","","","",""
"learning-instructions","116","611098","0.0-4.0-0.0-0.1","spark_pilot_norest","8702","4","19","Female","","","","","","","899.3000001907349","<p><b>New</b> animals with <b>new</b> treasure chests live here. You need to explore to discover where the animal with the best treasure chest is.</p>
                    <p> Like before, once you figure out which animal has the chest with the most treasure, you should try to get to that animal and select that chest! </p>","","instructions","","","","","","","","","","","",""
"learning-instructions","117","626731","0.0-4.0-1.0-0.0","spark_pilot_norest","8702","4","19","Female","","","","","","","906.0999999046326","<p> Remember, when you see a picture of the place, use the up and down keys to <b>find an animal</b>.</p>
            <p> When you encounter an animal, you should use the left and right keys to <b>select a treasure chest</b>.</p>
            <p> Don't forget to look out for the robber! </p>","","instructions","","","","","","","","","","","",""
"revaluation","118","632735","0.0-4.0-2.0-0.0","spark_pilot_norest","8702","4","19","Female","","false","","","","","[1174.3000001907349,507.40000009536743]","./assets/img/ocean/memory/22.jpg","[""ArrowUp"",""ArrowRight""]","value training","ocean","10","{""ArrowUp,ArrowLeft"":26,""ArrowUp,ArrowRight"":10,""ArrowDown,ArrowLeft"":5,""ArrowDown,ArrowRight"":17}","false","ArrowUp,ArrowRight","false","revaluation","1","0","","",""
"html-keyboard-response","119","633241","0.0-4.0-2.0-1.0","spark_pilot_norest","8702","4","19","Female","","","","","","","null","<div style=""font-size:60px;"">+</div>","null","fixation","","","","","","","","","1","","",""
"revaluation","120","639245","0.0-4.0-2.0-0.1","spark_pilot_norest","8702","4","19","Female","","false","","","","","[920,527.5]","./assets/img/ocean/memory/23.jpg","[""ArrowDown"",""ArrowLeft""]","value training","ocean","5","{""ArrowUp,ArrowLeft"":26,""ArrowUp,ArrowRight"":10,""ArrowDown,ArrowLeft"":5,""ArrowDown,ArrowRight"":17}","false","ArrowDown,ArrowLeft","false","revaluation","1","2","","",""
"html-keyboard-response","121","639746","0.0-4.0-2.0-1.1","spark_pilot_norest","8702","4","19","Female","","","","","","","null","<div style=""font-size:60px;"">+</div>","null","fixation","","","","","","","","","3","","",""
"revaluation","122","643749","0.0-4.0-2.0-0.2","spark_pilot_norest","8702","4","19","Female","","false","","","","","[1178.8000001907349]","./assets/img/ocean/catch/7.jpg","[""spaceBar""]","value training","ocean","0","{""ArrowUp,ArrowLeft"":26,""ArrowUp,ArrowRight"":10,""ArrowDown,ArrowLeft"":5,""ArrowDown,ArrowRight"":17}","true","spaceBar","true","revaluation","1","4","","",""
"html-keyboard-response","123","644249","0.0-4.0-2.0-1.2","spark_pilot_norest","8702","4","19","Female","","","","","","","null","<div style=""font-size:60px;"">+</div>","null","fixation","","","","","","","","","5","","",""
"revaluation","124","650258","0.0-4.0-2.0-0.3","spark_pilot_norest","8702","4","19","Female","","false","","","","","[444.1000003814697,383.80000019073486]","./assets/img/ocean/memory/6.jpg","[""ArrowUp"",""ArrowLeft""]","value training","ocean","26","{""ArrowUp,ArrowLeft"":26,""ArrowUp,ArrowRight"":10,""ArrowDown,ArrowLeft"":5,""ArrowDown,ArrowRight"":17}","true","ArrowUp,ArrowLeft","false","revaluation","1","6","","",""
"html-keyboard-response","125","650761","0.0-4.0-2.0-1.3","spark_pilot_norest","8702","4","19","Female","","","","","","","null","<div style=""font-size:60px;"">+</div>","null","fixation","","","","","","","","","7","","",""
"revaluation","126","656771","0.0-4.0-2.0-0.4","spark_pilot_norest","8702","4","19","Female","","false","","","","","[1063.4000000953674,1290]","./assets/img/ocean/memory/34.jpg","[""ArrowDown"",""ArrowRight""]","value training","ocean","17","{""ArrowUp,ArrowLeft"":26,""ArrowUp,ArrowRight"":10,""ArrowDown,ArrowLeft"":5,""ArrowDown,ArrowRight"":17}","false","ArrowDown,ArrowRight","false","revaluation","1","8","","",""
"html-keyboard-response","127","657276","0.0-4.0-2.0-1.4","spark_pilot_norest","8702","4","19","Female","","","","","","","null","<div style=""font-size:60px;"">+</div>","null","fixation","","","","","","","","","9","","",""
"revaluation","128","663286","0.0-4.0-2.0-0.5","spark_pilot_norest","8702","4","19","Female","","false","","","","","[1428,855.7999997138977]","./assets/img/ocean/memory/17.jpg","[""ArrowUp"",""ArrowLeft""]","value training","ocean","26","{""ArrowUp,ArrowLeft"":26,""ArrowUp,ArrowRight"":10,""ArrowDown,ArrowLeft"":5,""ArrowDown,ArrowRight"":17}","true","ArrowUp,ArrowLeft","false","revaluation","1","10","","",""
"html-keyboard-response","129","663788","0.0-4.0-2.0-1.5","spark_pilot_norest","8702","4","19","Female","","","","","","","null","<div style=""font-size:60px;"">+</div>","null","fixation","","","","","","","","","11","","",""
"revaluation","130","669801","0.0-4.0-2.0-0.6","spark_pilot_norest","8702","4","19","Female","","false","","","","","[1142.7000002861023,423.09999990463257]","./assets/img/ocean/memory/24.jpg","[""ArrowDown"",""ArrowLeft""]","value training","ocean","5","{""ArrowUp,ArrowLeft"":26,""ArrowUp,ArrowRight"":10,""ArrowDown,ArrowLeft"":5,""ArrowDown,ArrowRight"":17}","false","ArrowDown,ArrowLeft","false","revaluation","1","12","","",""
"html-keyboard-response","131","670306","0.0-4.0-2.0-1.6","spark_pilot_norest","8702","4","19","Female","","","","","","","null","<div style=""font-size:60px;"">+</div>","null","fixation","","","","","","","","","13","","",""
"revaluation","132","676321","0.0-4.0-2.0-0.7","spark_pilot_norest","8702","4","19","Female","","false","","","","","[1374.8000001907349,1016.5999999046326]","./assets/img/ocean/memory/0.jpg","[""ArrowUp"",""ArrowLeft""]","value training","ocean","26","{""ArrowUp,ArrowLeft"":26,""ArrowUp,ArrowRight"":10,""ArrowDown,ArrowLeft"":5,""ArrowDown,ArrowRight"":17}","true","ArrowUp,ArrowLeft","false","revaluation","1","14","","",""
"html-keyboard-response","133","676822","0.0-4.0-2.0-1.7","spark_pilot_norest","8702","4","19","Female","","","","","","","null","<div style=""font-size:60px;"">+</div>","null","fixation","","","","","","","","","15","","",""
"revaluation","134","682833","0.0-4.0-2.0-0.8","spark_pilot_norest","8702","4","19","Female","","false","","","","","[826.2000002861023,431.5]","./assets/img/ocean/memory/27.jpg","[""ArrowUp"",""ArrowLeft""]","value training","ocean","26","{""ArrowUp,ArrowLeft"":26,""ArrowUp,ArrowRight"":10,""ArrowDown,ArrowLeft"":5,""ArrowDown,ArrowRight"":17}","true","ArrowUp,ArrowLeft","false","revaluation","1","16","","",""
"html-keyboard-response","135","683339","0.0-4.0-2.0-1.8","spark_pilot_norest","8702","4","19","Female","","","","","","","null","<div style=""font-size:60px;"">+</div>","null","fixation","","","","","","","","","17","","",""
"revaluation","136","689356","0.0-4.0-2.0-0.9","spark_pilot_norest","8702","4","19","Female","","false","","","","","[989.8999996185303,397.7999997138977]","./assets/img/ocean/memory/13.jpg","[""ArrowUp"",""ArrowLeft""]","value training","ocean","26","{""ArrowUp,ArrowLeft"":26,""ArrowUp,ArrowRight"":10,""ArrowDown,ArrowLeft"":5,""ArrowDown,ArrowRight"":17}","true","ArrowUp,ArrowLeft","false","revaluation","1","18","","",""
"html-keyboard-response","137","689861","0.0-4.0-2.0-1.9","spark_pilot_norest","8702","4","19","Female","","","","","","","null","<div style=""font-size:60px;"">+</div>","null","fixation","","","","","","","","","19","","",""
"revaluation","138","695872","0.0-4.0-2.0-0.10","spark_pilot_norest","8702","4","19","Female","","false","","","","","[1452.9000000953674,392.59999990463257]","./assets/img/ocean/memory/7.jpg","[""ArrowUp"",""ArrowRight""]","value training","ocean","10","{""ArrowUp,ArrowLeft"":26,""ArrowUp,ArrowRight"":10,""ArrowDown,ArrowLeft"":5,""ArrowDown,ArrowRight"":17}","false","ArrowUp,ArrowRight","false","revaluation","1","20","","",""
"html-keyboard-response","139","696374","0.0-4.0-2.0-1.10","spark_pilot_norest","8702","4","19","Female","","","","","","","null","<div style=""font-size:60px;"">+</div>","null","fixation","","","","","","","","","21","","",""
"revaluation","140","700384","0.0-4.0-2.0-0.11","spark_pilot_norest","8702","4","19","Female","","false","","","","","[711.9000000953674]","./assets/img/ocean/catch/2.jpg","[""spaceBar""]","value training","ocean","0","{""ArrowUp,ArrowLeft"":26,""ArrowUp,ArrowRight"":10,""ArrowDown,ArrowLeft"":5,""ArrowDown,ArrowRight"":17}","true","spaceBar","true","revaluation","1","22","","",""
"html-keyboard-response","141","700887","0.0-4.0-2.0-1.11","spark_pilot_norest","8702","4","19","Female","","","","","","","null","<div style=""font-size:60px;"">+</div>","null","fixation","","","","","","","","","23","","",""
"revaluation","142","706897","0.0-4.0-2.0-0.12","spark_pilot_norest","8702","4","19","Female","","false","","","","","[731.8000001907349,533.1999998092651]","./assets/img/ocean/memory/5.jpg","[""ArrowUp"",""ArrowLeft""]","value training","ocean","26","{""ArrowUp,ArrowLeft"":26,""ArrowUp,ArrowRight"":10,""ArrowDown,ArrowLeft"":5,""ArrowDown,ArrowRight"":17}","true","ArrowUp,ArrowLeft","false","revaluation","1","24","","",""
"html-keyboard-response","143","707397","0.0-4.0-2.0-1.12","spark_pilot_norest","8702","4","19","Female","","","","","","","null","<div style=""font-size:60px;"">+</div>","null","fixation","","","","","","","","","25","","",""
"revaluation","144","713408","0.0-4.0-2.0-0.13","spark_pilot_norest","8702","4","19","Female","","false","","","","","[1266.5999999046326,449.7999997138977]","./assets/img/ocean/memory/21.jpg","[""ArrowUp"",""ArrowLeft""]","value training","ocean","26","{""ArrowUp,ArrowLeft"":26,""ArrowUp,ArrowRight"":10,""ArrowDown,ArrowLeft"":5,""ArrowDown,ArrowRight"":17}","true","ArrowUp,ArrowLeft","false","revaluation","1","26","","",""
"html-keyboard-response","145","713909","0.0-4.0-2.0-1.13","spark_pilot_norest","8702","4","19","Female","","","","","","","null","<div style=""font-size:60px;"">+</div>","null","fixation","","","","","","","","","27","","",""
"revaluation","146","719924","0.0-4.0-2.0-0.14","spark_pilot_norest","8702","4","19","Female","","false","","","","","[1001,297.30000019073486]","./assets/img/ocean/memory/4.jpg","[""ArrowDown"",""ArrowLeft""]","value training","ocean","5","{""ArrowUp,ArrowLeft"":26,""ArrowUp,ArrowRight"":10,""ArrowDown,ArrowLeft"":5,""ArrowDown,ArrowRight"":17}","false","ArrowDown,ArrowLeft","false","revaluation","1","28","","",""
"html-keyboard-response","147","720426","0.0-4.0-2.0-1.14","spark_pilot_norest","8702","4","19","Female","","","","","","","null","<div style=""font-size:60px;"">+</div>","null","fixation","","","","","","","","","29","","",""
"revaluation","148","726436","0.0-4.0-2.0-0.15","spark_pilot_norest","8702","4","19","Female","","false","","","","","[691.5999999046326,378.5]","./assets/img/ocean/memory/23.jpg","[""ArrowUp"",""ArrowLeft""]","value training","ocean","26","{""ArrowUp,ArrowLeft"":26,""ArrowUp,ArrowRight"":10,""ArrowDown,ArrowLeft"":5,""ArrowDown,ArrowRight"":17}","true","ArrowUp,ArrowLeft","false","revaluation","1","30","","",""
"html-keyboard-response","149","726938","0.0-4.0-2.0-1.15","spark_pilot_norest","8702","4","19","Female","","","","","","","null","<div style=""font-size:60px;"">+</div>","null","fixation","","","","","","","","","31","","",""
"revaluation","150","730944","0.0-4.0-2.0-0.16","spark_pilot_norest","8702","4","19","Female","","false","","","","","[797]","./assets/img/ocean/catch/5.jpg","[""spaceBar""]","value training","ocean","0","{""ArrowUp,ArrowLeft"":26,""ArrowUp,ArrowRight"":10,""ArrowDown,ArrowLeft"":5,""ArrowDown,ArrowRight"":17}","true","spaceBar","true","revaluation","1","32","","",""
"html-keyboard-response","151","731450","0.0-4.0-2.0-1.16","spark_pilot_norest","8702","4","19","Female","","","","","","","null","<div style=""font-size:60px;"">+</div>","null","fixation","","","","","","","","","33","","",""
"revaluation","152","737460","0.0-4.0-2.0-0.17","spark_pilot_norest","8702","4","19","Female","","false","","","","","[499.7999997138977,402.30000019073486]","./assets/img/ocean/memory/7.jpg","[""ArrowUp"",""ArrowLeft""]","value training","ocean","26","{""ArrowUp,ArrowLeft"":26,""ArrowUp,ArrowRight"":10,""ArrowDown,ArrowLeft"":5,""ArrowDown,ArrowRight"":17}","true","ArrowUp,ArrowLeft","false","revaluation","1","34","","",""
"html-keyboard-response","153","737961","0.0-4.0-2.0-1.17","spark_pilot_norest","8702","4","19","Female","","","","","","","null","<div style=""font-size:60px;"">+</div>","null","fixation","","","","","","","","","35","","",""
"revaluation","154","743973","0.0-4.0-2.0-0.18","spark_pilot_norest","8702","4","19","Female","","false","","","","","[775.9000000953674,691.2999997138977]","./assets/img/ocean/memory/5.jpg","[""ArrowUp"",""ArrowLeft""]","value training","ocean","26","{""ArrowUp,ArrowLeft"":26,""ArrowUp,ArrowRight"":10,""ArrowDown,ArrowLeft"":5,""ArrowDown,ArrowRight"":17}","true","ArrowUp,ArrowLeft","false","revaluation","1","36","","",""
"html-keyboard-response","155","744474","0.0-4.0-2.0-1.18","spark_pilot_norest","8702","4","19","Female","","","","","","","null","<div style=""font-size:60px;"">+</div>","null","fixation","","","","","","","","","37","","",""
"revaluation","156","748479","0.0-4.0-2.0-0.19","spark_pilot_norest","8702","4","19","Female","","false","","","","","[595.9000000953674]","./assets/img/ocean/catch/0.jpg","[""spaceBar""]","value training","ocean","0","{""ArrowUp,ArrowLeft"":26,""ArrowUp,ArrowRight"":10,""ArrowDown,ArrowLeft"":5,""ArrowDown,ArrowRight"":17}","true","spaceBar","true","revaluation","1","38","","",""
"html-keyboard-response","157","748980","0.0-4.0-2.0-1.19","spark_pilot_norest","8702","4","19","Female","","","","","","","null","<div style=""font-size:60px;"">+</div>","null","fixation","","","","","","","","","39","","",""
"revaluation","158","754991","0.0-4.0-2.0-0.20","spark_pilot_norest","8702","4","19","Female","","false","","","","","[1052.4000000953674,418.7999997138977]","./assets/img/ocean/memory/13.jpg","[""ArrowUp"",""ArrowLeft""]","value training","ocean","26","{""ArrowUp,ArrowLeft"":26,""ArrowUp,ArrowRight"":10,""ArrowDown,ArrowLeft"":5,""ArrowDown,ArrowRight"":17}","true","ArrowUp,ArrowLeft","false","revaluation","1","40","","",""
"html-keyboard-response","159","755492","0.0-4.0-2.0-1.20","spark_pilot_norest","8702","4","19","Female","","","","","","","null","<div style=""font-size:60px;"">+</div>","null","fixation","","","","","","","","","41","","",""
"revaluation","160","761502","0.0-4.0-2.0-0.21","spark_pilot_norest","8702","4","19","Female","","false","","","","","[1002.7000002861023,564.7999997138977]","./assets/img/ocean/memory/2.jpg","[""ArrowUp"",""ArrowLeft""]","value training","ocean","26","{""ArrowUp,ArrowLeft"":26,""ArrowUp,ArrowRight"":10,""ArrowDown,ArrowLeft"":5,""ArrowDown,ArrowRight"":17}","true","ArrowUp,ArrowLeft","false","revaluation","1","42","","",""
"html-keyboard-response","161","762003","0.0-4.0-2.0-1.21","spark_pilot_norest","8702","4","19","Female","","","","","","","null","<div style=""font-size:60px;"">+</div>","null","fixation","","","","","","","","","43","","",""
"revaluation","162","766014","0.0-4.0-2.0-0.22","spark_pilot_norest","8702","4","19","Female","","false","","","","","[646.4000000953674]","./assets/img/ocean/catch/1.jpg","[""spaceBar""]","value training","ocean","0","{""ArrowUp,ArrowLeft"":26,""ArrowUp,ArrowRight"":10,""ArrowDown,ArrowLeft"":5,""ArrowDown,ArrowRight"":17}","true","spaceBar","true","revaluation","1","44","","",""
"html-keyboard-response","163","766515","0.0-4.0-2.0-1.22","spark_pilot_norest","8702","4","19","Female","","","","","","","null","<div style=""font-size:60px;"">+</div>","null","fixation","","","","","","","","","45","","",""
"revaluation","164","772526","0.0-4.0-2.0-0.23","spark_pilot_norest","8702","4","19","Female","","false","","","","","[519.5,501.6000003814697]","./assets/img/ocean/memory/8.jpg","[""ArrowUp"",""ArrowLeft""]","value training","ocean","26","{""ArrowUp,ArrowLeft"":26,""ArrowUp,ArrowRight"":10,""ArrowDown,ArrowLeft"":5,""ArrowDown,ArrowRight"":17}","true","ArrowUp,ArrowLeft","false","revaluation","1","46","","",""
"html-keyboard-response","165","773026","0.0-4.0-2.0-1.23","spark_pilot_norest","8702","4","19","Female","","","","","","","null","<div style=""font-size:60px;"">+</div>","null","fixation","","","","","","","","","47","","",""
"revaluation","166","779038","0.0-4.0-2.0-0.24","spark_pilot_norest","8702","4","19","Female","","false","","","","","[1162.5999999046326,391.7999997138977]","./assets/img/ocean/memory/26.jpg","[""ArrowUp"",""ArrowLeft""]","value training","ocean","26","{""ArrowUp,ArrowLeft"":26,""ArrowUp,ArrowRight"":10,""ArrowDown,ArrowLeft"":5,""ArrowDown,ArrowRight"":17}","true","ArrowUp,ArrowLeft","false","revaluation","1","48","","",""
"html-keyboard-response","167","779538","0.0-4.0-2.0-1.24","spark_pilot_norest","8702","4","19","Female","","","","","","","null","<div style=""font-size:60px;"">+</div>","null","fixation","","","","","","","","","49","","",""
"revaluation","168","785550","0.0-4.0-2.0-0.25","spark_pilot_norest","8702","4","19","Female","","false","","","","","[722.5,385.69999980926514]","./assets/img/ocean/memory/35.jpg","[""ArrowUp"",""ArrowLeft""]","value training","ocean","26","{""ArrowUp,ArrowLeft"":26,""ArrowUp,ArrowRight"":10,""ArrowDown,ArrowLeft"":5,""ArrowDown,ArrowRight"":17}","true","ArrowUp,ArrowLeft","false","revaluation","1","50","","",""
"html-keyboard-response","169","786056","0.0-4.0-2.0-1.25","spark_pilot_norest","8702","4","19","Female","","","","","","","null","<div style=""font-size:60px;"">+</div>","null","fixation","","","","","","","","","51","","",""
"revaluation","170","792066","0.0-4.0-2.0-0.26","spark_pilot_norest","8702","4","19","Female","","false","","","","","[951.2000002861023,426.40000009536743]","./assets/img/ocean/memory/3.jpg","[""ArrowUp"",""ArrowLeft""]","value training","ocean","26","{""ArrowUp,ArrowLeft"":26,""ArrowUp,ArrowRight"":10,""ArrowDown,ArrowLeft"":5,""ArrowDown,ArrowRight"":17}","true","ArrowUp,ArrowLeft","false","revaluation","1","52","","",""
"html-keyboard-response","171","792568","0.0-4.0-2.0-1.26","spark_pilot_norest","8702","4","19","Female","","","","","","","null","<div style=""font-size:60px;"">+</div>","null","fixation","","","","","","","","","53","","",""
"revaluation","172","798578","0.0-4.0-2.0-0.27","spark_pilot_norest","8702","4","19","Female","","false","","","","","[677.5,469]","./assets/img/ocean/memory/27.jpg","[""ArrowUp"",""ArrowLeft""]","value training","ocean","26","{""ArrowUp,ArrowLeft"":26,""ArrowUp,ArrowRight"":10,""ArrowDown,ArrowLeft"":5,""ArrowDown,ArrowRight"":17}","true","ArrowUp,ArrowLeft","false","revaluation","1","54","","",""
"html-keyboard-response","173","799080","0.0-4.0-2.0-1.27","spark_pilot_norest","8702","4","19","Female","","","","","","","null","<div style=""font-size:60px;"">+</div>","null","fixation","","","","","","","","","55","","",""
"revaluation","174","805091","0.0-4.0-2.0-0.28","spark_pilot_norest","8702","4","19","Female","","false","","","","","[1215.2000002861023,371.7999997138977]","./assets/img/ocean/memory/22.jpg","[""ArrowUp"",""ArrowLeft""]","value training","ocean","26","{""ArrowUp,ArrowLeft"":26,""ArrowUp,ArrowRight"":10,""ArrowDown,ArrowLeft"":5,""ArrowDown,ArrowRight"":17}","true","ArrowUp,ArrowLeft","false","revaluation","1","56","","",""
"html-keyboard-response","175","805596","0.0-4.0-2.0-1.28","spark_pilot_norest","8702","4","19","Female","","","","","","","null","<div style=""font-size:60px;"">+</div>","null","fixation","","","","","","","","","57","","",""
"revaluation","176","811607","0.0-4.0-2.0-0.29","spark_pilot_norest","8702","4","19","Female","","false","","","","","[725.4000000953674,299]","./assets/img/ocean/memory/11.jpg","[""ArrowUp"",""ArrowLeft""]","value training","ocean","26","{""ArrowUp,ArrowLeft"":26,""ArrowUp,ArrowRight"":10,""ArrowDown,ArrowLeft"":5,""ArrowDown,ArrowRight"":17}","true","ArrowUp,ArrowLeft","false","revaluation","1","58","","",""
"html-keyboard-response","177","812108","0.0-4.0-2.0-1.29","spark_pilot_norest","8702","4","19","Female","","","","","","","null","<div style=""font-size:60px;"">+</div>","null","fixation","","","","","","","","","59","","",""
"revaluation","178","818119","0.0-4.0-2.0-0.30","spark_pilot_norest","8702","4","19","Female","","false","","","","","[948.9000000953674,378.40000009536743]","./assets/img/ocean/memory/41.jpg","[""ArrowUp"",""ArrowLeft""]","value training","ocean","26","{""ArrowUp,ArrowLeft"":26,""ArrowUp,ArrowRight"":10,""ArrowDown,ArrowLeft"":5,""ArrowDown,ArrowRight"":17}","true","ArrowUp,ArrowLeft","false","revaluation","1","60","","",""
"html-keyboard-response","179","818620","0.0-4.0-2.0-1.30","spark_pilot_norest","8702","4","19","Female","","","","","","","null","<div style=""font-size:60px;"">+</div>","null","fixation","","","","","","","","","61","","",""
"revaluation","180","824631","0.0-4.0-2.0-0.31","spark_pilot_norest","8702","4","19","Female","","false","","","","","[785.6000003814697,596.4000000953674]","./assets/img/ocean/memory/17.jpg","[""ArrowUp"",""ArrowLeft""]","value training","ocean","26","{""ArrowUp,ArrowLeft"":26,""ArrowUp,ArrowRight"":10,""ArrowDown,ArrowLeft"":5,""ArrowDown,ArrowRight"":17}","true","ArrowUp,ArrowLeft","false","revaluation","1","62","","",""
"html-keyboard-response","181","825132","0.0-4.0-2.0-1.31","spark_pilot_norest","8702","4","19","Female","","","","","","","null","<div style=""font-size:60px;"">+</div>","null","fixation","","","","","","","","","63","","",""
"revaluation","182","831143","0.0-4.0-2.0-0.32","spark_pilot_norest","8702","4","19","Female","","false","","","","","[758.5999999046326,385.09999990463257]","./assets/img/ocean/memory/11.jpg","[""ArrowUp"",""ArrowLeft""]","value training","ocean","26","{""ArrowUp,ArrowLeft"":26,""ArrowUp,ArrowRight"":10,""ArrowDown,ArrowLeft"":5,""ArrowDown,ArrowRight"":17}","true","ArrowUp,ArrowLeft","false","revaluation","1","64","","",""
"html-keyboard-response","183","831644","0.0-4.0-2.0-1.32","spark_pilot_norest","8702","4","19","Female","","","","","","","null","<div style=""font-size:60px;"">+</div>","null","fixation","","","","","","","","","65","","",""
"revaluation","184","837656","0.0-4.0-2.0-0.33","spark_pilot_norest","8702","4","19","Female","","false","","","","","[567.5999999046326,327.90000009536743]","./assets/img/ocean/memory/6.jpg","[""ArrowUp"",""ArrowLeft""]","value training","ocean","26","{""ArrowUp,ArrowLeft"":26,""ArrowUp,ArrowRight"":10,""ArrowDown,ArrowLeft"":5,""ArrowDown,ArrowRight"":17}","true","ArrowUp,ArrowLeft","false","revaluation","1","66","","",""
"html-keyboard-response","185","838160","0.0-4.0-2.0-1.33","spark_pilot_norest","8702","4","19","Female","","","","","","","null","<div style=""font-size:60px;"">+</div>","null","fixation","","","","","","","","","67","","",""
"revaluation","186","844172","0.0-4.0-2.0-0.34","spark_pilot_norest","8702","4","19","Female","","false","","","","","[723.5999999046326,526.5]","./assets/img/ocean/memory/36.jpg","[""ArrowUp"",""ArrowLeft""]","value training","ocean","26","{""ArrowUp,ArrowLeft"":26,""ArrowUp,ArrowRight"":10,""ArrowDown,ArrowLeft"":5,""ArrowDown,ArrowRight"":17}","true","ArrowUp,ArrowLeft","false","revaluation","1","68","","",""
"html-keyboard-response","187","844673","0.0-4.0-2.0-1.34","spark_pilot_norest","8702","4","19","Female","","","","","","","null","<div style=""font-size:60px;"">+</div>","null","fixation","","","","","","","","","69","","",""
"revaluation","188","850684","0.0-4.0-2.0-0.35","spark_pilot_norest","8702","4","19","Female","","false","","","","","[501.09999990463257,403.09999990463257]","./assets/img/ocean/memory/4.jpg","[""ArrowUp"",""ArrowLeft""]","value training","ocean","26","{""ArrowUp,ArrowLeft"":26,""ArrowUp,ArrowRight"":10,""ArrowDown,ArrowLeft"":5,""ArrowDown,ArrowRight"":17}","true","ArrowUp,ArrowLeft","false","revaluation","1","70","","",""
"html-keyboard-response","189","851185","0.0-4.0-2.0-1.35","spark_pilot_norest","8702","4","19","Female","","","","","","","null","<div style=""font-size:60px;"">+</div>","null","fixation","","","","","","","","","71","","",""
"revaluation","190","857195","0.0-4.0-2.0-0.36","spark_pilot_norest","8702","4","19","Female","","false","","","","","[675.4000000953674,653.1999998092651]","./assets/img/ocean/memory/26.jpg","[""ArrowUp"",""ArrowLeft""]","value training","ocean","26","{""ArrowUp,ArrowLeft"":26,""ArrowUp,ArrowRight"":10,""ArrowDown,ArrowLeft"":5,""ArrowDown,ArrowRight"":17}","true","ArrowUp,ArrowLeft","false","revaluation","1","72","","",""
"html-keyboard-response","191","857696","0.0-4.0-2.0-1.36","spark_pilot_norest","8702","4","19","Female","","","","","","","null","<div style=""font-size:60px;"">+</div>","null","fixation","","","","","","","","","73","","",""
"revaluation","192","863707","0.0-4.0-2.0-0.37","spark_pilot_norest","8702","4","19","Female","","false","","","","","[895.9000000953674,438]","./assets/img/ocean/memory/21.jpg","[""ArrowUp"",""ArrowLeft""]","value training","ocean","26","{""ArrowUp,ArrowLeft"":26,""ArrowUp,ArrowRight"":10,""ArrowDown,ArrowLeft"":5,""ArrowDown,ArrowRight"":17}","true","ArrowUp,ArrowLeft","false","revaluation","1","74","","",""
"html-keyboard-response","193","864209","0.0-4.0-2.0-1.37","spark_pilot_norest","8702","4","19","Female","","","","","","","null","<div style=""font-size:60px;"">+</div>","null","fixation","","","","","","","","","75","","",""
"revaluation","194","868219","0.0-4.0-2.0-0.38","spark_pilot_norest","8702","4","19","Female","","false","","","","","[725.4000000953674]","./assets/img/ocean/catch/4.jpg","[""spaceBar""]","value training","ocean","0","{""ArrowUp,ArrowLeft"":26,""ArrowUp,ArrowRight"":10,""ArrowDown,ArrowLeft"":5,""ArrowDown,ArrowRight"":17}","true","spaceBar","true","revaluation","1","76","","",""
"html-keyboard-response","195","868719","0.0-4.0-2.0-1.38","spark_pilot_norest","8702","4","19","Female","","","","","","","null","<div style=""font-size:60px;"">+</div>","null","fixation","","","","","","","","","77","","",""
"revaluation","196","874731","0.0-4.0-2.0-0.39","spark_pilot_norest","8702","4","19","Female","","false","","","","","[733.4000000953674,316.2999997138977]","./assets/img/ocean/memory/8.jpg","[""ArrowDown"",""ArrowRight""]","value training","ocean","17","{""ArrowUp,ArrowLeft"":26,""ArrowUp,ArrowRight"":10,""ArrowDown,ArrowLeft"":5,""ArrowDown,ArrowRight"":17}","false","ArrowDown,ArrowRight","false","revaluation","1","78","","",""
"html-keyboard-response","197","875231","0.0-4.0-2.0-1.39","spark_pilot_norest","8702","4","19","Female","","","","","","","null","<div style=""font-size:60px;"">+</div>","null","fixation","","","","","","","","","79","","",""
"revaluation","198","881242","0.0-4.0-2.0-0.40","spark_pilot_norest","8702","4","19","Female","","false","","","","","[452.40000009536743,385.69999980926514]","./assets/img/ocean/memory/2.jpg","[""ArrowUp"",""ArrowLeft""]","value training","ocean","26","{""ArrowUp,ArrowLeft"":26,""ArrowUp,ArrowRight"":10,""ArrowDown,ArrowLeft"":5,""ArrowDown,ArrowRight"":17}","true","ArrowUp,ArrowLeft","false","revaluation","1","80","","",""
"html-keyboard-response","199","881744","0.0-4.0-2.0-1.40","spark_pilot_norest","8702","4","19","Female","","","","","","","null","<div style=""font-size:60px;"">+</div>","null","fixation","","","","","","","","","81","","",""
"revaluation","200","887755","0.0-4.0-2.0-0.41","spark_pilot_norest","8702","4","19","Female","","false","","","","","[654.3000001907349,300.5]","./assets/img/ocean/memory/35.jpg","[""ArrowUp"",""ArrowLeft""]","value training","ocean","26","{""ArrowUp,ArrowLeft"":26,""ArrowUp,ArrowRight"":10,""ArrowDown,ArrowLeft"":5,""ArrowDown,ArrowRight"":17}","true","ArrowUp,ArrowLeft","false","revaluation","1","82","","",""
"html-keyboard-response","201","888256","0.0-4.0-2.0-1.41","spark_pilot_norest","8702","4","19","Female","","","","","","","null","<div style=""font-size:60px;"">+</div>","null","fixation","","","","","","","","","83","","",""
"revaluation","202","892262","0.0-4.0-2.0-0.42","spark_pilot_norest","8702","4","19","Female","","false","","","","","[643.4000000953674]","./assets/img/ocean/catch/6.jpg","[""spaceBar""]","value training","ocean","0","{""ArrowUp,ArrowLeft"":26,""ArrowUp,ArrowRight"":10,""ArrowDown,ArrowLeft"":5,""ArrowDown,ArrowRight"":17}","true","spaceBar","true","revaluation","1","84","","",""
"html-keyboard-response","203","892768","0.0-4.0-2.0-1.42","spark_pilot_norest","8702","4","19","Female","","","","","","","null","<div style=""font-size:60px;"">+</div>","null","fixation","","","","","","","","","85","","",""
"revaluation","204","898778","0.0-4.0-2.0-0.43","spark_pilot_norest","8702","4","19","Female","","false","","","","","[530.9000000953674,403]","./assets/img/ocean/memory/36.jpg","[""ArrowUp"",""ArrowLeft""]","value training","ocean","26","{""ArrowUp,ArrowLeft"":26,""ArrowUp,ArrowRight"":10,""ArrowDown,ArrowLeft"":5,""ArrowDown,ArrowRight"":17}","true","ArrowUp,ArrowLeft","false","revaluation","1","86","","",""
"html-keyboard-response","205","899279","0.0-4.0-2.0-1.43","spark_pilot_norest","8702","4","19","Female","","","","","","","null","<div style=""font-size:60px;"">+</div>","null","fixation","","","","","","","","","87","","",""
"revaluation","206","905290","0.0-4.0-2.0-0.44","spark_pilot_norest","8702","4","19","Female","","false","","","","","[907.5,1018.7999997138977]","./assets/img/ocean/memory/24.jpg","[""ArrowUp"",""ArrowLeft""]","value training","ocean","26","{""ArrowUp,ArrowLeft"":26,""ArrowUp,ArrowRight"":10,""ArrowDown,ArrowLeft"":5,""ArrowDown,ArrowRight"":17}","true","ArrowUp,ArrowLeft","false","revaluation","1","88","","",""
"html-keyboard-response","207","905790","0.0-4.0-2.0-1.44","spark_pilot_norest","8702","4","19","Female","","","","","","","null","<div style=""font-size:60px;"">+</div>","null","fixation","","","","","","","","","89","","",""
"revaluation","208","911806","0.0-4.0-2.0-0.45","spark_pilot_norest","8702","4","19","Female","","false","","","","","[825.2000002861023,468.19999980926514]","./assets/img/ocean/memory/0.jpg","[""ArrowUp"",""ArrowLeft""]","value training","ocean","26","{""ArrowUp,ArrowLeft"":26,""ArrowUp,ArrowRight"":10,""ArrowDown,ArrowLeft"":5,""ArrowDown,ArrowRight"":17}","true","ArrowUp,ArrowLeft","false","revaluation","1","90","","",""
"html-keyboard-response","209","912308","0.0-4.0-2.0-1.45","spark_pilot_norest","8702","4","19","Female","","","","","","","null","<div style=""font-size:60px;"">+</div>","null","fixation","","","","","","","","","91","","",""
"revaluation","210","918314","0.0-4.0-2.0-0.46","spark_pilot_norest","8702","4","19","Female","","false","","","","","[564.5,634.3000001907349]","./assets/img/ocean/memory/3.jpg","[""ArrowUp"",""ArrowLeft""]","value training","ocean","26","{""ArrowUp,ArrowLeft"":26,""ArrowUp,ArrowRight"":10,""ArrowDown,ArrowLeft"":5,""ArrowDown,ArrowRight"":17}","true","ArrowUp,ArrowLeft","false","revaluation","1","92","","",""
"html-keyboard-response","211","918820","0.0-4.0-2.0-1.46","spark_pilot_norest","8702","4","19","Female","","","","","","","null","<div style=""font-size:60px;"">+</div>","null","fixation","","","","","","","","","93","","",""
"revaluation","212","924830","0.0-4.0-2.0-0.47","spark_pilot_norest","8702","4","19","Female","","false","","","","","[885.4000000953674,460.69999980926514]","./assets/img/ocean/memory/41.jpg","[""ArrowUp"",""ArrowLeft""]","value training","ocean","26","{""ArrowUp,ArrowLeft"":26,""ArrowUp,ArrowRight"":10,""ArrowDown,ArrowLeft"":5,""ArrowDown,ArrowRight"":17}","true","ArrowUp,ArrowLeft","false","revaluation","1","94","","",""
"html-keyboard-response","213","925332","0.0-4.0-2.0-1.47","spark_pilot_norest","8702","4","19","Female","","","","","","","null","<div style=""font-size:60px;"">+</div>","null","fixation","","","","","","","","","95","","",""
"revaluation","214","931342","0.0-4.0-2.0-0.48","spark_pilot_norest","8702","4","19","Female","","false","","","","","[717.0999999046326,431.69999980926514]","./assets/img/ocean/memory/34.jpg","[""ArrowUp"",""ArrowLeft""]","value training","ocean","26","{""ArrowUp,ArrowLeft"":26,""ArrowUp,ArrowRight"":10,""ArrowDown,ArrowLeft"":5,""ArrowDown,ArrowRight"":17}","true","ArrowUp,ArrowLeft","false","revaluation","1","96","","",""
"html-keyboard-response","215","931844","0.0-4.0-2.0-1.48","spark_pilot_norest","8702","4","19","Female","","","","","","","null","<div style=""font-size:60px;"">+</div>","null","fixation","","","","","","","","","97","","",""
"revaluation","216","935854","0.0-4.0-2.0-0.49","spark_pilot_norest","8702","4","19","Female","","false","","","","","[623.3000001907349]","./assets/img/ocean/catch/3.jpg","[""spaceBar""]","value training","ocean","0","{""ArrowUp,ArrowLeft"":26,""ArrowUp,ArrowRight"":10,""ArrowDown,ArrowLeft"":5,""ArrowDown,ArrowRight"":17}","true","spaceBar","true","revaluation","1","98","","",""
"html-keyboard-response","217","936355","0.0-4.0-2.0-1.49","spark_pilot_norest","8702","4","19","Female","","","","","","","null","<div style=""font-size:60px;"">+</div>","null","fixation","","","","","","","","","99","","",""
"learning-instructions","218","953017","0.0-4.0-3.0-0.0","spark_pilot_norest","8702","4","19","Female","","","","","","","3597.4000000953674","<p> Now, you will travel with a friend who will choose whether you go up or down first. </p>
            <p> On these turns, you will just see the animal that they found. You will still get to choose which chest to search for treasure.</p>","","instructions","","","","","","","","","","","",""
"revaluation","219","957020","0.0-4.0-4.0-0.0","spark_pilot_norest","8702","4","19","Female","","false","","","","","[590.6000003814697]","./assets/img/ocean/animals/seahorse.jpg","[""ArrowLeft""]","revaluation","ocean","2","{""ArrowUp,ArrowLeft"":2,""ArrowUp,ArrowRight"":11,""ArrowDown,ArrowLeft"":8,""ArrowDown,ArrowRight"":27}","false","ArrowUp,ArrowLeft","","revaluation","1","0","","",""
"html-keyboard-response","220","957524","0.0-4.0-4.0-1.0","spark_pilot_norest","8702","4","19","Female","","","","","","","null","<div style=""font-size:60px;"">+</div>","null","fixation","","","","","","","","","1","","",""
"revaluation","221","961528","0.0-4.0-4.0-0.1","spark_pilot_norest","8702","4","19","Female","","false","","","","","[1905.9000000953674]","./assets/img/ocean/animals/octopus.jpg","[""ArrowRight""]","revaluation","ocean","27","{""ArrowUp,ArrowLeft"":2,""ArrowUp,ArrowRight"":11,""ArrowDown,ArrowLeft"":8,""ArrowDown,ArrowRight"":27}","true","ArrowDown,ArrowRight","","revaluation","1","2","","",""
"html-keyboard-response","222","962029","0.0-4.0-4.0-1.1","spark_pilot_norest","8702","4","19","Female","","","","","","","null","<div style=""font-size:60px;"">+</div>","null","fixation","","","","","","","","","3","","",""
"revaluation","223","966032","0.0-4.0-4.0-0.2","spark_pilot_norest","8702","4","19","Female","","false","","","","","[805.3000001907349]","./assets/img/ocean/animals/octopus.jpg","[""ArrowRight""]","revaluation","ocean","27","{""ArrowUp,ArrowLeft"":2,""ArrowUp,ArrowRight"":11,""ArrowDown,ArrowLeft"":8,""ArrowDown,ArrowRight"":27}","true","ArrowDown,ArrowRight","","revaluation","1","4","","",""
"html-keyboard-response","224","966535","0.0-4.0-4.0-1.2","spark_pilot_norest","8702","4","19","Female","","","","","","","null","<div style=""font-size:60px;"">+</div>","null","fixation","","","","","","","","","5","","",""
"revaluation","225","970538","0.0-4.0-4.0-0.3","spark_pilot_norest","8702","4","19","Female","","false","","","","","[660.8000001907349]","./assets/img/ocean/animals/octopus.jpg","[""ArrowRight""]","revaluation","ocean","27","{""ArrowUp,ArrowLeft"":2,""ArrowUp,ArrowRight"":11,""ArrowDown,ArrowLeft"":8,""ArrowDown,ArrowRight"":27}","true","ArrowDown,ArrowRight","","revaluation","1","6","","",""
"html-keyboard-response","226","971038","0.0-4.0-4.0-1.3","spark_pilot_norest","8702","4","19","Female","","","","","","","null","<div style=""font-size:60px;"">+</div>","null","fixation","","","","","","","","","7","","",""
"revaluation","227","975041","0.0-4.0-4.0-0.4","spark_pilot_norest","8702","4","19","Female","","false","","","","","[570.4000000953674]","./assets/img/ocean/animals/octopus.jpg","[""ArrowRight""]","revaluation","ocean","27","{""ArrowUp,ArrowLeft"":2,""ArrowUp,ArrowRight"":11,""ArrowDown,ArrowLeft"":8,""ArrowDown,ArrowRight"":27}","true","ArrowDown,ArrowRight","","revaluation","1","8","","",""
"html-keyboard-response","228","975542","0.0-4.0-4.0-1.4","spark_pilot_norest","8702","4","19","Female","","","","","","","null","<div style=""font-size:60px;"">+</div>","null","fixation","","","","","","","","","9","","",""
"revaluation","229","979548","0.0-4.0-4.0-0.5","spark_pilot_norest","8702","4","19","Female","","false","","","","","[790.5]","./assets/img/ocean/animals/seahorse.jpg","[""ArrowRight""]","revaluation","ocean","11","{""ArrowUp,ArrowLeft"":2,""ArrowUp,ArrowRight"":11,""ArrowDown,ArrowLeft"":8,""ArrowDown,ArrowRight"":27}","true","ArrowUp,ArrowRight","","revaluation","1","10","","",""
"html-keyboard-response","230","980049","0.0-4.0-4.0-1.5","spark_pilot_norest","8702","4","19","Female","","","","","","","null","<div style=""font-size:60px;"">+</div>","null","fixation","","","","","","","","","11","","",""
"revaluation","231","984055","0.0-4.0-4.0-0.6","spark_pilot_norest","8702","4","19","Female","","false","","","","","[1701.2000002861023]","./assets/img/ocean/animals/seahorse.jpg","[""ArrowRight""]","revaluation","ocean","11","{""ArrowUp,ArrowLeft"":2,""ArrowUp,ArrowRight"":11,""ArrowDown,ArrowLeft"":8,""ArrowDown,ArrowRight"":27}","true","ArrowUp,ArrowRight","","revaluation","1","12","","",""
"html-keyboard-response","232","984561","0.0-4.0-4.0-1.6","spark_pilot_norest","8702","4","19","Female","","","","","","","null","<div style=""font-size:60px;"">+</div>","null","fixation","","","","","","","","","13","","",""
"revaluation","233","988572","0.0-4.0-4.0-0.7","spark_pilot_norest","8702","4","19","Female","","false","","","","","[1766.6999998092651]","./assets/img/ocean/animals/octopus.jpg","[""ArrowRight""]","revaluation","ocean","27","{""ArrowUp,ArrowLeft"":2,""ArrowUp,ArrowRight"":11,""ArrowDown,ArrowLeft"":8,""ArrowDown,ArrowRight"":27}","true","ArrowDown,ArrowRight","","revaluation","1","14","","",""
"html-keyboard-response","234","989073","0.0-4.0-4.0-1.7","spark_pilot_norest","8702","4","19","Female","","","","","","","null","<div style=""font-size:60px;"">+</div>","null","fixation","","","","","","","","","15","","",""
"revaluation","235","993079","0.0-4.0-4.0-0.8","spark_pilot_norest","8702","4","19","Female","","false","","","","","[676.8000001907349]","./assets/img/ocean/animals/octopus.jpg","[""ArrowRight""]","revaluation","ocean","27","{""ArrowUp,ArrowLeft"":2,""ArrowUp,ArrowRight"":11,""ArrowDown,ArrowLeft"":8,""ArrowDown,ArrowRight"":27}","true","ArrowDown,ArrowRight","","revaluation","1","16","","",""
"html-keyboard-response","236","993580","0.0-4.0-4.0-1.8","spark_pilot_norest","8702","4","19","Female","","","","","","","null","<div style=""font-size:60px;"">+</div>","null","fixation","","","","","","","","","17","","",""
"revaluation","237","997586","0.0-4.0-4.0-0.9","spark_pilot_norest","8702","4","19","Female","","false","","","","","[531.5]","./assets/img/ocean/animals/seahorse.jpg","[""ArrowLeft""]","revaluation","ocean","2","{""ArrowUp,ArrowLeft"":2,""ArrowUp,ArrowRight"":11,""ArrowDown,ArrowLeft"":8,""ArrowDown,ArrowRight"":27}","false","ArrowUp,ArrowLeft","","revaluation","1","18","","",""
"html-keyboard-response","238","998087","0.0-4.0-4.0-1.9","spark_pilot_norest","8702","4","19","Female","","","","","","","null","<div style=""font-size:60px;"">+</div>","null","fixation","","","","","","","","","19","","",""
"revaluation","239","1002097","0.0-4.0-4.0-0.10","spark_pilot_norest","8702","4","19","Female","","false","","","","","[571.8000001907349]","./assets/img/ocean/animals/octopus.jpg","[""ArrowRight""]","revaluation","ocean","27","{""ArrowUp,ArrowLeft"":2,""ArrowUp,ArrowRight"":11,""ArrowDown,ArrowLeft"":8,""ArrowDown,ArrowRight"":27}","true","ArrowDown,ArrowRight","","revaluation","1","20","","",""
"html-keyboard-response","240","1002600","0.0-4.0-4.0-1.10","spark_pilot_norest","8702","4","19","Female","","","","","","","null","<div style=""font-size:60px;"">+</div>","null","fixation","","","","","","","","","21","","",""
"revaluation","241","1006609","0.0-4.0-4.0-0.11","spark_pilot_norest","8702","4","19","Female","","false","","","","","[1313]","./assets/img/ocean/animals/octopus.jpg","[""ArrowLeft""]","revaluation","ocean","8","{""ArrowUp,ArrowLeft"":2,""ArrowUp,ArrowRight"":11,""ArrowDown,ArrowLeft"":8,""ArrowDown,ArrowRight"":27}","false","ArrowDown,ArrowLeft","","revaluation","1","22","","",""
"html-keyboard-response","242","1007109","0.0-4.0-4.0-1.11","spark_pilot_norest","8702","4","19","Female","","","","","","","null","<div style=""font-size:60px;"">+</div>","null","fixation","","","","","","","","","23","","",""
"revaluation","243","1011120","0.0-4.0-4.0-0.12","spark_pilot_norest","8702","4","19","Female","","false","","","","","[1216.7000002861023]","./assets/img/ocean/animals/seahorse.jpg","[""ArrowRight""]","revaluation","ocean","11","{""ArrowUp,ArrowLeft"":2,""ArrowUp,ArrowRight"":11,""ArrowDown,ArrowLeft"":8,""ArrowDown,ArrowRight"":27}","true","ArrowUp,ArrowRight","","revaluation","1","24","","",""
"html-keyboard-response","244","1011621","0.0-4.0-4.0-1.12","spark_pilot_norest","8702","4","19","Female","","","","","","","null","<div style=""font-size:60px;"">+</div>","null","fixation","","","","","","","","","25","","",""
"revaluation","245","1015632","0.0-4.0-4.0-0.13","spark_pilot_norest","8702","4","19","Female","","false","","","","","[848.7000002861023]","./assets/img/ocean/animals/seahorse.jpg","[""ArrowRight""]","revaluation","ocean","11","{""ArrowUp,ArrowLeft"":2,""ArrowUp,ArrowRight"":11,""ArrowDown,ArrowLeft"":8,""ArrowDown,ArrowRight"":27}","true","ArrowUp,ArrowRight","","revaluation","1","26","","",""
"html-keyboard-response","246","1016133","0.0-4.0-4.0-1.13","spark_pilot_norest","8702","4","19","Female","","","","","","","null","<div style=""font-size:60px;"">+</div>","null","fixation","","","","","","","","","27","","",""
"revaluation","247","1020144","0.0-4.0-4.0-0.14","spark_pilot_norest","8702","4","19","Female","","false","","","","","[510]","./assets/img/ocean/animals/octopus.jpg","[""ArrowRight""]","revaluation","ocean","27","{""ArrowUp,ArrowLeft"":2,""ArrowUp,ArrowRight"":11,""ArrowDown,ArrowLeft"":8,""ArrowDown,ArrowRight"":27}","true","ArrowDown,ArrowRight","","revaluation","1","28","","",""
"html-keyboard-response","248","1020645","0.0-4.0-4.0-1.14","spark_pilot_norest","8702","4","19","Female","","","","","","","null","<div style=""font-size:60px;"">+</div>","null","fixation","","","","","","","","","29","","",""
"revaluation","249","1024656","0.0-4.0-4.0-0.15","spark_pilot_norest","8702","4","19","Female","","false","","","","","[874.9000000953674]","./assets/img/ocean/animals/seahorse.jpg","[""ArrowRight""]","revaluation","ocean","11","{""ArrowUp,ArrowLeft"":2,""ArrowUp,ArrowRight"":11,""ArrowDown,ArrowLeft"":8,""ArrowDown,ArrowRight"":27}","true","ArrowUp,ArrowRight","","revaluation","1","30","","",""
"html-keyboard-response","250","1025158","0.0-4.0-4.0-1.15","spark_pilot_norest","8702","4","19","Female","","","","","","","null","<div style=""font-size:60px;"">+</div>","null","fixation","","","","","","","","","31","","",""
"revaluation","251","1029164","0.0-4.0-4.0-0.16","spark_pilot_norest","8702","4","19","Female","","false","","","","","[1076.9000000953674]","./assets/img/ocean/animals/seahorse.jpg","[""ArrowRight""]","revaluation","ocean","11","{""ArrowUp,ArrowLeft"":2,""ArrowUp,ArrowRight"":11,""ArrowDown,ArrowLeft"":8,""ArrowDown,ArrowRight"":27}","true","ArrowUp,ArrowRight","","revaluation","1","32","","",""
"html-keyboard-response","252","1029669","0.0-4.0-4.0-1.16","spark_pilot_norest","8702","4","19","Female","","","","","","","null","<div style=""font-size:60px;"">+</div>","null","fixation","","","","","","","","","33","","",""
"revaluation","253","1033680","0.0-4.0-4.0-0.17","spark_pilot_norest","8702","4","19","Female","","false","","","","","[612.5]","./assets/img/ocean/animals/seahorse.jpg","[""ArrowRight""]","revaluation","ocean","11","{""ArrowUp,ArrowLeft"":2,""ArrowUp,ArrowRight"":11,""ArrowDown,ArrowLeft"":8,""ArrowDown,ArrowRight"":27}","true","ArrowUp,ArrowRight","","revaluation","1","34","","",""
"html-keyboard-response","254","1034180","0.0-4.0-4.0-1.17","spark_pilot_norest","8702","4","19","Female","","","","","","","null","<div style=""font-size:60px;"">+</div>","null","fixation","","","","","","","","","35","","",""
"learning-instructions","255","1042493","0.0-4.0-5.0-0.0","spark_pilot_norest","8702","4","19","Female","","","","","","","null","<p> You have almost finished this part of the game! </p>
            <p> We are going to ask you to make a few more choices. </p>","","instructions","","","","","","","","","","","",""
"learning-instructions","256","1058472","0.0-4.0-5.0-0.1","spark_pilot_norest","8702","4","19","Female","","","","","","","null","<p> First, you need to decide whether to go up or down. When you see each picture, use the arrow keys to make your choice. </p>
            <p><b>You will not see which animal you found, but try to get to the one that will give you the most treasure.</b></p>","","instructions","","","","","","","","","","","",""
"html-keyboard-response","257","1059478","0.0-4.0-6.0-0.0","spark_pilot_norest","8702","4","19","Female","","","","","","","null","<div style=""font-size:100px;color:red;"">Starting in...</div>","null","","","","","","","","","","","","",""
"html-keyboard-response","258","1060485","0.0-4.0-6.0-1.0","spark_pilot_norest","8702","4","19","Female","","","","","","","null","<div style=""font-size:200px;color:red;"">3</div>","null","","","","","","","","","","","","",""
"html-keyboard-response","259","1061486","0.0-4.0-6.0-2.0","spark_pilot_norest","8702","4","19","Female","","","","","","","null","<div style=""font-size:200px;color:red;"">2</div>","null","","","","","","","","","","","","",""
"html-keyboard-response","260","1062488","0.0-4.0-6.0-3.0","spark_pilot_norest","8702","4","19","Female","","","","","","","null","<div style=""font-size:200px;color:red;"">1</div>","null","","","","","","","","","","","","",""
"revaluation","261","1063192","0.0-4.0-7.0-0.0","spark_pilot_norest","8702","4","19","Female","","false","","","","","[693.5999999046326]","./assets/img/ocean/test/2.jpg","[""ArrowUp""]","first stage test","ocean","0","{""ArrowUp,ArrowLeft"":2,""ArrowUp,ArrowRight"":11,""ArrowDown,ArrowLeft"":8,""ArrowDown,ArrowRight"":27}","false","ArrowUp","false","revaluation","1","","","",""
"html-keyboard-response","262","1063692","0.0-4.0-7.0-1.0","spark_pilot_norest","8702","4","19","Female","","","","","","","null","<div style=""font-size:60px;"">+</div>","null","fixation","","","","","","","","","","","",""
"revaluation","263","1065194","0.0-4.0-7.0-0.1","spark_pilot_norest","8702","4","19","Female","","false","","","","","[1500.3000001907349]","./assets/img/ocean/test/0.jpg","[""ArrowUp""]","first stage test","ocean","0","{""ArrowUp,ArrowLeft"":2,""ArrowUp,ArrowRight"":11,""ArrowDown,ArrowLeft"":8,""ArrowDown,ArrowRight"":27}","false","ArrowUp","false","revaluation","1","","","",""
"html-keyboard-response","264","1065695","0.0-4.0-7.0-1.1","spark_pilot_norest","8702","4","19","Female","","","","","","","null","<div style=""font-size:60px;"">+</div>","null","fixation","","","","","","","","","","","",""
"revaluation","265","1067987","0.0-4.0-7.0-0.2","spark_pilot_norest","8702","4","19","Female","","false","","","","","[2291.4000000953674]","./assets/img/ocean/test/3.jpg","[""ArrowUp""]","first stage test","ocean","0","{""ArrowUp,ArrowLeft"":2,""ArrowUp,ArrowRight"":11,""ArrowDown,ArrowLeft"":8,""ArrowDown,ArrowRight"":27}","false","ArrowUp","false","revaluation","1","","","",""
"html-keyboard-response","266","1068488","0.0-4.0-7.0-1.2","spark_pilot_norest","8702","4","19","Female","","","","","","","null","<div style=""font-size:60px;"">+</div>","null","fixation","","","","","","","","","","","",""
"revaluation","267","1069707","0.0-4.0-7.0-0.3","spark_pilot_norest","8702","4","19","Female","","false","","","","","[1217.7000002861023]","./assets/img/ocean/test/1.jpg","[""ArrowUp""]","first stage test","ocean","0","{""ArrowUp,ArrowLeft"":2,""ArrowUp,ArrowRight"":11,""ArrowDown,ArrowLeft"":8,""ArrowDown,ArrowRight"":27}","false","ArrowUp","false","revaluation","1","","","",""
"html-keyboard-response","268","1070208","0.0-4.0-7.0-1.3","spark_pilot_norest","8702","4","19","Female","","","","","","","null","<div style=""font-size:60px;"">+</div>","null","fixation","","","","","","","","","","","",""
"learning-instructions","269","1083551","0.0-4.0-8.0-0.0","spark_pilot_norest","8702","4","19","Female","","","","","","","null","<p> Now you will see the animals again and can search their chests for treasure. </p>
            <p> This time, you will not see how much treasure you earned, but you will earn more bonus money for making better choices. </p>","","instructions","","","","","","","","","","","",""
"html-keyboard-response","270","1084552","0.0-4.0-9.0-0.0","spark_pilot_norest","8702","4","19","Female","","","","","","","null","<div style=""font-size:100px;color:red;"">Starting in...</div>","null","","","","","","","","","","","","",""
"html-keyboard-response","271","1085554","0.0-4.0-9.0-1.0","spark_pilot_norest","8702","4","19","Female","","","","","","","null","<div style=""font-size:200px;color:red;"">3</div>","null","","","","","","","","","","","","",""
"html-keyboard-response","272","1086555","0.0-4.0-9.0-2.0","spark_pilot_norest","8702","4","19","Female","","","","","","","null","<div style=""font-size:200px;color:red;"">2</div>","null","","","","","","","","","","","","",""
"html-keyboard-response","273","1087560","0.0-4.0-9.0-3.0","spark_pilot_norest","8702","4","19","Female","","","","","","","null","<div style=""font-size:200px;color:red;"">1</div>","null","","","","","","","","","","","","",""
"revaluation","274","1088728","0.0-4.0-10.0-0.0","spark_pilot_norest","8702","4","19","Female","","false","","","","","[1165.1000003814697]","./assets/img/ocean/animals/seahorse.jpg","[""ArrowLeft""]","second stage test","ocean","0","{""ArrowUp,ArrowLeft"":2,""ArrowUp,ArrowRight"":11,""ArrowDown,ArrowLeft"":8,""ArrowDown,ArrowRight"":27}","false","ArrowUp,ArrowLeft","","revaluation","1","","","",""
"html-keyboard-response","275","1089228","0.0-4.0-10.0-1.0","spark_pilot_norest","8702","4","19","Female","","","","","","","null","<div style=""font-size:60px;"">+</div>","null","fixation","","","","","","","","","","","",""
"revaluation","276","1090617","0.0-4.0-10.0-0.1","spark_pilot_norest","8702","4","19","Female","","false","","","","","[1387.0999999046326]","./assets/img/ocean/animals/seahorse.jpg","[""ArrowLeft""]","second stage test","ocean","0","{""ArrowUp,ArrowLeft"":2,""ArrowUp,ArrowRight"":11,""ArrowDown,ArrowLeft"":8,""ArrowDown,ArrowRight"":27}","false","ArrowUp,ArrowLeft","","revaluation","1","","","",""
"html-keyboard-response","277","1091118","0.0-4.0-10.0-1.1","spark_pilot_norest","8702","4","19","Female","","","","","","","null","<div style=""font-size:60px;"">+</div>","null","fixation","","","","","","","","","","","",""
"revaluation","278","1092332","0.0-4.0-10.0-0.2","spark_pilot_norest","8702","4","19","Female","","false","","","","","[1211.9000000953674]","./assets/img/ocean/animals/seahorse.jpg","[""ArrowLeft""]","second stage test","ocean","0","{""ArrowUp,ArrowLeft"":2,""ArrowUp,ArrowRight"":11,""ArrowDown,ArrowLeft"":8,""ArrowDown,ArrowRight"":27}","false","ArrowUp,ArrowLeft","","revaluation","1","","","",""
"html-keyboard-response","279","1092833","0.0-4.0-10.0-1.2","spark_pilot_norest","8702","4","19","Female","","","","","","","null","<div style=""font-size:60px;"">+</div>","null","fixation","","","","","","","","","","","",""
"revaluation","280","1093478","0.0-4.0-10.0-0.3","spark_pilot_norest","8702","4","19","Female","","false","","","","","[643.5999999046326]","./assets/img/ocean/animals/seahorse.jpg","[""ArrowLeft""]","second stage test","ocean","0","{""ArrowUp,ArrowLeft"":2,""ArrowUp,ArrowRight"":11,""ArrowDown,ArrowLeft"":8,""ArrowDown,ArrowRight"":27}","false","ArrowUp,ArrowLeft","","revaluation","1","","","",""
"html-keyboard-response","281","1093978","0.0-4.0-10.0-1.3","spark_pilot_norest","8702","4","19","Female","","","","","","","null","<div style=""font-size:60px;"">+</div>","null","fixation","","","","","","","","","","","",""
"revaluation","282","1096170","0.0-4.0-10.0-0.4","spark_pilot_norest","8702","4","19","Female","","false","","","","","[2189.9000000953674]","./assets/img/ocean/animals/octopus.jpg","[""ArrowRight""]","second stage test","ocean","0","{""ArrowUp,ArrowLeft"":2,""ArrowUp,ArrowRight"":11,""ArrowDown,ArrowLeft"":8,""ArrowDown,ArrowRight"":27}","true","ArrowDown,ArrowRight","","revaluation","1","","","",""
"html-keyboard-response","283","1096670","0.0-4.0-10.0-1.4","spark_pilot_norest","8702","4","19","Female","","","","","","","null","<div style=""font-size:60px;"">+</div>","null","fixation","","","","","","","","","","","",""
"revaluation","284","1097368","0.0-4.0-10.0-0.5","spark_pilot_norest","8702","4","19","Female","","false","","","","","[696.7999997138977]","./assets/img/ocean/animals/octopus.jpg","[""ArrowRight""]","second stage test","ocean","0","{""ArrowUp,ArrowLeft"":2,""ArrowUp,ArrowRight"":11,""ArrowDown,ArrowLeft"":8,""ArrowDown,ArrowRight"":27}","true","ArrowDown,ArrowRight","","revaluation","1","","","",""
"html-keyboard-response","285","1097869","0.0-4.0-10.0-1.5","spark_pilot_norest","8702","4","19","Female","","","","","","","null","<div style=""font-size:60px;"">+</div>","null","fixation","","","","","","","","","","","",""
"revaluation","286","1098253","0.0-4.0-10.0-0.6","spark_pilot_norest","8702","4","19","Female","","false","","","","","[383]","./assets/img/ocean/animals/octopus.jpg","[""ArrowRight""]","second stage test","ocean","0","{""ArrowUp,ArrowLeft"":2,""ArrowUp,ArrowRight"":11,""ArrowDown,ArrowLeft"":8,""ArrowDown,ArrowRight"":27}","true","ArrowDown,ArrowRight","","revaluation","1","","","",""
"html-keyboard-response","287","1098754","0.0-4.0-10.0-1.6","spark_pilot_norest","8702","4","19","Female","","","","","","","null","<div style=""font-size:60px;"">+</div>","null","fixation","","","","","","","","","","","",""
"revaluation","288","1099119","0.0-4.0-10.0-0.7","spark_pilot_norest","8702","4","19","Female","","false","","","","","[363.8999996185303]","./assets/img/ocean/animals/octopus.jpg","[""ArrowRight""]","second stage test","ocean","0","{""ArrowUp,ArrowLeft"":2,""ArrowUp,ArrowRight"":11,""ArrowDown,ArrowLeft"":8,""ArrowDown,ArrowRight"":27}","true","ArrowDown,ArrowRight","","revaluation","1","","","",""
"html-keyboard-response","289","1099619","0.0-4.0-10.0-1.7","spark_pilot_norest","8702","4","19","Female","","","","","","","null","<div style=""font-size:60px;"">+</div>","null","fixation","","","","","","","","","","","",""
"learning-instructions","290","1103697","0.0-4.0-0.1-0.2","spark_pilot_norest","8702","4","19","Female","","","","","","","1309.1000003814697","<p> This time you are searching for treasure in the <b>canyon</b>.</p>","","instructions","","","","","","","","","","","",""
"learning-instructions","291","1122196","0.0-4.0-0.1-0.3","spark_pilot_norest","8702","4","19","Female","","","","","","","1247.8000001907349","<p><b>New</b> animals with <b>new</b> treasure chests live here. You need to explore to discover where the animal with the best treasure chest is.</p>
                    <p> Like before, once you figure out which animal has the chest with the most treasure, you should try to get to that animal and select that chest! </p>","","instructions","","","","","","","","","","","",""
"learning-instructions","292","1138446","0.0-4.0-1.1-0.1","spark_pilot_norest","8702","4","19","Female","","","","","","","1519.8000001907349","<p> Remember, when you see a picture of the place, use the up and down keys to <b>find an animal</b>.</p>
            <p> When you encounter an animal, you should use the left and right keys to <b>select a treasure chest</b>.</p>
            <p> Don't forget to look out for the robber! </p>","","instructions","","","","","","","","","","","",""
"revaluation","293","1142449","0.0-4.0-2.1-0.50","spark_pilot_norest","8702","4","19","Female","","false","","","","","[1008.0999999046326]","./assets/img/canyon/catch/5.jpg","[""spaceBar""]","value training","canyon","0","{""ArrowUp,ArrowLeft"":23,""ArrowUp,ArrowRight"":10,""ArrowDown,ArrowLeft"":8,""ArrowDown,ArrowRight"":30}","true","spaceBar","true","original","2","0","","",""
"html-keyboard-response","294","1142951","0.0-4.0-2.1-1.50","spark_pilot_norest","8702","4","19","Female","","","","","","","null","<div style=""font-size:60px;"">+</div>","null","fixation","","","","","","","","","1","","",""
"revaluation","295","1148963","0.0-4.0-2.1-0.51","spark_pilot_norest","8702","4","19","Female","","false","","","","","[1201.6999998092651,920]","./assets/img/canyon/memory/17.jpg","[""ArrowUp"",""ArrowRight""]","value training","canyon","10","{""ArrowUp,ArrowLeft"":23,""ArrowUp,ArrowRight"":10,""ArrowDown,ArrowLeft"":8,""ArrowDown,ArrowRight"":30}","false","ArrowUp,ArrowRight","false","original","2","2","","",""
"html-keyboard-response","296","1149464","0.0-4.0-2.1-1.51","spark_pilot_norest","8702","4","19","Female","","","","","","","null","<div style=""font-size:60px;"">+</div>","null","fixation","","","","","","","","","3","","",""
"revaluation","297","1155468","0.0-4.0-2.1-0.52","spark_pilot_norest","8702","4","19","Female","","false","","","","","[1072.2000002861023,400.40000009536743]","./assets/img/canyon/memory/13.jpg","[""ArrowUp"",""ArrowLeft""]","value training","canyon","23","{""ArrowUp,ArrowLeft"":23,""ArrowUp,ArrowRight"":10,""ArrowDown,ArrowLeft"":8,""ArrowDown,ArrowRight"":30}","false","ArrowUp,ArrowLeft","false","original","2","4","","",""
"html-keyboard-response","298","1155969","0.0-4.0-2.1-1.52","spark_pilot_norest","8702","4","19","Female","","","","","","","null","<div style=""font-size:60px;"">+</div>","null","fixation","","","","","","","","","5","","",""
"revaluation","299","1161972","0.0-4.0-2.1-0.53","spark_pilot_norest","8702","4","19","Female","","false","","","","","[959,392.5]","./assets/img/canyon/memory/27.jpg","[""ArrowDown"",""ArrowLeft""]","value training","canyon","8","{""ArrowUp,ArrowLeft"":23,""ArrowUp,ArrowRight"":10,""ArrowDown,ArrowLeft"":8,""ArrowDown,ArrowRight"":30}","false","ArrowDown,ArrowLeft","false","original","2","6","","",""
"html-keyboard-response","300","1162473","0.0-4.0-2.1-1.53","spark_pilot_norest","8702","4","19","Female","","","","","","","null","<div style=""font-size:60px;"">+</div>","null","fixation","","","","","","","","","7","","",""
"revaluation","301","1168479","0.0-4.0-2.1-0.54","spark_pilot_norest","8702","4","19","Female","","false","","","","","[437.2999997138977,409.5]","./assets/img/canyon/memory/3.jpg","[""ArrowDown"",""ArrowRight""]","value training","canyon","30","{""ArrowUp,ArrowLeft"":23,""ArrowUp,ArrowRight"":10,""ArrowDown,ArrowLeft"":8,""ArrowDown,ArrowRight"":30}","true","ArrowDown,ArrowRight","false","original","2","8","","",""
"html-keyboard-response","302","1168980","0.0-4.0-2.1-1.54","spark_pilot_norest","8702","4","19","Female","","","","","","","null","<div style=""font-size:60px;"">+</div>","null","fixation","","","","","","","","","9","","",""
"revaluation","303","1174990","0.0-4.0-2.1-0.55","spark_pilot_norest","8702","4","19","Female","","false","","","","","[941.0999999046326,339.2999997138977]","./assets/img/canyon/memory/26.jpg","[""ArrowDown"",""ArrowRight""]","value training","canyon","30","{""ArrowUp,ArrowLeft"":23,""ArrowUp,ArrowRight"":10,""ArrowDown,ArrowLeft"":8,""ArrowDown,ArrowRight"":30}","true","ArrowDown,ArrowRight","false","original","2","10","","",""
"html-keyboard-response","304","1175492","0.0-4.0-2.1-1.55","spark_pilot_norest","8702","4","19","Female","","","","","","","null","<div style=""font-size:60px;"">+</div>","null","fixation","","","","","","","","","11","","",""
"revaluation","305","1181502","0.0-4.0-2.1-0.56","spark_pilot_norest","8702","4","19","Female","","false","","","","","[1067,380.09999990463257]","./assets/img/canyon/memory/8.jpg","[""ArrowDown"",""ArrowRight""]","value training","canyon","30","{""ArrowUp,ArrowLeft"":23,""ArrowUp,ArrowRight"":10,""ArrowDown,ArrowLeft"":8,""ArrowDown,ArrowRight"":30}","true","ArrowDown,ArrowRight","false","original","2","12","","",""
"html-keyboard-response","306","1182004","0.0-4.0-2.1-1.56","spark_pilot_norest","8702","4","19","Female","","","","","","","null","<div style=""font-size:60px;"">+</div>","null","fixation","","","","","","","","","13","","",""
"revaluation","307","1188014","0.0-4.0-2.1-0.57","spark_pilot_norest","8702","4","19","Female","","false","","","","","[802.3000001907349,308.09999990463257]","./assets/img/canyon/memory/24.jpg","[""ArrowDown"",""ArrowRight""]","value training","canyon","30","{""ArrowUp,ArrowLeft"":23,""ArrowUp,ArrowRight"":10,""ArrowDown,ArrowLeft"":8,""ArrowDown,ArrowRight"":30}","true","ArrowDown,ArrowRight","false","original","2","14","","",""
"html-keyboard-response","308","1188516","0.0-4.0-2.1-1.57","spark_pilot_norest","8702","4","19","Female","","","","","","","null","<div style=""font-size:60px;"">+</div>","null","fixation","","","","","","","","","15","","",""
"revaluation","309","1194526","0.0-4.0-2.1-0.58","spark_pilot_norest","8702","4","19","Female","","false","","","","","[1137.3000001907349,463.09999990463257]","./assets/img/canyon/memory/2.jpg","[""ArrowDown"",""ArrowRight""]","value training","canyon","30","{""ArrowUp,ArrowLeft"":23,""ArrowUp,ArrowRight"":10,""ArrowDown,ArrowLeft"":8,""ArrowDown,ArrowRight"":30}","true","ArrowDown,ArrowRight","false","original","2","16","","",""
"html-keyboard-response","310","1195028","0.0-4.0-2.1-1.58","spark_pilot_norest","8702","4","19","Female","","","","","","","null","<div style=""font-size:60px;"">+</div>","null","fixation","","","","","","","","","17","","",""
"revaluation","311","1201038","0.0-4.0-2.1-0.59","spark_pilot_norest","8702","4","19","Female","","false","","","","","[579.9000000953674,387]","./assets/img/canyon/memory/7.jpg","[""ArrowDown"",""ArrowRight""]","value training","canyon","30","{""ArrowUp,ArrowLeft"":23,""ArrowUp,ArrowRight"":10,""ArrowDown,ArrowLeft"":8,""ArrowDown,ArrowRight"":30}","true","ArrowDown,ArrowRight","false","original","2","18","","",""
