"trial_type","trial_index","time_elapsed","internal_node_id","task_version","subject_id","assigned_condition","age","gender","success","timeout","failed_images","failed_audio","failed_video","browser_interaction","rt","stimulus","response","task_part","environment","score","rewardMap","correct","fullState","isCatch","condition","order","trial_num","key_press","ground_truth","bonus"
"pavlovia","0","1317","0.0-0.0","spark_pilot_norest","8367","6","20","Female","","","","","","","","","","","","","","","","","","","","","",""
"preload","1","22893","0.0-1.0","spark_pilot_norest","8367","6","20","Female","true","false","[]","[]","[]","[{""event"":""fullscreenenter"",""trial"":2,""time"":26925}]","","","","","","","","","","","","","","","",""
"fullscreen","2","27879","0.0-2.0","spark_pilot_norest","8367","6","20","Female","true","","","","","","","","","","","","","","","","","","","","",""
"audio-button-response","3","30262","0.0-3.0-0.0-0.0","spark_pilot_norest","8367","6","20","Female","","","","","","","2320","./assets/audio/audiotest/turtle.mp3","2","audio_test","","","","","","","","","","","",""
"learning-instructions","4","43014","0.0-3.0-1.0-0.0","spark_pilot_norest","8367","6","20","Female","","","","","","","5726","<p> Welcome! Please remember to stay in fullscreen mode and don't click away from the experiment. </p>","","instructions","","","","","","","","","","","",""
"learning-instructions","5","54215","0.0-3.0-1.0-0.1","spark_pilot_norest","8367","6","20","Female","","","","","","","2789.400000002235","<p> Today you will be playing a game to earn treasure. </p>
            <p> At the end of the experiment, you will earn a bonus based on how much treasure you find. </p>
            <img src='./assets/img/instructions/treasure.jpg' class='instructions-image'>","","instructions","","","","","","","","","","","",""
"learning-instructions","6","63994","0.0-3.0-1.0-0.2","spark_pilot_norest","8367","6","20","Female","","","","","","","1518","<p> Animals have hidden treasure in treasure chests. </p>
            <p> You need to first find an animal and then choose which of their treasure chests to search. </p>
            <img src='./assets/img/space/animals/cat.jpg' class='instructions-image'>","","instructions","","","","","","","","","","","",""
"learning-instructions","7","79670","0.0-3.0-1.0-0.3","spark_pilot_norest","8367","6","20","Female","","","","","","","2516.10000000149","<p> In each round, you will search for treasure in a different place. In the real game, there will be two rounds. </p>
            <p> You will begin with a separate, practice round where you will search for treasure in outer space. </p>
            <img src='./assets/img/space/0.jpg' class='instructions-image'>","","instructions","","","","","","","","","","","",""
"learning-instructions","8","93528","0.0-3.0-1.0-0.4","spark_pilot_norest","8367","6","20","Female","","","","","","","2422.7000000029802","<p> On every turn, you will see a picture of the place that you are in, but the specific image may be different each time. </p>
            <p> For example, both of these images mean you are in outer space. </p>
            <img src='./assets/img/instructions/outerspace.jpg' class='instructions-image'>","","instructions","","","","","","","","","","","",""
"learning-instructions","9","102572","0.0-3.0-1.0-0.5","spark_pilot_norest","8367","6","20","Female","","","","","","","1207.300000000745","<p> You need to decide which direction to travel in. </p>
            <p> You can choose between going <b>up or down</b> by using the arrow keys. </p>
            <img src='./assets/img/instructions/updown.jpg' class='instructions-image'>","","instructions","","","","","","","","","","","",""
"learning-instructions","10","113067","0.0-3.0-1.0-0.6","spark_pilot_norest","8367","6","20","Female","","","","","","","1682.2000000029802","<p> You will have <b>2 seconds</b> to make your choice. </p>
            <p> If you do not make a choice within 2 seconds, you will not find an animal or earn treasure. </p>
            <img src='./assets/img/instructions/2seconds.jpg' class='instructions-image'>","","instructions","","","","","","","","","","","",""
"learning-instructions","11","121735","0.0-3.0-1.0-0.7","spark_pilot_norest","8367","6","20","Female","","","","","","","1629.4000000022352","<p> Let’s try practicing that now! </p>
            <p> When you see a picture of the place you are in, press the <b>up</b> key to travel up. </p>
            <img src='./assets/img/instructions/pressUp.jpg' class='instructions-image'>","","instructions","","","","","","","","","","","",""
"revaluation","12","125766","0.0-3.0-2.0-0.0","spark_pilot_norest","8367","6","20","Female","","false","","","","","[771.8999999985099]","./assets/img/space/0.jpg","[""ArrowUp""]","first stage practice","space","0","null","null","ArrowUp","false","","","","","",""
"html-keyboard-response","13","126274","0.0-3.0-2.0-1.0","spark_pilot_norest","8367","6","20","Female","","","","","","","null","<div style=""font-size:60px;"">+</div>","null","fixation","","","","","","","","","","","",""
"revaluation","14","130308","0.0-3.0-2.0-0.1","spark_pilot_norest","8367","6","20","Female","","false","","","","","[1339.5]","./assets/img/space/1.jpg","[""ArrowUp""]","first stage practice","space","0","null","null","ArrowUp","false","","","","","",""
"html-keyboard-response","15","130824","0.0-3.0-2.0-1.1","spark_pilot_norest","8367","6","20","Female","","","","","","","null","<div style=""font-size:60px;"">+</div>","null","fixation","","","","","","","","","","","",""
"revaluation","16","134863","0.0-3.0-2.0-0.2","spark_pilot_norest","8367","6","20","Female","","false","","","","","[855.3999999985099]","./assets/img/space/2.jpg","[""ArrowUp""]","first stage practice","space","0","null","null","ArrowUp","false","","","","","",""
"html-keyboard-response","17","135372","0.0-3.0-2.0-1.2","spark_pilot_norest","8367","6","20","Female","","","","","","","null","<div style=""font-size:60px;"">+</div>","null","fixation","","","","","","","","","","","",""
"learning-instructions","18","141774","0.0-3.0-3.0-0.0","spark_pilot_norest","8367","6","20","Female","","","","","","","1689.3999999985099","<p> Great job! Now try pressing the <b>down</b> key to travel down. </p>
            <img src='./assets/img/instructions/pressDown.jpg' class='instructions-image'>","","instructions","","","","","","","","","","","",""
"revaluation","19","145793","0.0-3.0-4.0-0.0","spark_pilot_norest","8367","6","20","Female","","false","","","","","[452.5]","./assets/img/space/3.jpg","[""ArrowDown""]","first stage practice","space","0","null","null","ArrowDown","false","","","","","",""
"html-keyboard-response","20","146311","0.0-3.0-4.0-1.0","spark_pilot_norest","8367","6","20","Female","","","","","","","null","<div style=""font-size:60px;"">+</div>","null","fixation","","","","","","","","","","","",""
"revaluation","21","150326","0.0-3.0-4.0-0.1","spark_pilot_norest","8367","6","20","Female","","false","","","","","[540.8000000007451]","./assets/img/space/4.jpg","[""ArrowDown""]","first stage practice","space","0","null","null","ArrowDown","false","","","","","",""
"html-keyboard-response","22","150828","0.0-3.0-4.0-1.1","spark_pilot_norest","8367","6","20","Female","","","","","","","null","<div style=""font-size:60px;"">+</div>","null","fixation","","","","","","","","","","","",""
"revaluation","23","154845","0.0-3.0-4.0-0.2","spark_pilot_norest","8367","6","20","Female","","false","","","","","[522.6000000014901]","./assets/img/space/5.jpg","[""ArrowDown""]","first stage practice","space","0","null","null","ArrowDown","false","","","","","",""
"html-keyboard-response","24","155361","0.0-3.0-4.0-1.2","spark_pilot_norest","8367","6","20","Female","","","","","","","null","<div style=""font-size:60px;"">+</div>","null","fixation","","","","","","","","","","","",""
"learning-instructions","25","166392","0.0-3.0-5.0-0.0","spark_pilot_norest","8367","6","20","Female","","","","","","","1168.300000000745","<p> The animals don’t move, so the animal in the upper part of a place will stay in the upper part of a place, and the animal in the lower part of a place will stay in the lower part of a place. </p>","","instructions","","","","","","","","","","","",""
"learning-instructions","26","176664","0.0-3.0-5.0-0.1","spark_pilot_norest","8367","6","20","Female","","","","","","","1120","<p> Each animal has two treasure chests for you to choose from. </p>
            <p> The amount of treasure in each chest can range from <b> 0 to 40 pieces.</b></p>","","instructions","","","","","","","","","","","",""
"learning-instructions","27","189051","0.0-3.0-5.0-0.2","spark_pilot_norest","8367","6","20","Female","","","","","","","1197.800000000745","<p> You should decide which chest to search for treasure by using the <b>left</b> and <b>right</b> arrow keys. </p>
            <p><b> Pay attention to which animal is on the screen, as the animals have different treasure chests. </b></p>
            <img src='./assets/img/instructions/leftright.jpg' class='instructions-image'>","","instructions","","","","","","","","","","","",""
"learning-instructions","28","196283","0.0-3.0-5.0-0.3","spark_pilot_norest","8367","6","20","Female","","","","","","","858.6999999992549","<p> Let’s try practicing that now. </p>
            <p> When you see an animal, choose which chest to search for treasure. </p>
            <img src='./assets/img/instructions/chooseChest.jpg' class='instructions-image'>","","instructions","","","","","","","","","","","",""
"revaluation","29","200304","0.0-3.0-6.0-0.0","spark_pilot_norest","8367","6","20","Female","","false","","","","","[662.8000000007451]","./assets/img/space/animals/rabbit.jpg","[""ArrowLeft""]","second stage practice","space","15","{""ArrowUp,ArrowLeft"":3,""ArrowUp,ArrowRight"":36,""ArrowDown,ArrowLeft"":15,""ArrowDown,ArrowRight"":23}","false","ArrowDown,ArrowLeft","","","","","","",""
"html-keyboard-response","30","200806","0.0-3.0-6.0-1.0","spark_pilot_norest","8367","6","20","Female","","","","","","","null","<div style=""font-size:60px;"">+</div>","null","fixation","","","","","","","","","","","",""
"revaluation","31","204836","0.0-3.0-6.0-0.1","spark_pilot_norest","8367","6","20","Female","","false","","","","","[472.69999999925494]","./assets/img/space/animals/cat.jpg","[""ArrowRight""]","second stage practice","space","36","{""ArrowUp,ArrowLeft"":3,""ArrowUp,ArrowRight"":36,""ArrowDown,ArrowLeft"":15,""ArrowDown,ArrowRight"":23}","true","ArrowUp,ArrowRight","","","","","","",""
"html-keyboard-response","32","205338","0.0-3.0-6.0-1.1","spark_pilot_norest","8367","6","20","Female","","","","","","","null","<div style=""font-size:60px;"">+</div>","null","fixation","","","","","","","","","","","",""
"revaluation","33","209371","0.0-3.0-6.0-0.2","spark_pilot_norest","8367","6","20","Female","","false","","","","","[409.9000000022352]","./assets/img/space/animals/cat.jpg","[""ArrowRight""]","second stage practice","space","36","{""ArrowUp,ArrowLeft"":3,""ArrowUp,ArrowRight"":36,""ArrowDown,ArrowLeft"":15,""ArrowDown,ArrowRight"":23}","true","ArrowUp,ArrowRight","","","","","","",""
"html-keyboard-response","34","209889","0.0-3.0-6.0-1.2","spark_pilot_norest","8367","6","20","Female","","","","","","","null","<div style=""font-size:60px;"">+</div>","null","fixation","","","","","","","","","","","",""
"revaluation","35","213920","0.0-3.0-6.0-0.3","spark_pilot_norest","8367","6","20","Female","","false","","","","","[722.0999999977648]","./assets/img/space/animals/rabbit.jpg","[""ArrowRight""]","second stage practice","space","23","{""ArrowUp,ArrowLeft"":3,""ArrowUp,ArrowRight"":36,""ArrowDown,ArrowLeft"":15,""ArrowDown,ArrowRight"":23}","true","ArrowDown,ArrowRight","","","","","","",""
"html-keyboard-response","36","214438","0.0-3.0-6.0-1.3","spark_pilot_norest","8367","6","20","Female","","","","","","","null","<div style=""font-size:60px;"">+</div>","null","fixation","","","","","","","","","","","",""
"learning-instructions","37","234215","0.0-3.0-7.0-0.0","spark_pilot_norest","8367","6","20","Female","","","","","","","2960.400000002235","<p> Great job. Now let’s try putting it together. </p>
            <p> On each turn, you will first see a picture to remind you of the place you are in, and you need to choose whether to go up or down. </p>
            <p> Then you will see an animal and choose which of its chests to search for treasure. </p>","","instructions","","","","","","","","","","","",""
"learning-instructions","38","243310","0.0-3.0-7.0-0.1","spark_pilot_norest","8367","6","20","Female","","","","","","","817.5","<p> When you choose whether to go up or down, try to go to the animal with the chest with the most treasure. </p>
            <p> Try practicing that now! </p>","","instructions","","","","","","","","","","","",""
"revaluation","39","249339","0.0-3.0-8.0-0.0","spark_pilot_norest","8367","6","20","Female","","false","","","","","[585.3000000007451,445.1000000014901]","./assets/img/space/6.jpg","[""ArrowUp"",""ArrowRight""]","full practice","space","36","{""ArrowUp,ArrowLeft"":3,""ArrowUp,ArrowRight"":36,""ArrowDown,ArrowLeft"":15,""ArrowDown,ArrowRight"":23}","true","ArrowUp,ArrowRight","false","","","","","",""
"html-keyboard-response","40","249855","0.0-3.0-8.0-1.0","spark_pilot_norest","8367","6","20","Female","","","","","","","null","<div style=""font-size:60px;"">+</div>","null","fixation","","","","","","","","","","","",""
"revaluation","41","255886","0.0-3.0-8.0-0.1","spark_pilot_norest","8367","6","20","Female","","false","","","","","[563.0999999977648,316.1000000014901]","./assets/img/space/7.jpg","[""ArrowUp"",""ArrowRight""]","full practice","space","36","{""ArrowUp,ArrowLeft"":3,""ArrowUp,ArrowRight"":36,""ArrowDown,ArrowLeft"":15,""ArrowDown,ArrowRight"":23}","true","ArrowUp,ArrowRight","false","","","","","",""
"html-keyboard-response","42","256388","0.0-3.0-8.0-1.1","spark_pilot_norest","8367","6","20","Female","","","","","","","null","<div style=""font-size:60px;"">+</div>","null","fixation","","","","","","","","","","","",""
"revaluation","43","262417","0.0-3.0-8.0-0.2","spark_pilot_norest","8367","6","20","Female","","false","","","","","[844.1999999992549,381.69999999925494]","./assets/img/space/8.jpg","[""ArrowDown"",""ArrowLeft""]","full practice","space","15","{""ArrowUp,ArrowLeft"":3,""ArrowUp,ArrowRight"":36,""ArrowDown,ArrowLeft"":15,""ArrowDown,ArrowRight"":23}","false","ArrowDown,ArrowLeft","false","","","","","",""
"html-keyboard-response","44","262920","0.0-3.0-8.0-1.2","spark_pilot_norest","8367","6","20","Female","","","","","","","null","<div style=""font-size:60px;"">+</div>","null","fixation","","","","","","","","","","","",""
"revaluation","45","268954","0.0-3.0-8.0-0.3","spark_pilot_norest","8367","6","20","Female","","false","","","","","[345.1000000014901,344.6000000014901]","./assets/img/space/9.jpg","[""ArrowUp"",""ArrowLeft""]","full practice","space","3","{""ArrowUp,ArrowLeft"":3,""ArrowUp,ArrowRight"":36,""ArrowDown,ArrowLeft"":15,""ArrowDown,ArrowRight"":23}","false","ArrowUp,ArrowLeft","false","","","","","",""
"html-keyboard-response","46","269470","0.0-3.0-8.0-1.3","spark_pilot_norest","8367","6","20","Female","","","","","","","null","<div style=""font-size:60px;"">+</div>","null","fixation","","","","","","","","","","","",""
"revaluation","47","275486","0.0-3.0-8.0-0.4","spark_pilot_norest","8367","6","20","Female","","false","","","","","[401.0999999977648,195.90000000223517]","./assets/img/space/10.jpg","[""ArrowUp"",""ArrowRight""]","full practice","space","36","{""ArrowUp,ArrowLeft"":3,""ArrowUp,ArrowRight"":36,""ArrowDown,ArrowLeft"":15,""ArrowDown,ArrowRight"":23}","true","ArrowUp,ArrowRight","false","","","","","",""
"html-keyboard-response","48","275988","0.0-3.0-8.0-1.4","spark_pilot_norest","8367","6","20","Female","","","","","","","null","<div style=""font-size:60px;"">+</div>","null","fixation","","","","","","","","","","","",""
"learning-instructions","49","287362","0.0-3.0-9.0-0.0","spark_pilot_norest","8367","6","20","Female","","","","","","","1056.6000000014901","<p> One last thing: sometimes, you will see a robber. The robber can be anywhere in the picture. </p>
            <p> If you do not stop them, you will lose treasure. </p>
            <img src='./assets/img/instructions/robber.jpg' class='instructions-image'>","","instructions","","","","","","","","","","","",""
"learning-instructions","50","295630","0.0-3.0-9.0-0.1","spark_pilot_norest","8367","6","20","Female","","","","","","","1103.199999999255","<p> If you see the robber, you should <b>press the space bar</b> rather than using the arrow keys. </p>
            <p> Try practicing that now! </p>","","instructions","","","","","","","","","","","",""
"revaluation","51","299650","0.0-3.0-10.0-0.0","spark_pilot_norest","8367","6","20","Female","","false","","","","","[837.0999999977648]","./assets/img/space/catch/0.jpg","[""spaceBar""]","catch practice","space","0","{""ArrowUp,ArrowLeft"":3,""ArrowUp,ArrowRight"":36,""ArrowDown,ArrowLeft"":15,""ArrowDown,ArrowRight"":23}","true","spaceBar","true","","","","","",""
"html-keyboard-response","52","300166","0.0-3.0-10.0-1.0","spark_pilot_norest","8367","6","20","Female","","","","","","","null","<div style=""font-size:60px;"">+</div>","null","fixation","","","","","","","","","","","",""
"revaluation","53","304201","0.0-3.0-10.0-0.1","spark_pilot_norest","8367","6","20","Female","","false","","","","","[651.3999999985099]","./assets/img/space/catch/1.jpg","[""spaceBar""]","catch practice","space","0","{""ArrowUp,ArrowLeft"":3,""ArrowUp,ArrowRight"":36,""ArrowDown,ArrowLeft"":15,""ArrowDown,ArrowRight"":23}","true","spaceBar","true","","","","","",""
"html-keyboard-response","54","304716","0.0-3.0-10.0-1.1","spark_pilot_norest","8367","6","20","Female","","","","","","","null","<div style=""font-size:60px;"">+</div>","null","fixation","","","","","","","","","","","",""
"revaluation","55","308751","0.0-3.0-10.0-0.2","spark_pilot_norest","8367","6","20","Female","","false","","","","","[515.5999999977648]","./assets/img/space/catch/2.jpg","[""spaceBar""]","catch practice","space","0","{""ArrowUp,ArrowLeft"":3,""ArrowUp,ArrowRight"":36,""ArrowDown,ArrowLeft"":15,""ArrowDown,ArrowRight"":23}","true","spaceBar","true","","","","","",""
"html-keyboard-response","56","309265","0.0-3.0-10.0-1.2","spark_pilot_norest","8367","6","20","Female","","","","","","","null","<div style=""font-size:60px;"">+</div>","null","fixation","","","","","","","","","","","",""
"learning-instructions","57","316267","0.0-3.0-11.0-0.0-0.0","spark_pilot_norest","8367","6","20","Female","","","","","","","1709.5","<p> Now, you will practice a shortened version of the game to get a sense of how it all fits together. </p>","","instructions","","","","","","","","","","","",""
"learning-instructions","58","321093","0.0-3.0-11.0-0.0-0.1","spark_pilot_norest","8367","6","20","Female","","","","","","","1645.699999999255","<p>This time you are searching for treasure in outer space.</p>","","instructions","","","","","","","","","","","",""
"learning-instructions","59","337332","0.0-3.0-11.0-1.0-0.0","spark_pilot_norest","8367","6","20","Female","","","","","","","1454.9000000022352","<p> Remember, when you see a picture of the place, use the up and down keys to <b>find an animal</b>.</p>
            <p> When you encounter an animal, you should use the left and right keys to <b>select a treasure chest</b>.</p>
            <p> Don't forget to look out for the robber! </p>","","instructions","","","","","","","","","","","",""
"revaluation","60","343349","0.0-3.0-11.0-2.0-0.0","spark_pilot_norest","8367","6","20","Female","","false","","","","","[693.7000000029802,596.5]","./assets/img/space/11.jpg","[""ArrowUp"",""ArrowRight""]","practice block","space","36","{""ArrowUp,ArrowLeft"":3,""ArrowUp,ArrowRight"":36,""ArrowDown,ArrowLeft"":15,""ArrowDown,ArrowRight"":23}","true","ArrowUp,ArrowRight","false","","","","","",""
"html-keyboard-response","61","343867","0.0-3.0-11.0-2.0-1.0","spark_pilot_norest","8367","6","20","Female","","","","","","","null","<div style=""font-size:60px;"">+</div>","null","fixation","","","","","","","","","","","",""
"revaluation","62","349884","0.0-3.0-11.0-2.0-0.1","spark_pilot_norest","8367","6","20","Female","","false","","","","","[434.5,308.0999999977648]","./assets/img/space/12.jpg","[""ArrowUp"",""ArrowRight""]","practice block","space","36","{""ArrowUp,ArrowLeft"":3,""ArrowUp,ArrowRight"":36,""ArrowDown,ArrowLeft"":15,""ArrowDown,ArrowRight"":23}","true","ArrowUp,ArrowRight","false","","","","","",""
"html-keyboard-response","63","350397","0.0-3.0-11.0-2.0-1.1","spark_pilot_norest","8367","6","20","Female","","","","","","","null","<div style=""font-size:60px;"">+</div>","null","fixation","","","","","","","","","","","",""
"revaluation","64","356433","0.0-3.0-11.0-2.0-0.2","spark_pilot_norest","8367","6","20","Female","","false","","","","","[275.19999999925494,376.6000000014901]","./assets/img/space/13.jpg","[""ArrowUp"",""ArrowRight""]","practice block","space","36","{""ArrowUp,ArrowLeft"":3,""ArrowUp,ArrowRight"":36,""ArrowDown,ArrowLeft"":15,""ArrowDown,ArrowRight"":23}","true","ArrowUp,ArrowRight","false","","","","","",""
"html-keyboard-response","65","356943","0.0-3.0-11.0-2.0-1.2","spark_pilot_norest","8367","6","20","Female","","","","","","","null","<div style=""font-size:60px;"">+</div>","null","fixation","","","","","","","","","","","",""
"revaluation","66","362979","0.0-3.0-11.0-2.0-0.3","spark_pilot_norest","8367","6","20","Female","","false","","","","","[1003.8000000007451,397.8999999985099]","./assets/img/space/14.jpg","[""ArrowUp"",""ArrowRight""]","practice block","space","36","{""ArrowUp,ArrowLeft"":3,""ArrowUp,ArrowRight"":36,""ArrowDown,ArrowLeft"":15,""ArrowDown,ArrowRight"":23}","true","ArrowUp,ArrowRight","false","","","","","",""
"html-keyboard-response","67","363495","0.0-3.0-11.0-2.0-1.3","spark_pilot_norest","8367","6","20","Female","","","","","","","null","<div style=""font-size:60px;"">+</div>","null","fixation","","","","","","","","","","","",""
"revaluation","68","369511","0.0-3.0-11.0-2.0-0.4","spark_pilot_norest","8367","6","20","Female","","false","","","","","[374.4000000022352,294.30000000074506]","./assets/img/space/11.jpg","[""ArrowUp"",""ArrowRight""]","practice block","space","36","{""ArrowUp,ArrowLeft"":3,""ArrowUp,ArrowRight"":36,""ArrowDown,ArrowLeft"":15,""ArrowDown,ArrowRight"":23}","true","ArrowUp,ArrowRight","false","","","","","",""
"html-keyboard-response","69","370012","0.0-3.0-11.0-2.0-1.4","spark_pilot_norest","8367","6","20","Female","","","","","","","null","<div style=""font-size:60px;"">+</div>","null","fixation","","","","","","","","","","","",""
"revaluation","70","376023","0.0-3.0-11.0-2.0-0.5","spark_pilot_norest","8367","6","20","Female","","false","","","","","[1218.699999999255,540.8999999985099]","./assets/img/space/12.jpg","[""ArrowUp"",""ArrowRight""]","practice block","space","36","{""ArrowUp,ArrowLeft"":3,""ArrowUp,ArrowRight"":36,""ArrowDown,ArrowLeft"":15,""ArrowDown,ArrowRight"":23}","true","ArrowUp,ArrowRight","false","","","","","",""
"html-keyboard-response","71","376525","0.0-3.0-11.0-2.0-1.5","spark_pilot_norest","8367","6","20","Female","","","","","","","null","<div style=""font-size:60px;"">+</div>","null","fixation","","","","","","","","","","","",""
"revaluation","72","382542","0.0-3.0-11.0-2.0-0.6","spark_pilot_norest","8367","6","20","Female","","false","","","","","[727.3000000007451,323.19999999925494]","./assets/img/space/13.jpg","[""ArrowDown"",""ArrowRight""]","practice block","space","23","{""ArrowUp,ArrowLeft"":3,""ArrowUp,ArrowRight"":36,""ArrowDown,ArrowLeft"":15,""ArrowDown,ArrowRight"":23}","false","ArrowDown,ArrowRight","false","","","","","",""
"html-keyboard-response","73","383044","0.0-3.0-11.0-2.0-1.6","spark_pilot_norest","8367","6","20","Female","","","","","","","null","<div style=""font-size:60px;"">+</div>","null","fixation","","","","","","","","","","","",""
"revaluation","74","389053","0.0-3.0-11.0-2.0-0.7","spark_pilot_norest","8367","6","20","Female","","false","","","","","[815.7000000029802,387.70000000298023]","./assets/img/space/14.jpg","[""ArrowUp"",""ArrowRight""]","practice block","space","36","{""ArrowUp,ArrowLeft"":3,""ArrowUp,ArrowRight"":36,""ArrowDown,ArrowLeft"":15,""ArrowDown,ArrowRight"":23}","true","ArrowUp,ArrowRight","false","","","","","",""
"html-keyboard-response","75","389555","0.0-3.0-11.0-2.0-1.7","spark_pilot_norest","8367","6","20","Female","","","","","","","null","<div style=""font-size:60px;"">+</div>","null","fixation","","","","","","","","","","","",""
"revaluation","76","393562","0.0-3.0-11.0-2.0-0.8","spark_pilot_norest","8367","6","20","Female","","false","","","","","[699.8000000007451]","./assets/img/space/catch/3.jpg","[""spaceBar""]","practice block","space","0","{""ArrowUp,ArrowLeft"":3,""ArrowUp,ArrowRight"":36,""ArrowDown,ArrowLeft"":15,""ArrowDown,ArrowRight"":23}","true","spaceBar","true","","","","","",""
"html-keyboard-response","77","394064","0.0-3.0-11.0-2.0-1.8","spark_pilot_norest","8367","6","20","Female","","","","","","","null","<div style=""font-size:60px;"">+</div>","null","fixation","","","","","","","","","","","",""
"learning-instructions","78","409390","0.0-3.0-11.0-3.0-0.0","spark_pilot_norest","8367","6","20","Female","","","","","","","2090.60000000149","<p> Now, you will travel with a friend who will choose whether you go up or down first. </p>
            <p> On these turns, you will just see the animal that they found. You will still get to choose which chest to search for treasure.</p>","","instructions","","","","","","","","","","","",""
"revaluation","79","413411","0.0-3.0-11.0-4.0-0.0","spark_pilot_norest","8367","6","20","Female","","false","","","","","[672.3999999985099]","./assets/img/space/animals/rabbit.jpg","[""ArrowRight""]","practice block","space","23","{""ArrowUp,ArrowLeft"":3,""ArrowUp,ArrowRight"":36,""ArrowDown,ArrowLeft"":15,""ArrowDown,ArrowRight"":23}","true","ArrowDown,ArrowRight","","","","","","",""
"html-keyboard-response","80","413927","0.0-3.0-11.0-4.0-1.0","spark_pilot_norest","8367","6","20","Female","","","","","","","null","<div style=""font-size:60px;"">+</div>","null","fixation","","","","","","","","","","","",""
"revaluation","81","417945","0.0-3.0-11.0-4.0-0.1","spark_pilot_norest","8367","6","20","Female","","false","","","","","[710.1999999992549]","./assets/img/space/animals/cat.jpg","[""ArrowRight""]","practice block","space","36","{""ArrowUp,ArrowLeft"":3,""ArrowUp,ArrowRight"":36,""ArrowDown,ArrowLeft"":15,""ArrowDown,ArrowRight"":23}","true","ArrowUp,ArrowRight","","","","","","",""
"html-keyboard-response","82","418462","0.0-3.0-11.0-4.0-1.1","spark_pilot_norest","8367","6","20","Female","","","","","","","null","<div style=""font-size:60px;"">+</div>","null","fixation","","","","","","","","","","","",""
"revaluation","83","422493","0.0-3.0-11.0-4.0-0.2","spark_pilot_norest","8367","6","20","Female","","false","","","","","[504.69999999925494]","./assets/img/space/animals/rabbit.jpg","[""ArrowRight""]","practice block","space","23","{""ArrowUp,ArrowLeft"":3,""ArrowUp,ArrowRight"":36,""ArrowDown,ArrowLeft"":15,""ArrowDown,ArrowRight"":23}","true","ArrowDown,ArrowRight","","","","","","",""
"html-keyboard-response","84","423010","0.0-3.0-11.0-4.0-1.2","spark_pilot_norest","8367","6","20","Female","","","","","","","null","<div style=""font-size:60px;"">+</div>","null","fixation","","","","","","","","","","","",""
"revaluation","85","427044","0.0-3.0-11.0-4.0-0.3","spark_pilot_norest","8367","6","20","Female","","false","","","","","[597.9000000022352]","./assets/img/space/animals/cat.jpg","[""ArrowRight""]","practice block","space","36","{""ArrowUp,ArrowLeft"":3,""ArrowUp,ArrowRight"":36,""ArrowDown,ArrowLeft"":15,""ArrowDown,ArrowRight"":23}","true","ArrowUp,ArrowRight","","","","","","",""
"html-keyboard-response","86","427560","0.0-3.0-11.0-4.0-1.3","spark_pilot_norest","8367","6","20","Female","","","","","","","null","<div style=""font-size:60px;"">+</div>","null","fixation","","","","","","","","","","","",""
"learning-instructions","87","435708","0.0-3.0-11.0-5.0-0.0","spark_pilot_norest","8367","6","20","Female","","","","","","","null","<p> You have almost finished this part of the game! </p>
            <p> We are going to ask you to make a few more choices. </p>","","instructions","","","","","","","","","","","",""
"learning-instructions","88","451741","0.0-3.0-11.0-5.0-0.1","spark_pilot_norest","8367","6","20","Female","","","","","","","null","<p> First, you need to decide whether to go up or down. When you see each picture, use the arrow keys to make your choice. </p>
            <p><b>You will not see which animal you found, but try to get to the one that will give you the most treasure.</b></p>","","instructions","","","","","","","","","","","",""
"html-keyboard-response","89","452752","0.0-3.0-11.0-6.0-0.0","spark_pilot_norest","8367","6","20","Female","","","","","","","null","<div style=""font-size:100px;color:red;"">Starting in...</div>","null","","","","","","","","","","","","",""
"html-keyboard-response","90","453760","0.0-3.0-11.0-6.0-1.0","spark_pilot_norest","8367","6","20","Female","","","","","","","null","<div style=""font-size:200px;color:red;"">3</div>","null","","","","","","","","","","","","",""
"html-keyboard-response","91","454778","0.0-3.0-11.0-6.0-2.0","spark_pilot_norest","8367","6","20","Female","","","","","","","null","<div style=""font-size:200px;color:red;"">2</div>","null","","","","","","","","","","","","",""
"html-keyboard-response","92","455788","0.0-3.0-11.0-6.0-3.0","spark_pilot_norest","8367","6","20","Female","","","","","","","null","<div style=""font-size:200px;color:red;"">1</div>","null","","","","","","","","","","","","",""
"revaluation","93","456514","0.0-3.0-11.0-7.0","spark_pilot_norest","8367","6","20","Female","","false","","","","","[720.5999999977648]","./assets/img/space/15.jpg","[""ArrowUp""]","practice block","space","0","{""ArrowUp,ArrowLeft"":3,""ArrowUp,ArrowRight"":36,""ArrowDown,ArrowLeft"":15,""ArrowDown,ArrowRight"":23}","true","ArrowUp","false","","","","","",""
"html-keyboard-response","94","457024","0.0-3.0-11.0-8.0","spark_pilot_norest","8367","6","20","Female","","","","","","","null","<div style=""font-size:60px;"">+</div>","null","fixation","","","","","","","","","","","",""
"learning-instructions","95","470426","0.0-3.0-11.0-9.0-0.0","spark_pilot_norest","8367","6","20","Female","","","","","","","null","<p> Now you will see the animals again and can search their chests for treasure. </p>
            <p> This time, you will not see how much treasure you earned, but you will earn more bonus money for making better choices. </p>","","instructions","","","","","","","","","","","",""
"html-keyboard-response","96","471434","0.0-3.0-11.0-10.0-0.0","spark_pilot_norest","8367","6","20","Female","","","","","","","null","<div style=""font-size:100px;color:red;"">Starting in...</div>","null","","","","","","","","","","","","",""
"html-keyboard-response","97","472438","0.0-3.0-11.0-10.0-1.0","spark_pilot_norest","8367","6","20","Female","","","","","","","null","<div style=""font-size:200px;color:red;"">3</div>","null","","","","","","","","","","","","",""
"html-keyboard-response","98","473455","0.0-3.0-11.0-10.0-2.0","spark_pilot_norest","8367","6","20","Female","","","","","","","null","<div style=""font-size:200px;color:red;"">2</div>","null","","","","","","","","","","","","",""
"html-keyboard-response","99","474472","0.0-3.0-11.0-10.0-3.0","spark_pilot_norest","8367","6","20","Female","","","","","","","null","<div style=""font-size:200px;color:red;"">1</div>","null","","","","","","","","","","","","",""
"revaluation","100","474905","0.0-3.0-11.0-11.0-0.0","spark_pilot_norest","8367","6","20","Female","","false","","","","","[428.19999999925494]","./assets/img/space/animals/cat.jpg","[""ArrowRight""]","practice block","space","0","{""ArrowUp,ArrowLeft"":3,""ArrowUp,ArrowRight"":36,""ArrowDown,ArrowLeft"":15,""ArrowDown,ArrowRight"":23}","true","ArrowUp,ArrowRight","","","","","","",""
"html-keyboard-response","101","475427","0.0-3.0-11.0-11.0-1.0","spark_pilot_norest","8367","6","20","Female","","","","","","","null","<div style=""font-size:60px;"">+</div>","null","fixation","","","","","","","","","","","",""
"revaluation","102","476416","0.0-3.0-11.0-11.0-0.1","spark_pilot_norest","8367","6","20","Female","","false","","","","","[985]","./assets/img/space/animals/rabbit.jpg","[""ArrowRight""]","practice block","space","0","{""ArrowUp,ArrowLeft"":3,""ArrowUp,ArrowRight"":36,""ArrowDown,ArrowLeft"":15,""ArrowDown,ArrowRight"":23}","true","ArrowDown,ArrowRight","","","","","","",""
"html-keyboard-response","103","476923","0.0-3.0-11.0-11.0-1.1","spark_pilot_norest","8367","6","20","Female","","","","","","","null","<div style=""font-size:60px;"">+</div>","null","fixation","","","","","","","","","","","",""
"learning-instructions","104","501054","0.0-3.0-12.0-0.0","spark_pilot_norest","8367","6","20","Female","","","","","","","19534.199999999255","<p> Before you start, we're going to ask you a few questions about how the game works. </p>","","instructions","","","","","","","","","","","",""
"comp-q","105","508679","0.0-3.0-13.0-0.0-0.0","spark_pilot_norest","8367","6","20","Female","","","","","","","2043.199999999255","<p> <b> True or False? </b> </p>
            <p> There can be 50 pieces of treasure in a given animal's chest. </p>","1","comp_question","","","","true","","","","","","","",""
"comp-q","106","519498","0.0-3.0-13.0-0.0-1.0","spark_pilot_norest","8367","6","20","Female","","","","","","","4157.300000000745","<p> <b> That's right! </b> The amount of treasure in each chest can range from 0 to 40 pieces. </p>","0","comp_answer","","","","","","","","","","","",""
"comp-q","107","527346","0.0-3.0-13.0-0.1-0.1","spark_pilot_norest","8367","6","20","Female","","","","","","","715.8000000007451","<p> <b> True or False? </b> </p><p> In this game, all animals have the same amount of treasure in their left and right chests. </p>","1","comp_question","","","","true","","","","","","","",""
"comp-q","108","533661","0.0-3.0-13.0-0.1-1.1","spark_pilot_norest","8367","6","20","Female","","","","","","","1072.2999999970198","<p> <b> That's right! </b> Animals have different amounts of treasure in their treasure chests. </p>","0","comp_answer","","","","","","","","","","","",""
"comp-q","109","540388","0.0-3.0-13.0-0.2-0.2","spark_pilot_norest","8367","6","20","Female","","","","","","","857.8999999985099","<p> <b> True or False? </b> </p><p> The same animal will always be there if you go up in the same place. </p>","1","comp_question","","","","false","","","","","","","",""
"comp-q","110","547886","0.0-3.0-13.0-0.2-1.2","spark_pilot_norest","8367","6","20","Female","","","","","","","1196.300000000745","<p> <b>Incorrect.</b> One animal lives in the upper part and one lives in the lower part of every place. </p>","0","comp_answer","","","","","","","","","","","",""
"comp-q","111","554443","0.0-3.0-13.0-0.3-0.3","spark_pilot_norest","8367","6","20","Female","","","","","","","743.1000000014901","<p> <b> True or False? </b> </p><p> The same animal will always be there if you go up in the same place. </p>","0","comp_question","","","","true","","","","","","","",""
"comp-q","112","562209","0.0-3.0-13.0-0.3-1.3","spark_pilot_norest","8367","6","20","Female","","","","","","","1319.300000000745","<p> <b> That's right! </b> One animal lives in the upper part and one lives in the lower part of every place. </p>","0","comp_answer","","","","","","","","","","","",""
"comp-q","113","568506","0.0-3.0-13.0-0.4-0.4","spark_pilot_norest","8367","6","20","Female","","","","","","","766.5","<p> <b> True or False? </b> </p><p> If you see a different picture, it means you are in a new place. </p>","1","comp_question","","","","true","","","","","","","",""
"comp-q","114","580710","0.0-3.0-13.0-0.4-1.4","spark_pilot_norest","8367","6","20","Female","","","","","","","960.1999999992549","<p> <b> That's right! </b> Lots of different images may show the same place. For example,  you may see three different images that all remind you that you are in outer space. </p>","0","comp_answer","","","","","","","","","","","",""
"learning-instructions","115","592055","0.0-3.0-14.0-0.0","spark_pilot_norest","8367","6","20","Female","","","","","","","1484.199999999255","<p> Good job. Remember to do your best because the amount of treasure you earn will be converted into bonus money. </p>
            <p> It’s time to start the real game! </p>","","instructions","","","","","","","","","","","",""
"learning-instructions","116","595799","0.0-4.0-0.0-0.0","spark_pilot_norest","8367","6","20","Female","","","","","","","969.2000000029802","<p> This time you are searching for treasure in the <b>canyon</b>.</p>","","instructions","","","","","","","","","","","",""
"learning-instructions","117","615500","0.0-4.0-0.0-0.1","spark_pilot_norest","8367","6","20","Female","","","","","","","2410.2999999970198","<p><b>New</b> animals with <b>new</b> treasure chests live here. You need to explore to discover where the animal with the best treasure chest is.</p>
                    <p> Like before, once you figure out which animal has the chest with the most treasure, you should try to get to that animal and select that chest! </p>","","instructions","","","","","","","","","","","",""
"learning-instructions","118","631351","0.0-4.0-1.0-0.0","spark_pilot_norest","8367","6","20","Female","","","","","","","1119.8999999985099","<p> Remember, when you see a picture of the place, use the up and down keys to <b>find an animal</b>.</p>
            <p> When you encounter an animal, you should use the left and right keys to <b>select a treasure chest</b>.</p>
            <p> Don't forget to look out for the robber! </p>","","instructions","","","","","","","","","","","",""
"revaluation","119","637383","0.0-4.0-2.0-0.0","spark_pilot_norest","8367","6","20","Female","","false","","","","","[755.4000000022352,699.5]","./assets/img/canyon/memory/34.jpg","[""ArrowUp"",""ArrowRight""]","value training","canyon","10","{""ArrowUp,ArrowLeft"":23,""ArrowUp,ArrowRight"":10,""ArrowDown,ArrowLeft"":8,""ArrowDown,ArrowRight"":30}","false","ArrowUp,ArrowRight","false","revaluation","1","0","","",""
"html-keyboard-response","120","637898","0.0-4.0-2.0-1.0","spark_pilot_norest","8367","6","20","Female","","","","","","","null","<div style=""font-size:60px;"">+</div>","null","fixation","","","","","","","","","1","","",""
"revaluation","121","643928","0.0-4.0-2.0-0.1","spark_pilot_norest","8367","6","20","Female","","false","","","","","[898.8000000007451,447.6000000014901]","./assets/img/canyon/memory/35.jpg","[""ArrowDown"",""ArrowRight""]","value training","canyon","30","{""ArrowUp,ArrowLeft"":23,""ArrowUp,ArrowRight"":10,""ArrowDown,ArrowLeft"":8,""ArrowDown,ArrowRight"":30}","true","ArrowDown,ArrowRight","false","revaluation","1","2","","",""
"html-keyboard-response","122","644444","0.0-4.0-2.0-1.1","spark_pilot_norest","8367","6","20","Female","","","","","","","null","<div style=""font-size:60px;"">+</div>","null","fixation","","","","","","","","","3","","",""
"revaluation","123","650467","0.0-4.0-2.0-0.2","spark_pilot_norest","8367","6","20","Female","","false","","","","","[1431.5,465.80000000074506]","./assets/img/canyon/memory/7.jpg","[""ArrowUp"",""ArrowLeft""]","value training","canyon","23","{""ArrowUp,ArrowLeft"":23,""ArrowUp,ArrowRight"":10,""ArrowDown,ArrowLeft"":8,""ArrowDown,ArrowRight"":30}","false","ArrowUp,ArrowLeft","false","revaluation","1","4","","",""
"html-keyboard-response","124","650982","0.0-4.0-2.0-1.2","spark_pilot_norest","8367","6","20","Female","","","","","","","null","<div style=""font-size:60px;"">+</div>","null","fixation","","","","","","","","","5","","",""
"revaluation","125","657014","0.0-4.0-2.0-0.3","spark_pilot_norest","8367","6","20","Female","","false","","","","","[465.20000000298023,1031.5]","./assets/img/canyon/memory/2.jpg","[""ArrowDown"",""ArrowLeft""]","value training","canyon","8","{""ArrowUp,ArrowLeft"":23,""ArrowUp,ArrowRight"":10,""ArrowDown,ArrowLeft"":8,""ArrowDown,ArrowRight"":30}","false","ArrowDown,ArrowLeft","false","revaluation","1","6","","",""
"html-keyboard-response","126","657530","0.0-4.0-2.0-1.3","spark_pilot_norest","8367","6","20","Female","","","","","","","null","<div style=""font-size:60px;"">+</div>","null","fixation","","","","","","","","","7","","",""
"revaluation","127","663538","0.0-4.0-2.0-0.4","spark_pilot_norest","8367","6","20","Female","","false","","","","","[625.3000000007451,362.19999999925494]","./assets/img/canyon/memory/41.jpg","[""ArrowDown"",""ArrowRight""]","value training","canyon","30","{""ArrowUp,ArrowLeft"":23,""ArrowUp,ArrowRight"":10,""ArrowDown,ArrowLeft"":8,""ArrowDown,ArrowRight"":30}","true","ArrowDown,ArrowRight","false","revaluation","1","8","","",""
"html-keyboard-response","128","664040","0.0-4.0-2.0-1.4","spark_pilot_norest","8367","6","20","Female","","","","","","","null","<div style=""font-size:60px;"">+</div>","null","fixation","","","","","","","","","9","","",""
"revaluation","129","670047","0.0-4.0-2.0-0.5","spark_pilot_norest","8367","6","20","Female","","false","","","","","[347.30000000074506,335.19999999925494]","./assets/img/canyon/memory/37.jpg","[""ArrowDown"",""ArrowRight""]","value training","canyon","30","{""ArrowUp,ArrowLeft"":23,""ArrowUp,ArrowRight"":10,""ArrowDown,ArrowLeft"":8,""ArrowDown,ArrowRight"":30}","true","ArrowDown,ArrowRight","false","revaluation","1","10","","",""
"html-keyboard-response","130","670550","0.0-4.0-2.0-1.5","spark_pilot_norest","8367","6","20","Female","","","","","","","null","<div style=""font-size:60px;"">+</div>","null","fixation","","","","","","","","","11","","",""
"revaluation","131","674558","0.0-4.0-2.0-0.6","spark_pilot_norest","8367","6","20","Female","","false","","","","","[737.0999999977648]","./assets/img/canyon/catch/5.jpg","[""spaceBar""]","value training","canyon","0","{""ArrowUp,ArrowLeft"":23,""ArrowUp,ArrowRight"":10,""ArrowDown,ArrowLeft"":8,""ArrowDown,ArrowRight"":30}","true","spaceBar","true","revaluation","1","12","","",""
"html-keyboard-response","132","675061","0.0-4.0-2.0-1.6","spark_pilot_norest","8367","6","20","Female","","","","","","","null","<div style=""font-size:60px;"">+</div>","null","fixation","","","","","","","","","13","","",""
"revaluation","133","681068","0.0-4.0-2.0-0.7","spark_pilot_norest","8367","6","20","Female","","false","","","","","[735.4000000022352,439]","./assets/img/canyon/memory/7.jpg","[""ArrowDown"",""ArrowRight""]","value training","canyon","30","{""ArrowUp,ArrowLeft"":23,""ArrowUp,ArrowRight"":10,""ArrowDown,ArrowLeft"":8,""ArrowDown,ArrowRight"":30}","true","ArrowDown,ArrowRight","false","revaluation","1","14","","",""
"html-keyboard-response","134","681570","0.0-4.0-2.0-1.7","spark_pilot_norest","8367","6","20","Female","","","","","","","null","<div style=""font-size:60px;"">+</div>","null","fixation","","","","","","","","","15","","",""
"revaluation","135","687578","0.0-4.0-2.0-0.8","spark_pilot_norest","8367","6","20","Female","","false","","","","","[963.5,464.5]","./assets/img/canyon/memory/15.jpg","[""ArrowDown"",""ArrowRight""]","value training","canyon","30","{""ArrowUp,ArrowLeft"":23,""ArrowUp,ArrowRight"":10,""ArrowDown,ArrowLeft"":8,""ArrowDown,ArrowRight"":30}","true","ArrowDown,ArrowRight","false","revaluation","1","16","","",""
"html-keyboard-response","136","688094","0.0-4.0-2.0-1.8","spark_pilot_norest","8367","6","20","Female","","","","","","","null","<div style=""font-size:60px;"">+</div>","null","fixation","","","","","","","","","17","","",""
"revaluation","137","692101","0.0-4.0-2.0-0.9","spark_pilot_norest","8367","6","20","Female","","false","","","","","[681.5]","./assets/img/canyon/catch/2.jpg","[""ArrowDown""]","value training","canyon","-10","{""ArrowUp,ArrowLeft"":23,""ArrowUp,ArrowRight"":10,""ArrowDown,ArrowLeft"":8,""ArrowDown,ArrowRight"":30}","false","ArrowDown","true","revaluation","1","18","","",""
"html-keyboard-response","138","692603","0.0-4.0-2.0-1.9","spark_pilot_norest","8367","6","20","Female","","","","","","","null","<div style=""font-size:60px;"">+</div>","null","fixation","","","","","","","","","19","","",""
"revaluation","139","696610","0.0-4.0-2.0-0.10","spark_pilot_norest","8367","6","20","Female","","false","","","","","[683.5999999977648]","./assets/img/canyon/catch/3.jpg","[""spaceBar""]","value training","canyon","0","{""ArrowUp,ArrowLeft"":23,""ArrowUp,ArrowRight"":10,""ArrowDown,ArrowLeft"":8,""ArrowDown,ArrowRight"":30}","true","spaceBar","true","revaluation","1","20","","",""
"html-keyboard-response","140","697112","0.0-4.0-2.0-1.10","spark_pilot_norest","8367","6","20","Female","","","","","","","null","<div style=""font-size:60px;"">+</div>","null","fixation","","","","","","","","","21","","",""
"revaluation","141","703135","0.0-4.0-2.0-0.11","spark_pilot_norest","8367","6","20","Female","","false","","","","","[837.0999999977648,418.6000000014901]","./assets/img/canyon/memory/37.jpg","[""ArrowDown"",""ArrowRight""]","value training","canyon","30","{""ArrowUp,ArrowLeft"":23,""ArrowUp,ArrowRight"":10,""ArrowDown,ArrowLeft"":8,""ArrowDown,ArrowRight"":30}","true","ArrowDown,ArrowRight","false","revaluation","1","22","","",""
"html-keyboard-response","142","703637","0.0-4.0-2.0-1.11","spark_pilot_norest","8367","6","20","Female","","","","","","","null","<div style=""font-size:60px;"">+</div>","null","fixation","","","","","","","","","23","","",""
"revaluation","143","709642","0.0-4.0-2.0-0.12","spark_pilot_norest","8367","6","20","Female","","false","","","","","[633,339.5]","./assets/img/canyon/memory/8.jpg","[""ArrowDown"",""ArrowRight""]","value training","canyon","30","{""ArrowUp,ArrowLeft"":23,""ArrowUp,ArrowRight"":10,""ArrowDown,ArrowLeft"":8,""ArrowDown,ArrowRight"":30}","true","ArrowDown,ArrowRight","false","revaluation","1","24","","",""
"html-keyboard-response","144","710144","0.0-4.0-2.0-1.12","spark_pilot_norest","8367","6","20","Female","","","","","","","null","<div style=""font-size:60px;"">+</div>","null","fixation","","","","","","","","","25","","",""
"revaluation","145","716151","0.0-4.0-2.0-0.13","spark_pilot_norest","8367","6","20","Female","","false","","","","","[599.2999999970198,336.80000000074506]","./assets/img/canyon/memory/5.jpg","[""ArrowDown"",""ArrowRight""]","value training","canyon","30","{""ArrowUp,ArrowLeft"":23,""ArrowUp,ArrowRight"":10,""ArrowDown,ArrowLeft"":8,""ArrowDown,ArrowRight"":30}","true","ArrowDown,ArrowRight","false","revaluation","1","26","","",""
"html-keyboard-response","146","716653","0.0-4.0-2.0-1.13","spark_pilot_norest","8367","6","20","Female","","","","","","","null","<div style=""font-size:60px;"">+</div>","null","fixation","","","","","","","","","27","","",""
"revaluation","147","720660","0.0-4.0-2.0-0.14","spark_pilot_norest","8367","6","20","Female","","false","","","","","[729.5]","./assets/img/canyon/catch/6.jpg","[""spaceBar""]","value training","canyon","0","{""ArrowUp,ArrowLeft"":23,""ArrowUp,ArrowRight"":10,""ArrowDown,ArrowLeft"":8,""ArrowDown,ArrowRight"":30}","true","spaceBar","true","revaluation","1","28","","",""
"html-keyboard-response","148","721162","0.0-4.0-2.0-1.14","spark_pilot_norest","8367","6","20","Female","","","","","","","null","<div style=""font-size:60px;"">+</div>","null","fixation","","","","","","","","","29","","",""
"revaluation","149","727169","0.0-4.0-2.0-0.15","spark_pilot_norest","8367","6","20","Female","","false","","","","","[1001.5,335.3999999985099]","./assets/img/canyon/memory/21.jpg","[""ArrowDown"",""ArrowRight""]","value training","canyon","30","{""ArrowUp,ArrowLeft"":23,""ArrowUp,ArrowRight"":10,""ArrowDown,ArrowLeft"":8,""ArrowDown,ArrowRight"":30}","true","ArrowDown,ArrowRight","false","revaluation","1","30","","",""
"html-keyboard-response","150","727671","0.0-4.0-2.0-1.15","spark_pilot_norest","8367","6","20","Female","","","","","","","null","<div style=""font-size:60px;"">+</div>","null","fixation","","","","","","","","","31","","",""
"revaluation","151","733679","0.0-4.0-2.0-0.16","spark_pilot_norest","8367","6","20","Female","","false","","","","","[430.69999999925494,370.69999999925494]","./assets/img/canyon/memory/12.jpg","[""ArrowDown"",""ArrowRight""]","value training","canyon","30","{""ArrowUp,ArrowLeft"":23,""ArrowUp,ArrowRight"":10,""ArrowDown,ArrowLeft"":8,""ArrowDown,ArrowRight"":30}","true","ArrowDown,ArrowRight","false","revaluation","1","32","","",""
"html-keyboard-response","152","734183","0.0-4.0-2.0-1.16","spark_pilot_norest","8367","6","20","Female","","","","","","","null","<div style=""font-size:60px;"">+</div>","null","fixation","","","","","","","","","33","","",""
"revaluation","153","740191","0.0-4.0-2.0-0.17","spark_pilot_norest","8367","6","20","Female","","false","","","","","[620.5999999977648,422.80000000074506]","./assets/img/canyon/memory/4.jpg","[""ArrowDown"",""ArrowRight""]","value training","canyon","30","{""ArrowUp,ArrowLeft"":23,""ArrowUp,ArrowRight"":10,""ArrowDown,ArrowLeft"":8,""ArrowDown,ArrowRight"":30}","true","ArrowDown,ArrowRight","false","revaluation","1","34","","",""
"html-keyboard-response","154","740692","0.0-4.0-2.0-1.17","spark_pilot_norest","8367","6","20","Female","","","","","","","null","<div style=""font-size:60px;"">+</div>","null","fixation","","","","","","","","","35","","",""
"revaluation","155","746701","0.0-4.0-2.0-0.18","spark_pilot_norest","8367","6","20","Female","","false","","","","","[631.6999999992549,360.4000000022352]","./assets/img/canyon/memory/14.jpg","[""ArrowDown"",""ArrowRight""]","value training","canyon","30","{""ArrowUp,ArrowLeft"":23,""ArrowUp,ArrowRight"":10,""ArrowDown,ArrowLeft"":8,""ArrowDown,ArrowRight"":30}","true","ArrowDown,ArrowRight","false","revaluation","1","36","","",""
"html-keyboard-response","156","747203","0.0-4.0-2.0-1.18","spark_pilot_norest","8367","6","20","Female","","","","","","","null","<div style=""font-size:60px;"">+</div>","null","fixation","","","","","","","","","37","","",""
"revaluation","157","753210","0.0-4.0-2.0-0.19","spark_pilot_norest","8367","6","20","Female","","false","","","","","[52.19999999925494,328.30000000074506]","./assets/img/canyon/memory/3.jpg","[""ArrowDown"",""ArrowRight""]","value training","canyon","30","{""ArrowUp,ArrowLeft"":23,""ArrowUp,ArrowRight"":10,""ArrowDown,ArrowLeft"":8,""ArrowDown,ArrowRight"":30}","true","ArrowDown,ArrowRight","false","revaluation","1","38","","",""
"html-keyboard-response","158","753713","0.0-4.0-2.0-1.19","spark_pilot_norest","8367","6","20","Female","","","","","","","null","<div style=""font-size:60px;"">+</div>","null","fixation","","","","","","","","","39","","",""
"revaluation","159","759721","0.0-4.0-2.0-0.20","spark_pilot_norest","8367","6","20","Female","","false","","","","","[637.8000000007451,344.19999999925494]","./assets/img/canyon/memory/8.jpg","[""ArrowDown"",""ArrowRight""]","value training","canyon","30","{""ArrowUp,ArrowLeft"":23,""ArrowUp,ArrowRight"":10,""ArrowDown,ArrowLeft"":8,""ArrowDown,ArrowRight"":30}","true","ArrowDown,ArrowRight","false","revaluation","1","40","","",""
"html-keyboard-response","160","760223","0.0-4.0-2.0-1.20","spark_pilot_norest","8367","6","20","Female","","","","","","","null","<div style=""font-size:60px;"">+</div>","null","fixation","","","","","","","","","41","","",""
"revaluation","161","766231","0.0-4.0-2.0-0.21","spark_pilot_norest","8367","6","20","Female","","false","","","","","[523,333.19999999925494]","./assets/img/canyon/memory/9.jpg","[""ArrowDown"",""ArrowRight""]","value training","canyon","30","{""ArrowUp,ArrowLeft"":23,""ArrowUp,ArrowRight"":10,""ArrowDown,ArrowLeft"":8,""ArrowDown,ArrowRight"":30}","true","ArrowDown,ArrowRight","false","revaluation","1","42","","",""
"html-keyboard-response","162","766733","0.0-4.0-2.0-1.21","spark_pilot_norest","8367","6","20","Female","","","","","","","null","<div style=""font-size:60px;"">+</div>","null","fixation","","","","","","","","","43","","",""
"revaluation","163","772741","0.0-4.0-2.0-0.22","spark_pilot_norest","8367","6","20","Female","","false","","","","","[589.1000000014901,319.5]","./assets/img/canyon/memory/11.jpg","[""ArrowDown"",""ArrowRight""]","value training","canyon","30","{""ArrowUp,ArrowLeft"":23,""ArrowUp,ArrowRight"":10,""ArrowDown,ArrowLeft"":8,""ArrowDown,ArrowRight"":30}","true","ArrowDown,ArrowRight","false","revaluation","1","44","","",""
"html-keyboard-response","164","773243","0.0-4.0-2.0-1.22","spark_pilot_norest","8367","6","20","Female","","","","","","","null","<div style=""font-size:60px;"">+</div>","null","fixation","","","","","","","","","45","","",""
"revaluation","165","779249","0.0-4.0-2.0-0.23","spark_pilot_norest","8367","6","20","Female","","false","","","","","[862.0999999977648,87.30000000074506]","./assets/img/canyon/memory/27.jpg","[""ArrowDown"",""ArrowRight""]","value training","canyon","30","{""ArrowUp,ArrowLeft"":23,""ArrowUp,ArrowRight"":10,""ArrowDown,ArrowLeft"":8,""ArrowDown,ArrowRight"":30}","true","ArrowDown,ArrowRight","false","revaluation","1","46","","",""
"html-keyboard-response","166","779751","0.0-4.0-2.0-1.23","spark_pilot_norest","8367","6","20","Female","","","","","","","null","<div style=""font-size:60px;"">+</div>","null","fixation","","","","","","","","","47","","",""
"revaluation","167","785771","0.0-4.0-2.0-0.24","spark_pilot_norest","8367","6","20","Female","","false","","","","","[749.5,369.70000000298023]","./assets/img/canyon/memory/40.jpg","[""ArrowDown"",""ArrowRight""]","value training","canyon","30","{""ArrowUp,ArrowLeft"":23,""ArrowUp,ArrowRight"":10,""ArrowDown,ArrowLeft"":8,""ArrowDown,ArrowRight"":30}","true","ArrowDown,ArrowRight","false","revaluation","1","48","","",""
"html-keyboard-response","168","786273","0.0-4.0-2.0-1.24","spark_pilot_norest","8367","6","20","Female","","","","","","","null","<div style=""font-size:60px;"">+</div>","null","fixation","","","","","","","","","49","","",""
"revaluation","169","790279","0.0-4.0-2.0-0.25","spark_pilot_norest","8367","6","20","Female","","false","","","","","[460.6000000014901]","./assets/img/canyon/catch/7.jpg","[""ArrowDown""]","value training","canyon","-10","{""ArrowUp,ArrowLeft"":23,""ArrowUp,ArrowRight"":10,""ArrowDown,ArrowLeft"":8,""ArrowDown,ArrowRight"":30}","false","ArrowDown","true","revaluation","1","50","","",""
"html-keyboard-response","170","790782","0.0-4.0-2.0-1.25","spark_pilot_norest","8367","6","20","Female","","","","","","","null","<div style=""font-size:60px;"">+</div>","null","fixation","","","","","","","","","51","","",""
"revaluation","171","796790","0.0-4.0-2.0-0.26","spark_pilot_norest","8367","6","20","Female","","false","","","","","[849.1999999992549,370.4000000022352]","./assets/img/canyon/memory/14.jpg","[""ArrowDown"",""ArrowRight""]","value training","canyon","30","{""ArrowUp,ArrowLeft"":23,""ArrowUp,ArrowRight"":10,""ArrowDown,ArrowLeft"":8,""ArrowDown,ArrowRight"":30}","true","ArrowDown,ArrowRight","false","revaluation","1","52","","",""
"html-keyboard-response","172","797293","0.0-4.0-2.0-1.26","spark_pilot_norest","8367","6","20","Female","","","","","","","null","<div style=""font-size:60px;"">+</div>","null","fixation","","","","","","","","","53","","",""
"revaluation","173","801299","0.0-4.0-2.0-0.27","spark_pilot_norest","8367","6","20","Female","","false","","","","","[687.6999999992549]","./assets/img/canyon/catch/0.jpg","[""spaceBar""]","value training","canyon","0","{""ArrowUp,ArrowLeft"":23,""ArrowUp,ArrowRight"":10,""ArrowDown,ArrowLeft"":8,""ArrowDown,ArrowRight"":30}","true","spaceBar","true","revaluation","1","54","","",""
"html-keyboard-response","174","801802","0.0-4.0-2.0-1.27","spark_pilot_norest","8367","6","20","Female","","","","","","","null","<div style=""font-size:60px;"">+</div>","null","fixation","","","","","","","","","55","","",""
"revaluation","175","807809","0.0-4.0-2.0-0.28","spark_pilot_norest","8367","6","20","Female","","false","","","","","[959.8000000007451,383.29999999701977]","./assets/img/canyon/memory/11.jpg","[""ArrowDown"",""ArrowRight""]","value training","canyon","30","{""ArrowUp,ArrowLeft"":23,""ArrowUp,ArrowRight"":10,""ArrowDown,ArrowLeft"":8,""ArrowDown,ArrowRight"":30}","true","ArrowDown,ArrowRight","false","revaluation","1","56","","",""
"html-keyboard-response","176","808311","0.0-4.0-2.0-1.28","spark_pilot_norest","8367","6","20","Female","","","","","","","null","<div style=""font-size:60px;"">+</div>","null","fixation","","","","","","","","","57","","",""
"revaluation","177","814318","0.0-4.0-2.0-0.29","spark_pilot_norest","8367","6","20","Female","","false","","","","","[681.8000000007451,317.29999999701977]","./assets/img/canyon/memory/4.jpg","[""ArrowDown"",""ArrowRight""]","value training","canyon","30","{""ArrowUp,ArrowLeft"":23,""ArrowUp,ArrowRight"":10,""ArrowDown,ArrowLeft"":8,""ArrowDown,ArrowRight"":30}","true","ArrowDown,ArrowRight","false","revaluation","1","58","","",""
"html-keyboard-response","178","814819","0.0-4.0-2.0-1.29","spark_pilot_norest","8367","6","20","Female","","","","","","","null","<div style=""font-size:60px;"">+</div>","null","fixation","","","","","","","","","59","","",""
"revaluation","179","818825","0.0-4.0-2.0-0.30","spark_pilot_norest","8367","6","20","Female","","false","","","","","[597.2000000029802]","./assets/img/canyon/catch/4.jpg","[""spaceBar""]","value training","canyon","0","{""ArrowUp,ArrowLeft"":23,""ArrowUp,ArrowRight"":10,""ArrowDown,ArrowLeft"":8,""ArrowDown,ArrowRight"":30}","true","spaceBar","true","revaluation","1","60","","",""
"html-keyboard-response","180","819326","0.0-4.0-2.0-1.30","spark_pilot_norest","8367","6","20","Female","","","","","","","null","<div style=""font-size:60px;"">+</div>","null","fixation","","","","","","","","","61","","",""
"revaluation","181","825332","0.0-4.0-2.0-0.31","spark_pilot_norest","8367","6","20","Female","","false","","","","","[561.0999999977648,844.1999999992549]","./assets/img/canyon/memory/2.jpg","[""ArrowDown"",""ArrowRight""]","value training","canyon","30","{""ArrowUp,ArrowLeft"":23,""ArrowUp,ArrowRight"":10,""ArrowDown,ArrowLeft"":8,""ArrowDown,ArrowRight"":30}","true","ArrowDown,ArrowRight","false","revaluation","1","62","","",""
"html-keyboard-response","182","825834","0.0-4.0-2.0-1.31","spark_pilot_norest","8367","6","20","Female","","","","","","","null","<div style=""font-size:60px;"">+</div>","null","fixation","","","","","","","","","63","","",""
"revaluation","183","831841","0.0-4.0-2.0-0.32","spark_pilot_norest","8367","6","20","Female","","false","","","","","[607.2999999970198,389.69999999925494]","./assets/img/canyon/memory/16.jpg","[""ArrowDown"",""ArrowRight""]","value training","canyon","30","{""ArrowUp,ArrowLeft"":23,""ArrowUp,ArrowRight"":10,""ArrowDown,ArrowLeft"":8,""ArrowDown,ArrowRight"":30}","true","ArrowDown,ArrowRight","false","revaluation","1","64","","",""
"html-keyboard-response","184","832344","0.0-4.0-2.0-1.32","spark_pilot_norest","8367","6","20","Female","","","","","","","null","<div style=""font-size:60px;"">+</div>","null","fixation","","","","","","","","","65","","",""
"revaluation","185","838352","0.0-4.0-2.0-0.33","spark_pilot_norest","8367","6","20","Female","","false","","","","","[836.6000000014901,272.9000000022352]","./assets/img/canyon/memory/41.jpg","[""ArrowDown"",""ArrowRight""]","value training","canyon","30","{""ArrowUp,ArrowLeft"":23,""ArrowUp,ArrowRight"":10,""ArrowDown,ArrowLeft"":8,""ArrowDown,ArrowRight"":30}","true","ArrowDown,ArrowRight","false","revaluation","1","66","","",""
"html-keyboard-response","186","838854","0.0-4.0-2.0-1.33","spark_pilot_norest","8367","6","20","Female","","","","","","","null","<div style=""font-size:60px;"">+</div>","null","fixation","","","","","","","","","67","","",""
"revaluation","187","844863","0.0-4.0-2.0-0.34","spark_pilot_norest","8367","6","20","Female","","false","","","","","[398.8999999985099,339.19999999925494]","./assets/img/canyon/memory/3.jpg","[""ArrowDown"",""ArrowRight""]","value training","canyon","30","{""ArrowUp,ArrowLeft"":23,""ArrowUp,ArrowRight"":10,""ArrowDown,ArrowLeft"":8,""ArrowDown,ArrowRight"":30}","true","ArrowDown,ArrowRight","false","revaluation","1","68","","",""
"html-keyboard-response","188","845365","0.0-4.0-2.0-1.34","spark_pilot_norest","8367","6","20","Female","","","","","","","null","<div style=""font-size:60px;"">+</div>","null","fixation","","","","","","","","","69","","",""
"revaluation","189","851370","0.0-4.0-2.0-0.35","spark_pilot_norest","8367","6","20","Female","","false","","","","","[830.1000000014901,250.39999999850988]","./assets/img/canyon/memory/34.jpg","[""ArrowDown"",""ArrowRight""]","value training","canyon","30","{""ArrowUp,ArrowLeft"":23,""ArrowUp,ArrowRight"":10,""ArrowDown,ArrowLeft"":8,""ArrowDown,ArrowRight"":30}","true","ArrowDown,ArrowRight","false","revaluation","1","70","","",""
"html-keyboard-response","190","851873","0.0-4.0-2.0-1.35","spark_pilot_norest","8367","6","20","Female","","","","","","","null","<div style=""font-size:60px;"">+</div>","null","fixation","","","","","","","","","71","","",""
"revaluation","191","857880","0.0-4.0-2.0-0.36","spark_pilot_norest","8367","6","20","Female","","false","","","","","[816.6999999992549,191.69999999925494]","./assets/img/canyon/memory/38.jpg","[""ArrowDown"",""ArrowRight""]","value training","canyon","30","{""ArrowUp,ArrowLeft"":23,""ArrowUp,ArrowRight"":10,""ArrowDown,ArrowLeft"":8,""ArrowDown,ArrowRight"":30}","true","ArrowDown,ArrowRight","false","revaluation","1","72","","",""
"html-keyboard-response","192","858382","0.0-4.0-2.0-1.36","spark_pilot_norest","8367","6","20","Female","","","","","","","null","<div style=""font-size:60px;"">+</div>","null","fixation","","","","","","","","","73","","",""
"revaluation","193","864391","0.0-4.0-2.0-0.37","spark_pilot_norest","8367","6","20","Female","","false","","","","","[818.8000000007451,449.0999999977648]","./assets/img/canyon/memory/35.jpg","[""ArrowDown"",""ArrowRight""]","value training","canyon","30","{""ArrowUp,ArrowLeft"":23,""ArrowUp,ArrowRight"":10,""ArrowDown,ArrowLeft"":8,""ArrowDown,ArrowRight"":30}","true","ArrowDown,ArrowRight","false","revaluation","1","74","","",""
"html-keyboard-response","194","864894","0.0-4.0-2.0-1.37","spark_pilot_norest","8367","6","20","Female","","","","","","","null","<div style=""font-size:60px;"">+</div>","null","fixation","","","","","","","","","75","","",""
"revaluation","195","870901","0.0-4.0-2.0-0.38","spark_pilot_norest","8367","6","20","Female","","false","","","","","[720.9000000022352,304]","./assets/img/canyon/memory/38.jpg","[""ArrowDown"",""ArrowRight""]","value training","canyon","30","{""ArrowUp,ArrowLeft"":23,""ArrowUp,ArrowRight"":10,""ArrowDown,ArrowLeft"":8,""ArrowDown,ArrowRight"":30}","true","ArrowDown,ArrowRight","false","revaluation","1","76","","",""
"html-keyboard-response","196","871402","0.0-4.0-2.0-1.38","spark_pilot_norest","8367","6","20","Female","","","","","","","null","<div style=""font-size:60px;"">+</div>","null","fixation","","","","","","","","","77","","",""
"revaluation","197","877421","0.0-4.0-2.0-0.39","spark_pilot_norest","8367","6","20","Female","","false","","","","","[621.0999999977648,357]","./assets/img/canyon/memory/9.jpg","[""ArrowDown"",""ArrowRight""]","value training","canyon","30","{""ArrowUp,ArrowLeft"":23,""ArrowUp,ArrowRight"":10,""ArrowDown,ArrowLeft"":8,""ArrowDown,ArrowRight"":30}","true","ArrowDown,ArrowRight","false","revaluation","1","78","","",""
"html-keyboard-response","198","877923","0.0-4.0-2.0-1.39","spark_pilot_norest","8367","6","20","Female","","","","","","","null","<div style=""font-size:60px;"">+</div>","null","fixation","","","","","","","","","79","","",""
"revaluation","199","883928","0.0-4.0-2.0-0.40","spark_pilot_norest","8367","6","20","Female","","false","","","","","[829.2999999970198,397]","./assets/img/canyon/memory/40.jpg","[""ArrowDown"",""ArrowRight""]","value training","canyon","30","{""ArrowUp,ArrowLeft"":23,""ArrowUp,ArrowRight"":10,""ArrowDown,ArrowLeft"":8,""ArrowDown,ArrowRight"":30}","true","ArrowDown,ArrowRight","false","revaluation","1","80","","",""
"html-keyboard-response","200","884430","0.0-4.0-2.0-1.40","spark_pilot_norest","8367","6","20","Female","","","","","","","null","<div style=""font-size:60px;"">+</div>","null","fixation","","","","","","","","","81","","",""
"revaluation","201","890438","0.0-4.0-2.0-0.41","spark_pilot_norest","8367","6","20","Female","","false","","","","","[762.3000000007451,264.19999999925494]","./assets/img/canyon/memory/16.jpg","[""ArrowDown"",""ArrowRight""]","value training","canyon","30","{""ArrowUp,ArrowLeft"":23,""ArrowUp,ArrowRight"":10,""ArrowDown,ArrowLeft"":8,""ArrowDown,ArrowRight"":30}","true","ArrowDown,ArrowRight","false","revaluation","1","82","","",""
"html-keyboard-response","202","890941","0.0-4.0-2.0-1.41","spark_pilot_norest","8367","6","20","Female","","","","","","","null","<div style=""font-size:60px;"">+</div>","null","fixation","","","","","","","","","83","","",""
"revaluation","203","896956","0.0-4.0-2.0-0.42","spark_pilot_norest","8367","6","20","Female","","false","","","","","[478.19999999925494,149.5]","./assets/img/canyon/memory/15.jpg","[""ArrowDown"",""ArrowRight""]","value training","canyon","30","{""ArrowUp,ArrowLeft"":23,""ArrowUp,ArrowRight"":10,""ArrowDown,ArrowLeft"":8,""ArrowDown,ArrowRight"":30}","true","ArrowDown,ArrowRight","false","revaluation","1","84","","",""
"html-keyboard-response","204","897458","0.0-4.0-2.0-1.42","spark_pilot_norest","8367","6","20","Female","","","","","","","null","<div style=""font-size:60px;"">+</div>","null","fixation","","","","","","","","","85","","",""
"revaluation","205","903463","0.0-4.0-2.0-0.43","spark_pilot_norest","8367","6","20","Female","","false","","","","","[804.9000000022352,185.60000000149012]","./assets/img/canyon/memory/23.jpg","[""ArrowDown"",""ArrowRight""]","value training","canyon","30","{""ArrowUp,ArrowLeft"":23,""ArrowUp,ArrowRight"":10,""ArrowDown,ArrowLeft"":8,""ArrowDown,ArrowRight"":30}","true","ArrowDown,ArrowRight","false","revaluation","1","86","","",""
"html-keyboard-response","206","903965","0.0-4.0-2.0-1.43","spark_pilot_norest","8367","6","20","Female","","","","","","","null","<div style=""font-size:60px;"">+</div>","null","fixation","","","","","","","","","87","","",""
"revaluation","207","909975","0.0-4.0-2.0-0.44","spark_pilot_norest","8367","6","20","Female","","false","","","","","[905.7000000029802,895.7000000029802]","./assets/img/canyon/memory/21.jpg","[""ArrowDown"",""ArrowRight""]","value training","canyon","30","{""ArrowUp,ArrowLeft"":23,""ArrowUp,ArrowRight"":10,""ArrowDown,ArrowLeft"":8,""ArrowDown,ArrowRight"":30}","true","ArrowDown,ArrowRight","false","revaluation","1","88","","",""
"html-keyboard-response","208","910477","0.0-4.0-2.0-1.44","spark_pilot_norest","8367","6","20","Female","","","","","","","null","<div style=""font-size:60px;"">+</div>","null","fixation","","","","","","","","","89","","",""
"revaluation","209","916484","0.0-4.0-2.0-0.45","spark_pilot_norest","8367","6","20","Female","","false","","","","","[811.3000000007451,441.1000000014901]","./assets/img/canyon/memory/27.jpg","[""ArrowDown"",""ArrowRight""]","value training","canyon","30","{""ArrowUp,ArrowLeft"":23,""ArrowUp,ArrowRight"":10,""ArrowDown,ArrowLeft"":8,""ArrowDown,ArrowRight"":30}","true","ArrowDown,ArrowRight","false","revaluation","1","90","","",""
"html-keyboard-response","210","916986","0.0-4.0-2.0-1.45","spark_pilot_norest","8367","6","20","Female","","","","","","","null","<div style=""font-size:60px;"">+</div>","null","fixation","","","","","","","","","91","","",""
"revaluation","211","922995","0.0-4.0-2.0-0.46","spark_pilot_norest","8367","6","20","Female","","false","","","","","[619.0999999977648,418]","./assets/img/canyon/memory/23.jpg","[""ArrowDown"",""ArrowRight""]","value training","canyon","30","{""ArrowUp,ArrowLeft"":23,""ArrowUp,ArrowRight"":10,""ArrowDown,ArrowLeft"":8,""ArrowDown,ArrowRight"":30}","true","ArrowDown,ArrowRight","false","revaluation","1","92","","",""
"html-keyboard-response","212","923497","0.0-4.0-2.0-1.46","spark_pilot_norest","8367","6","20","Female","","","","","","","null","<div style=""font-size:60px;"">+</div>","null","fixation","","","","","","","","","93","","",""
"revaluation","213","929516","0.0-4.0-2.0-0.47","spark_pilot_norest","8367","6","20","Female","","false","","","","","[439.0999999977648,235]","./assets/img/canyon/memory/12.jpg","[""ArrowDown"",""ArrowRight""]","value training","canyon","30","{""ArrowUp,ArrowLeft"":23,""ArrowUp,ArrowRight"":10,""ArrowDown,ArrowLeft"":8,""ArrowDown,ArrowRight"":30}","true","ArrowDown,ArrowRight","false","revaluation","1","94","","",""
"html-keyboard-response","214","930019","0.0-4.0-2.0-1.47","spark_pilot_norest","8367","6","20","Female","","","","","","","null","<div style=""font-size:60px;"">+</div>","null","fixation","","","","","","","","","95","","",""
"revaluation","215","934026","0.0-4.0-2.0-0.48","spark_pilot_norest","8367","6","20","Female","","false","","","","","[753.3000000007451]","./assets/img/canyon/catch/1.jpg","[""spaceBar""]","value training","canyon","0","{""ArrowUp,ArrowLeft"":23,""ArrowUp,ArrowRight"":10,""ArrowDown,ArrowLeft"":8,""ArrowDown,ArrowRight"":30}","true","spaceBar","true","revaluation","1","96","","",""
"html-keyboard-response","216","934528","0.0-4.0-2.0-1.48","spark_pilot_norest","8367","6","20","Female","","","","","","","null","<div style=""font-size:60px;"">+</div>","null","fixation","","","","","","","","","97","","",""
"revaluation","217","940535","0.0-4.0-2.0-0.49","spark_pilot_norest","8367","6","20","Female","","false","","","","","[469.69999999925494,121.5]","./assets/img/canyon/memory/5.jpg","[""ArrowDown"",""ArrowRight""]","value training","canyon","30","{""ArrowUp,ArrowLeft"":23,""ArrowUp,ArrowRight"":10,""ArrowDown,ArrowLeft"":8,""ArrowDown,ArrowRight"":30}","true","ArrowDown,ArrowRight","false","revaluation","1","98","","",""
"html-keyboard-response","218","941037","0.0-4.0-2.0-1.49","spark_pilot_norest","8367","6","20","Female","","","","","","","null","<div style=""font-size:60px;"">+</div>","null","fixation","","","","","","","","","99","","",""
"learning-instructions","219","956157","0.0-4.0-3.0-0.0","spark_pilot_norest","8367","6","20","Female","","","","","","","1905.8999999985099","<p> Now, you will travel with a friend who will choose whether you go up or down first. </p>
            <p> On these turns, you will just see the animal that they found. You will still get to choose which chest to search for treasure.</p>","","instructions","","","","","","","","","","","",""
"revaluation","220","960180","0.0-4.0-4.0-0.0","spark_pilot_norest","8367","6","20","Female","","false","","","","","[872]","./assets/img/canyon/animals/lion.jpg","[""ArrowLeft""]","revaluation","canyon","27","{""ArrowUp,ArrowLeft"":27,""ArrowUp,ArrowRight"":15,""ArrowDown,ArrowLeft"":21,""ArrowDown,ArrowRight"":7}","true","ArrowUp,ArrowLeft","","revaluation","1","0","","",""
"html-keyboard-response","221","960694","0.0-4.0-4.0-1.0","spark_pilot_norest","8367","6","20","Female","","","","","","","null","<div style=""font-size:60px;"">+</div>","null","fixation","","","","","","","","","1","","",""
"revaluation","222","964731","0.0-4.0-4.0-0.1","spark_pilot_norest","8367","6","20","Female","","false","","","","","[673.6999999992549]","./assets/img/canyon/animals/lion.jpg","[""ArrowLeft""]","revaluation","canyon","27","{""ArrowUp,ArrowLeft"":27,""ArrowUp,ArrowRight"":15,""ArrowDown,ArrowLeft"":21,""ArrowDown,ArrowRight"":7}","true","ArrowUp,ArrowLeft","","revaluation","1","2","","",""
"html-keyboard-response","223","965243","0.0-4.0-4.0-1.1","spark_pilot_norest","8367","6","20","Female","","","","","","","null","<div style=""font-size:60px;"">+</div>","null","fixation","","","","","","","","","3","","",""
"revaluation","224","969261","0.0-4.0-4.0-0.2","spark_pilot_norest","8367","6","20","Female","","false","","","","","[413.1000000014901]","./assets/img/canyon/animals/lion.jpg","[""ArrowRight""]","revaluation","canyon","15","{""ArrowUp,ArrowLeft"":27,""ArrowUp,ArrowRight"":15,""ArrowDown,ArrowLeft"":21,""ArrowDown,ArrowRight"":7}","false","ArrowUp,ArrowRight","","revaluation","1","4","","",""
"html-keyboard-response","225","969777","0.0-4.0-4.0-1.2","spark_pilot_norest","8367","6","20","Female","","","","","","","null","<div style=""font-size:60px;"">+</div>","null","fixation","","","","","","","","","5","","",""
"revaluation","226","973812","0.0-4.0-4.0-0.3","spark_pilot_norest","8367","6","20","Female","","false","","","","","[384.30000000074506]","./assets/img/canyon/animals/lion.jpg","[""ArrowLeft""]","revaluation","canyon","27","{""ArrowUp,ArrowLeft"":27,""ArrowUp,ArrowRight"":15,""ArrowDown,ArrowLeft"":21,""ArrowDown,ArrowRight"":7}","true","ArrowUp,ArrowLeft","","revaluation","1","6","","",""
"html-keyboard-response","227","974327","0.0-4.0-4.0-1.3","spark_pilot_norest","8367","6","20","Female","","","","","","","null","<div style=""font-size:60px;"">+</div>","null","fixation","","","","","","","","","7","","",""
"revaluation","228","978345","0.0-4.0-4.0-0.4","spark_pilot_norest","8367","6","20","Female","","false","","","","","[889.3999999985099]","./assets/img/canyon/animals/giraffe.jpg","[""ArrowRight""]","revaluation","canyon","7","{""ArrowUp,ArrowLeft"":27,""ArrowUp,ArrowRight"":15,""ArrowDown,ArrowLeft"":21,""ArrowDown,ArrowRight"":7}","false","ArrowDown,ArrowRight","","revaluation","1","8","","",""
"html-keyboard-response","229","978861","0.0-4.0-4.0-1.4","spark_pilot_norest","8367","6","20","Female","","","","","","","null","<div style=""font-size:60px;"">+</div>","null","fixation","","","","","","","","","9","","",""
"revaluation","230","982895","0.0-4.0-4.0-0.5","spark_pilot_norest","8367","6","20","Female","","false","","","","","[512.6999999992549]","./assets/img/canyon/animals/giraffe.jpg","[""ArrowLeft""]","revaluation","canyon","21","{""ArrowUp,ArrowLeft"":27,""ArrowUp,ArrowRight"":15,""ArrowDown,ArrowLeft"":21,""ArrowDown,ArrowRight"":7}","true","ArrowDown,ArrowLeft","","revaluation","1","10","","",""
"html-keyboard-response","231","983412","0.0-4.0-4.0-1.5","spark_pilot_norest","8367","6","20","Female","","","","","","","null","<div style=""font-size:60px;"">+</div>","null","fixation","","","","","","","","","11","","",""
"revaluation","232","987419","0.0-4.0-4.0-0.6","spark_pilot_norest","8367","6","20","Female","","false","","","","","[825.0999999977648]","./assets/img/canyon/animals/giraffe.jpg","[""ArrowLeft""]","revaluation","canyon","21","{""ArrowUp,ArrowLeft"":27,""ArrowUp,ArrowRight"":15,""ArrowDown,ArrowLeft"":21,""ArrowDown,ArrowRight"":7}","true","ArrowDown,ArrowLeft","","revaluation","1","12","","",""
"html-keyboard-response","233","987922","0.0-4.0-4.0-1.6","spark_pilot_norest","8367","6","20","Female","","","","","","","null","<div style=""font-size:60px;"">+</div>","null","fixation","","","","","","","","","13","","",""
"revaluation","234","991931","0.0-4.0-4.0-0.7","spark_pilot_norest","8367","6","20","Female","","false","","","","","[493]","./assets/img/canyon/animals/lion.jpg","[""ArrowLeft""]","revaluation","canyon","27","{""ArrowUp,ArrowLeft"":27,""ArrowUp,ArrowRight"":15,""ArrowDown,ArrowLeft"":21,""ArrowDown,ArrowRight"":7}","true","ArrowUp,ArrowLeft","","revaluation","1","14","","",""
"html-keyboard-response","235","992434","0.0-4.0-4.0-1.7","spark_pilot_norest","8367","6","20","Female","","","","","","","null","<div style=""font-size:60px;"">+</div>","null","fixation","","","","","","","","","15","","",""
"revaluation","236","996440","0.0-4.0-4.0-0.8","spark_pilot_norest","8367","6","20","Female","","false","","","","","[537.9000000022352]","./assets/img/canyon/animals/giraffe.jpg","[""ArrowLeft""]","revaluation","canyon","21","{""ArrowUp,ArrowLeft"":27,""ArrowUp,ArrowRight"":15,""ArrowDown,ArrowLeft"":21,""ArrowDown,ArrowRight"":7}","true","ArrowDown,ArrowLeft","","revaluation","1","16","","",""
"html-keyboard-response","237","996941","0.0-4.0-4.0-1.8","spark_pilot_norest","8367","6","20","Female","","","","","","","null","<div style=""font-size:60px;"">+</div>","null","fixation","","","","","","","","","17","","",""
"revaluation","238","1000946","0.0-4.0-4.0-0.9","spark_pilot_norest","8367","6","20","Female","","false","","","","","[467]","./assets/img/canyon/animals/giraffe.jpg","[""ArrowLeft""]","revaluation","canyon","21","{""ArrowUp,ArrowLeft"":27,""ArrowUp,ArrowRight"":15,""ArrowDown,ArrowLeft"":21,""ArrowDown,ArrowRight"":7}","true","ArrowDown,ArrowLeft","","revaluation","1","18","","",""
"html-keyboard-response","239","1001447","0.0-4.0-4.0-1.9","spark_pilot_norest","8367","6","20","Female","","","","","","","null","<div style=""font-size:60px;"">+</div>","null","fixation","","","","","","","","","19","","",""
"revaluation","240","1005454","0.0-4.0-4.0-0.10","spark_pilot_norest","8367","6","20","Female","","false","","","","","[355.19999999925494]","./assets/img/canyon/animals/lion.jpg","[""ArrowLeft""]","revaluation","canyon","27","{""ArrowUp,ArrowLeft"":27,""ArrowUp,ArrowRight"":15,""ArrowDown,ArrowLeft"":21,""ArrowDown,ArrowRight"":7}","true","ArrowUp,ArrowLeft","","revaluation","1","20","","",""
"html-keyboard-response","241","1005959","0.0-4.0-4.0-1.10","spark_pilot_norest","8367","6","20","Female","","","","","","","null","<div style=""font-size:60px;"">+</div>","null","fixation","","","","","","","","","21","","",""
"revaluation","242","1009969","0.0-4.0-4.0-0.11","spark_pilot_norest","8367","6","20","Female","","false","","","","","[417.5999999977648]","./assets/img/canyon/animals/lion.jpg","[""ArrowLeft""]","revaluation","canyon","27","{""ArrowUp,ArrowLeft"":27,""ArrowUp,ArrowRight"":15,""ArrowDown,ArrowLeft"":21,""ArrowDown,ArrowRight"":7}","true","ArrowUp,ArrowLeft","","revaluation","1","22","","",""
"html-keyboard-response","243","1010472","0.0-4.0-4.0-1.11","spark_pilot_norest","8367","6","20","Female","","","","","","","null","<div style=""font-size:60px;"">+</div>","null","fixation","","","","","","","","","23","","",""
"revaluation","244","1014480","0.0-4.0-4.0-0.12","spark_pilot_norest","8367","6","20","Female","","false","","","","","[400.4000000022352]","./assets/img/canyon/animals/giraffe.jpg","[""ArrowLeft""]","revaluation","canyon","21","{""ArrowUp,ArrowLeft"":27,""ArrowUp,ArrowRight"":15,""ArrowDown,ArrowLeft"":21,""ArrowDown,ArrowRight"":7}","true","ArrowDown,ArrowLeft","","revaluation","1","24","","",""
"html-keyboard-response","245","1014983","0.0-4.0-4.0-1.12","spark_pilot_norest","8367","6","20","Female","","","","","","","null","<div style=""font-size:60px;"">+</div>","null","fixation","","","","","","","","","25","","",""
"revaluation","246","1018989","0.0-4.0-4.0-0.13","spark_pilot_norest","8367","6","20","Female","","false","","","","","[587.3999999985099]","./assets/img/canyon/animals/giraffe.jpg","[""ArrowLeft""]","revaluation","canyon","21","{""ArrowUp,ArrowLeft"":27,""ArrowUp,ArrowRight"":15,""ArrowDown,ArrowLeft"":21,""ArrowDown,ArrowRight"":7}","true","ArrowDown,ArrowLeft","","revaluation","1","26","","",""
"html-keyboard-response","247","1019491","0.0-4.0-4.0-1.13","spark_pilot_norest","8367","6","20","Female","","","","","","","null","<div style=""font-size:60px;"">+</div>","null","fixation","","","","","","","","","27","","",""
"revaluation","248","1023497","0.0-4.0-4.0-0.14","spark_pilot_norest","8367","6","20","Female","","false","","","","","[156.80000000074506]","./assets/img/canyon/animals/giraffe.jpg","[""ArrowLeft""]","revaluation","canyon","21","{""ArrowUp,ArrowLeft"":27,""ArrowUp,ArrowRight"":15,""ArrowDown,ArrowLeft"":21,""ArrowDown,ArrowRight"":7}","true","ArrowDown,ArrowLeft","","revaluation","1","28","","",""
"html-keyboard-response","249","1024000","0.0-4.0-4.0-1.14","spark_pilot_norest","8367","6","20","Female","","","","","","","null","<div style=""font-size:60px;"">+</div>","null","fixation","","","","","","","","","29","","",""
"revaluation","250","1028008","0.0-4.0-4.0-0.15","spark_pilot_norest","8367","6","20","Female","","false","","","","","[381.3999999985099]","./assets/img/canyon/animals/giraffe.jpg","[""ArrowLeft""]","revaluation","canyon","21","{""ArrowUp,ArrowLeft"":27,""ArrowUp,ArrowRight"":15,""ArrowDown,ArrowLeft"":21,""ArrowDown,ArrowRight"":7}","true","ArrowDown,ArrowLeft","","revaluation","1","30","","",""
"html-keyboard-response","251","1028510","0.0-4.0-4.0-1.15","spark_pilot_norest","8367","6","20","Female","","","","","","","null","<div style=""font-size:60px;"">+</div>","null","fixation","","","","","","","","","31","","",""
"revaluation","252","1032517","0.0-4.0-4.0-0.16","spark_pilot_norest","8367","6","20","Female","","false","","","","","[1260.5999999977648]","./assets/img/canyon/animals/lion.jpg","[""ArrowLeft""]","revaluation","canyon","27","{""ArrowUp,ArrowLeft"":27,""ArrowUp,ArrowRight"":15,""ArrowDown,ArrowLeft"":21,""ArrowDown,ArrowRight"":7}","true","ArrowUp,ArrowLeft","","revaluation","1","32","","",""
"html-keyboard-response","253","1033020","0.0-4.0-4.0-1.16","spark_pilot_norest","8367","6","20","Female","","","","","","","null","<div style=""font-size:60px;"">+</div>","null","fixation","","","","","","","","","33","","",""
"revaluation","254","1037027","0.0-4.0-4.0-0.17","spark_pilot_norest","8367","6","20","Female","","false","","","","","[396]","./assets/img/canyon/animals/lion.jpg","[""ArrowLeft""]","revaluation","canyon","27","{""ArrowUp,ArrowLeft"":27,""ArrowUp,ArrowRight"":15,""ArrowDown,ArrowLeft"":21,""ArrowDown,ArrowRight"":7}","true","ArrowUp,ArrowLeft","","revaluation","1","34","","",""
"html-keyboard-response","255","1037529","0.0-4.0-4.0-1.17","spark_pilot_norest","8367","6","20","Female","","","","","","","null","<div style=""font-size:60px;"">+</div>","null","fixation","","","","","","","","","35","","",""
"learning-instructions","256","1046041","0.0-4.0-5.0-0.0","spark_pilot_norest","8367","6","20","Female","","","","","","","null","<p> You have almost finished this part of the game! </p>
            <p> We are going to ask you to make a few more choices. </p>","","instructions","","","","","","","","","","","",""
"learning-instructions","257","1062029","0.0-4.0-5.0-0.1","spark_pilot_norest","8367","6","20","Female","","","","","","","null","<p> First, you need to decide whether to go up or down. When you see each picture, use the arrow keys to make your choice. </p>
            <p><b>You will not see which animal you found, but try to get to the one that will give you the most treasure.</b></p>","","instructions","","","","","","","","","","","",""
"html-keyboard-response","258","1063035","0.0-4.0-6.0-0.0","spark_pilot_norest","8367","6","20","Female","","","","","","","null","<div style=""font-size:100px;color:red;"">Starting in...</div>","null","","","","","","","","","","","","",""
"html-keyboard-response","259","1064041","0.0-4.0-6.0-1.0","spark_pilot_norest","8367","6","20","Female","","","","","","","null","<div style=""font-size:200px;color:red;"">3</div>","null","","","","","","","","","","","","",""
"html-keyboard-response","260","1065044","0.0-4.0-6.0-2.0","spark_pilot_norest","8367","6","20","Female","","","","","","","null","<div style=""font-size:200px;color:red;"">2</div>","null","","","","","","","","","","","","",""
"html-keyboard-response","261","1066062","0.0-4.0-6.0-3.0","spark_pilot_norest","8367","6","20","Female","","","","","","","null","<div style=""font-size:200px;color:red;"">1</div>","null","","","","","","","","","","","","",""
"revaluation","262","1066945","0.0-4.0-7.0-0.0","spark_pilot_norest","8367","6","20","Female","","false","","","","","[879]","./assets/img/canyon/test/0.jpg","[""ArrowDown""]","first stage test","canyon","0","{""ArrowUp,ArrowLeft"":27,""ArrowUp,ArrowRight"":15,""ArrowDown,ArrowLeft"":21,""ArrowDown,ArrowRight"":7}","false","ArrowDown","false","revaluation","1","","","",""
"html-keyboard-response","263","1067456","0.0-4.0-7.0-1.0","spark_pilot_norest","8367","6","20","Female","","","","","","","null","<div style=""font-size:60px;"">+</div>","null","fixation","","","","","","","","","","","",""
"revaluation","264","1068365","0.0-4.0-7.0-0.1","spark_pilot_norest","8367","6","20","Female","","false","","","","","[904.1999999992549]","./assets/img/canyon/test/1.jpg","[""ArrowDown""]","first stage test","canyon","0","{""ArrowUp,ArrowLeft"":27,""ArrowUp,ArrowRight"":15,""ArrowDown,ArrowLeft"":21,""ArrowDown,ArrowRight"":7}","false","ArrowDown","false","revaluation","1","","","",""
"html-keyboard-response","265","1068877","0.0-4.0-7.0-1.1","spark_pilot_norest","8367","6","20","Female","","","","","","","null","<div style=""font-size:60px;"">+</div>","null","fixation","","","","","","","","","","","",""
"revaluation","266","1069583","0.0-4.0-7.0-0.2","spark_pilot_norest","8367","6","20","Female","","false","","","","","[703.1999999992549]","./assets/img/canyon/test/2.jpg","[""ArrowDown""]","first stage test","canyon","0","{""ArrowUp,ArrowLeft"":27,""ArrowUp,ArrowRight"":15,""ArrowDown,ArrowLeft"":21,""ArrowDown,ArrowRight"":7}","false","ArrowDown","false","revaluation","1","","","",""
"html-keyboard-response","267","1070094","0.0-4.0-7.0-1.2","spark_pilot_norest","8367","6","20","Female","","","","","","","null","<div style=""font-size:60px;"">+</div>","null","fixation","","","","","","","","","","","",""
"revaluation","268","1071023","0.0-4.0-7.0-0.3","spark_pilot_norest","8367","6","20","Female","","false","","","","","[924.6999999992549]","./assets/img/canyon/test/3.jpg","[""ArrowDown""]","first stage test","canyon","0","{""ArrowUp,ArrowLeft"":27,""ArrowUp,ArrowRight"":15,""ArrowDown,ArrowLeft"":21,""ArrowDown,ArrowRight"":7}","false","ArrowDown","false","revaluation","1","","","",""
"html-keyboard-response","269","1071525","0.0-4.0-7.0-1.3","spark_pilot_norest","8367","6","20","Female","","","","","","","null","<div style=""font-size:60px;"">+</div>","null","fixation","","","","","","","","","","","",""
"learning-instructions","270","1084873","0.0-4.0-8.0-0.0","spark_pilot_norest","8367","6","20","Female","","","","","","","null","<p> Now you will see the animals again and can search their chests for treasure. </p>
            <p> This time, you will not see how much treasure you earned, but you will earn more bonus money for making better choices. </p>","","instructions","","","","","","","","","","","",""
"html-keyboard-response","271","1085886","0.0-4.0-9.0-0.0","spark_pilot_norest","8367","6","20","Female","","","","","","","null","<div style=""font-size:100px;color:red;"">Starting in...</div>","null","","","","","","","","","","","","",""
"html-keyboard-response","272","1086892","0.0-4.0-9.0-1.0","spark_pilot_norest","8367","6","20","Female","","","","","","","null","<div style=""font-size:200px;color:red;"">3</div>","null","","","","","","","","","","","","",""
"html-keyboard-response","273","1087904","0.0-4.0-9.0-2.0","spark_pilot_norest","8367","6","20","Female","","","","","","","null","<div style=""font-size:200px;color:red;"">2</div>","null","","","","","","","","","","","","",""
"html-keyboard-response","274","1088921","0.0-4.0-9.0-3.0","spark_pilot_norest","8367","6","20","Female","","","","","","","null","<div style=""font-size:200px;color:red;"">1</div>","null","","","","","","","","","","","","",""
"revaluation","275","1089797","0.0-4.0-10.0-0.0","spark_pilot_norest","8367","6","20","Female","","false","","","","","[871.4000000022352]","./assets/img/canyon/animals/lion.jpg","[""ArrowLeft""]","second stage test","canyon","0","{""ArrowUp,ArrowLeft"":27,""ArrowUp,ArrowRight"":15,""ArrowDown,ArrowLeft"":21,""ArrowDown,ArrowRight"":7}","true","ArrowUp,ArrowLeft","","revaluation","1","","","",""
"html-keyboard-response","276","1090306","0.0-4.0-10.0-1.0","spark_pilot_norest","8367","6","20","Female","","","","","","","null","<div style=""font-size:60px;"">+</div>","null","fixation","","","","","","","","","","","",""
"revaluation","277","1091015","0.0-4.0-10.0-0.1","spark_pilot_norest","8367","6","20","Female","","false","","","","","[705.8000000007451]","./assets/img/canyon/animals/lion.jpg","[""ArrowLeft""]","second stage test","canyon","0","{""ArrowUp,ArrowLeft"":27,""ArrowUp,ArrowRight"":15,""ArrowDown,ArrowLeft"":21,""ArrowDown,ArrowRight"":7}","true","ArrowUp,ArrowLeft","","revaluation","1","","","",""
"html-keyboard-response","278","1091522","0.0-4.0-10.0-1.1","spark_pilot_norest","8367","6","20","Female","","","","","","","null","<div style=""font-size:60px;"">+</div>","null","fixation","","","","","","","","","","","",""
"revaluation","279","1092094","0.0-4.0-10.0-0.2","spark_pilot_norest","8367","6","20","Female","","false","","","","","[567]","./assets/img/canyon/animals/lion.jpg","[""ArrowLeft""]","second stage test","canyon","0","{""ArrowUp,ArrowLeft"":27,""ArrowUp,ArrowRight"":15,""ArrowDown,ArrowLeft"":21,""ArrowDown,ArrowRight"":7}","true","ArrowUp,ArrowLeft","","revaluation","1","","","",""
"html-keyboard-response","280","1092604","0.0-4.0-10.0-1.2","spark_pilot_norest","8367","6","20","Female","","","","","","","null","<div style=""font-size:60px;"">+</div>","null","fixation","","","","","","","","","","","",""
"revaluation","281","1093169","0.0-4.0-10.0-0.3","spark_pilot_norest","8367","6","20","Female","","false","","","","","[560.3000000007451]","./assets/img/canyon/animals/lion.jpg","[""ArrowLeft""]","second stage test","canyon","0","{""ArrowUp,ArrowLeft"":27,""ArrowUp,ArrowRight"":15,""ArrowDown,ArrowLeft"":21,""ArrowDown,ArrowRight"":7}","true","ArrowUp,ArrowLeft","","revaluation","1","","","",""
"html-keyboard-response","282","1093686","0.0-4.0-10.0-1.3","spark_pilot_norest","8367","6","20","Female","","","","","","","null","<div style=""font-size:60px;"">+</div>","null","fixation","","","","","","","","","","","",""
"revaluation","283","1094324","0.0-4.0-10.0-0.4","spark_pilot_norest","8367","6","20","Female","","false","","","","","[634]","./assets/img/canyon/animals/giraffe.jpg","[""ArrowRight""]","second stage test","canyon","0","{""ArrowUp,ArrowLeft"":27,""ArrowUp,ArrowRight"":15,""ArrowDown,ArrowLeft"":21,""ArrowDown,ArrowRight"":7}","false","ArrowDown,ArrowRight","","revaluation","1","","","",""
"html-keyboard-response","284","1094840","0.0-4.0-10.0-1.4","spark_pilot_norest","8367","6","20","Female","","","","","","","null","<div style=""font-size:60px;"">+</div>","null","fixation","","","","","","","","","","","",""
"revaluation","285","1095342","0.0-4.0-10.0-0.5","spark_pilot_norest","8367","6","20","Female","","false","","","","","[497.19999999925494]","./assets/img/canyon/animals/giraffe.jpg","[""ArrowRight""]","second stage test","canyon","0","{""ArrowUp,ArrowLeft"":27,""ArrowUp,ArrowRight"":15,""ArrowDown,ArrowLeft"":21,""ArrowDown,ArrowRight"":7}","false","ArrowDown,ArrowRight","","revaluation","1","","","",""
"html-keyboard-response","286","1095856","0.0-4.0-10.0-1.5","spark_pilot_norest","8367","6","20","Female","","","","","","","null","<div style=""font-size:60px;"">+</div>","null","fixation","","","","","","","","","","","",""
"revaluation","287","1096328","0.0-4.0-10.0-0.6","spark_pilot_norest","8367","6","20","Female","","false","","","","","[470]","./assets/img/canyon/animals/giraffe.jpg","[""ArrowRight""]","second stage test","canyon","0","{""ArrowUp,ArrowLeft"":27,""ArrowUp,ArrowRight"":15,""ArrowDown,ArrowLeft"":21,""ArrowDown,ArrowRight"":7}","false","ArrowDown,ArrowRight","","revaluation","1","","","",""
"html-keyboard-response","288","1096834","0.0-4.0-10.0-1.6","spark_pilot_norest","8367","6","20","Female","","","","","","","null","<div style=""font-size:60px;"">+</div>","null","fixation","","","","","","","","","","","",""
"revaluation","289","1097288","0.0-4.0-10.0-0.7","spark_pilot_norest","8367","6","20","Female","","false","","","","","[449.0999999977648]","./assets/img/canyon/animals/giraffe.jpg","[""ArrowRight""]","second stage test","canyon","0","{""ArrowUp,ArrowLeft"":27,""ArrowUp,ArrowRight"":15,""ArrowDown,ArrowLeft"":21,""ArrowDown,ArrowRight"":7}","false","ArrowDown,ArrowRight","","revaluation","1","","","",""
"html-keyboard-response","290","1097790","0.0-4.0-10.0-1.7","spark_pilot_norest","8367","6","20","Female","","","","","","","null","<div style=""font-size:60px;"">+</div>","null","fixation","","","","","","","","","","","",""
"learning-instructions","291","1101759","0.0-4.0-0.1-0.2","spark_pilot_norest","8367","6","20","Female","","","","","","","1245.9000000022352","<p> This time you are searching for treasure in the <b>ocean</b>.</p>","","instructions","","","","","","","","","","","",""
"learning-instructions","292","1120081","0.0-4.0-0.1-0.3","spark_pilot_norest","8367","6","20","Female","","","","","","","1067.199999999255","<p><b>New</b> animals with <b>new</b> treasure chests live here. You need to explore to discover where the animal with the best treasure chest is.</p>
                    <p> Like before, once you figure out which animal has the chest with the most treasure, you should try to get to that animal and select that chest! </p>","","instructions","","","","","","","","","","","",""
"learning-instructions","293","1152697","0.0-4.0-1.1-0.1","spark_pilot_norest","8367","6","20","Female","","","","","","","17882.89999999851","<p> Remember, when you see a picture of the place, use the up and down keys to <b>find an animal</b>.</p>
            <p> When you encounter an animal, you should use the left and right keys to <b>select a treasure chest</b>.</p>
            <p> Don't forget to look out for the robber! </p>","","instructions","","","","","","","","","","","",""
"revaluation","294","1158720","0.0-4.0-2.1-0.50","spark_pilot_norest","8367","6","20","Female","","false","","","","","[1337.3999999985099,675.1999999992549]","./assets/img/ocean/memory/35.jpg","[""ArrowUp"",""ArrowLeft""]","value training","ocean","26","{""ArrowUp,ArrowLeft"":26,""ArrowUp,ArrowRight"":10,""ArrowDown,ArrowLeft"":5,""ArrowDown,ArrowRight"":17}","true","ArrowUp,ArrowLeft","false","original","2","0","","",""
"html-keyboard-response","295","1159236","0.0-4.0-2.1-1.50","spark_pilot_norest","8367","6","20","Female","","","","","","","null","<div style=""font-size:60px;"">+</div>","null","fixation","","","","","","","","","1","","",""
"revaluation","296","1165272","0.0-4.0-2.1-0.51","spark_pilot_norest","8367","6","20","Female","","false","","","","","[1388.199999999255,1216.9000000022352]","./assets/img/ocean/memory/37.jpg","[""ArrowUp"",""ArrowRight""]","value training","ocean","10","{""ArrowUp,ArrowLeft"":26,""ArrowUp,ArrowRight"":10,""ArrowDown,ArrowLeft"":5,""ArrowDown,ArrowRight"":17}","false","ArrowUp,ArrowRight","false","original","2","2","","",""
"html-keyboard-response","297","1165774","0.0-4.0-2.1-1.51","spark_pilot_norest","8367","6","20","Female","","","","","","","null","<div style=""font-size:60px;"">+</div>","null","fixation","","","","","","","","","3","","",""
"revaluation","298","1171779","0.0-4.0-2.1-0.52","spark_pilot_norest","8367","6","20","Female","","false","","","","","[622.9000000022352,1187.300000000745]","./assets/img/ocean/memory/2.jpg","[""ArrowDown"",""ArrowLeft""]","value training","ocean","5","{""ArrowUp,ArrowLeft"":26,""ArrowUp,ArrowRight"":10,""ArrowDown,ArrowLeft"":5,""ArrowDown,ArrowRight"":17}","false","ArrowDown,ArrowLeft","false","original","2","4","","",""
"html-keyboard-response","299","1172282","0.0-4.0-2.1-1.52","spark_pilot_norest","8367","6","20","Female","","","","","","","null","<div style=""font-size:60px;"">+</div>","null","fixation","","","","","","","","","5","","",""
"revaluation","300","1178288","0.0-4.0-2.1-0.53","spark_pilot_norest","8367","6","20","Female","","false","","","","","[1125.2000000029802,785]","./assets/img/ocean/memory/41.jpg","[""ArrowDown"",""ArrowRight""]","value training","ocean","17","{""ArrowUp,ArrowLeft"":26,""ArrowUp,ArrowRight"":10,""ArrowDown,ArrowLeft"":5,""ArrowDown,ArrowRight"":17}","false","ArrowDown,ArrowRight","false","original","2","6","","",""
"html-keyboard-response","301","1178789","0.0-4.0-2.1-1.53","spark_pilot_norest","8367","6","20","Female","","","","","","","null","<div style=""font-size:60px;"">+</div>","null","fixation","","","","","","","","","7","","",""
"revaluation","302","1182798","0.0-4.0-2.1-0.54","spark_pilot_norest","8367","6","20","Female","","true","","","","","[]","./assets/img/ocean/memory/4.jpg","[]","value training","ocean","-5","{""ArrowUp,ArrowLeft"":26,""ArrowUp,ArrowRight"":10,""ArrowDown,ArrowLeft"":5,""ArrowDown,ArrowRight"":17}","false","","false","original","2","8","","",""
"html-keyboard-response","303","1183300","0.0-4.0-2.1-1.54","spark_pilot_norest","8367","6","20","Female","","","","","","","null","<div style=""font-size:60px;"">+</div>","null","fixation","","","","","","","","","9","","",""
"revaluation","304","1189307","0.0-4.0-2.1-0.55","spark_pilot_norest","8367","6","20","Female","","false","","","","","[295.3999999985099,49]","./assets/img/ocean/memory/27.jpg","[""ArrowUp"",""ArrowLeft""]","value training","ocean","26","{""ArrowUp,ArrowLeft"":26,""ArrowUp,ArrowRight"":10,""ArrowDown,ArrowLeft"":5,""ArrowDown,ArrowRight"":17}","true","ArrowUp,ArrowLeft","false","original","2","10","","",""
"html-keyboard-response","305","1189809","0.0-4.0-2.1-1.55","spark_pilot_norest","8367","6","20","Female","","","","","","","null","<div style=""font-size:60px;"">+</div>","null","fixation","","","","","","","","","11","","",""
"revaluation","306","1195821","0.0-4.0-2.1-0.56","spark_pilot_norest","8367","6","20","Female","","false","","","","","[693.6999999992549,1035.199999999255]","./assets/img/ocean/memory/5.jpg","[""ArrowUp"",""ArrowLeft""]","value training","ocean","26","{""ArrowUp,ArrowLeft"":26,""ArrowUp,ArrowRight"":10,""ArrowDown,ArrowLeft"":5,""ArrowDown,ArrowRight"":17}","true","ArrowUp,ArrowLeft","false","original","2","12","","",""
"html-keyboard-response","307","1196322","0.0-4.0-2.1-1.56","spark_pilot_norest","8367","6","20","Female","","","","","","","null","<div style=""font-size:60px;"">+</div>","null","fixation","","","","","","","","","13","","",""
"revaluation","308","1202325","0.0-4.0-2.1-0.57","spark_pilot_norest","8367","6","20","Female","","false","","","","","[906.8999999985099,270.5999999977648]","./assets/img/ocean/memory/23.jpg","[""ArrowUp"",""ArrowLeft""]","value training","ocean","26","{""ArrowUp,ArrowLeft"":26,""ArrowUp,ArrowRight"":10,""ArrowDown,ArrowLeft"":5,""ArrowDown,ArrowRight"":17}","true","ArrowUp,ArrowLeft","false","original","2","14","","",""
"html-keyboard-response","309","1202827","0.0-4.0-2.1-1.57","spark_pilot_norest","8367","6","20","Female","","","","","","","null","<div style=""font-size:60px;"">+</div>","null","fixation","","","","","","","","","15","","",""
"revaluation","310","1206832","0.0-4.0-2.1-0.58","spark_pilot_norest","8367","6","20","Female","","false","","","","","[503.3999999985099]","./assets/img/ocean/catch/4.jpg","[""ArrowUp""]","value training","ocean","-10","{""ArrowUp,ArrowLeft"":26,""ArrowUp,ArrowRight"":10,""ArrowDown,ArrowLeft"":5,""ArrowDown,ArrowRight"":17}","false","ArrowUp","true","original","2","16","","",""
