"trial_type","trial_index","time_elapsed","internal_node_id","task_version","subject_id","assigned_condition","age","gender","success","timeout","failed_images","failed_audio","failed_video","browser_interaction","rt","stimulus","response","task_part","environment","score","rewardMap","correct","fullState","isCatch","condition","order","trial_num","key_press","ground_truth","bonus"
"pavlovia","0","1085","0.0-0.0","spark_pilot_norest","13778","3","18","Female","","","","","","","","","","","","","","","","","","","","","",""
"preload","1","6954","0.0-1.0","spark_pilot_norest","13778","3","18","Female","true","false","[]","[]","[]","[{""event"":""fullscreenenter"",""trial"":2,""time"":9504}]","","","","","","","","","","","","","","","",""
"fullscreen","2","10479","0.0-2.0","spark_pilot_norest","13778","3","18","Female","true","","","","","","","","","","","","","","","","","","","","",""
"audio-button-response","3","11779","0.0-3.0-0.0-0.0","spark_pilot_norest","13778","3","18","Female","","","","","","","1291","./assets/audio/audiotest/turtle.mp3","2","audio_test","","","","","","","","","","","",""
"learning-instructions","4","19770","0.0-3.0-1.0-0.0","spark_pilot_norest","13778","3","18","Female","","","","","","","1022.5","<p> Welcome! Please remember to stay in fullscreen mode and don't click away from the experiment. </p>","","instructions","","","","","","","","","","","",""
"learning-instructions","5","28881","0.0-3.0-1.0-0.1","spark_pilot_norest","13778","3","18","Female","","","","","","","694.2999999970198","<p> Today you will be playing a game to earn treasure. </p>
            <p> At the end of the experiment, you will earn a bonus based on how much treasure you find. </p>
            <img src='./assets/img/instructions/treasure.jpg' class='instructions-image'>","","instructions","","","","","","","","","","","",""
"learning-instructions","6","38203","0.0-3.0-1.0-0.2","spark_pilot_norest","13778","3","18","Female","","","","","","","1067.2999999970198","<p> Animals have hidden treasure in treasure chests. </p>
            <p> You need to first find an animal and then choose which of their treasure chests to search. </p>
            <img src='./assets/img/space/animals/cat.jpg' class='instructions-image'>","","instructions","","","","","","","","","","","",""
"learning-instructions","7","52505","0.0-3.0-1.0-0.3","spark_pilot_norest","13778","3","18","Female","","","","","","","1150.7999999970198","<p> In each round, you will search for treasure in a different place. In the real game, there will be two rounds. </p>
            <p> You will begin with a separate, practice round where you will search for treasure in outer space. </p>
            <img src='./assets/img/space/0.jpg' class='instructions-image'>","","instructions","","","","","","","","","","","",""
"learning-instructions","8","64582","0.0-3.0-1.0-0.4","spark_pilot_norest","13778","3","18","Female","","","","","","","672.2000000029802","<p> On every turn, you will see a picture of the place that you are in, but the specific image may be different each time. </p>
            <p> For example, both of these images mean you are in outer space. </p>
            <img src='./assets/img/instructions/outerspace.jpg' class='instructions-image'>","","instructions","","","","","","","","","","","",""
"learning-instructions","9","74011","0.0-3.0-1.0-0.5","spark_pilot_norest","13778","3","18","Female","","","","","","","1599.2000000029802","<p> You need to decide which direction to travel in. </p>
            <p> You can choose between going <b>up or down</b> by using the arrow keys. </p>
            <img src='./assets/img/instructions/updown.jpg' class='instructions-image'>","","instructions","","","","","","","","","","","",""
"learning-instructions","10","83810","0.0-3.0-1.0-0.6","spark_pilot_norest","13778","3","18","Female","","","","","","","988.1000000089407","<p> You will have <b>2 seconds</b> to make your choice. </p>
            <p> If you do not make a choice within 2 seconds, you will not find an animal or earn treasure. </p>
            <img src='./assets/img/instructions/2seconds.jpg' class='instructions-image'>","","instructions","","","","","","","","","","","",""
"learning-instructions","11","91447","0.0-3.0-1.0-0.7","spark_pilot_norest","13778","3","18","Female","","","","","","","592.1999999880791","<p> Let’s try practicing that now! </p>
            <p> When you see a picture of the place you are in, press the <b>up</b> key to travel up. </p>
            <img src='./assets/img/instructions/pressUp.jpg' class='instructions-image'>","","instructions","","","","","","","","","","","",""
"revaluation","12","95479","0.0-3.0-2.0-0.0","spark_pilot_norest","13778","3","18","Female","","false","","","","","[1159.699999988079]","./assets/img/space/0.jpg","[""ArrowUp""]","first stage practice","space","0","null","null","ArrowUp","false","","","","","",""
"html-keyboard-response","13","95984","0.0-3.0-2.0-1.0","spark_pilot_norest","13778","3","18","Female","","","","","","","null","<div style=""font-size:60px;"">+</div>","null","fixation","","","","","","","","","","","",""
"revaluation","14","100002","0.0-3.0-2.0-0.1","spark_pilot_norest","13778","3","18","Female","","false","","","","","[1005.0999999940395]","./assets/img/space/1.jpg","[""ArrowUp""]","first stage practice","space","0","null","null","ArrowUp","false","","","","","",""
"html-keyboard-response","15","100503","0.0-3.0-2.0-1.1","spark_pilot_norest","13778","3","18","Female","","","","","","","null","<div style=""font-size:60px;"">+</div>","null","fixation","","","","","","","","","","","",""
"revaluation","16","104530","0.0-3.0-2.0-0.2","spark_pilot_norest","13778","3","18","Female","","false","","","","","[374.8999999910593]","./assets/img/space/2.jpg","[""ArrowUp""]","first stage practice","space","0","null","null","ArrowUp","false","","","","","",""
"html-keyboard-response","17","105034","0.0-3.0-2.0-1.2","spark_pilot_norest","13778","3","18","Female","","","","","","","null","<div style=""font-size:60px;"">+</div>","null","fixation","","","","","","","","","","","",""
"learning-instructions","18","111167","0.0-3.0-3.0-0.0","spark_pilot_norest","13778","3","18","Female","","","","","","","1431.2999999970198","<p> Great job! Now try pressing the <b>down</b> key to travel down. </p>
            <img src='./assets/img/instructions/pressDown.jpg' class='instructions-image'>","","instructions","","","","","","","","","","","",""
"revaluation","19","115191","0.0-3.0-4.0-0.0","spark_pilot_norest","13778","3","18","Female","","false","","","","","[958.7999999970198]","./assets/img/space/3.jpg","[""ArrowDown""]","first stage practice","space","0","null","null","ArrowDown","false","","","","","",""
"html-keyboard-response","20","115708","0.0-3.0-4.0-1.0","spark_pilot_norest","13778","3","18","Female","","","","","","","null","<div style=""font-size:60px;"">+</div>","null","fixation","","","","","","","","","","","",""
"revaluation","21","119730","0.0-3.0-4.0-0.1","spark_pilot_norest","13778","3","18","Female","","false","","","","","[385.69999998807907]","./assets/img/space/4.jpg","[""ArrowDown""]","first stage practice","space","0","null","null","ArrowDown","false","","","","","",""
"html-keyboard-response","22","120241","0.0-3.0-4.0-1.1","spark_pilot_norest","13778","3","18","Female","","","","","","","null","<div style=""font-size:60px;"">+</div>","null","fixation","","","","","","","","","","","",""
"revaluation","23","124262","0.0-3.0-4.0-0.2","spark_pilot_norest","13778","3","18","Female","","false","","","","","[307]","./assets/img/space/5.jpg","[""ArrowDown""]","first stage practice","space","0","null","null","ArrowDown","false","","","","","",""
"html-keyboard-response","24","124774","0.0-3.0-4.0-1.2","spark_pilot_norest","13778","3","18","Female","","","","","","","null","<div style=""font-size:60px;"">+</div>","null","fixation","","","","","","","","","","","",""
"learning-instructions","25","136053","0.0-3.0-5.0-0.0","spark_pilot_norest","13778","3","18","Female","","","","","","","1431.0999999940395","<p> The animals don’t move, so the animal in the upper part of a place will stay in the upper part of a place, and the animal in the lower part of a place will stay in the lower part of a place. </p>","","instructions","","","","","","","","","","","",""
"learning-instructions","26","145830","0.0-3.0-5.0-0.1","spark_pilot_norest","13778","3","18","Female","","","","","","","648.7000000029802","<p> Each animal has two treasure chests for you to choose from. </p>
            <p> The amount of treasure in each chest can range from <b> 0 to 40 pieces.</b></p>","","instructions","","","","","","","","","","","",""
"learning-instructions","27","157723","0.0-3.0-5.0-0.2","spark_pilot_norest","13778","3","18","Female","","","","","","","711.2000000029802","<p> You should decide which chest to search for treasure by using the <b>left</b> and <b>right</b> arrow keys. </p>
            <p><b> Pay attention to which animal is on the screen, as the animals have different treasure chests. </b></p>
            <img src='./assets/img/instructions/leftright.jpg' class='instructions-image'>","","instructions","","","","","","","","","","","",""
"learning-instructions","28","164699","0.0-3.0-5.0-0.3","spark_pilot_norest","13778","3","18","Female","","","","","","","615.7999999970198","<p> Let’s try practicing that now. </p>
            <p> When you see an animal, choose which chest to search for treasure. </p>
            <img src='./assets/img/instructions/chooseChest.jpg' class='instructions-image'>","","instructions","","","","","","","","","","","",""
"revaluation","29","168713","0.0-3.0-6.0-0.0","spark_pilot_norest","13778","3","18","Female","","false","","","","","[1001]","./assets/img/space/animals/cat.jpg","[""ArrowLeft""]","second stage practice","space","3","{""ArrowUp,ArrowLeft"":3,""ArrowUp,ArrowRight"":36,""ArrowDown,ArrowLeft"":15,""ArrowDown,ArrowRight"":23}","false","ArrowUp,ArrowLeft","","","","","","",""
"html-keyboard-response","30","169224","0.0-3.0-6.0-1.0","spark_pilot_norest","13778","3","18","Female","","","","","","","null","<div style=""font-size:60px;"">+</div>","null","fixation","","","","","","","","","","","",""
"revaluation","31","173238","0.0-3.0-6.0-0.1","spark_pilot_norest","13778","3","18","Female","","false","","","","","[338.79999999701977]","./assets/img/space/animals/cat.jpg","[""ArrowRight""]","second stage practice","space","36","{""ArrowUp,ArrowLeft"":3,""ArrowUp,ArrowRight"":36,""ArrowDown,ArrowLeft"":15,""ArrowDown,ArrowRight"":23}","true","ArrowUp,ArrowRight","","","","","","",""
"html-keyboard-response","32","173742","0.0-3.0-6.0-1.1","spark_pilot_norest","13778","3","18","Female","","","","","","","null","<div style=""font-size:60px;"">+</div>","null","fixation","","","","","","","","","","","",""
"revaluation","33","177766","0.0-3.0-6.0-0.2","spark_pilot_norest","13778","3","18","Female","","false","","","","","[234.20000000298023]","./assets/img/space/animals/rabbit.jpg","[""ArrowRight""]","second stage practice","space","23","{""ArrowUp,ArrowLeft"":3,""ArrowUp,ArrowRight"":36,""ArrowDown,ArrowLeft"":15,""ArrowDown,ArrowRight"":23}","true","ArrowDown,ArrowRight","","","","","","",""
"html-keyboard-response","34","178277","0.0-3.0-6.0-1.2","spark_pilot_norest","13778","3","18","Female","","","","","","","null","<div style=""font-size:60px;"">+</div>","null","fixation","","","","","","","","","","","",""
"revaluation","35","182302","0.0-3.0-6.0-0.3","spark_pilot_norest","13778","3","18","Female","","false","","","","","[317.3999999910593]","./assets/img/space/animals/rabbit.jpg","[""ArrowLeft""]","second stage practice","space","15","{""ArrowUp,ArrowLeft"":3,""ArrowUp,ArrowRight"":36,""ArrowDown,ArrowLeft"":15,""ArrowDown,ArrowRight"":23}","false","ArrowDown,ArrowLeft","","","","","","",""
"html-keyboard-response","36","182809","0.0-3.0-6.0-1.3","spark_pilot_norest","13778","3","18","Female","","","","","","","null","<div style=""font-size:60px;"">+</div>","null","fixation","","","","","","","","","","","",""
"learning-instructions","37","200555","0.0-3.0-7.0-0.0","spark_pilot_norest","13778","3","18","Female","","","","","","","928.3999999910593","<p> Great job. Now let’s try putting it together. </p>
            <p> On each turn, you will first see a picture to remind you of the place you are in, and you need to choose whether to go up or down. </p>
            <p> Then you will see an animal and choose which of its chests to search for treasure. </p>","","instructions","","","","","","","","","","","",""
"learning-instructions","38","209525","0.0-3.0-7.0-0.1","spark_pilot_norest","13778","3","18","Female","","","","","","","714.2000000029802","<p> When you choose whether to go up or down, try to go to the animal with the chest with the most treasure. </p>
            <p> Try practicing that now! </p>","","instructions","","","","","","","","","","","",""
"revaluation","39","215562","0.0-3.0-8.0-0.0","spark_pilot_norest","13778","3","18","Female","","false","","","","","[1362.0999999940395,526.7000000029802]","./assets/img/space/6.jpg","[""ArrowUp"",""ArrowLeft""]","full practice","space","3","{""ArrowUp,ArrowLeft"":3,""ArrowUp,ArrowRight"":36,""ArrowDown,ArrowLeft"":15,""ArrowDown,ArrowRight"":23}","false","ArrowUp,ArrowLeft","false","","","","","",""
"html-keyboard-response","40","216074","0.0-3.0-8.0-1.0","spark_pilot_norest","13778","3","18","Female","","","","","","","null","<div style=""font-size:60px;"">+</div>","null","fixation","","","","","","","","","","","",""
"revaluation","41","222106","0.0-3.0-8.0-0.1","spark_pilot_norest","13778","3","18","Female","","false","","","","","[486.19999998807907,520.0999999940395]","./assets/img/space/7.jpg","[""ArrowDown"",""ArrowRight""]","full practice","space","23","{""ArrowUp,ArrowLeft"":3,""ArrowUp,ArrowRight"":36,""ArrowDown,ArrowLeft"":15,""ArrowDown,ArrowRight"":23}","false","ArrowDown,ArrowRight","false","","","","","",""
"html-keyboard-response","42","222623","0.0-3.0-8.0-1.1","spark_pilot_norest","13778","3","18","Female","","","","","","","null","<div style=""font-size:60px;"">+</div>","null","fixation","","","","","","","","","","","",""
"revaluation","43","228656","0.0-3.0-8.0-0.2","spark_pilot_norest","13778","3","18","Female","","false","","","","","[468.70000000298023,432.6000000089407]","./assets/img/space/8.jpg","[""ArrowDown"",""ArrowRight""]","full practice","space","23","{""ArrowUp,ArrowLeft"":3,""ArrowUp,ArrowRight"":36,""ArrowDown,ArrowLeft"":15,""ArrowDown,ArrowRight"":23}","false","ArrowDown,ArrowRight","false","","","","","",""
"html-keyboard-response","44","229172","0.0-3.0-8.0-1.2","spark_pilot_norest","13778","3","18","Female","","","","","","","null","<div style=""font-size:60px;"">+</div>","null","fixation","","","","","","","","","","","",""
"revaluation","45","235200","0.0-3.0-8.0-0.3","spark_pilot_norest","13778","3","18","Female","","false","","","","","[525.0999999940395,943.8999999910593]","./assets/img/space/9.jpg","[""ArrowDown"",""ArrowLeft""]","full practice","space","15","{""ArrowUp,ArrowLeft"":3,""ArrowUp,ArrowRight"":36,""ArrowDown,ArrowLeft"":15,""ArrowDown,ArrowRight"":23}","false","ArrowDown,ArrowLeft","false","","","","","",""
"html-keyboard-response","46","235705","0.0-3.0-8.0-1.3","spark_pilot_norest","13778","3","18","Female","","","","","","","null","<div style=""font-size:60px;"">+</div>","null","fixation","","","","","","","","","","","",""
"revaluation","47","241731","0.0-3.0-8.0-0.4","spark_pilot_norest","13778","3","18","Female","","false","","","","","[1067.7000000029802,577.9000000059605]","./assets/img/space/10.jpg","[""ArrowDown"",""ArrowRight""]","full practice","space","23","{""ArrowUp,ArrowLeft"":3,""ArrowUp,ArrowRight"":36,""ArrowDown,ArrowLeft"":15,""ArrowDown,ArrowRight"":23}","false","ArrowDown,ArrowRight","false","","","","","",""
"html-keyboard-response","48","242239","0.0-3.0-8.0-1.4","spark_pilot_norest","13778","3","18","Female","","","","","","","null","<div style=""font-size:60px;"">+</div>","null","fixation","","","","","","","","","","","",""
"learning-instructions","49","254092","0.0-3.0-9.0-0.0","spark_pilot_norest","13778","3","18","Female","","","","","","","1542.4000000059605","<p> One last thing: sometimes, you will see a robber. The robber can be anywhere in the picture. </p>
            <p> If you do not stop them, you will lose treasure. </p>
            <img src='./assets/img/instructions/robber.jpg' class='instructions-image'>","","instructions","","","","","","","","","","","",""
"learning-instructions","50","262814","0.0-3.0-9.0-0.1","spark_pilot_norest","13778","3","18","Female","","","","","","","1560.3999999910593","<p> If you see the robber, you should <b>press the space bar</b> rather than using the arrow keys. </p>
            <p> Try practicing that now! </p>","","instructions","","","","","","","","","","","",""
"revaluation","51","266823","0.0-3.0-10.0-0.0","spark_pilot_norest","13778","3","18","Female","","false","","","","","[1279.5]","./assets/img/space/catch/0.jpg","[""spaceBar""]","catch practice","space","0","{""ArrowUp,ArrowLeft"":3,""ArrowUp,ArrowRight"":36,""ArrowDown,ArrowLeft"":15,""ArrowDown,ArrowRight"":23}","true","spaceBar","true","","","","","",""
"html-keyboard-response","52","267324","0.0-3.0-10.0-1.0","spark_pilot_norest","13778","3","18","Female","","","","","","","null","<div style=""font-size:60px;"">+</div>","null","fixation","","","","","","","","","","","",""
"revaluation","53","271333","0.0-3.0-10.0-0.1","spark_pilot_norest","13778","3","18","Female","","false","","","","","[1112.3999999910593]","./assets/img/space/catch/1.jpg","[""spaceBar""]","catch practice","space","0","{""ArrowUp,ArrowLeft"":3,""ArrowUp,ArrowRight"":36,""ArrowDown,ArrowLeft"":15,""ArrowDown,ArrowRight"":23}","true","spaceBar","true","","","","","",""
"html-keyboard-response","54","271842","0.0-3.0-10.0-1.1","spark_pilot_norest","13778","3","18","Female","","","","","","","null","<div style=""font-size:60px;"">+</div>","null","fixation","","","","","","","","","","","",""
"revaluation","55","275861","0.0-3.0-10.0-0.2","spark_pilot_norest","13778","3","18","Female","","false","","","","","[799.8000000119209]","./assets/img/space/catch/2.jpg","[""spaceBar""]","catch practice","space","0","{""ArrowUp,ArrowLeft"":3,""ArrowUp,ArrowRight"":36,""ArrowDown,ArrowLeft"":15,""ArrowDown,ArrowRight"":23}","true","spaceBar","true","","","","","",""
"html-keyboard-response","56","276371","0.0-3.0-10.0-1.2","spark_pilot_norest","13778","3","18","Female","","","","","","","null","<div style=""font-size:60px;"">+</div>","null","fixation","","","","","","","","","","","",""
"learning-instructions","57","282897","0.0-3.0-11.0-0.0-0.0","spark_pilot_norest","13778","3","18","Female","","","","","","","1269.8999999910593","<p> Now, you will practice a shortened version of the game to get a sense of how it all fits together. </p>","","instructions","","","","","","","","","","","",""
"learning-instructions","58","286743","0.0-3.0-11.0-0.0-0.1","spark_pilot_norest","13778","3","18","Female","","","","","","","656.7999999970198","<p>This time you are searching for treasure in outer space.</p>","","instructions","","","","","","","","","","","",""
"learning-instructions","59","302517","0.0-3.0-11.0-1.0-0.0","spark_pilot_norest","13778","3","18","Female","","","","","","","1017.0999999940395","<p> Remember, when you see a picture of the place, use the up and down keys to <b>find an animal</b>.</p>
            <p> When you encounter an animal, you should use the left and right keys to <b>select a treasure chest</b>.</p>
            <p> Don't forget to look out for the robber! </p>","","instructions","","","","","","","","","","","",""
"revaluation","60","308550","0.0-3.0-11.0-2.0-0.0","spark_pilot_norest","13778","3","18","Female","","false","","","","","[1424.5,562.4000000059605]","./assets/img/space/11.jpg","[""ArrowDown"",""ArrowLeft""]","practice block","space","15","{""ArrowUp,ArrowLeft"":3,""ArrowUp,ArrowRight"":36,""ArrowDown,ArrowLeft"":15,""ArrowDown,ArrowRight"":23}","false","ArrowDown,ArrowLeft","false","","","","","",""
"html-keyboard-response","61","309068","0.0-3.0-11.0-2.0-1.0","spark_pilot_norest","13778","3","18","Female","","","","","","","null","<div style=""font-size:60px;"">+</div>","null","fixation","","","","","","","","","","","",""
"revaluation","62","315105","0.0-3.0-11.0-2.0-0.1","spark_pilot_norest","13778","3","18","Female","","false","","","","","[273.79999999701977,365.69999998807907]","./assets/img/space/12.jpg","[""ArrowDown"",""ArrowRight""]","practice block","space","23","{""ArrowUp,ArrowLeft"":3,""ArrowUp,ArrowRight"":36,""ArrowDown,ArrowLeft"":15,""ArrowDown,ArrowRight"":23}","false","ArrowDown,ArrowRight","false","","","","","",""
"html-keyboard-response","63","315617","0.0-3.0-11.0-2.0-1.1","spark_pilot_norest","13778","3","18","Female","","","","","","","null","<div style=""font-size:60px;"">+</div>","null","fixation","","","","","","","","","","","",""
"revaluation","64","321641","0.0-3.0-11.0-2.0-0.2","spark_pilot_norest","13778","3","18","Female","","false","","","","","[355.29999999701977,286.29999999701977]","./assets/img/space/13.jpg","[""ArrowUp"",""ArrowLeft""]","practice block","space","3","{""ArrowUp,ArrowLeft"":3,""ArrowUp,ArrowRight"":36,""ArrowDown,ArrowLeft"":15,""ArrowDown,ArrowRight"":23}","false","ArrowUp,ArrowLeft","false","","","","","",""
"html-keyboard-response","65","322156","0.0-3.0-11.0-2.0-1.2","spark_pilot_norest","13778","3","18","Female","","","","","","","null","<div style=""font-size:60px;"">+</div>","null","fixation","","","","","","","","","","","",""
"revaluation","66","328193","0.0-3.0-11.0-2.0-0.3","spark_pilot_norest","13778","3","18","Female","","false","","","","","[587,307.20000000298023]","./assets/img/space/14.jpg","[""ArrowUp"",""ArrowRight""]","practice block","space","36","{""ArrowUp,ArrowLeft"":3,""ArrowUp,ArrowRight"":36,""ArrowDown,ArrowLeft"":15,""ArrowDown,ArrowRight"":23}","true","ArrowUp,ArrowRight","false","","","","","",""
"html-keyboard-response","67","328710","0.0-3.0-11.0-2.0-1.3","spark_pilot_norest","13778","3","18","Female","","","","","","","null","<div style=""font-size:60px;"">+</div>","null","fixation","","","","","","","","","","","",""
"revaluation","68","334736","0.0-3.0-11.0-2.0-0.4","spark_pilot_norest","13778","3","18","Female","","false","","","","","[587.9000000059605,326]","./assets/img/space/11.jpg","[""ArrowUp"",""ArrowRight""]","practice block","space","36","{""ArrowUp,ArrowLeft"":3,""ArrowUp,ArrowRight"":36,""ArrowDown,ArrowLeft"":15,""ArrowDown,ArrowRight"":23}","true","ArrowUp,ArrowRight","false","","","","","",""
"html-keyboard-response","69","335237","0.0-3.0-11.0-2.0-1.4","spark_pilot_norest","13778","3","18","Female","","","","","","","null","<div style=""font-size:60px;"">+</div>","null","fixation","","","","","","","","","","","",""
"revaluation","70","341255","0.0-3.0-11.0-2.0-0.5","spark_pilot_norest","13778","3","18","Female","","false","","","","","[380.20000000298023,365.70000000298023]","./assets/img/space/12.jpg","[""ArrowUp"",""ArrowRight""]","practice block","space","36","{""ArrowUp,ArrowLeft"":3,""ArrowUp,ArrowRight"":36,""ArrowDown,ArrowLeft"":15,""ArrowDown,ArrowRight"":23}","true","ArrowUp,ArrowRight","false","","","","","",""
"html-keyboard-response","71","341758","0.0-3.0-11.0-2.0-1.5","spark_pilot_norest","13778","3","18","Female","","","","","","","null","<div style=""font-size:60px;"">+</div>","null","fixation","","","","","","","","","","","",""
"revaluation","72","347784","0.0-3.0-11.0-2.0-0.6","spark_pilot_norest","13778","3","18","Female","","false","","","","","[1046,352.79999999701977]","./assets/img/space/13.jpg","[""ArrowUp"",""ArrowRight""]","practice block","space","36","{""ArrowUp,ArrowLeft"":3,""ArrowUp,ArrowRight"":36,""ArrowDown,ArrowLeft"":15,""ArrowDown,ArrowRight"":23}","true","ArrowUp,ArrowRight","false","","","","","",""
"html-keyboard-response","73","348296","0.0-3.0-11.0-2.0-1.6","spark_pilot_norest","13778","3","18","Female","","","","","","","null","<div style=""font-size:60px;"">+</div>","null","fixation","","","","","","","","","","","",""
"revaluation","74","354315","0.0-3.0-11.0-2.0-0.7","spark_pilot_norest","13778","3","18","Female","","false","","","","","[990.5,484.5]","./assets/img/space/14.jpg","[""ArrowUp"",""ArrowRight""]","practice block","space","36","{""ArrowUp,ArrowLeft"":3,""ArrowUp,ArrowRight"":36,""ArrowDown,ArrowLeft"":15,""ArrowDown,ArrowRight"":23}","true","ArrowUp,ArrowRight","false","","","","","",""
"html-keyboard-response","75","354821","0.0-3.0-11.0-2.0-1.7","spark_pilot_norest","13778","3","18","Female","","","","","","","null","<div style=""font-size:60px;"">+</div>","null","fixation","","","","","","","","","","","",""
"revaluation","76","358837","0.0-3.0-11.0-2.0-0.8","spark_pilot_norest","13778","3","18","Female","","false","","","","","[417.20000000298023]","./assets/img/space/catch/3.jpg","[""ArrowUp""]","practice block","space","-10","{""ArrowUp,ArrowLeft"":3,""ArrowUp,ArrowRight"":36,""ArrowDown,ArrowLeft"":15,""ArrowDown,ArrowRight"":23}","false","ArrowUp","true","","","","","",""
"html-keyboard-response","77","359347","0.0-3.0-11.0-2.0-1.8","spark_pilot_norest","13778","3","18","Female","","","","","","","null","<div style=""font-size:60px;"">+</div>","null","fixation","","","","","","","","","","","",""
"learning-instructions","78","373769","0.0-3.0-11.0-3.0-0.0","spark_pilot_norest","13778","3","18","Female","","","","","","","789.2000000029802","<p> Now, you will travel with a friend who will choose whether you go up or down first. </p>
            <p> On these turns, you will just see the animal that they found. You will still get to choose which chest to search for treasure.</p>","","instructions","","","","","","","","","","","",""
"revaluation","79","377774","0.0-3.0-11.0-4.0-0.0","spark_pilot_norest","13778","3","18","Female","","false","","","","","[1110.4000000059605]","./assets/img/space/animals/cat.jpg","[""ArrowRight""]","practice block","space","36","{""ArrowUp,ArrowLeft"":3,""ArrowUp,ArrowRight"":36,""ArrowDown,ArrowLeft"":15,""ArrowDown,ArrowRight"":23}","true","ArrowUp,ArrowRight","","","","","","",""
"html-keyboard-response","80","378290","0.0-3.0-11.0-4.0-1.0","spark_pilot_norest","13778","3","18","Female","","","","","","","null","<div style=""font-size:60px;"">+</div>","null","fixation","","","","","","","","","","","",""
"revaluation","81","382312","0.0-3.0-11.0-4.0-0.1","spark_pilot_norest","13778","3","18","Female","","false","","","","","[402.59999999403954]","./assets/img/space/animals/rabbit.jpg","[""ArrowRight""]","practice block","space","23","{""ArrowUp,ArrowLeft"":3,""ArrowUp,ArrowRight"":36,""ArrowDown,ArrowLeft"":15,""ArrowDown,ArrowRight"":23}","true","ArrowDown,ArrowRight","","","","","","",""
"html-keyboard-response","82","382824","0.0-3.0-11.0-4.0-1.1","spark_pilot_norest","13778","3","18","Female","","","","","","","null","<div style=""font-size:60px;"">+</div>","null","fixation","","","","","","","","","","","",""
"revaluation","83","386851","0.0-3.0-11.0-4.0-0.2","spark_pilot_norest","13778","3","18","Female","","false","","","","","[289.90000000596046]","./assets/img/space/animals/cat.jpg","[""ArrowRight""]","practice block","space","36","{""ArrowUp,ArrowLeft"":3,""ArrowUp,ArrowRight"":36,""ArrowDown,ArrowLeft"":15,""ArrowDown,ArrowRight"":23}","true","ArrowUp,ArrowRight","","","","","","",""
"html-keyboard-response","84","387357","0.0-3.0-11.0-4.0-1.2","spark_pilot_norest","13778","3","18","Female","","","","","","","null","<div style=""font-size:60px;"">+</div>","null","fixation","","","","","","","","","","","",""
"revaluation","85","391380","0.0-3.0-11.0-4.0-0.3","spark_pilot_norest","13778","3","18","Female","","false","","","","","[300.8999999910593]","./assets/img/space/animals/rabbit.jpg","[""ArrowRight""]","practice block","space","23","{""ArrowUp,ArrowLeft"":3,""ArrowUp,ArrowRight"":36,""ArrowDown,ArrowLeft"":15,""ArrowDown,ArrowRight"":23}","true","ArrowDown,ArrowRight","","","","","","",""
"html-keyboard-response","86","391896","0.0-3.0-11.0-4.0-1.3","spark_pilot_norest","13778","3","18","Female","","","","","","","null","<div style=""font-size:60px;"">+</div>","null","fixation","","","","","","","","","","","",""
"learning-instructions","87","400020","0.0-3.0-11.0-5.0-0.0","spark_pilot_norest","13778","3","18","Female","","","","","","","null","<p> You have almost finished this part of the game! </p>
            <p> We are going to ask you to make a few more choices. </p>","","instructions","","","","","","","","","","","",""
"learning-instructions","88","416031","0.0-3.0-11.0-5.0-0.1","spark_pilot_norest","13778","3","18","Female","","","","","","","null","<p> First, you need to decide whether to go up or down. When you see each picture, use the arrow keys to make your choice. </p>
            <p><b>You will not see which animal you found, but try to get to the one that will give you the most treasure.</b></p>","","instructions","","","","","","","","","","","",""
"html-keyboard-response","89","417037","0.0-3.0-11.0-6.0-0.0","spark_pilot_norest","13778","3","18","Female","","","","","","","null","<div style=""font-size:100px;color:red;"">Starting in...</div>","null","","","","","","","","","","","","",""
"html-keyboard-response","90","418052","0.0-3.0-11.0-6.0-1.0","spark_pilot_norest","13778","3","18","Female","","","","","","","null","<div style=""font-size:200px;color:red;"">3</div>","null","","","","","","","","","","","","",""
"html-keyboard-response","91","419060","0.0-3.0-11.0-6.0-2.0","spark_pilot_norest","13778","3","18","Female","","","","","","","null","<div style=""font-size:200px;color:red;"">2</div>","null","","","","","","","","","","","","",""
"html-keyboard-response","92","420068","0.0-3.0-11.0-6.0-3.0","spark_pilot_norest","13778","3","18","Female","","","","","","","null","<div style=""font-size:200px;color:red;"">1</div>","null","","","","","","","","","","","","",""
"revaluation","93","420542","0.0-3.0-11.0-7.0","spark_pilot_norest","13778","3","18","Female","","false","","","","","[470.6000000089407]","./assets/img/space/15.jpg","[""ArrowUp""]","practice block","space","0","{""ArrowUp,ArrowLeft"":3,""ArrowUp,ArrowRight"":36,""ArrowDown,ArrowLeft"":15,""ArrowDown,ArrowRight"":23}","true","ArrowUp","false","","","","","",""
"html-keyboard-response","94","421049","0.0-3.0-11.0-8.0","spark_pilot_norest","13778","3","18","Female","","","","","","","null","<div style=""font-size:60px;"">+</div>","null","fixation","","","","","","","","","","","",""
"learning-instructions","95","434432","0.0-3.0-11.0-9.0-0.0","spark_pilot_norest","13778","3","18","Female","","","","","","","null","<p> Now you will see the animals again and can search their chests for treasure. </p>
            <p> This time, you will not see how much treasure you earned, but you will earn more bonus money for making better choices. </p>","","instructions","","","","","","","","","","","",""
"html-keyboard-response","96","435443","0.0-3.0-11.0-10.0-0.0","spark_pilot_norest","13778","3","18","Female","","","","","","","null","<div style=""font-size:100px;color:red;"">Starting in...</div>","null","","","","","","","","","","","","",""
"html-keyboard-response","97","436453","0.0-3.0-11.0-10.0-1.0","spark_pilot_norest","13778","3","18","Female","","","","","","","null","<div style=""font-size:200px;color:red;"">3</div>","null","","","","","","","","","","","","",""
"html-keyboard-response","98","437461","0.0-3.0-11.0-10.0-2.0","spark_pilot_norest","13778","3","18","Female","","","","","","","null","<div style=""font-size:200px;color:red;"">2</div>","null","","","","","","","","","","","","",""
"html-keyboard-response","99","438469","0.0-3.0-11.0-10.0-3.0","spark_pilot_norest","13778","3","18","Female","","","","","","","null","<div style=""font-size:200px;color:red;"">1</div>","null","","","","","","","","","","","","",""
"revaluation","100","439117","0.0-3.0-11.0-11.0-0.0","spark_pilot_norest","13778","3","18","Female","","false","","","","","[644.5]","./assets/img/space/animals/cat.jpg","[""ArrowRight""]","practice block","space","0","{""ArrowUp,ArrowLeft"":3,""ArrowUp,ArrowRight"":36,""ArrowDown,ArrowLeft"":15,""ArrowDown,ArrowRight"":23}","true","ArrowUp,ArrowRight","","","","","","",""
"html-keyboard-response","101","439632","0.0-3.0-11.0-11.0-1.0","spark_pilot_norest","13778","3","18","Female","","","","","","","null","<div style=""font-size:60px;"">+</div>","null","fixation","","","","","","","","","","","",""
"revaluation","102","440631","0.0-3.0-11.0-11.0-0.1","spark_pilot_norest","13778","3","18","Female","","false","","","","","[995.5]","./assets/img/space/animals/rabbit.jpg","[""ArrowRight""]","practice block","space","0","{""ArrowUp,ArrowLeft"":3,""ArrowUp,ArrowRight"":36,""ArrowDown,ArrowLeft"":15,""ArrowDown,ArrowRight"":23}","true","ArrowDown,ArrowRight","","","","","","",""
"html-keyboard-response","103","441141","0.0-3.0-11.0-11.0-1.1","spark_pilot_norest","13778","3","18","Female","","","","","","","null","<div style=""font-size:60px;"">+</div>","null","fixation","","","","","","","","","","","",""
"learning-instructions","104","446707","0.0-3.0-12.0-0.0","spark_pilot_norest","13778","3","18","Female","","","","","","","989.2000000029802","<p> Before you start, we're going to ask you a few questions about how the game works. </p>","","instructions","","","","","","","","","","","",""
"comp-q","105","453053","0.0-3.0-13.0-0.0-0.0","spark_pilot_norest","13778","3","18","Female","","","","","","","761.6000000089407","<p> <b> True or False? </b> </p>
            <p> There can be 50 pieces of treasure in a given animal's chest. </p>","1","comp_question","","","","true","","","","","","","",""
"comp-q","106","460522","0.0-3.0-13.0-0.0-1.0","spark_pilot_norest","13778","3","18","Female","","","","","","","819","<p> <b> That's right! </b> The amount of treasure in each chest can range from 0 to 40 pieces. </p>","0","comp_answer","","","","","","","","","","","",""
"comp-q","107","468123","0.0-3.0-13.0-0.1-0.1","spark_pilot_norest","13778","3","18","Female","","","","","","","485","<p> <b> True or False? </b> </p><p> In this game, all animals have the same amount of treasure in their left and right chests. </p>","1","comp_question","","","","true","","","","","","","",""
"comp-q","108","474267","0.0-3.0-13.0-0.1-1.1","spark_pilot_norest","13778","3","18","Female","","","","","","","911.2000000029802","<p> <b> That's right! </b> Animals have different amounts of treasure in their treasure chests. </p>","0","comp_answer","","","","","","","","","","","",""
"comp-q","109","480726","0.0-3.0-13.0-0.2-0.2","spark_pilot_norest","13778","3","18","Female","","","","","","","616.5","<p> <b> True or False? </b> </p><p> The same animal will always be there if you go up in the same place. </p>","1","comp_question","","","","false","","","","","","","",""
"comp-q","110","488018","0.0-3.0-13.0-0.2-1.2","spark_pilot_norest","13778","3","18","Female","","","","","","","997.2000000029802","<p> <b>Incorrect.</b> One animal lives in the upper part and one lives in the lower part of every place. </p>","0","comp_answer","","","","","","","","","","","",""
"comp-q","111","494172","0.0-3.0-13.0-0.3-0.3","spark_pilot_norest","13778","3","18","Female","","","","","","","335","<p> <b> True or False? </b> </p><p> The same animal will always be there if you go up in the same place. </p>","0","comp_question","","","","true","","","","","","","",""
"comp-q","112","501514","0.0-3.0-13.0-0.3-1.3","spark_pilot_norest","13778","3","18","Female","","","","","","","892.7999999970198","<p> <b> That's right! </b> One animal lives in the upper part and one lives in the lower part of every place. </p>","0","comp_answer","","","","","","","","","","","",""
"comp-q","113","507533","0.0-3.0-13.0-0.4-0.4","spark_pilot_norest","13778","3","18","Female","","","","","","","501.20000000298023","<p> <b> True or False? </b> </p><p> If you see a different picture, it means you are in a new place. </p>","0","comp_question","","","","false","","","","","","","",""
"comp-q","114","519124","0.0-3.0-13.0-0.4-1.4","spark_pilot_norest","13778","3","18","Female","","","","","","","449.40000000596046","<p> <b>Incorrect.</b> Lots of different images may show the same place. For example,  you may see three different images that all remind you that you are in outer space. </p>","0","comp_answer","","","","","","","","","","","",""
"comp-q","115","524983","0.0-3.0-13.0-0.5-0.5","spark_pilot_norest","13778","3","18","Female","","","","","","","355.59999999403954","<p> <b> True or False? </b> </p><p> If you see a different picture, it means you are in a new place. </p>","1","comp_question","","","","true","","","","","","","",""
"comp-q","116","537130","0.0-3.0-13.0-0.5-1.5","spark_pilot_norest","13778","3","18","Female","","","","","","","917.7999999970198","<p> <b> That's right! </b> Lots of different images may show the same place. For example,  you may see three different images that all remind you that you are in outer space. </p>","0","comp_answer","","","","","","","","","","","",""
"learning-instructions","117","547720","0.0-3.0-14.0-0.0","spark_pilot_norest","13778","3","18","Female","","","","","","","740","<p> Good job. Remember to do your best because the amount of treasure you earn will be converted into bonus money. </p>
            <p> It’s time to start the real game! </p>","","instructions","","","","","","","","","","","",""
"learning-instructions","118","551934","0.0-4.0-0.0-0.0","spark_pilot_norest","13778","3","18","Female","","","","","","","1508.2999999970198","<p> This time you are searching for treasure in the <b>ocean</b>.</p>","","instructions","","","","","","","","","","","",""
"learning-instructions","119","570153","0.0-4.0-0.0-0.1","spark_pilot_norest","13778","3","18","Female","","","","","","","921.6000000089407","<p><b>New</b> animals with <b>new</b> treasure chests live here. You need to explore to discover where the animal with the best treasure chest is.</p>
                    <p> Like before, once you figure out which animal has the chest with the most treasure, you should try to get to that animal and select that chest! </p>","","instructions","","","","","","","","","","","",""
"learning-instructions","120","585929","0.0-4.0-1.0-0.0","spark_pilot_norest","13778","3","18","Female","","","","","","","1048.9000000059605","<p> Remember, when you see a picture of the place, use the up and down keys to <b>find an animal</b>.</p>
            <p> When you encounter an animal, you should use the left and right keys to <b>select a treasure chest</b>.</p>
            <p> Don't forget to look out for the robber! </p>","","instructions","","","","","","","","","","","",""
"revaluation","121","591973","0.0-4.0-2.0-0.0","spark_pilot_norest","13778","3","18","Female","","false","","","","","[1385.5,944.4000000059605]","./assets/img/ocean/memory/2.jpg","[""ArrowUp"",""ArrowRight""]","value training","ocean","10","{""ArrowUp,ArrowLeft"":23,""ArrowUp,ArrowRight"":10,""ArrowDown,ArrowLeft"":8,""ArrowDown,ArrowRight"":30}","false","ArrowUp,ArrowRight","false","original","1","0","","",""
"html-keyboard-response","122","592486","0.0-4.0-2.0-1.0","spark_pilot_norest","13778","3","18","Female","","","","","","","null","<div style=""font-size:60px;"">+</div>","null","fixation","","","","","","","","","1","","",""
"revaluation","123","598512","0.0-4.0-2.0-0.1","spark_pilot_norest","13778","3","18","Female","","false","","","","","[935.9000000059605,604.9000000059605]","./assets/img/ocean/memory/2.jpg","[""ArrowUp"",""ArrowLeft""]","value training","ocean","23","{""ArrowUp,ArrowLeft"":23,""ArrowUp,ArrowRight"":10,""ArrowDown,ArrowLeft"":8,""ArrowDown,ArrowRight"":30}","false","ArrowUp,ArrowLeft","false","original","1","2","","",""
"html-keyboard-response","124","599018","0.0-4.0-2.0-1.1","spark_pilot_norest","13778","3","18","Female","","","","","","","null","<div style=""font-size:60px;"">+</div>","null","fixation","","","","","","","","","3","","",""
"revaluation","125","605051","0.0-4.0-2.0-0.2","spark_pilot_norest","13778","3","18","Female","","false","","","","","[1213.699999988079,606.3999999910593]","./assets/img/ocean/memory/39.jpg","[""ArrowDown"",""ArrowRight""]","value training","ocean","30","{""ArrowUp,ArrowLeft"":23,""ArrowUp,ArrowRight"":10,""ArrowDown,ArrowLeft"":8,""ArrowDown,ArrowRight"":30}","true","ArrowDown,ArrowRight","false","original","1","4","","",""
"html-keyboard-response","126","605568","0.0-4.0-2.0-1.2","spark_pilot_norest","13778","3","18","Female","","","","","","","null","<div style=""font-size:60px;"">+</div>","null","fixation","","","","","","","","","5","","",""
"revaluation","127","611594","0.0-4.0-2.0-0.3","spark_pilot_norest","13778","3","18","Female","","false","","","","","[1189.1000000089407,550]","./assets/img/ocean/memory/26.jpg","[""ArrowDown"",""ArrowLeft""]","value training","ocean","8","{""ArrowUp,ArrowLeft"":23,""ArrowUp,ArrowRight"":10,""ArrowDown,ArrowLeft"":8,""ArrowDown,ArrowRight"":30}","false","ArrowDown,ArrowLeft","false","original","1","6","","",""
"html-keyboard-response","128","612104","0.0-4.0-2.0-1.3","spark_pilot_norest","13778","3","18","Female","","","","","","","null","<div style=""font-size:60px;"">+</div>","null","fixation","","","","","","","","","7","","",""
"revaluation","129","618140","0.0-4.0-2.0-0.4","spark_pilot_norest","13778","3","18","Female","","false","","","","","[1468.2999999970198,590.4000000059605]","./assets/img/ocean/memory/13.jpg","[""ArrowDown"",""ArrowRight""]","value training","ocean","30","{""ArrowUp,ArrowLeft"":23,""ArrowUp,ArrowRight"":10,""ArrowDown,ArrowLeft"":8,""ArrowDown,ArrowRight"":30}","true","ArrowDown,ArrowRight","false","original","1","8","","",""
"html-keyboard-response","130","618646","0.0-4.0-2.0-1.4","spark_pilot_norest","13778","3","18","Female","","","","","","","null","<div style=""font-size:60px;"">+</div>","null","fixation","","","","","","","","","9","","",""
"revaluation","131","624677","0.0-4.0-2.0-0.5","spark_pilot_norest","13778","3","18","Female","","false","","","","","[958.2999999970198,417]","./assets/img/ocean/memory/9.jpg","[""ArrowDown"",""ArrowRight""]","value training","ocean","30","{""ArrowUp,ArrowLeft"":23,""ArrowUp,ArrowRight"":10,""ArrowDown,ArrowLeft"":8,""ArrowDown,ArrowRight"":30}","true","ArrowDown,ArrowRight","false","original","1","10","","",""
"html-keyboard-response","132","625183","0.0-4.0-2.0-1.5","spark_pilot_norest","13778","3","18","Female","","","","","","","null","<div style=""font-size:60px;"">+</div>","null","fixation","","","","","","","","","11","","",""
"revaluation","133","631210","0.0-4.0-2.0-0.6","spark_pilot_norest","13778","3","18","Female","","false","","","","","[976.6999999880791,564.4000000059605]","./assets/img/ocean/memory/17.jpg","[""ArrowDown"",""ArrowRight""]","value training","ocean","30","{""ArrowUp,ArrowLeft"":23,""ArrowUp,ArrowRight"":10,""ArrowDown,ArrowLeft"":8,""ArrowDown,ArrowRight"":30}","true","ArrowDown,ArrowRight","false","original","1","12","","",""
"html-keyboard-response","134","631728","0.0-4.0-2.0-1.6","spark_pilot_norest","13778","3","18","Female","","","","","","","null","<div style=""font-size:60px;"">+</div>","null","fixation","","","","","","","","","13","","",""
"revaluation","135","637761","0.0-4.0-2.0-0.7","spark_pilot_norest","13778","3","18","Female","","false","","","","","[1079.7000000029802,529.2999999970198]","./assets/img/ocean/memory/32.jpg","[""ArrowDown"",""ArrowRight""]","value training","ocean","30","{""ArrowUp,ArrowLeft"":23,""ArrowUp,ArrowRight"":10,""ArrowDown,ArrowLeft"":8,""ArrowDown,ArrowRight"":30}","true","ArrowDown,ArrowRight","false","original","1","14","","",""
"html-keyboard-response","136","638263","0.0-4.0-2.0-1.7","spark_pilot_norest","13778","3","18","Female","","","","","","","null","<div style=""font-size:60px;"">+</div>","null","fixation","","","","","","","","","15","","",""
"revaluation","137","642277","0.0-4.0-2.0-0.8","spark_pilot_norest","13778","3","18","Female","","false","","","","","[788.9000000059605]","./assets/img/ocean/catch/7.jpg","[""spaceBar""]","value training","ocean","0","{""ArrowUp,ArrowLeft"":23,""ArrowUp,ArrowRight"":10,""ArrowDown,ArrowLeft"":8,""ArrowDown,ArrowRight"":30}","true","spaceBar","true","original","1","16","","",""
"html-keyboard-response","138","642791","0.0-4.0-2.0-1.8","spark_pilot_norest","13778","3","18","Female","","","","","","","null","<div style=""font-size:60px;"">+</div>","null","fixation","","","","","","","","","17","","",""
"revaluation","139","648813","0.0-4.0-2.0-0.9","spark_pilot_norest","13778","3","18","Female","","false","","","","","[1060.300000011921,514.5]","./assets/img/ocean/memory/35.jpg","[""ArrowDown"",""ArrowRight""]","value training","ocean","30","{""ArrowUp,ArrowLeft"":23,""ArrowUp,ArrowRight"":10,""ArrowDown,ArrowLeft"":8,""ArrowDown,ArrowRight"":30}","true","ArrowDown,ArrowRight","false","original","1","18","","",""
"html-keyboard-response","140","649315","0.0-4.0-2.0-1.9","spark_pilot_norest","13778","3","18","Female","","","","","","","null","<div style=""font-size:60px;"">+</div>","null","fixation","","","","","","","","","19","","",""
"revaluation","141","653343","0.0-4.0-2.0-0.10","spark_pilot_norest","13778","3","18","Female","","false","","","","","[1075.7000000029802]","./assets/img/ocean/catch/5.jpg","[""spaceBar""]","value training","ocean","0","{""ArrowUp,ArrowLeft"":23,""ArrowUp,ArrowRight"":10,""ArrowDown,ArrowLeft"":8,""ArrowDown,ArrowRight"":30}","true","spaceBar","true","original","1","20","","",""
"html-keyboard-response","142","653850","0.0-4.0-2.0-1.10","spark_pilot_norest","13778","3","18","Female","","","","","","","null","<div style=""font-size:60px;"">+</div>","null","fixation","","","","","","","","","21","","",""
"revaluation","143","659887","0.0-4.0-2.0-0.11","spark_pilot_norest","13778","3","18","Female","","false","","","","","[1139.2000000029802,361.59999999403954]","./assets/img/ocean/memory/6.jpg","[""ArrowDown"",""ArrowRight""]","value training","ocean","30","{""ArrowUp,ArrowLeft"":23,""ArrowUp,ArrowRight"":10,""ArrowDown,ArrowLeft"":8,""ArrowDown,ArrowRight"":30}","true","ArrowDown,ArrowRight","false","original","1","22","","",""
"html-keyboard-response","144","660394","0.0-4.0-2.0-1.11","spark_pilot_norest","13778","3","18","Female","","","","","","","null","<div style=""font-size:60px;"">+</div>","null","fixation","","","","","","","","","23","","",""
"revaluation","145","666415","0.0-4.0-2.0-0.12","spark_pilot_norest","13778","3","18","Female","","false","","","","","[1262.699999988079,446.59999999403954]","./assets/img/ocean/memory/19.jpg","[""ArrowDown"",""ArrowRight""]","value training","ocean","30","{""ArrowUp,ArrowLeft"":23,""ArrowUp,ArrowRight"":10,""ArrowDown,ArrowLeft"":8,""ArrowDown,ArrowRight"":30}","true","ArrowDown,ArrowRight","false","original","1","24","","",""
"html-keyboard-response","146","666926","0.0-4.0-2.0-1.12","spark_pilot_norest","13778","3","18","Female","","","","","","","null","<div style=""font-size:60px;"">+</div>","null","fixation","","","","","","","","","25","","",""
"revaluation","147","672952","0.0-4.0-2.0-0.13","spark_pilot_norest","13778","3","18","Female","","false","","","","","[710,425.8999999910593]","./assets/img/ocean/memory/38.jpg","[""ArrowDown"",""ArrowRight""]","value training","ocean","30","{""ArrowUp,ArrowLeft"":23,""ArrowUp,ArrowRight"":10,""ArrowDown,ArrowLeft"":8,""ArrowDown,ArrowRight"":30}","true","ArrowDown,ArrowRight","false","original","1","26","","",""
"html-keyboard-response","148","673454","0.0-4.0-2.0-1.13","spark_pilot_norest","13778","3","18","Female","","","","","","","null","<div style=""font-size:60px;"">+</div>","null","fixation","","","","","","","","","27","","",""
"revaluation","149","677473","0.0-4.0-2.0-0.14","spark_pilot_norest","13778","3","18","Female","","false","","","","","[718]","./assets/img/ocean/catch/1.jpg","[""spaceBar""]","value training","ocean","0","{""ArrowUp,ArrowLeft"":23,""ArrowUp,ArrowRight"":10,""ArrowDown,ArrowLeft"":8,""ArrowDown,ArrowRight"":30}","true","spaceBar","true","original","1","28","","",""
"html-keyboard-response","150","677982","0.0-4.0-2.0-1.14","spark_pilot_norest","13778","3","18","Female","","","","","","","null","<div style=""font-size:60px;"">+</div>","null","fixation","","","","","","","","","29","","",""
"revaluation","151","684009","0.0-4.0-2.0-0.15","spark_pilot_norest","13778","3","18","Female","","false","","","","","[1004.5,480.29999999701977]","./assets/img/ocean/memory/11.jpg","[""ArrowDown"",""ArrowRight""]","value training","ocean","30","{""ArrowUp,ArrowLeft"":23,""ArrowUp,ArrowRight"":10,""ArrowDown,ArrowLeft"":8,""ArrowDown,ArrowRight"":30}","true","ArrowDown,ArrowRight","false","original","1","30","","",""
"html-keyboard-response","152","684512","0.0-4.0-2.0-1.15","spark_pilot_norest","13778","3","18","Female","","","","","","","null","<div style=""font-size:60px;"">+</div>","null","fixation","","","","","","","","","31","","",""
"revaluation","153","690529","0.0-4.0-2.0-0.16","spark_pilot_norest","13778","3","18","Female","","false","","","","","[1085.1000000089407,641.2000000029802]","./assets/img/ocean/memory/17.jpg","[""ArrowDown"",""ArrowRight""]","value training","ocean","30","{""ArrowUp,ArrowLeft"":23,""ArrowUp,ArrowRight"":10,""ArrowDown,ArrowLeft"":8,""ArrowDown,ArrowRight"":30}","true","ArrowDown,ArrowRight","false","original","1","32","","",""
"html-keyboard-response","154","691043","0.0-4.0-2.0-1.16","spark_pilot_norest","13778","3","18","Female","","","","","","","null","<div style=""font-size:60px;"">+</div>","null","fixation","","","","","","","","","33","","",""
"revaluation","155","695058","0.0-4.0-2.0-0.17","spark_pilot_norest","13778","3","18","Female","","false","","","","","[929.2000000029802]","./assets/img/ocean/catch/0.jpg","[""spaceBar""]","value training","ocean","0","{""ArrowUp,ArrowLeft"":23,""ArrowUp,ArrowRight"":10,""ArrowDown,ArrowLeft"":8,""ArrowDown,ArrowRight"":30}","true","spaceBar","true","original","1","34","","",""
"html-keyboard-response","156","695565","0.0-4.0-2.0-1.17","spark_pilot_norest","13778","3","18","Female","","","","","","","null","<div style=""font-size:60px;"">+</div>","null","fixation","","","","","","","","","35","","",""
"revaluation","157","701585","0.0-4.0-2.0-0.18","spark_pilot_norest","13778","3","18","Female","","false","","","","","[1212.3999999910593,374.79999999701977]","./assets/img/ocean/memory/36.jpg","[""ArrowDown"",""ArrowRight""]","value training","ocean","30","{""ArrowUp,ArrowLeft"":23,""ArrowUp,ArrowRight"":10,""ArrowDown,ArrowLeft"":8,""ArrowDown,ArrowRight"":30}","true","ArrowDown,ArrowRight","false","original","1","36","","",""
"html-keyboard-response","158","702089","0.0-4.0-2.0-1.18","spark_pilot_norest","13778","3","18","Female","","","","","","","null","<div style=""font-size:60px;"">+</div>","null","fixation","","","","","","","","","37","","",""
"revaluation","159","708119","0.0-4.0-2.0-0.19","spark_pilot_norest","13778","3","18","Female","","false","","","","","[692,520.9000000059605]","./assets/img/ocean/memory/5.jpg","[""ArrowDown"",""ArrowRight""]","value training","ocean","30","{""ArrowUp,ArrowLeft"":23,""ArrowUp,ArrowRight"":10,""ArrowDown,ArrowLeft"":8,""ArrowDown,ArrowRight"":30}","true","ArrowDown,ArrowRight","false","original","1","38","","",""
"html-keyboard-response","160","708623","0.0-4.0-2.0-1.19","spark_pilot_norest","13778","3","18","Female","","","","","","","null","<div style=""font-size:60px;"">+</div>","null","fixation","","","","","","","","","39","","",""
"revaluation","161","714641","0.0-4.0-2.0-0.20","spark_pilot_norest","13778","3","18","Female","","false","","","","","[1227.7999999970198,441]","./assets/img/ocean/memory/14.jpg","[""ArrowDown"",""ArrowRight""]","value training","ocean","30","{""ArrowUp,ArrowLeft"":23,""ArrowUp,ArrowRight"":10,""ArrowDown,ArrowLeft"":8,""ArrowDown,ArrowRight"":30}","true","ArrowDown,ArrowRight","false","original","1","40","","",""
"html-keyboard-response","162","715145","0.0-4.0-2.0-1.20","spark_pilot_norest","13778","3","18","Female","","","","","","","null","<div style=""font-size:60px;"">+</div>","null","fixation","","","","","","","","","41","","",""
"revaluation","163","721166","0.0-4.0-2.0-0.21","spark_pilot_norest","13778","3","18","Female","","false","","","","","[759.1999999880791,338.1000000089407]","./assets/img/ocean/memory/5.jpg","[""ArrowDown"",""ArrowRight""]","value training","ocean","30","{""ArrowUp,ArrowLeft"":23,""ArrowUp,ArrowRight"":10,""ArrowDown,ArrowLeft"":8,""ArrowDown,ArrowRight"":30}","true","ArrowDown,ArrowRight","false","original","1","42","","",""
"html-keyboard-response","164","721669","0.0-4.0-2.0-1.21","spark_pilot_norest","13778","3","18","Female","","","","","","","null","<div style=""font-size:60px;"">+</div>","null","fixation","","","","","","","","","43","","",""
"revaluation","165","727685","0.0-4.0-2.0-0.22","spark_pilot_norest","13778","3","18","Female","","false","","","","","[1103.2000000029802,560.9000000059605]","./assets/img/ocean/memory/32.jpg","[""ArrowDown"",""ArrowRight""]","value training","ocean","30","{""ArrowUp,ArrowLeft"":23,""ArrowUp,ArrowRight"":10,""ArrowDown,ArrowLeft"":8,""ArrowDown,ArrowRight"":30}","true","ArrowDown,ArrowRight","false","original","1","44","","",""
"html-keyboard-response","166","728202","0.0-4.0-2.0-1.22","spark_pilot_norest","13778","3","18","Female","","","","","","","null","<div style=""font-size:60px;"">+</div>","null","fixation","","","","","","","","","45","","",""
"revaluation","167","734213","0.0-4.0-2.0-0.23","spark_pilot_norest","13778","3","18","Female","","false","","","","","[865.7000000029802,488.3999999910593]","./assets/img/ocean/memory/13.jpg","[""ArrowDown"",""ArrowRight""]","value training","ocean","30","{""ArrowUp,ArrowLeft"":23,""ArrowUp,ArrowRight"":10,""ArrowDown,ArrowLeft"":8,""ArrowDown,ArrowRight"":30}","true","ArrowDown,ArrowRight","false","original","1","46","","",""
"html-keyboard-response","168","734730","0.0-4.0-2.0-1.23","spark_pilot_norest","13778","3","18","Female","","","","","","","null","<div style=""font-size:60px;"">+</div>","null","fixation","","","","","","","","","47","","",""
"revaluation","169","740756","0.0-4.0-2.0-0.24","spark_pilot_norest","13778","3","18","Female","","false","","","","","[966.3999999910593,473]","./assets/img/ocean/memory/39.jpg","[""ArrowDown"",""ArrowRight""]","value training","ocean","30","{""ArrowUp,ArrowLeft"":23,""ArrowUp,ArrowRight"":10,""ArrowDown,ArrowLeft"":8,""ArrowDown,ArrowRight"":30}","true","ArrowDown,ArrowRight","false","original","1","48","","",""
"html-keyboard-response","170","741261","0.0-4.0-2.0-1.24","spark_pilot_norest","13778","3","18","Female","","","","","","","null","<div style=""font-size:60px;"">+</div>","null","fixation","","","","","","","","","49","","",""
"revaluation","171","747276","0.0-4.0-2.0-0.25","spark_pilot_norest","13778","3","18","Female","","false","","","","","[1181.5,353]","./assets/img/ocean/memory/15.jpg","[""ArrowDown"",""ArrowRight""]","value training","ocean","30","{""ArrowUp,ArrowLeft"":23,""ArrowUp,ArrowRight"":10,""ArrowDown,ArrowLeft"":8,""ArrowDown,ArrowRight"":30}","true","ArrowDown,ArrowRight","false","original","1","50","","",""
"html-keyboard-response","172","747779","0.0-4.0-2.0-1.25","spark_pilot_norest","13778","3","18","Female","","","","","","","null","<div style=""font-size:60px;"">+</div>","null","fixation","","","","","","","","","51","","",""
"revaluation","173","753802","0.0-4.0-2.0-0.26","spark_pilot_norest","13778","3","18","Female","","false","","","","","[935.4000000059605,493.80000001192093]","./assets/img/ocean/memory/25.jpg","[""ArrowDown"",""ArrowRight""]","value training","ocean","30","{""ArrowUp,ArrowLeft"":23,""ArrowUp,ArrowRight"":10,""ArrowDown,ArrowLeft"":8,""ArrowDown,ArrowRight"":30}","true","ArrowDown,ArrowRight","false","original","1","52","","",""
"html-keyboard-response","174","754306","0.0-4.0-2.0-1.26","spark_pilot_norest","13778","3","18","Female","","","","","","","null","<div style=""font-size:60px;"">+</div>","null","fixation","","","","","","","","","53","","",""
"revaluation","175","760340","0.0-4.0-2.0-0.27","spark_pilot_norest","13778","3","18","Female","","false","","","","","[1098.2000000029802,369]","./assets/img/ocean/memory/38.jpg","[""ArrowDown"",""ArrowRight""]","value training","ocean","30","{""ArrowUp,ArrowLeft"":23,""ArrowUp,ArrowRight"":10,""ArrowDown,ArrowLeft"":8,""ArrowDown,ArrowRight"":30}","true","ArrowDown,ArrowRight","false","original","1","54","","",""
"html-keyboard-response","176","760849","0.0-4.0-2.0-1.27","spark_pilot_norest","13778","3","18","Female","","","","","","","null","<div style=""font-size:60px;"">+</div>","null","fixation","","","","","","","","","55","","",""
"revaluation","177","766872","0.0-4.0-2.0-0.28","spark_pilot_norest","13778","3","18","Female","","false","","","","","[1105,335.09999999403954]","./assets/img/ocean/memory/3.jpg","[""ArrowDown"",""ArrowRight""]","value training","ocean","30","{""ArrowUp,ArrowLeft"":23,""ArrowUp,ArrowRight"":10,""ArrowDown,ArrowLeft"":8,""ArrowDown,ArrowRight"":30}","true","ArrowDown,ArrowRight","false","original","1","56","","",""
"html-keyboard-response","178","767375","0.0-4.0-2.0-1.28","spark_pilot_norest","13778","3","18","Female","","","","","","","null","<div style=""font-size:60px;"">+</div>","null","fixation","","","","","","","","","57","","",""
"revaluation","179","773406","0.0-4.0-2.0-0.29","spark_pilot_norest","13778","3","18","Female","","false","","","","","[1055.199999988079,540.8999999910593]","./assets/img/ocean/memory/9.jpg","[""ArrowDown"",""ArrowRight""]","value training","ocean","30","{""ArrowUp,ArrowLeft"":23,""ArrowUp,ArrowRight"":10,""ArrowDown,ArrowLeft"":8,""ArrowDown,ArrowRight"":30}","true","ArrowDown,ArrowRight","false","original","1","58","","",""
"html-keyboard-response","180","773913","0.0-4.0-2.0-1.29","spark_pilot_norest","13778","3","18","Female","","","","","","","null","<div style=""font-size:60px;"">+</div>","null","fixation","","","","","","","","","59","","",""
"revaluation","181","779932","0.0-4.0-2.0-0.30","spark_pilot_norest","13778","3","18","Female","","false","","","","","[1005.0999999940395,657.2000000029802]","./assets/img/ocean/memory/15.jpg","[""ArrowDown"",""ArrowRight""]","value training","ocean","30","{""ArrowUp,ArrowLeft"":23,""ArrowUp,ArrowRight"":10,""ArrowDown,ArrowLeft"":8,""ArrowDown,ArrowRight"":30}","true","ArrowDown,ArrowRight","false","original","1","60","","",""
"html-keyboard-response","182","780443","0.0-4.0-2.0-1.30","spark_pilot_norest","13778","3","18","Female","","","","","","","null","<div style=""font-size:60px;"">+</div>","null","fixation","","","","","","","","","61","","",""
"revaluation","183","786480","0.0-4.0-2.0-0.31","spark_pilot_norest","13778","3","18","Female","","false","","","","","[1417.199999988079,447.70000000298023]","./assets/img/ocean/memory/4.jpg","[""ArrowDown"",""ArrowRight""]","value training","ocean","30","{""ArrowUp,ArrowLeft"":23,""ArrowUp,ArrowRight"":10,""ArrowDown,ArrowLeft"":8,""ArrowDown,ArrowRight"":30}","true","ArrowDown,ArrowRight","false","original","1","62","","",""
"html-keyboard-response","184","786987","0.0-4.0-2.0-1.31","spark_pilot_norest","13778","3","18","Female","","","","","","","null","<div style=""font-size:60px;"">+</div>","null","fixation","","","","","","","","","63","","",""
"revaluation","185","793014","0.0-4.0-2.0-0.32","spark_pilot_norest","13778","3","18","Female","","false","","","","","[998.7000000029802,410.5]","./assets/img/ocean/memory/35.jpg","[""ArrowDown"",""ArrowRight""]","value training","ocean","30","{""ArrowUp,ArrowLeft"":23,""ArrowUp,ArrowRight"":10,""ArrowDown,ArrowLeft"":8,""ArrowDown,ArrowRight"":30}","true","ArrowDown,ArrowRight","false","original","1","64","","",""
"html-keyboard-response","186","793518","0.0-4.0-2.0-1.32","spark_pilot_norest","13778","3","18","Female","","","","","","","null","<div style=""font-size:60px;"">+</div>","null","fixation","","","","","","","","","65","","",""
"revaluation","187","799562","0.0-4.0-2.0-0.33","spark_pilot_norest","13778","3","18","Female","","false","","","","","[829.7000000029802,320.1000000089407]","./assets/img/ocean/memory/3.jpg","[""ArrowDown"",""ArrowRight""]","value training","ocean","30","{""ArrowUp,ArrowLeft"":23,""ArrowUp,ArrowRight"":10,""ArrowDown,ArrowLeft"":8,""ArrowDown,ArrowRight"":30}","true","ArrowDown,ArrowRight","false","original","1","66","","",""
"html-keyboard-response","188","800070","0.0-4.0-2.0-1.33","spark_pilot_norest","13778","3","18","Female","","","","","","","null","<div style=""font-size:60px;"">+</div>","null","fixation","","","","","","","","","67","","",""
"revaluation","189","806105","0.0-4.0-2.0-0.34","spark_pilot_norest","13778","3","18","Female","","false","","","","","[1594.9000000059605,406.09999999403954]","./assets/img/ocean/memory/26.jpg","[""ArrowDown"",""ArrowRight""]","value training","ocean","30","{""ArrowUp,ArrowLeft"":23,""ArrowUp,ArrowRight"":10,""ArrowDown,ArrowLeft"":8,""ArrowDown,ArrowRight"":30}","true","ArrowDown,ArrowRight","false","original","1","68","","",""
"html-keyboard-response","190","806612","0.0-4.0-2.0-1.34","spark_pilot_norest","13778","3","18","Female","","","","","","","null","<div style=""font-size:60px;"">+</div>","null","fixation","","","","","","","","","69","","",""
"revaluation","191","810618","0.0-4.0-2.0-0.35","spark_pilot_norest","13778","3","18","Female","","false","","","","","[862.2999999970198]","./assets/img/ocean/catch/6.jpg","[""spaceBar""]","value training","ocean","0","{""ArrowUp,ArrowLeft"":23,""ArrowUp,ArrowRight"":10,""ArrowDown,ArrowLeft"":8,""ArrowDown,ArrowRight"":30}","true","spaceBar","true","original","1","70","","",""
"html-keyboard-response","192","811121","0.0-4.0-2.0-1.35","spark_pilot_norest","13778","3","18","Female","","","","","","","null","<div style=""font-size:60px;"">+</div>","null","fixation","","","","","","","","","71","","",""
"revaluation","193","817142","0.0-4.0-2.0-0.36","spark_pilot_norest","13778","3","18","Female","","false","","","","","[977.5999999940395,344]","./assets/img/ocean/memory/21.jpg","[""ArrowDown"",""ArrowRight""]","value training","ocean","30","{""ArrowUp,ArrowLeft"":23,""ArrowUp,ArrowRight"":10,""ArrowDown,ArrowLeft"":8,""ArrowDown,ArrowRight"":30}","true","ArrowDown,ArrowRight","false","original","1","72","","",""
"html-keyboard-response","194","817656","0.0-4.0-2.0-1.36","spark_pilot_norest","13778","3","18","Female","","","","","","","null","<div style=""font-size:60px;"">+</div>","null","fixation","","","","","","","","","73","","",""
"revaluation","195","823671","0.0-4.0-2.0-0.37","spark_pilot_norest","13778","3","18","Female","","false","","","","","[771.7000000029802,520.7000000029802]","./assets/img/ocean/memory/6.jpg","[""ArrowDown"",""ArrowRight""]","value training","ocean","30","{""ArrowUp,ArrowLeft"":23,""ArrowUp,ArrowRight"":10,""ArrowDown,ArrowLeft"":8,""ArrowDown,ArrowRight"":30}","true","ArrowDown,ArrowRight","false","original","1","74","","",""
"html-keyboard-response","196","824186","0.0-4.0-2.0-1.37","spark_pilot_norest","13778","3","18","Female","","","","","","","null","<div style=""font-size:60px;"">+</div>","null","fixation","","","","","","","","","75","","",""
"revaluation","197","828201","0.0-4.0-2.0-0.38","spark_pilot_norest","13778","3","18","Female","","false","","","","","[609]","./assets/img/ocean/catch/3.jpg","[""spaceBar""]","value training","ocean","0","{""ArrowUp,ArrowLeft"":23,""ArrowUp,ArrowRight"":10,""ArrowDown,ArrowLeft"":8,""ArrowDown,ArrowRight"":30}","true","spaceBar","true","original","1","76","","",""
"html-keyboard-response","198","828719","0.0-4.0-2.0-1.38","spark_pilot_norest","13778","3","18","Female","","","","","","","null","<div style=""font-size:60px;"">+</div>","null","fixation","","","","","","","","","77","","",""
"revaluation","199","834743","0.0-4.0-2.0-0.39","spark_pilot_norest","13778","3","18","Female","","false","","","","","[933,520.2999999970198]","./assets/img/ocean/memory/19.jpg","[""ArrowDown"",""ArrowRight""]","value training","ocean","30","{""ArrowUp,ArrowLeft"":23,""ArrowUp,ArrowRight"":10,""ArrowDown,ArrowLeft"":8,""ArrowDown,ArrowRight"":30}","true","ArrowDown,ArrowRight","false","original","1","78","","",""
"html-keyboard-response","200","835246","0.0-4.0-2.0-1.39","spark_pilot_norest","13778","3","18","Female","","","","","","","null","<div style=""font-size:60px;"">+</div>","null","fixation","","","","","","","","","79","","",""
"revaluation","201","841274","0.0-4.0-2.0-0.40","spark_pilot_norest","13778","3","18","Female","","false","","","","","[666.1000000089407,248.59999999403954]","./assets/img/ocean/memory/25.jpg","[""ArrowDown"",""ArrowRight""]","value training","ocean","30","{""ArrowUp,ArrowLeft"":23,""ArrowUp,ArrowRight"":10,""ArrowDown,ArrowLeft"":8,""ArrowDown,ArrowRight"":30}","true","ArrowDown,ArrowRight","false","original","1","80","","",""
"html-keyboard-response","202","841777","0.0-4.0-2.0-1.40","spark_pilot_norest","13778","3","18","Female","","","","","","","null","<div style=""font-size:60px;"">+</div>","null","fixation","","","","","","","","","81","","",""
"revaluation","203","847809","0.0-4.0-2.0-0.41","spark_pilot_norest","13778","3","18","Female","","false","","","","","[832.2000000029802,372.40000000596046]","./assets/img/ocean/memory/29.jpg","[""ArrowDown"",""ArrowRight""]","value training","ocean","30","{""ArrowUp,ArrowLeft"":23,""ArrowUp,ArrowRight"":10,""ArrowDown,ArrowLeft"":8,""ArrowDown,ArrowRight"":30}","true","ArrowDown,ArrowRight","false","original","1","82","","",""
"html-keyboard-response","204","848318","0.0-4.0-2.0-1.41","spark_pilot_norest","13778","3","18","Female","","","","","","","null","<div style=""font-size:60px;"">+</div>","null","fixation","","","","","","","","","83","","",""
"revaluation","205","854342","0.0-4.0-2.0-0.42","spark_pilot_norest","13778","3","18","Female","","false","","","","","[742.7999999970198,494.3999999910593]","./assets/img/ocean/memory/21.jpg","[""ArrowDown"",""ArrowRight""]","value training","ocean","30","{""ArrowUp,ArrowLeft"":23,""ArrowUp,ArrowRight"":10,""ArrowDown,ArrowLeft"":8,""ArrowDown,ArrowRight"":30}","true","ArrowDown,ArrowRight","false","original","1","84","","",""
"html-keyboard-response","206","854859","0.0-4.0-2.0-1.42","spark_pilot_norest","13778","3","18","Female","","","","","","","null","<div style=""font-size:60px;"">+</div>","null","fixation","","","","","","","","","85","","",""
"revaluation","207","860878","0.0-4.0-2.0-0.43","spark_pilot_norest","13778","3","18","Female","","false","","","","","[731.2000000029802,429.1000000089407]","./assets/img/ocean/memory/4.jpg","[""ArrowDown"",""ArrowRight""]","value training","ocean","30","{""ArrowUp,ArrowLeft"":23,""ArrowUp,ArrowRight"":10,""ArrowDown,ArrowLeft"":8,""ArrowDown,ArrowRight"":30}","true","ArrowDown,ArrowRight","false","original","1","86","","",""
"html-keyboard-response","208","861386","0.0-4.0-2.0-1.43","spark_pilot_norest","13778","3","18","Female","","","","","","","null","<div style=""font-size:60px;"">+</div>","null","fixation","","","","","","","","","87","","",""
"revaluation","209","865406","0.0-4.0-2.0-0.44","spark_pilot_norest","13778","3","18","Female","","false","","","","","[893.2000000029802]","./assets/img/ocean/catch/4.jpg","[""spaceBar""]","value training","ocean","0","{""ArrowUp,ArrowLeft"":23,""ArrowUp,ArrowRight"":10,""ArrowDown,ArrowLeft"":8,""ArrowDown,ArrowRight"":30}","true","spaceBar","true","original","1","88","","",""
"html-keyboard-response","210","865910","0.0-4.0-2.0-1.44","spark_pilot_norest","13778","3","18","Female","","","","","","","null","<div style=""font-size:60px;"">+</div>","null","fixation","","","","","","","","","89","","",""
"revaluation","211","869928","0.0-4.0-2.0-0.45","spark_pilot_norest","13778","3","18","Female","","false","","","","","[595.5]","./assets/img/ocean/catch/2.jpg","[""spaceBar""]","value training","ocean","0","{""ArrowUp,ArrowLeft"":23,""ArrowUp,ArrowRight"":10,""ArrowDown,ArrowLeft"":8,""ArrowDown,ArrowRight"":30}","true","spaceBar","true","original","1","90","","",""
"html-keyboard-response","212","870433","0.0-4.0-2.0-1.45","spark_pilot_norest","13778","3","18","Female","","","","","","","null","<div style=""font-size:60px;"">+</div>","null","fixation","","","","","","","","","91","","",""
"revaluation","213","876465","0.0-4.0-2.0-0.46","spark_pilot_norest","13778","3","18","Female","","false","","","","","[1009,365.40000000596046]","./assets/img/ocean/memory/36.jpg","[""ArrowDown"",""ArrowRight""]","value training","ocean","30","{""ArrowUp,ArrowLeft"":23,""ArrowUp,ArrowRight"":10,""ArrowDown,ArrowLeft"":8,""ArrowDown,ArrowRight"":30}","true","ArrowDown,ArrowRight","false","original","1","92","","",""
"html-keyboard-response","214","876977","0.0-4.0-2.0-1.46","spark_pilot_norest","13778","3","18","Female","","","","","","","null","<div style=""font-size:60px;"">+</div>","null","fixation","","","","","","","","","93","","",""
"revaluation","215","882998","0.0-4.0-2.0-0.47","spark_pilot_norest","13778","3","18","Female","","false","","","","","[1023.7000000029802,478.5]","./assets/img/ocean/memory/11.jpg","[""ArrowDown"",""ArrowRight""]","value training","ocean","30","{""ArrowUp,ArrowLeft"":23,""ArrowUp,ArrowRight"":10,""ArrowDown,ArrowLeft"":8,""ArrowDown,ArrowRight"":30}","true","ArrowDown,ArrowRight","false","original","1","94","","",""
"html-keyboard-response","216","883505","0.0-4.0-2.0-1.47","spark_pilot_norest","13778","3","18","Female","","","","","","","null","<div style=""font-size:60px;"">+</div>","null","fixation","","","","","","","","","95","","",""
"revaluation","217","889534","0.0-4.0-2.0-0.48","spark_pilot_norest","13778","3","18","Female","","false","","","","","[1286.4000000059605,308.5]","./assets/img/ocean/memory/14.jpg","[""ArrowDown"",""ArrowRight""]","value training","ocean","30","{""ArrowUp,ArrowLeft"":23,""ArrowUp,ArrowRight"":10,""ArrowDown,ArrowLeft"":8,""ArrowDown,ArrowRight"":30}","true","ArrowDown,ArrowRight","false","original","1","96","","",""
"html-keyboard-response","218","890038","0.0-4.0-2.0-1.48","spark_pilot_norest","13778","3","18","Female","","","","","","","null","<div style=""font-size:60px;"">+</div>","null","fixation","","","","","","","","","97","","",""
"revaluation","219","896058","0.0-4.0-2.0-0.49","spark_pilot_norest","13778","3","18","Female","","false","","","","","[816.7999999970198,625.2999999970198]","./assets/img/ocean/memory/29.jpg","[""ArrowDown"",""ArrowRight""]","value training","ocean","30","{""ArrowUp,ArrowLeft"":23,""ArrowUp,ArrowRight"":10,""ArrowDown,ArrowLeft"":8,""ArrowDown,ArrowRight"":30}","true","ArrowDown,ArrowRight","false","original","1","98","","",""
"html-keyboard-response","220","896570","0.0-4.0-2.0-1.49","spark_pilot_norest","13778","3","18","Female","","","","","","","null","<div style=""font-size:60px;"">+</div>","null","fixation","","","","","","","","","99","","",""
"learning-instructions","221","912250","0.0-4.0-3.0-0.0","spark_pilot_norest","13778","3","18","Female","","","","","","","2058.3999999910593","<p> Now, you will travel with a friend who will choose whether you go up or down first. </p>
            <p> On these turns, you will just see the animal that they found. You will still get to choose which chest to search for treasure.</p>","","instructions","","","","","","","","","","","",""
"revaluation","222","916281","0.0-4.0-4.0-0.0","spark_pilot_norest","13778","3","18","Female","","false","","","","","[1118.7999999970198]","./assets/img/ocean/animals/seahorse.jpg","[""ArrowRight""]","revaluation","ocean","30","{""ArrowUp,ArrowLeft"":23,""ArrowUp,ArrowRight"":10,""ArrowDown,ArrowLeft"":8,""ArrowDown,ArrowRight"":30}","true","ArrowDown,ArrowRight","","original","1","0","","",""
"html-keyboard-response","223","916799","0.0-4.0-4.0-1.0","spark_pilot_norest","13778","3","18","Female","","","","","","","null","<div style=""font-size:60px;"">+</div>","null","fixation","","","","","","","","","1","","",""
"revaluation","224","920826","0.0-4.0-4.0-0.1","spark_pilot_norest","13778","3","18","Female","","false","","","","","[398]","./assets/img/ocean/animals/octopus.jpg","[""ArrowRight""]","revaluation","ocean","10","{""ArrowUp,ArrowLeft"":23,""ArrowUp,ArrowRight"":10,""ArrowDown,ArrowLeft"":8,""ArrowDown,ArrowRight"":30}","false","ArrowUp,ArrowRight","","original","1","2","","",""
"html-keyboard-response","225","921340","0.0-4.0-4.0-1.1","spark_pilot_norest","13778","3","18","Female","","","","","","","null","<div style=""font-size:60px;"">+</div>","null","fixation","","","","","","","","","3","","",""
"revaluation","226","925354","0.0-4.0-4.0-0.2","spark_pilot_norest","13778","3","18","Female","","false","","","","","[837.3000000119209]","./assets/img/ocean/animals/octopus.jpg","[""ArrowRight""]","revaluation","ocean","10","{""ArrowUp,ArrowLeft"":23,""ArrowUp,ArrowRight"":10,""ArrowDown,ArrowLeft"":8,""ArrowDown,ArrowRight"":30}","false","ArrowUp,ArrowRight","","original","1","4","","",""
"html-keyboard-response","227","925871","0.0-4.0-4.0-1.2","spark_pilot_norest","13778","3","18","Female","","","","","","","null","<div style=""font-size:60px;"">+</div>","null","fixation","","","","","","","","","5","","",""
"revaluation","228","929887","0.0-4.0-4.0-0.3","spark_pilot_norest","13778","3","18","Female","","false","","","","","[403.90000000596046]","./assets/img/ocean/animals/octopus.jpg","[""ArrowLeft""]","revaluation","ocean","23","{""ArrowUp,ArrowLeft"":23,""ArrowUp,ArrowRight"":10,""ArrowDown,ArrowLeft"":8,""ArrowDown,ArrowRight"":30}","true","ArrowUp,ArrowLeft","","original","1","6","","",""
"html-keyboard-response","229","930388","0.0-4.0-4.0-1.3","spark_pilot_norest","13778","3","18","Female","","","","","","","null","<div style=""font-size:60px;"">+</div>","null","fixation","","","","","","","","","7","","",""
"revaluation","230","934416","0.0-4.0-4.0-0.4","spark_pilot_norest","13778","3","18","Female","","false","","","","","[608.7000000029802]","./assets/img/ocean/animals/seahorse.jpg","[""ArrowRight""]","revaluation","ocean","30","{""ArrowUp,ArrowLeft"":23,""ArrowUp,ArrowRight"":10,""ArrowDown,ArrowLeft"":8,""ArrowDown,ArrowRight"":30}","true","ArrowDown,ArrowRight","","original","1","8","","",""
"html-keyboard-response","231","934933","0.0-4.0-4.0-1.4","spark_pilot_norest","13778","3","18","Female","","","","","","","null","<div style=""font-size:60px;"">+</div>","null","fixation","","","","","","","","","9","","",""
"revaluation","232","938949","0.0-4.0-4.0-0.5","spark_pilot_norest","13778","3","18","Female","","false","","","","","[385]","./assets/img/ocean/animals/octopus.jpg","[""ArrowLeft""]","revaluation","ocean","23","{""ArrowUp,ArrowLeft"":23,""ArrowUp,ArrowRight"":10,""ArrowDown,ArrowLeft"":8,""ArrowDown,ArrowRight"":30}","true","ArrowUp,ArrowLeft","","original","1","10","","",""
"html-keyboard-response","233","939458","0.0-4.0-4.0-1.5","spark_pilot_norest","13778","3","18","Female","","","","","","","null","<div style=""font-size:60px;"">+</div>","null","fixation","","","","","","","","","11","","",""
"revaluation","234","943474","0.0-4.0-4.0-0.6","spark_pilot_norest","13778","3","18","Female","","false","","","","","[566.7000000029802]","./assets/img/ocean/animals/seahorse.jpg","[""ArrowRight""]","revaluation","ocean","30","{""ArrowUp,ArrowLeft"":23,""ArrowUp,ArrowRight"":10,""ArrowDown,ArrowLeft"":8,""ArrowDown,ArrowRight"":30}","true","ArrowDown,ArrowRight","","original","1","12","","",""
"html-keyboard-response","235","943991","0.0-4.0-4.0-1.6","spark_pilot_norest","13778","3","18","Female","","","","","","","null","<div style=""font-size:60px;"">+</div>","null","fixation","","","","","","","","","13","","",""
"revaluation","236","948015","0.0-4.0-4.0-0.7","spark_pilot_norest","13778","3","18","Female","","false","","","","","[593.7000000029802]","./assets/img/ocean/animals/seahorse.jpg","[""ArrowRight""]","revaluation","ocean","30","{""ArrowUp,ArrowLeft"":23,""ArrowUp,ArrowRight"":10,""ArrowDown,ArrowLeft"":8,""ArrowDown,ArrowRight"":30}","true","ArrowDown,ArrowRight","","original","1","14","","",""
"html-keyboard-response","237","948516","0.0-4.0-4.0-1.7","spark_pilot_norest","13778","3","18","Female","","","","","","","null","<div style=""font-size:60px;"">+</div>","null","fixation","","","","","","","","","15","","",""
"revaluation","238","952522","0.0-4.0-4.0-0.8","spark_pilot_norest","13778","3","18","Female","","false","","","","","[389]","./assets/img/ocean/animals/octopus.jpg","[""ArrowLeft""]","revaluation","ocean","23","{""ArrowUp,ArrowLeft"":23,""ArrowUp,ArrowRight"":10,""ArrowDown,ArrowLeft"":8,""ArrowDown,ArrowRight"":30}","true","ArrowUp,ArrowLeft","","original","1","16","","",""
"html-keyboard-response","239","953028","0.0-4.0-4.0-1.8","spark_pilot_norest","13778","3","18","Female","","","","","","","null","<div style=""font-size:60px;"">+</div>","null","fixation","","","","","","","","","17","","",""
"revaluation","240","957036","0.0-4.0-4.0-0.9","spark_pilot_norest","13778","3","18","Female","","false","","","","","[448]","./assets/img/ocean/animals/octopus.jpg","[""ArrowLeft""]","revaluation","ocean","23","{""ArrowUp,ArrowLeft"":23,""ArrowUp,ArrowRight"":10,""ArrowDown,ArrowLeft"":8,""ArrowDown,ArrowRight"":30}","true","ArrowUp,ArrowLeft","","original","1","18","","",""
"html-keyboard-response","241","957540","0.0-4.0-4.0-1.9","spark_pilot_norest","13778","3","18","Female","","","","","","","null","<div style=""font-size:60px;"">+</div>","null","fixation","","","","","","","","","19","","",""
"revaluation","242","961560","0.0-4.0-4.0-0.10","spark_pilot_norest","13778","3","18","Female","","false","","","","","[376.70000000298023]","./assets/img/ocean/animals/octopus.jpg","[""ArrowLeft""]","revaluation","ocean","23","{""ArrowUp,ArrowLeft"":23,""ArrowUp,ArrowRight"":10,""ArrowDown,ArrowLeft"":8,""ArrowDown,ArrowRight"":30}","true","ArrowUp,ArrowLeft","","original","1","20","","",""
"html-keyboard-response","243","962076","0.0-4.0-4.0-1.10","spark_pilot_norest","13778","3","18","Female","","","","","","","null","<div style=""font-size:60px;"">+</div>","null","fixation","","","","","","","","","21","","",""
"revaluation","244","966097","0.0-4.0-4.0-0.11","spark_pilot_norest","13778","3","18","Female","","false","","","","","[638.2999999970198]","./assets/img/ocean/animals/seahorse.jpg","[""ArrowRight""]","revaluation","ocean","30","{""ArrowUp,ArrowLeft"":23,""ArrowUp,ArrowRight"":10,""ArrowDown,ArrowLeft"":8,""ArrowDown,ArrowRight"":30}","true","ArrowDown,ArrowRight","","original","1","22","","",""
"html-keyboard-response","245","966604","0.0-4.0-4.0-1.11","spark_pilot_norest","13778","3","18","Female","","","","","","","null","<div style=""font-size:60px;"">+</div>","null","fixation","","","","","","","","","23","","",""
"revaluation","246","970615","0.0-4.0-4.0-0.12","spark_pilot_norest","13778","3","18","Female","","false","","","","","[561.5]","./assets/img/ocean/animals/seahorse.jpg","[""ArrowRight""]","revaluation","ocean","30","{""ArrowUp,ArrowLeft"":23,""ArrowUp,ArrowRight"":10,""ArrowDown,ArrowLeft"":8,""ArrowDown,ArrowRight"":30}","true","ArrowDown,ArrowRight","","original","1","24","","",""
"html-keyboard-response","247","971119","0.0-4.0-4.0-1.12","spark_pilot_norest","13778","3","18","Female","","","","","","","null","<div style=""font-size:60px;"">+</div>","null","fixation","","","","","","","","","25","","",""
"revaluation","248","975125","0.0-4.0-4.0-0.13","spark_pilot_norest","13778","3","18","Female","","false","","","","","[442]","./assets/img/ocean/animals/seahorse.jpg","[""ArrowRight""]","revaluation","ocean","30","{""ArrowUp,ArrowLeft"":23,""ArrowUp,ArrowRight"":10,""ArrowDown,ArrowLeft"":8,""ArrowDown,ArrowRight"":30}","true","ArrowDown,ArrowRight","","original","1","26","","",""
"html-keyboard-response","249","975639","0.0-4.0-4.0-1.13","spark_pilot_norest","13778","3","18","Female","","","","","","","null","<div style=""font-size:60px;"">+</div>","null","fixation","","","","","","","","","27","","",""
"revaluation","250","979650","0.0-4.0-4.0-0.14","spark_pilot_norest","13778","3","18","Female","","false","","","","","[525.7000000029802]","./assets/img/ocean/animals/octopus.jpg","[""ArrowLeft""]","revaluation","ocean","23","{""ArrowUp,ArrowLeft"":23,""ArrowUp,ArrowRight"":10,""ArrowDown,ArrowLeft"":8,""ArrowDown,ArrowRight"":30}","true","ArrowUp,ArrowLeft","","original","1","28","","",""
"html-keyboard-response","251","980153","0.0-4.0-4.0-1.14","spark_pilot_norest","13778","3","18","Female","","","","","","","null","<div style=""font-size:60px;"">+</div>","null","fixation","","","","","","","","","29","","",""
"revaluation","252","984162","0.0-4.0-4.0-0.15","spark_pilot_norest","13778","3","18","Female","","false","","","","","[589.5]","./assets/img/ocean/animals/octopus.jpg","[""ArrowLeft""]","revaluation","ocean","23","{""ArrowUp,ArrowLeft"":23,""ArrowUp,ArrowRight"":10,""ArrowDown,ArrowLeft"":8,""ArrowDown,ArrowRight"":30}","true","ArrowUp,ArrowLeft","","original","1","30","","",""
"html-keyboard-response","253","984677","0.0-4.0-4.0-1.15","spark_pilot_norest","13778","3","18","Female","","","","","","","null","<div style=""font-size:60px;"">+</div>","null","fixation","","","","","","","","","31","","",""
"revaluation","254","988691","0.0-4.0-4.0-0.16","spark_pilot_norest","13778","3","18","Female","","false","","","","","[568.5]","./assets/img/ocean/animals/seahorse.jpg","[""ArrowRight""]","revaluation","ocean","30","{""ArrowUp,ArrowLeft"":23,""ArrowUp,ArrowRight"":10,""ArrowDown,ArrowLeft"":8,""ArrowDown,ArrowRight"":30}","true","ArrowDown,ArrowRight","","original","1","32","","",""
"html-keyboard-response","255","989199","0.0-4.0-4.0-1.16","spark_pilot_norest","13778","3","18","Female","","","","","","","null","<div style=""font-size:60px;"">+</div>","null","fixation","","","","","","","","","33","","",""
"revaluation","256","993208","0.0-4.0-4.0-0.17","spark_pilot_norest","13778","3","18","Female","","false","","","","","[550.5]","./assets/img/ocean/animals/seahorse.jpg","[""ArrowRight""]","revaluation","ocean","30","{""ArrowUp,ArrowLeft"":23,""ArrowUp,ArrowRight"":10,""ArrowDown,ArrowLeft"":8,""ArrowDown,ArrowRight"":30}","true","ArrowDown,ArrowRight","","original","1","34","","",""
"html-keyboard-response","257","993711","0.0-4.0-4.0-1.17","spark_pilot_norest","13778","3","18","Female","","","","","","","null","<div style=""font-size:60px;"">+</div>","null","fixation","","","","","","","","","35","","",""
"learning-instructions","258","1002542","0.0-4.0-5.0-0.0","spark_pilot_norest","13778","3","18","Female","","","","","","","null","<p> You have almost finished this part of the game! </p>
            <p> We are going to ask you to make a few more choices. </p>","","instructions","","","","","","","","","","","",""
"learning-instructions","259","1018520","0.0-4.0-5.0-0.1","spark_pilot_norest","13778","3","18","Female","","","","","","","null","<p> First, you need to decide whether to go up or down. When you see each picture, use the arrow keys to make your choice. </p>
            <p><b>You will not see which animal you found, but try to get to the one that will give you the most treasure.</b></p>","","instructions","","","","","","","","","","","",""
"html-keyboard-response","260","1019536","0.0-4.0-6.0-0.0","spark_pilot_norest","13778","3","18","Female","","","","","","","null","<div style=""font-size:100px;color:red;"">Starting in...</div>","null","","","","","","","","","","","","",""
"html-keyboard-response","261","1020540","0.0-4.0-6.0-1.0","spark_pilot_norest","13778","3","18","Female","","","","","","","null","<div style=""font-size:200px;color:red;"">3</div>","null","","","","","","","","","","","","",""
"html-keyboard-response","262","1021548","0.0-4.0-6.0-2.0","spark_pilot_norest","13778","3","18","Female","","","","","","","null","<div style=""font-size:200px;color:red;"">2</div>","null","","","","","","","","","","","","",""
"html-keyboard-response","263","1022556","0.0-4.0-6.0-3.0","spark_pilot_norest","13778","3","18","Female","","","","","","","null","<div style=""font-size:200px;color:red;"">1</div>","null","","","","","","","","","","","","",""
"revaluation","264","1023111","0.0-4.0-7.0-0.0","spark_pilot_norest","13778","3","18","Female","","false","","","","","[551.5]","./assets/img/ocean/test/2.jpg","[""ArrowDown""]","first stage test","ocean","0","{""ArrowUp,ArrowLeft"":23,""ArrowUp,ArrowRight"":10,""ArrowDown,ArrowLeft"":8,""ArrowDown,ArrowRight"":30}","true","ArrowDown","false","original","1","","","",""
"html-keyboard-response","265","1023618","0.0-4.0-7.0-1.0","spark_pilot_norest","13778","3","18","Female","","","","","","","null","<div style=""font-size:60px;"">+</div>","null","fixation","","","","","","","","","","","",""
"revaluation","266","1024650","0.0-4.0-7.0-0.1","spark_pilot_norest","13778","3","18","Female","","false","","","","","[1029.2999999970198]","./assets/img/ocean/test/1.jpg","[""ArrowDown""]","first stage test","ocean","0","{""ArrowUp,ArrowLeft"":23,""ArrowUp,ArrowRight"":10,""ArrowDown,ArrowLeft"":8,""ArrowDown,ArrowRight"":30}","true","ArrowDown","false","original","1","","","",""
"html-keyboard-response","267","1025166","0.0-4.0-7.0-1.1","spark_pilot_norest","13778","3","18","Female","","","","","","","null","<div style=""font-size:60px;"">+</div>","null","fixation","","","","","","","","","","","",""
"revaluation","268","1026245","0.0-4.0-7.0-0.2","spark_pilot_norest","13778","3","18","Female","","false","","","","","[1074.5]","./assets/img/ocean/test/3.jpg","[""ArrowDown""]","first stage test","ocean","0","{""ArrowUp,ArrowLeft"":23,""ArrowUp,ArrowRight"":10,""ArrowDown,ArrowLeft"":8,""ArrowDown,ArrowRight"":30}","true","ArrowDown","false","original","1","","","",""
"html-keyboard-response","269","1026758","0.0-4.0-7.0-1.2","spark_pilot_norest","13778","3","18","Female","","","","","","","null","<div style=""font-size:60px;"">+</div>","null","fixation","","","","","","","","","","","",""
"revaluation","270","1027594","0.0-4.0-7.0-0.3","spark_pilot_norest","13778","3","18","Female","","false","","","","","[830.7999999970198]","./assets/img/ocean/test/0.jpg","[""ArrowDown""]","first stage test","ocean","0","{""ArrowUp,ArrowLeft"":23,""ArrowUp,ArrowRight"":10,""ArrowDown,ArrowLeft"":8,""ArrowDown,ArrowRight"":30}","true","ArrowDown","false","original","1","","","",""
"html-keyboard-response","271","1028099","0.0-4.0-7.0-1.3","spark_pilot_norest","13778","3","18","Female","","","","","","","null","<div style=""font-size:60px;"">+</div>","null","fixation","","","","","","","","","","","",""
"learning-instructions","272","1041450","0.0-4.0-8.0-0.0","spark_pilot_norest","13778","3","18","Female","","","","","","","null","<p> Now you will see the animals again and can search their chests for treasure. </p>
            <p> This time, you will not see how much treasure you earned, but you will earn more bonus money for making better choices. </p>","","instructions","","","","","","","","","","","",""
"html-keyboard-response","273","1042466","0.0-4.0-9.0-0.0","spark_pilot_norest","13778","3","18","Female","","","","","","","null","<div style=""font-size:100px;color:red;"">Starting in...</div>","null","","","","","","","","","","","","",""
"html-keyboard-response","274","1043474","0.0-4.0-9.0-1.0","spark_pilot_norest","13778","3","18","Female","","","","","","","null","<div style=""font-size:200px;color:red;"">3</div>","null","","","","","","","","","","","","",""
"html-keyboard-response","275","1044481","0.0-4.0-9.0-2.0","spark_pilot_norest","13778","3","18","Female","","","","","","","null","<div style=""font-size:200px;color:red;"">2</div>","null","","","","","","","","","","","","",""
"html-keyboard-response","276","1045490","0.0-4.0-9.0-3.0","spark_pilot_norest","13778","3","18","Female","","","","","","","null","<div style=""font-size:200px;color:red;"">1</div>","null","","","","","","","","","","","","",""
"revaluation","277","1046503","0.0-4.0-10.0-0.0","spark_pilot_norest","13778","3","18","Female","","false","","","","","[1009.2999999970198]","./assets/img/ocean/animals/octopus.jpg","[""ArrowLeft""]","second stage test","ocean","0","{""ArrowUp,ArrowLeft"":23,""ArrowUp,ArrowRight"":10,""ArrowDown,ArrowLeft"":8,""ArrowDown,ArrowRight"":30}","true","ArrowUp,ArrowLeft","","original","1","","","",""
"html-keyboard-response","278","1047005","0.0-4.0-10.0-1.0","spark_pilot_norest","13778","3","18","Female","","","","","","","null","<div style=""font-size:60px;"">+</div>","null","fixation","","","","","","","","","","","",""
"revaluation","279","1047792","0.0-4.0-10.0-0.1","spark_pilot_norest","13778","3","18","Female","","false","","","","","[783.7999999970198]","./assets/img/ocean/animals/octopus.jpg","[""ArrowLeft""]","second stage test","ocean","0","{""ArrowUp,ArrowLeft"":23,""ArrowUp,ArrowRight"":10,""ArrowDown,ArrowLeft"":8,""ArrowDown,ArrowRight"":30}","true","ArrowUp,ArrowLeft","","original","1","","","",""
"html-keyboard-response","280","1048295","0.0-4.0-10.0-1.1","spark_pilot_norest","13778","3","18","Female","","","","","","","null","<div style=""font-size:60px;"">+</div>","null","fixation","","","","","","","","","","","",""
"revaluation","281","1048680","0.0-4.0-10.0-0.2","spark_pilot_norest","13778","3","18","Female","","false","","","","","[380.8999999910593]","./assets/img/ocean/animals/octopus.jpg","[""ArrowLeft""]","second stage test","ocean","0","{""ArrowUp,ArrowLeft"":23,""ArrowUp,ArrowRight"":10,""ArrowDown,ArrowLeft"":8,""ArrowDown,ArrowRight"":30}","true","ArrowUp,ArrowLeft","","original","1","","","",""
"html-keyboard-response","282","1049197","0.0-4.0-10.0-1.2","spark_pilot_norest","13778","3","18","Female","","","","","","","null","<div style=""font-size:60px;"">+</div>","null","fixation","","","","","","","","","","","",""
"revaluation","283","1049842","0.0-4.0-10.0-0.3","spark_pilot_norest","13778","3","18","Female","","false","","","","","[640.9000000059605]","./assets/img/ocean/animals/octopus.jpg","[""ArrowLeft""]","second stage test","ocean","0","{""ArrowUp,ArrowLeft"":23,""ArrowUp,ArrowRight"":10,""ArrowDown,ArrowLeft"":8,""ArrowDown,ArrowRight"":30}","true","ArrowUp,ArrowLeft","","original","1","","","",""
"html-keyboard-response","284","1050353","0.0-4.0-10.0-1.3","spark_pilot_norest","13778","3","18","Female","","","","","","","null","<div style=""font-size:60px;"">+</div>","null","fixation","","","","","","","","","","","",""
"revaluation","285","1050924","0.0-4.0-10.0-0.4","spark_pilot_norest","13778","3","18","Female","","false","","","","","[567.5]","./assets/img/ocean/animals/seahorse.jpg","[""ArrowRight""]","second stage test","ocean","0","{""ArrowUp,ArrowLeft"":23,""ArrowUp,ArrowRight"":10,""ArrowDown,ArrowLeft"":8,""ArrowDown,ArrowRight"":30}","true","ArrowDown,ArrowRight","","original","1","","","",""
"html-keyboard-response","286","1051432","0.0-4.0-10.0-1.4","spark_pilot_norest","13778","3","18","Female","","","","","","","null","<div style=""font-size:60px;"">+</div>","null","fixation","","","","","","","","","","","",""
"revaluation","287","1051828","0.0-4.0-10.0-0.5","spark_pilot_norest","13778","3","18","Female","","false","","","","","[393.30000001192093]","./assets/img/ocean/animals/seahorse.jpg","[""ArrowRight""]","second stage test","ocean","0","{""ArrowUp,ArrowLeft"":23,""ArrowUp,ArrowRight"":10,""ArrowDown,ArrowLeft"":8,""ArrowDown,ArrowRight"":30}","true","ArrowDown,ArrowRight","","original","1","","","",""
"html-keyboard-response","288","1052341","0.0-4.0-10.0-1.5","spark_pilot_norest","13778","3","18","Female","","","","","","","null","<div style=""font-size:60px;"">+</div>","null","fixation","","","","","","","","","","","",""
"revaluation","289","1052773","0.0-4.0-10.0-0.6","spark_pilot_norest","13778","3","18","Female","","false","","","","","[429]","./assets/img/ocean/animals/seahorse.jpg","[""ArrowRight""]","second stage test","ocean","0","{""ArrowUp,ArrowLeft"":23,""ArrowUp,ArrowRight"":10,""ArrowDown,ArrowLeft"":8,""ArrowDown,ArrowRight"":30}","true","ArrowDown,ArrowRight","","original","1","","","",""
"html-keyboard-response","290","1053282","0.0-4.0-10.0-1.6","spark_pilot_norest","13778","3","18","Female","","","","","","","null","<div style=""font-size:60px;"">+</div>","null","fixation","","","","","","","","","","","",""
"revaluation","291","1053726","0.0-4.0-10.0-0.7","spark_pilot_norest","13778","3","18","Female","","false","","","","","[439.69999998807907]","./assets/img/ocean/animals/seahorse.jpg","[""ArrowRight""]","second stage test","ocean","0","{""ArrowUp,ArrowLeft"":23,""ArrowUp,ArrowRight"":10,""ArrowDown,ArrowLeft"":8,""ArrowDown,ArrowRight"":30}","true","ArrowDown,ArrowRight","","original","1","","","",""
"html-keyboard-response","292","1054236","0.0-4.0-10.0-1.7","spark_pilot_norest","13778","3","18","Female","","","","","","","null","<div style=""font-size:60px;"">+</div>","null","fixation","","","","","","","","","","","",""
"learning-instructions","293","1057825","0.0-4.0-0.1-0.2","spark_pilot_norest","13778","3","18","Female","","","","","","","824.0999999940395","<p> This time you are searching for treasure in the <b>canyon</b>.</p>","","instructions","","","","","","","","","","","",""
"learning-instructions","294","1076041","0.0-4.0-0.1-0.3","spark_pilot_norest","13778","3","18","Female","","","","","","","959.9000000059605","<p><b>New</b> animals with <b>new</b> treasure chests live here. You need to explore to discover where the animal with the best treasure chest is.</p>
                    <p> Like before, once you figure out which animal has the chest with the most treasure, you should try to get to that animal and select that chest! </p>","","instructions","","","","","","","","","","","",""
"learning-instructions","295","1092600","0.0-4.0-1.1-0.1","spark_pilot_norest","13778","3","18","Female","","","","","","","1827.2999999970198","<p> Remember, when you see a picture of the place, use the up and down keys to <b>find an animal</b>.</p>
            <p> When you encounter an animal, you should use the left and right keys to <b>select a treasure chest</b>.</p>
            <p> Don't forget to look out for the robber! </p>","","instructions","","","","","","","","","","","",""
"revaluation","296","1098629","0.0-4.0-2.1-0.50","spark_pilot_norest","13778","3","18","Female","","false","","","","","[1215,740.1000000089407]","./assets/img/canyon/memory/6.jpg","[""ArrowUp"",""ArrowLeft""]","value training","canyon","26","{""ArrowUp,ArrowLeft"":26,""ArrowUp,ArrowRight"":10,""ArrowDown,ArrowLeft"":5,""ArrowDown,ArrowRight"":17}","true","ArrowUp,ArrowLeft","false","revaluation","2","0","","",""
"html-keyboard-response","297","1099146","0.0-4.0-2.1-1.50","spark_pilot_norest","13778","3","18","Female","","","","","","","null","<div style=""font-size:60px;"">+</div>","null","fixation","","","","","","","","","1","","",""
"revaluation","298","1105178","0.0-4.0-2.1-0.51","spark_pilot_norest","13778","3","18","Female","","false","","","","","[678.7000000029802,340.29999999701977]","./assets/img/canyon/memory/35.jpg","[""ArrowUp"",""ArrowRight""]","value training","canyon","10","{""ArrowUp,ArrowLeft"":26,""ArrowUp,ArrowRight"":10,""ArrowDown,ArrowLeft"":5,""ArrowDown,ArrowRight"":17}","false","ArrowUp,ArrowRight","false","revaluation","2","2","","",""
"html-keyboard-response","299","1105682","0.0-4.0-2.1-1.51","spark_pilot_norest","13778","3","18","Female","","","","","","","null","<div style=""font-size:60px;"">+</div>","null","fixation","","","","","","","","","3","","",""
"revaluation","300","1111706","0.0-4.0-2.1-0.52","spark_pilot_norest","13778","3","18","Female","","false","","","","","[856.7000000029802,603.4000000059605]","./assets/img/canyon/memory/29.jpg","[""ArrowDown"",""ArrowLeft""]","value training","canyon","5","{""ArrowUp,ArrowLeft"":26,""ArrowUp,ArrowRight"":10,""ArrowDown,ArrowLeft"":5,""ArrowDown,ArrowRight"":17}","false","ArrowDown,ArrowLeft","false","revaluation","2","4","","",""
"html-keyboard-response","301","1112218","0.0-4.0-2.1-1.52","spark_pilot_norest","13778","3","18","Female","","","","","","","null","<div style=""font-size:60px;"">+</div>","null","fixation","","","","","","","","","5","","",""
"revaluation","302","1116228","0.0-4.0-2.1-0.53","spark_pilot_norest","13778","3","18","Female","","false","","","","","[969.6000000089407]","./assets/img/canyon/catch/1.jpg","[""spaceBar""]","value training","canyon","0","{""ArrowUp,ArrowLeft"":26,""ArrowUp,ArrowRight"":10,""ArrowDown,ArrowLeft"":5,""ArrowDown,ArrowRight"":17}","true","spaceBar","true","revaluation","2","6","","",""
"html-keyboard-response","303","1116742","0.0-4.0-2.1-1.53","spark_pilot_norest","13778","3","18","Female","","","","","","","null","<div style=""font-size:60px;"">+</div>","null","fixation","","","","","","","","","7","","",""
"revaluation","304","1122771","0.0-4.0-2.1-0.54","spark_pilot_norest","13778","3","18","Female","","false","","","","","[856,621]","./assets/img/canyon/memory/15.jpg","[""ArrowDown"",""ArrowRight""]","value training","canyon","17","{""ArrowUp,ArrowLeft"":26,""ArrowUp,ArrowRight"":10,""ArrowDown,ArrowLeft"":5,""ArrowDown,ArrowRight"":17}","false","ArrowDown,ArrowRight","false","revaluation","2","8","","",""
"html-keyboard-response","305","1123281","0.0-4.0-2.1-1.54","spark_pilot_norest","13778","3","18","Female","","","","","","","null","<div style=""font-size:60px;"">+</div>","null","fixation","","","","","","","","","9","","",""
"revaluation","306","1129296","0.0-4.0-2.1-0.55","spark_pilot_norest","13778","3","18","Female","","false","","","","","[945.6000000089407,277]","./assets/img/canyon/memory/19.jpg","[""ArrowUp"",""ArrowLeft""]","value training","canyon","26","{""ArrowUp,ArrowLeft"":26,""ArrowUp,ArrowRight"":10,""ArrowDown,ArrowLeft"":5,""ArrowDown,ArrowRight"":17}","true","ArrowUp,ArrowLeft","false","revaluation","2","10","","",""
"html-keyboard-response","307","1129798","0.0-4.0-2.1-1.55","spark_pilot_norest","13778","3","18","Female","","","","","","","null","<div style=""font-size:60px;"">+</div>","null","fixation","","","","","","","","","11","","",""
"revaluation","308","1135831","0.0-4.0-2.1-0.56","spark_pilot_norest","13778","3","18","Female","","false","","","","","[734.9000000059605,457.8999999910593]","./assets/img/canyon/memory/4.jpg","[""ArrowUp"",""ArrowLeft""]","value training","canyon","26","{""ArrowUp,ArrowLeft"":26,""ArrowUp,ArrowRight"":10,""ArrowDown,ArrowLeft"":5,""ArrowDown,ArrowRight"":17}","true","ArrowUp,ArrowLeft","false","revaluation","2","12","","",""
"html-keyboard-response","309","1136338","0.0-4.0-2.1-1.56","spark_pilot_norest","13778","3","18","Female","","","","","","","null","<div style=""font-size:60px;"">+</div>","null","fixation","","","","","","","","","13","","",""
"revaluation","310","1142353","0.0-4.0-2.1-0.57","spark_pilot_norest","13778","3","18","Female","","false","","","","","[1135,565]","./assets/img/canyon/memory/35.jpg","[""ArrowUp"",""ArrowLeft""]","value training","canyon","26","{""ArrowUp,ArrowLeft"":26,""ArrowUp,ArrowRight"":10,""ArrowDown,ArrowLeft"":5,""ArrowDown,ArrowRight"":17}","true","ArrowUp,ArrowLeft","false","revaluation","2","14","","",""
"html-keyboard-response","311","1142859","0.0-4.0-2.1-1.57","spark_pilot_norest","13778","3","18","Female","","","","","","","null","<div style=""font-size:60px;"">+</div>","null","fixation","","","","","","","","","15","","",""
