"trial_type","trial_index","time_elapsed","internal_node_id","task_version","subject_id","assigned_condition","age","gender","success","timeout","failed_images","failed_audio","failed_video","browser_interaction","rt","stimulus","response","task_part","environment","score","rewardMap","correct","fullState","isCatch","condition","order","trial_num","key_press","ground_truth","bonus"
"pavlovia","0","2462","0.0-0.0","spark_pilot_norest","8321","3","12","Male","","","","","","","","","","","","","","","","","","","","","",""
"preload","1","19808","0.0-1.0","spark_pilot_norest","8321","3","12","Male","true","false","[]","[]","[]","[{""event"":""fullscreenenter"",""trial"":2,""time"":25731},{""event"":""blur"",""trial"":225,""time"":1047194},{""event"":""focus"",""trial"":229,""time"":1054533}]","","","","","","","","","","","","","","","",""
"fullscreen","2","26322","0.0-2.0","spark_pilot_norest","8321","3","12","Male","true","","","","","","","","","","","","","","","","","","","","",""
"audio-button-response","3","38958","0.0-3.0-0.0-0.0","spark_pilot_norest","8321","3","12","Male","","","","","","","11792","./assets/audio/audiotest/turtle.mp3","4","audio_test","","","","","","","","","","","",""
"audio-button-response","4","42162","0.0-3.0-0.1-0.1","spark_pilot_norest","8321","3","12","Male","","","","","","","2149","./assets/audio/audiotest/turtle.mp3","2","audio_test","","","","","","","","","","","",""
"learning-instructions","5","64741","0.0-3.0-1.0-0.0","spark_pilot_norest","8321","3","12","Male","","","","","","","14144","<p> Welcome! Please remember to stay in fullscreen mode and don't click away from the experiment. </p>","","instructions","","","","","","","","","","","",""
"learning-instructions","6","75715","0.0-3.0-1.0-0.1","spark_pilot_norest","8321","3","12","Male","","","","","","","2308","<p> Today you will be playing a game to earn treasure. </p>
            <p> At the end of the experiment, you will earn a bonus based on how much treasure you find. </p>
            <img src='./assets/img/instructions/treasure.jpg' class='instructions-image'>","","instructions","","","","","","","","","","","",""
"learning-instructions","7","86229","0.0-3.0-1.0-0.2","spark_pilot_norest","8321","3","12","Male","","","","","","","2100","<p> Animals have hidden treasure in treasure chests. </p>
            <p> You need to first find an animal and then choose which of their treasure chests to search. </p>
            <img src='./assets/img/space/animals/cat.jpg' class='instructions-image'>","","instructions","","","","","","","","","","","",""
"learning-instructions","8","102116","0.0-3.0-1.0-0.3","spark_pilot_norest","8321","3","12","Male","","","","","","","2468","<p> In each round, you will search for treasure in a different place. In the real game, there will be two rounds. </p>
            <p> You will begin with a separate, practice round where you will search for treasure in outer space. </p>
            <img src='./assets/img/space/0.jpg' class='instructions-image'>","","instructions","","","","","","","","","","","",""
"learning-instructions","9","116192","0.0-3.0-1.0-0.4","spark_pilot_norest","8321","3","12","Male","","","","","","","1884","<p> On every turn, you will see a picture of the place that you are in, but the specific image may be different each time. </p>
            <p> For example, both of these images mean you are in outer space. </p>
            <img src='./assets/img/instructions/outerspace.jpg' class='instructions-image'>","","instructions","","","","","","","","","","","",""
"learning-instructions","10","126555","0.0-3.0-1.0-0.5","spark_pilot_norest","8321","3","12","Male","","","","","","","2309","<p> You need to decide which direction to travel in. </p>
            <p> You can choose between going <b>up or down</b> by using the arrow keys. </p>
            <img src='./assets/img/instructions/updown.jpg' class='instructions-image'>","","instructions","","","","","","","","","","","",""
"learning-instructions","11","138632","0.0-3.0-1.0-0.6","spark_pilot_norest","8321","3","12","Male","","","","","","","2475","<p> You will have <b>2 seconds</b> to make your choice. </p>
            <p> If you do not make a choice within 2 seconds, you will not find an animal or earn treasure. </p>
            <img src='./assets/img/instructions/2seconds.jpg' class='instructions-image'>","","instructions","","","","","","","","","","","",""
"learning-instructions","12","148706","0.0-3.0-1.0-0.7","spark_pilot_norest","8321","3","12","Male","","","","","","","2799","<p> Let’s try practicing that now! </p>
            <p> When you see a picture of the place you are in, press the <b>up</b> key to travel up. </p>
            <img src='./assets/img/instructions/pressUp.jpg' class='instructions-image'>","","instructions","","","","","","","","","","","",""
"revaluation","13","152745","0.0-3.0-2.0-0.0","spark_pilot_norest","8321","3","12","Male","","false","","","","","[1878]","./assets/img/space/0.jpg","[""ArrowUp""]","first stage practice","space","0","null","null","ArrowUp","false","","","","","",""
"html-keyboard-response","14","153253","0.0-3.0-2.0-1.0","spark_pilot_norest","8321","3","12","Male","","","","","","","null","<div style=""font-size:60px;"">+</div>","null","fixation","","","","","","","","","","","",""
"revaluation","15","157284","0.0-3.0-2.0-0.1","spark_pilot_norest","8321","3","12","Male","","false","","","","","[1963]","./assets/img/space/1.jpg","[""ArrowUp""]","first stage practice","space","0","null","null","ArrowUp","false","","","","","",""
"html-keyboard-response","16","157789","0.0-3.0-2.0-1.1","spark_pilot_norest","8321","3","12","Male","","","","","","","null","<div style=""font-size:60px;"">+</div>","null","fixation","","","","","","","","","","","",""
"revaluation","17","161825","0.0-3.0-2.0-0.2","spark_pilot_norest","8321","3","12","Male","","false","","","","","[1170]","./assets/img/space/2.jpg","[""ArrowUp""]","first stage practice","space","0","null","null","ArrowUp","false","","","","","",""
"html-keyboard-response","18","162342","0.0-3.0-2.0-1.2","spark_pilot_norest","8321","3","12","Male","","","","","","","null","<div style=""font-size:60px;"">+</div>","null","fixation","","","","","","","","","","","",""
"learning-instructions","19","169507","0.0-3.0-3.0-0.0","spark_pilot_norest","8321","3","12","Male","","","","","","","2291","<p> Great job! Now try pressing the <b>down</b> key to travel down. </p>
            <img src='./assets/img/instructions/pressDown.jpg' class='instructions-image'>","","instructions","","","","","","","","","","","",""
"revaluation","20","173544","0.0-3.0-4.0-0.0","spark_pilot_norest","8321","3","12","Male","","false","","","","","[803]","./assets/img/space/3.jpg","[""ArrowDown""]","first stage practice","space","0","null","null","ArrowDown","false","","","","","",""
"html-keyboard-response","21","174064","0.0-3.0-4.0-1.0","spark_pilot_norest","8321","3","12","Male","","","","","","","null","<div style=""font-size:60px;"">+</div>","null","fixation","","","","","","","","","","","",""
"revaluation","22","178104","0.0-3.0-4.0-0.1","spark_pilot_norest","8321","3","12","Male","","false","","","","","[587]","./assets/img/space/4.jpg","[""ArrowDown""]","first stage practice","space","0","null","null","ArrowDown","false","","","","","",""
"html-keyboard-response","23","178624","0.0-3.0-4.0-1.1","spark_pilot_norest","8321","3","12","Male","","","","","","","null","<div style=""font-size:60px;"">+</div>","null","fixation","","","","","","","","","","","",""
"revaluation","24","182654","0.0-3.0-4.0-0.2","spark_pilot_norest","8321","3","12","Male","","false","","","","","[585]","./assets/img/space/5.jpg","[""ArrowDown""]","first stage practice","space","0","null","null","ArrowDown","false","","","","","",""
"html-keyboard-response","25","183174","0.0-3.0-4.0-1.2","spark_pilot_norest","8321","3","12","Male","","","","","","","null","<div style=""font-size:60px;"">+</div>","null","fixation","","","","","","","","","","","",""
"learning-instructions","26","196417","0.0-3.0-5.0-0.0","spark_pilot_norest","8321","3","12","Male","","","","","","","2832","<p> The animals don’t move, so the animal in the upper part of a place will stay in the upper part of a place, and the animal in the lower part of a place will stay in the lower part of a place. </p>","","instructions","","","","","","","","","","","",""
"learning-instructions","27","207437","0.0-3.0-5.0-0.1","spark_pilot_norest","8321","3","12","Male","","","","","","","1741","<p> Each animal has two treasure chests for you to choose from. </p>
            <p> The amount of treasure in each chest can range from <b> 0 to 40 pieces.</b></p>","","instructions","","","","","","","","","","","",""
"learning-instructions","28","221267","0.0-3.0-5.0-0.2","spark_pilot_norest","8321","3","12","Male","","","","","","","2481","<p> You should decide which chest to search for treasure by using the <b>left</b> and <b>right</b> arrow keys. </p>
            <p><b> Pay attention to which animal is on the screen, as the animals have different treasure chests. </b></p>
            <img src='./assets/img/instructions/leftright.jpg' class='instructions-image'>","","instructions","","","","","","","","","","","",""
"learning-instructions","29","229646","0.0-3.0-5.0-0.3","spark_pilot_norest","8321","3","12","Male","","","","","","","1901","<p> Let’s try practicing that now. </p>
            <p> When you see an animal, choose which chest to search for treasure. </p>
            <img src='./assets/img/instructions/chooseChest.jpg' class='instructions-image'>","","instructions","","","","","","","","","","","",""
"revaluation","30","233666","0.0-3.0-6.0-0.0","spark_pilot_norest","8321","3","12","Male","","false","","","","","[1228]","./assets/img/space/animals/rabbit.jpg","[""ArrowRight""]","second stage practice","space","23","{""ArrowUp,ArrowLeft"":3,""ArrowUp,ArrowRight"":36,""ArrowDown,ArrowLeft"":15,""ArrowDown,ArrowRight"":23}","true","ArrowDown,ArrowRight","","","","","","",""
"html-keyboard-response","31","234175","0.0-3.0-6.0-1.0","spark_pilot_norest","8321","3","12","Male","","","","","","","null","<div style=""font-size:60px;"">+</div>","null","fixation","","","","","","","","","","","",""
"revaluation","32","238204","0.0-3.0-6.0-0.1","spark_pilot_norest","8321","3","12","Male","","false","","","","","[1330]","./assets/img/space/animals/cat.jpg","[""ArrowRight""]","second stage practice","space","36","{""ArrowUp,ArrowLeft"":3,""ArrowUp,ArrowRight"":36,""ArrowDown,ArrowLeft"":15,""ArrowDown,ArrowRight"":23}","true","ArrowUp,ArrowRight","","","","","","",""
"html-keyboard-response","33","238724","0.0-3.0-6.0-1.1","spark_pilot_norest","8321","3","12","Male","","","","","","","null","<div style=""font-size:60px;"">+</div>","null","fixation","","","","","","","","","","","",""
"revaluation","34","242745","0.0-3.0-6.0-0.2","spark_pilot_norest","8321","3","12","Male","","false","","","","","[801]","./assets/img/space/animals/cat.jpg","[""ArrowRight""]","second stage practice","space","36","{""ArrowUp,ArrowLeft"":3,""ArrowUp,ArrowRight"":36,""ArrowDown,ArrowLeft"":15,""ArrowDown,ArrowRight"":23}","true","ArrowUp,ArrowRight","","","","","","",""
"html-keyboard-response","35","243264","0.0-3.0-6.0-1.2","spark_pilot_norest","8321","3","12","Male","","","","","","","null","<div style=""font-size:60px;"">+</div>","null","fixation","","","","","","","","","","","",""
"revaluation","36","247284","0.0-3.0-6.0-0.3","spark_pilot_norest","8321","3","12","Male","","false","","","","","[842]","./assets/img/space/animals/rabbit.jpg","[""ArrowLeft""]","second stage practice","space","15","{""ArrowUp,ArrowLeft"":3,""ArrowUp,ArrowRight"":36,""ArrowDown,ArrowLeft"":15,""ArrowDown,ArrowRight"":23}","false","ArrowDown,ArrowLeft","","","","","","",""
"html-keyboard-response","37","247793","0.0-3.0-6.0-1.3","spark_pilot_norest","8321","3","12","Male","","","","","","","null","<div style=""font-size:60px;"">+</div>","null","fixation","","","","","","","","","","","",""
"learning-instructions","38","266697","0.0-3.0-7.0-0.0","spark_pilot_norest","8321","3","12","Male","","","","","","","1851","<p> Great job. Now let’s try putting it together. </p>
            <p> On each turn, you will first see a picture to remind you of the place you are in, and you need to choose whether to go up or down. </p>
            <p> Then you will see an animal and choose which of its chests to search for treasure. </p>","","instructions","","","","","","","","","","","",""
"learning-instructions","39","279467","0.0-3.0-7.0-0.1","spark_pilot_norest","8321","3","12","Male","","","","","","","4382","<p> When you choose whether to go up or down, try to go to the animal with the chest with the most treasure. </p>
            <p> Try practicing that now! </p>","","instructions","","","","","","","","","","","",""
"revaluation","40","283528","0.0-3.0-8.0-0.0","spark_pilot_norest","8321","3","12","Male","","true","","","","","[]","./assets/img/space/6.jpg","[]","full practice","space","-5","{""ArrowUp,ArrowLeft"":3,""ArrowUp,ArrowRight"":36,""ArrowDown,ArrowLeft"":15,""ArrowDown,ArrowRight"":23}","false","","false","","","","","",""
"html-keyboard-response","41","284044","0.0-3.0-8.0-1.0","spark_pilot_norest","8321","3","12","Male","","","","","","","null","<div style=""font-size:60px;"">+</div>","null","fixation","","","","","","","","","","","",""
"revaluation","42","290075","0.0-3.0-8.0-0.1","spark_pilot_norest","8321","3","12","Male","","false","","","","","[798,939]","./assets/img/space/7.jpg","[""ArrowUp"",""ArrowRight""]","full practice","space","36","{""ArrowUp,ArrowLeft"":3,""ArrowUp,ArrowRight"":36,""ArrowDown,ArrowLeft"":15,""ArrowDown,ArrowRight"":23}","true","ArrowUp,ArrowRight","false","","","","","",""
"html-keyboard-response","43","290594","0.0-3.0-8.0-1.1","spark_pilot_norest","8321","3","12","Male","","","","","","","null","<div style=""font-size:60px;"">+</div>","null","fixation","","","","","","","","","","","",""
"revaluation","44","296624","0.0-3.0-8.0-0.2","spark_pilot_norest","8321","3","12","Male","","false","","","","","[1240,503]","./assets/img/space/8.jpg","[""ArrowUp"",""ArrowRight""]","full practice","space","36","{""ArrowUp,ArrowLeft"":3,""ArrowUp,ArrowRight"":36,""ArrowDown,ArrowLeft"":15,""ArrowDown,ArrowRight"":23}","true","ArrowUp,ArrowRight","false","","","","","",""
"html-keyboard-response","45","297143","0.0-3.0-8.0-1.2","spark_pilot_norest","8321","3","12","Male","","","","","","","null","<div style=""font-size:60px;"">+</div>","null","fixation","","","","","","","","","","","",""
"revaluation","46","303184","0.0-3.0-8.0-0.3","spark_pilot_norest","8321","3","12","Male","","false","","","","","[708,500]","./assets/img/space/9.jpg","[""ArrowUp"",""ArrowRight""]","full practice","space","36","{""ArrowUp,ArrowLeft"":3,""ArrowUp,ArrowRight"":36,""ArrowDown,ArrowLeft"":15,""ArrowDown,ArrowRight"":23}","true","ArrowUp,ArrowRight","false","","","","","",""
"html-keyboard-response","47","303703","0.0-3.0-8.0-1.3","spark_pilot_norest","8321","3","12","Male","","","","","","","null","<div style=""font-size:60px;"">+</div>","null","fixation","","","","","","","","","","","",""
"revaluation","48","309745","0.0-3.0-8.0-0.4","spark_pilot_norest","8321","3","12","Male","","false","","","","","[492,677]","./assets/img/space/10.jpg","[""ArrowUp"",""ArrowLeft""]","full practice","space","3","{""ArrowUp,ArrowLeft"":3,""ArrowUp,ArrowRight"":36,""ArrowDown,ArrowLeft"":15,""ArrowDown,ArrowRight"":23}","false","ArrowUp,ArrowLeft","false","","","","","",""
"html-keyboard-response","49","310263","0.0-3.0-8.0-1.4","spark_pilot_norest","8321","3","12","Male","","","","","","","null","<div style=""font-size:60px;"">+</div>","null","fixation","","","","","","","","","","","",""
"learning-instructions","50","325073","0.0-3.0-9.0-0.0","spark_pilot_norest","8321","3","12","Male","","","","","","","4296","<p> One last thing: sometimes, you will see a robber. The robber can be anywhere in the picture. </p>
            <p> If you do not stop them, you will lose treasure. </p>
            <img src='./assets/img/instructions/robber.jpg' class='instructions-image'>","","instructions","","","","","","","","","","","",""
"learning-instructions","51","334946","0.0-3.0-9.0-0.1","spark_pilot_norest","8321","3","12","Male","","","","","","","2380","<p> If you see the robber, you should <b>press the space bar</b> rather than using the arrow keys. </p>
            <p> Try practicing that now! </p>","","instructions","","","","","","","","","","","",""
"revaluation","52","338973","0.0-3.0-10.0-0.0","spark_pilot_norest","8321","3","12","Male","","false","","","","","[1137]","./assets/img/space/catch/0.jpg","[""ArrowUp""]","catch practice","space","-10","{""ArrowUp,ArrowLeft"":3,""ArrowUp,ArrowRight"":36,""ArrowDown,ArrowLeft"":15,""ArrowDown,ArrowRight"":23}","false","ArrowUp","true","","","","","",""
"html-keyboard-response","53","339494","0.0-3.0-10.0-1.0","spark_pilot_norest","8321","3","12","Male","","","","","","","null","<div style=""font-size:60px;"">+</div>","null","fixation","","","","","","","","","","","",""
"revaluation","54","343545","0.0-3.0-10.0-0.1","spark_pilot_norest","8321","3","12","Male","","false","","","","","[1540]","./assets/img/space/catch/1.jpg","[""spaceBar""]","catch practice","space","0","{""ArrowUp,ArrowLeft"":3,""ArrowUp,ArrowRight"":36,""ArrowDown,ArrowLeft"":15,""ArrowDown,ArrowRight"":23}","true","spaceBar","true","","","","","",""
"html-keyboard-response","55","344063","0.0-3.0-10.0-1.1","spark_pilot_norest","8321","3","12","Male","","","","","","","null","<div style=""font-size:60px;"">+</div>","null","fixation","","","","","","","","","","","",""
"revaluation","56","348084","0.0-3.0-10.0-0.2","spark_pilot_norest","8321","3","12","Male","","false","","","","","[714]","./assets/img/space/catch/2.jpg","[""spaceBar""]","catch practice","space","0","{""ArrowUp,ArrowLeft"":3,""ArrowUp,ArrowRight"":36,""ArrowDown,ArrowLeft"":15,""ArrowDown,ArrowRight"":23}","true","spaceBar","true","","","","","",""
"html-keyboard-response","57","348589","0.0-3.0-10.0-1.2","spark_pilot_norest","8321","3","12","Male","","","","","","","null","<div style=""font-size:60px;"">+</div>","null","fixation","","","","","","","","","","","",""
"learning-instructions","58","355886","0.0-3.0-11.0-0.0-0.0","spark_pilot_norest","8321","3","12","Male","","","","","","","1971","<p> Now, you will practice a shortened version of the game to get a sense of how it all fits together. </p>","","instructions","","","","","","","","","","","",""
"learning-instructions","59","363046","0.0-3.0-11.0-0.0-0.1","spark_pilot_norest","8321","3","12","Male","","","","","","","3901","<p>This time you are searching for treasure in outer space.</p>","","instructions","","","","","","","","","","","",""
"learning-instructions","60","381856","0.0-3.0-11.0-1.0-0.0","spark_pilot_norest","8321","3","12","Male","","","","","","","3830","<p> Remember, when you see a picture of the place, use the up and down keys to <b>find an animal</b>.</p>
            <p> When you encounter an animal, you should use the left and right keys to <b>select a treasure chest</b>.</p>
            <p> Don't forget to look out for the robber! </p>","","instructions","","","","","","","","","","","",""
"revaluation","61","387905","0.0-3.0-11.0-2.0-0.0","spark_pilot_norest","8321","3","12","Male","","false","","","","","[1720,852]","./assets/img/space/11.jpg","[""ArrowUp"",""ArrowRight""]","practice block","space","36","{""ArrowUp,ArrowLeft"":3,""ArrowUp,ArrowRight"":36,""ArrowDown,ArrowLeft"":15,""ArrowDown,ArrowRight"":23}","true","ArrowUp,ArrowRight","false","","","","","",""
"html-keyboard-response","62","388423","0.0-3.0-11.0-2.0-1.0","spark_pilot_norest","8321","3","12","Male","","","","","","","null","<div style=""font-size:60px;"">+</div>","null","fixation","","","","","","","","","","","",""
"revaluation","63","394475","0.0-3.0-11.0-2.0-0.1","spark_pilot_norest","8321","3","12","Male","","false","","","","","[701,850]","./assets/img/space/12.jpg","[""ArrowUp"",""ArrowLeft""]","practice block","space","3","{""ArrowUp,ArrowLeft"":3,""ArrowUp,ArrowRight"":36,""ArrowDown,ArrowLeft"":15,""ArrowDown,ArrowRight"":23}","false","ArrowUp,ArrowLeft","false","","","","","",""
"html-keyboard-response","64","394994","0.0-3.0-11.0-2.0-1.1","spark_pilot_norest","8321","3","12","Male","","","","","","","null","<div style=""font-size:60px;"">+</div>","null","fixation","","","","","","","","","","","",""
"revaluation","65","401054","0.0-3.0-11.0-2.0-0.2","spark_pilot_norest","8321","3","12","Male","","false","","","","","[829,622]","./assets/img/space/13.jpg","[""ArrowUp"",""ArrowLeft""]","practice block","space","3","{""ArrowUp,ArrowLeft"":3,""ArrowUp,ArrowRight"":36,""ArrowDown,ArrowLeft"":15,""ArrowDown,ArrowRight"":23}","false","ArrowUp,ArrowLeft","false","","","","","",""
"html-keyboard-response","66","401566","0.0-3.0-11.0-2.0-1.2","spark_pilot_norest","8321","3","12","Male","","","","","","","null","<div style=""font-size:60px;"">+</div>","null","fixation","","","","","","","","","","","",""
"revaluation","67","407595","0.0-3.0-11.0-2.0-0.3","spark_pilot_norest","8321","3","12","Male","","false","","","","","[1374,1034]","./assets/img/space/14.jpg","[""ArrowDown"",""ArrowLeft""]","practice block","space","15","{""ArrowUp,ArrowLeft"":3,""ArrowUp,ArrowRight"":36,""ArrowDown,ArrowLeft"":15,""ArrowDown,ArrowRight"":23}","false","ArrowDown,ArrowLeft","false","","","","","",""
"html-keyboard-response","68","408104","0.0-3.0-11.0-2.0-1.3","spark_pilot_norest","8321","3","12","Male","","","","","","","null","<div style=""font-size:60px;"">+</div>","null","fixation","","","","","","","","","","","",""
"revaluation","69","414144","0.0-3.0-11.0-2.0-0.4","spark_pilot_norest","8321","3","12","Male","","false","","","","","[1581,964]","./assets/img/space/11.jpg","[""ArrowDown"",""ArrowLeft""]","practice block","space","15","{""ArrowUp,ArrowLeft"":3,""ArrowUp,ArrowRight"":36,""ArrowDown,ArrowLeft"":15,""ArrowDown,ArrowRight"":23}","false","ArrowDown,ArrowLeft","false","","","","","",""
"html-keyboard-response","70","414664","0.0-3.0-11.0-2.0-1.4","spark_pilot_norest","8321","3","12","Male","","","","","","","null","<div style=""font-size:60px;"">+</div>","null","fixation","","","","","","","","","","","",""
"revaluation","71","420715","0.0-3.0-11.0-2.0-0.5","spark_pilot_norest","8321","3","12","Male","","false","","","","","[767,900]","./assets/img/space/12.jpg","[""ArrowUp"",""ArrowRight""]","practice block","space","36","{""ArrowUp,ArrowLeft"":3,""ArrowUp,ArrowRight"":36,""ArrowDown,ArrowLeft"":15,""ArrowDown,ArrowRight"":23}","true","ArrowUp,ArrowRight","false","","","","","",""
"html-keyboard-response","72","421233","0.0-3.0-11.0-2.0-1.5","spark_pilot_norest","8321","3","12","Male","","","","","","","null","<div style=""font-size:60px;"">+</div>","null","fixation","","","","","","","","","","","",""
"revaluation","73","427295","0.0-3.0-11.0-2.0-0.6","spark_pilot_norest","8321","3","12","Male","","false","","","","","[684,471]","./assets/img/space/13.jpg","[""ArrowUp"",""ArrowLeft""]","practice block","space","3","{""ArrowUp,ArrowLeft"":3,""ArrowUp,ArrowRight"":36,""ArrowDown,ArrowLeft"":15,""ArrowDown,ArrowRight"":23}","false","ArrowUp,ArrowLeft","false","","","","","",""
"html-keyboard-response","74","427814","0.0-3.0-11.0-2.0-1.6","spark_pilot_norest","8321","3","12","Male","","","","","","","null","<div style=""font-size:60px;"">+</div>","null","fixation","","","","","","","","","","","",""
"revaluation","75","433875","0.0-3.0-11.0-2.0-0.7","spark_pilot_norest","8321","3","12","Male","","false","","","","","[557,366]","./assets/img/space/14.jpg","[""ArrowUp"",""ArrowLeft""]","practice block","space","3","{""ArrowUp,ArrowLeft"":3,""ArrowUp,ArrowRight"":36,""ArrowDown,ArrowLeft"":15,""ArrowDown,ArrowRight"":23}","false","ArrowUp,ArrowLeft","false","","","","","",""
"html-keyboard-response","76","434394","0.0-3.0-11.0-2.0-1.7","spark_pilot_norest","8321","3","12","Male","","","","","","","null","<div style=""font-size:60px;"">+</div>","null","fixation","","","","","","","","","","","",""
"revaluation","77","438433","0.0-3.0-11.0-2.0-0.8","spark_pilot_norest","8321","3","12","Male","","false","","","","","[578]","./assets/img/space/catch/3.jpg","[""ArrowUp""]","practice block","space","-10","{""ArrowUp,ArrowLeft"":3,""ArrowUp,ArrowRight"":36,""ArrowDown,ArrowLeft"":15,""ArrowDown,ArrowRight"":23}","false","ArrowUp","true","","","","","",""
"html-keyboard-response","78","438960","0.0-3.0-11.0-2.0-1.8","spark_pilot_norest","8321","3","12","Male","","","","","","","null","<div style=""font-size:60px;"">+</div>","null","fixation","","","","","","","","","","","",""
"learning-instructions","79","456736","0.0-3.0-11.0-3.0-0.0","spark_pilot_norest","8321","3","12","Male","","","","","","","4681","<p> Now, you will travel with a friend who will choose whether you go up or down first. </p>
            <p> On these turns, you will just see the animal that they found. You will still get to choose which chest to search for treasure.</p>","","instructions","","","","","","","","","","","",""
"revaluation","80","460764","0.0-3.0-11.0-4.0-0.0","spark_pilot_norest","8321","3","12","Male","","false","","","","","[1286]","./assets/img/space/animals/cat.jpg","[""ArrowRight""]","practice block","space","36","{""ArrowUp,ArrowLeft"":3,""ArrowUp,ArrowRight"":36,""ArrowDown,ArrowLeft"":15,""ArrowDown,ArrowRight"":23}","true","ArrowUp,ArrowRight","","","","","","",""
"html-keyboard-response","81","461274","0.0-3.0-11.0-4.0-1.0","spark_pilot_norest","8321","3","12","Male","","","","","","","null","<div style=""font-size:60px;"">+</div>","null","fixation","","","","","","","","","","","",""
"revaluation","82","465304","0.0-3.0-11.0-4.0-0.1","spark_pilot_norest","8321","3","12","Male","","false","","","","","[671]","./assets/img/space/animals/rabbit.jpg","[""ArrowLeft""]","practice block","space","15","{""ArrowUp,ArrowLeft"":3,""ArrowUp,ArrowRight"":36,""ArrowDown,ArrowLeft"":15,""ArrowDown,ArrowRight"":23}","false","ArrowDown,ArrowLeft","","","","","","",""
"html-keyboard-response","83","465809","0.0-3.0-11.0-4.0-1.1","spark_pilot_norest","8321","3","12","Male","","","","","","","null","<div style=""font-size:60px;"">+</div>","null","fixation","","","","","","","","","","","",""
"revaluation","84","469855","0.0-3.0-11.0-4.0-0.2","spark_pilot_norest","8321","3","12","Male","","false","","","","","[439]","./assets/img/space/animals/rabbit.jpg","[""ArrowRight""]","practice block","space","23","{""ArrowUp,ArrowLeft"":3,""ArrowUp,ArrowRight"":36,""ArrowDown,ArrowLeft"":15,""ArrowDown,ArrowRight"":23}","true","ArrowDown,ArrowRight","","","","","","",""
"html-keyboard-response","85","470369","0.0-3.0-11.0-4.0-1.2","spark_pilot_norest","8321","3","12","Male","","","","","","","null","<div style=""font-size:60px;"">+</div>","null","fixation","","","","","","","","","","","",""
"revaluation","86","474394","0.0-3.0-11.0-4.0-0.3","spark_pilot_norest","8321","3","12","Male","","false","","","","","[649]","./assets/img/space/animals/cat.jpg","[""ArrowRight""]","practice block","space","36","{""ArrowUp,ArrowLeft"":3,""ArrowUp,ArrowRight"":36,""ArrowDown,ArrowLeft"":15,""ArrowDown,ArrowRight"":23}","true","ArrowUp,ArrowRight","","","","","","",""
"html-keyboard-response","87","474913","0.0-3.0-11.0-4.0-1.3","spark_pilot_norest","8321","3","12","Male","","","","","","","null","<div style=""font-size:60px;"">+</div>","null","fixation","","","","","","","","","","","",""
"learning-instructions","88","483204","0.0-3.0-11.0-5.0-0.0","spark_pilot_norest","8321","3","12","Male","","","","","","","null","<p> You have almost finished this part of the game! </p>
            <p> We are going to ask you to make a few more choices. </p>","","instructions","","","","","","","","","","","",""
"learning-instructions","89","499391","0.0-3.0-11.0-5.0-0.1","spark_pilot_norest","8321","3","12","Male","","","","","","","null","<p> First, you need to decide whether to go up or down. When you see each picture, use the arrow keys to make your choice. </p>
            <p><b>You will not see which animal you found, but try to get to the one that will give you the most treasure.</b></p>","","instructions","","","","","","","","","","","",""
"html-keyboard-response","90","500665","0.0-3.0-11.0-6.0-0.0","spark_pilot_norest","8321","3","12","Male","","","","","","","null","<div style=""font-size:100px;color:red;"">Starting in...</div>","null","","","","","","","","","","","","",""
"html-keyboard-response","91","501694","0.0-3.0-11.0-6.0-1.0","spark_pilot_norest","8321","3","12","Male","","","","","","","null","<div style=""font-size:200px;color:red;"">3</div>","null","","","","","","","","","","","","",""
"html-keyboard-response","92","502701","0.0-3.0-11.0-6.0-2.0","spark_pilot_norest","8321","3","12","Male","","","","","","","null","<div style=""font-size:200px;color:red;"">2</div>","null","","","","","","","","","","","","",""
"html-keyboard-response","93","503705","0.0-3.0-11.0-6.0-3.0","spark_pilot_norest","8321","3","12","Male","","","","","","","null","<div style=""font-size:200px;color:red;"">1</div>","null","","","","","","","","","","","","",""
"revaluation","94","504648","0.0-3.0-11.0-7.0","spark_pilot_norest","8321","3","12","Male","","false","","","","","[938]","./assets/img/space/15.jpg","[""ArrowUp""]","practice block","space","0","{""ArrowUp,ArrowLeft"":3,""ArrowUp,ArrowRight"":36,""ArrowDown,ArrowLeft"":15,""ArrowDown,ArrowRight"":23}","true","ArrowUp","false","","","","","",""
"html-keyboard-response","95","505153","0.0-3.0-11.0-8.0","spark_pilot_norest","8321","3","12","Male","","","","","","","null","<div style=""font-size:60px;"">+</div>","null","fixation","","","","","","","","","","","",""
"learning-instructions","96","518684","0.0-3.0-11.0-9.0-0.0","spark_pilot_norest","8321","3","12","Male","","","","","","","null","<p> Now you will see the animals again and can search their chests for treasure. </p>
            <p> This time, you will not see how much treasure you earned, but you will earn more bonus money for making better choices. </p>","","instructions","","","","","","","","","","","",""
"html-keyboard-response","97","519686","0.0-3.0-11.0-10.0-0.0","spark_pilot_norest","8321","3","12","Male","","","","","","","null","<div style=""font-size:100px;color:red;"">Starting in...</div>","null","","","","","","","","","","","","",""
"html-keyboard-response","98","520695","0.0-3.0-11.0-10.0-1.0","spark_pilot_norest","8321","3","12","Male","","","","","","","null","<div style=""font-size:200px;color:red;"">3</div>","null","","","","","","","","","","","","",""
"html-keyboard-response","99","521715","0.0-3.0-11.0-10.0-2.0","spark_pilot_norest","8321","3","12","Male","","","","","","","null","<div style=""font-size:200px;color:red;"">2</div>","null","","","","","","","","","","","","",""
"html-keyboard-response","100","522734","0.0-3.0-11.0-10.0-3.0","spark_pilot_norest","8321","3","12","Male","","","","","","","null","<div style=""font-size:200px;color:red;"">1</div>","null","","","","","","","","","","","","",""
"revaluation","101","523633","0.0-3.0-11.0-11.0-0.0","spark_pilot_norest","8321","3","12","Male","","false","","","","","[895]","./assets/img/space/animals/cat.jpg","[""ArrowRight""]","practice block","space","0","{""ArrowUp,ArrowLeft"":3,""ArrowUp,ArrowRight"":36,""ArrowDown,ArrowLeft"":15,""ArrowDown,ArrowRight"":23}","true","ArrowUp,ArrowRight","","","","","","",""
"html-keyboard-response","102","524134","0.0-3.0-11.0-11.0-1.0","spark_pilot_norest","8321","3","12","Male","","","","","","","null","<div style=""font-size:60px;"">+</div>","null","fixation","","","","","","","","","","","",""
"revaluation","103","524823","0.0-3.0-11.0-11.0-0.1","spark_pilot_norest","8321","3","12","Male","","false","","","","","[684]","./assets/img/space/animals/rabbit.jpg","[""ArrowRight""]","practice block","space","0","{""ArrowUp,ArrowLeft"":3,""ArrowUp,ArrowRight"":36,""ArrowDown,ArrowLeft"":15,""ArrowDown,ArrowRight"":23}","true","ArrowDown,ArrowRight","","","","","","",""
"html-keyboard-response","104","525334","0.0-3.0-11.0-11.0-1.1","spark_pilot_norest","8321","3","12","Male","","","","","","","null","<div style=""font-size:60px;"">+</div>","null","fixation","","","","","","","","","","","",""
"learning-instructions","105","533807","0.0-3.0-12.0-0.0","spark_pilot_norest","8321","3","12","Male","","","","","","","3821","<p> Before you start, we're going to ask you a few questions about how the game works. </p>","","instructions","","","","","","","","","","","",""
"comp-q","106","542657","0.0-3.0-13.0-0.0-0.0","spark_pilot_norest","8321","3","12","Male","","","","","","","3162","<p> <b> True or False? </b> </p>
            <p> There can be 50 pieces of treasure in a given animal's chest. </p>","1","comp_question","","","","true","","","","","","","",""
"comp-q","107","552077","0.0-3.0-13.0-0.0-1.0","spark_pilot_norest","8321","3","12","Male","","","","","","","2671","<p> <b> That's right! </b> The amount of treasure in each chest can range from 0 to 40 pieces. </p>","0","comp_answer","","","","","","","","","","","",""
"comp-q","108","561236","0.0-3.0-13.0-0.1-0.1","spark_pilot_norest","8321","3","12","Male","","","","","","","1930","<p> <b> True or False? </b> </p><p> In this game, all animals have the same amount of treasure in their left and right chests. </p>","1","comp_question","","","","true","","","","","","","",""
"comp-q","109","568657","0.0-3.0-13.0-0.1-1.1","spark_pilot_norest","8321","3","12","Male","","","","","","","2090","<p> <b> That's right! </b> Animals have different amounts of treasure in their treasure chests. </p>","0","comp_answer","","","","","","","","","","","",""
"comp-q","110","576057","0.0-3.0-13.0-0.2-0.2","spark_pilot_norest","8321","3","12","Male","","","","","","","1460","<p> <b> True or False? </b> </p><p> The same animal will always be there if you go up in the same place. </p>","1","comp_question","","","","false","","","","","","","",""
"comp-q","111","584437","0.0-3.0-13.0-0.2-1.2","spark_pilot_norest","8321","3","12","Male","","","","","","","1972","<p> <b>Incorrect.</b> One animal lives in the upper part and one lives in the lower part of every place. </p>","0","comp_answer","","","","","","","","","","","",""
"comp-q","112","592017","0.0-3.0-13.0-0.3-0.3","spark_pilot_norest","8321","3","12","Male","","","","","","","1740","<p> <b> True or False? </b> </p><p> The same animal will always be there if you go up in the same place. </p>","0","comp_question","","","","true","","","","","","","",""
"comp-q","113","600487","0.0-3.0-13.0-0.3-1.3","spark_pilot_norest","8321","3","12","Male","","","","","","","1930","<p> <b> That's right! </b> One animal lives in the upper part and one lives in the lower part of every place. </p>","0","comp_answer","","","","","","","","","","","",""
"comp-q","114","607427","0.0-3.0-13.0-0.4-0.4","spark_pilot_norest","8321","3","12","Male","","","","","","","1312","<p> <b> True or False? </b> </p><p> If you see a different picture, it means you are in a new place. </p>","0","comp_question","","","","false","","","","","","","",""
"comp-q","115","620448","0.0-3.0-13.0-0.4-1.4","spark_pilot_norest","8321","3","12","Male","","","","","","","1770","<p> <b>Incorrect.</b> Lots of different images may show the same place. For example,  you may see three different images that all remind you that you are in outer space. </p>","0","comp_answer","","","","","","","","","","","",""
"comp-q","116","627207","0.0-3.0-13.0-0.5-0.5","spark_pilot_norest","8321","3","12","Male","","","","","","","1250","<p> <b> True or False? </b> </p><p> If you see a different picture, it means you are in a new place. </p>","0","comp_question","","","","false","","","","","","","",""
"comp-q","117","640386","0.0-3.0-13.0-0.5-1.5","spark_pilot_norest","8321","3","12","Male","","","","","","","2111","<p> <b>Incorrect.</b> Lots of different images may show the same place. For example,  you may see three different images that all remind you that you are in outer space. </p>","0","comp_answer","","","","","","","","","","","",""
"comp-q","118","647378","0.0-3.0-13.0-0.6-0.6","spark_pilot_norest","8321","3","12","Male","","","","","","","1471","<p> <b> True or False? </b> </p><p> If you see a different picture, it means you are in a new place. </p>","1","comp_question","","","","true","","","","","","","",""
"comp-q","119","661857","0.0-3.0-13.0-0.6-1.6","spark_pilot_norest","8321","3","12","Male","","","","","","","3091","<p> <b> That's right! </b> Lots of different images may show the same place. For example,  you may see three different images that all remind you that you are in outer space. </p>","0","comp_answer","","","","","","","","","","","",""
"learning-instructions","120","675047","0.0-3.0-14.0-0.0","spark_pilot_norest","8321","3","12","Male","","","","","","","3201","<p> Good job. Remember to do your best because the amount of treasure you earn will be converted into bonus money. </p>
            <p> It’s time to start the real game! </p>","","instructions","","","","","","","","","","","",""
"learning-instructions","121","681178","0.0-4.0-0.0-0.0","spark_pilot_norest","8321","3","12","Male","","","","","","","3351","<p> This time you are searching for treasure in the <b>ocean</b>.</p>","","instructions","","","","","","","","","","","",""
"learning-instructions","122","700537","0.0-4.0-0.0-0.1","spark_pilot_norest","8321","3","12","Male","","","","","","","1830","<p><b>New</b> animals with <b>new</b> treasure chests live here. You need to explore to discover where the animal with the best treasure chest is.</p>
                    <p> Like before, once you figure out which animal has the chest with the most treasure, you should try to get to that animal and select that chest! </p>","","instructions","","","","","","","","","","","",""
"learning-instructions","123","717257","0.0-4.0-1.0-0.0","spark_pilot_norest","8321","3","12","Male","","","","","","","1982","<p> Remember, when you see a picture of the place, use the up and down keys to <b>find an animal</b>.</p>
            <p> When you encounter an animal, you should use the left and right keys to <b>select a treasure chest</b>.</p>
            <p> Don't forget to look out for the robber! </p>","","instructions","","","","","","","","","","","",""
"revaluation","124","723305","0.0-4.0-2.0-0.0","spark_pilot_norest","8321","3","12","Male","","false","","","","","[1269,854]","./assets/img/ocean/memory/12.jpg","[""ArrowUp"",""ArrowRight""]","value training","ocean","10","{""ArrowUp,ArrowLeft"":23,""ArrowUp,ArrowRight"":10,""ArrowDown,ArrowLeft"":8,""ArrowDown,ArrowRight"":30}","false","ArrowUp,ArrowRight","false","original","1","0","","",""
"html-keyboard-response","125","723824","0.0-4.0-2.0-1.0","spark_pilot_norest","8321","3","12","Male","","","","","","","null","<div style=""font-size:60px;"">+</div>","null","fixation","","","","","","","","","1","","",""
"revaluation","126","729864","0.0-4.0-2.0-0.1","spark_pilot_norest","8321","3","12","Male","","false","","","","","[733,522]","./assets/img/ocean/memory/5.jpg","[""ArrowUp"",""ArrowRight""]","value training","ocean","10","{""ArrowUp,ArrowLeft"":23,""ArrowUp,ArrowRight"":10,""ArrowDown,ArrowLeft"":8,""ArrowDown,ArrowRight"":30}","false","ArrowUp,ArrowRight","false","original","1","2","","",""
"html-keyboard-response","127","730384","0.0-4.0-2.0-1.1","spark_pilot_norest","8321","3","12","Male","","","","","","","null","<div style=""font-size:60px;"">+</div>","null","fixation","","","","","","","","","3","","",""
"revaluation","128","736418","0.0-4.0-2.0-0.2","spark_pilot_norest","8321","3","12","Male","","false","","","","","[827,892]","./assets/img/ocean/memory/12.jpg","[""ArrowUp"",""ArrowRight""]","value training","ocean","10","{""ArrowUp,ArrowLeft"":23,""ArrowUp,ArrowRight"":10,""ArrowDown,ArrowLeft"":8,""ArrowDown,ArrowRight"":30}","false","ArrowUp,ArrowRight","false","original","1","4","","",""
"html-keyboard-response","129","736933","0.0-4.0-2.0-1.2","spark_pilot_norest","8321","3","12","Male","","","","","","","null","<div style=""font-size:60px;"">+</div>","null","fixation","","","","","","","","","5","","",""
"revaluation","130","742964","0.0-4.0-2.0-0.3","spark_pilot_norest","8321","3","12","Male","","false","","","","","[1958,800]","./assets/img/ocean/memory/14.jpg","[""ArrowUp"",""ArrowRight""]","value training","ocean","10","{""ArrowUp,ArrowLeft"":23,""ArrowUp,ArrowRight"":10,""ArrowDown,ArrowLeft"":8,""ArrowDown,ArrowRight"":30}","false","ArrowUp,ArrowRight","false","original","1","6","","",""
"html-keyboard-response","131","743484","0.0-4.0-2.0-1.3","spark_pilot_norest","8321","3","12","Male","","","","","","","null","<div style=""font-size:60px;"">+</div>","null","fixation","","","","","","","","","7","","",""
"revaluation","132","749495","0.0-4.0-2.0-0.4","spark_pilot_norest","8321","3","12","Male","","false","","","","","[684,793]","./assets/img/ocean/memory/8.jpg","[""ArrowUp"",""ArrowLeft""]","value training","ocean","23","{""ArrowUp,ArrowLeft"":23,""ArrowUp,ArrowRight"":10,""ArrowDown,ArrowLeft"":8,""ArrowDown,ArrowRight"":30}","false","ArrowUp,ArrowLeft","false","original","1","8","","",""
"html-keyboard-response","133","750014","0.0-4.0-2.0-1.4","spark_pilot_norest","8321","3","12","Male","","","","","","","null","<div style=""font-size:60px;"">+</div>","null","fixation","","","","","","","","","9","","",""
"revaluation","134","756065","0.0-4.0-2.0-0.5","spark_pilot_norest","8321","3","12","Male","","false","","","","","[779,554]","./assets/img/ocean/memory/34.jpg","[""ArrowUp"",""ArrowLeft""]","value training","ocean","23","{""ArrowUp,ArrowLeft"":23,""ArrowUp,ArrowRight"":10,""ArrowDown,ArrowLeft"":8,""ArrowDown,ArrowRight"":30}","false","ArrowUp,ArrowLeft","false","original","1","10","","",""
"html-keyboard-response","135","756583","0.0-4.0-2.0-1.5","spark_pilot_norest","8321","3","12","Male","","","","","","","null","<div style=""font-size:60px;"">+</div>","null","fixation","","","","","","","","","11","","",""
"revaluation","136","762635","0.0-4.0-2.0-0.6","spark_pilot_norest","8321","3","12","Male","","false","","","","","[819,548]","./assets/img/ocean/memory/36.jpg","[""ArrowUp"",""ArrowRight""]","value training","ocean","10","{""ArrowUp,ArrowLeft"":23,""ArrowUp,ArrowRight"":10,""ArrowDown,ArrowLeft"":8,""ArrowDown,ArrowRight"":30}","false","ArrowUp,ArrowRight","false","original","1","12","","",""
"html-keyboard-response","137","763155","0.0-4.0-2.0-1.6","spark_pilot_norest","8321","3","12","Male","","","","","","","null","<div style=""font-size:60px;"">+</div>","null","fixation","","","","","","","","","13","","",""
"revaluation","138","769184","0.0-4.0-2.0-0.7","spark_pilot_norest","8321","3","12","Male","","false","","","","","[576,521]","./assets/img/ocean/memory/1.jpg","[""ArrowUp"",""ArrowLeft""]","value training","ocean","23","{""ArrowUp,ArrowLeft"":23,""ArrowUp,ArrowRight"":10,""ArrowDown,ArrowLeft"":8,""ArrowDown,ArrowRight"":30}","false","ArrowUp,ArrowLeft","false","original","1","14","","",""
"html-keyboard-response","139","769698","0.0-4.0-2.0-1.7","spark_pilot_norest","8321","3","12","Male","","","","","","","null","<div style=""font-size:60px;"">+</div>","null","fixation","","","","","","","","","15","","",""
"revaluation","140","773705","0.0-4.0-2.0-0.8","spark_pilot_norest","8321","3","12","Male","","false","","","","","[932]","./assets/img/ocean/catch/3.jpg","[""spaceBar""]","value training","ocean","0","{""ArrowUp,ArrowLeft"":23,""ArrowUp,ArrowRight"":10,""ArrowDown,ArrowLeft"":8,""ArrowDown,ArrowRight"":30}","true","spaceBar","true","original","1","16","","",""
"html-keyboard-response","141","774224","0.0-4.0-2.0-1.8","spark_pilot_norest","8321","3","12","Male","","","","","","","null","<div style=""font-size:60px;"">+</div>","null","fixation","","","","","","","","","17","","",""
"revaluation","142","780274","0.0-4.0-2.0-0.9","spark_pilot_norest","8321","3","12","Male","","false","","","","","[624,713]","./assets/img/ocean/memory/38.jpg","[""ArrowUp"",""ArrowRight""]","value training","ocean","10","{""ArrowUp,ArrowLeft"":23,""ArrowUp,ArrowRight"":10,""ArrowDown,ArrowLeft"":8,""ArrowDown,ArrowRight"":30}","false","ArrowUp,ArrowRight","false","original","1","18","","",""
"html-keyboard-response","143","780795","0.0-4.0-2.0-1.9","spark_pilot_norest","8321","3","12","Male","","","","","","","null","<div style=""font-size:60px;"">+</div>","null","fixation","","","","","","","","","19","","",""
"revaluation","144","786826","0.0-4.0-2.0-0.10","spark_pilot_norest","8321","3","12","Male","","false","","","","","[777,771]","./assets/img/ocean/memory/34.jpg","[""ArrowUp"",""ArrowRight""]","value training","ocean","10","{""ArrowUp,ArrowLeft"":23,""ArrowUp,ArrowRight"":10,""ArrowDown,ArrowLeft"":8,""ArrowDown,ArrowRight"":30}","false","ArrowUp,ArrowRight","false","original","1","20","","",""
"html-keyboard-response","145","787345","0.0-4.0-2.0-1.10","spark_pilot_norest","8321","3","12","Male","","","","","","","null","<div style=""font-size:60px;"">+</div>","null","fixation","","","","","","","","","21","","",""
"revaluation","146","793385","0.0-4.0-2.0-0.11","spark_pilot_norest","8321","3","12","Male","","false","","","","","[588,607]","./assets/img/ocean/memory/4.jpg","[""ArrowUp"",""ArrowRight""]","value training","ocean","10","{""ArrowUp,ArrowLeft"":23,""ArrowUp,ArrowRight"":10,""ArrowDown,ArrowLeft"":8,""ArrowDown,ArrowRight"":30}","false","ArrowUp,ArrowRight","false","original","1","22","","",""
"html-keyboard-response","147","793904","0.0-4.0-2.0-1.11","spark_pilot_norest","8321","3","12","Male","","","","","","","null","<div style=""font-size:60px;"">+</div>","null","fixation","","","","","","","","","23","","",""
"revaluation","148","799954","0.0-4.0-2.0-0.12","spark_pilot_norest","8321","3","12","Male","","false","","","","","[1071,638]","./assets/img/ocean/memory/13.jpg","[""ArrowUp"",""ArrowLeft""]","value training","ocean","23","{""ArrowUp,ArrowLeft"":23,""ArrowUp,ArrowRight"":10,""ArrowDown,ArrowLeft"":8,""ArrowDown,ArrowRight"":30}","false","ArrowUp,ArrowLeft","false","original","1","24","","",""
"html-keyboard-response","149","800474","0.0-4.0-2.0-1.12","spark_pilot_norest","8321","3","12","Male","","","","","","","null","<div style=""font-size:60px;"">+</div>","null","fixation","","","","","","","","","25","","",""
"revaluation","150","806495","0.0-4.0-2.0-0.13","spark_pilot_norest","8321","3","12","Male","","false","","","","","[1441,655]","./assets/img/ocean/memory/7.jpg","[""ArrowDown"",""ArrowLeft""]","value training","ocean","8","{""ArrowUp,ArrowLeft"":23,""ArrowUp,ArrowRight"":10,""ArrowDown,ArrowLeft"":8,""ArrowDown,ArrowRight"":30}","false","ArrowDown,ArrowLeft","false","original","1","26","","",""
"html-keyboard-response","151","807015","0.0-4.0-2.0-1.13","spark_pilot_norest","8321","3","12","Male","","","","","","","null","<div style=""font-size:60px;"">+</div>","null","fixation","","","","","","","","","27","","",""
"revaluation","152","813070","0.0-4.0-2.0-0.14","spark_pilot_norest","8321","3","12","Male","","false","","","","","[1241,17]","./assets/img/ocean/memory/33.jpg","[""ArrowDown"",""ArrowRight""]","value training","ocean","30","{""ArrowUp,ArrowLeft"":23,""ArrowUp,ArrowRight"":10,""ArrowDown,ArrowLeft"":8,""ArrowDown,ArrowRight"":30}","true","ArrowDown,ArrowRight","false","original","1","28","","",""
"html-keyboard-response","153","813594","0.0-4.0-2.0-1.14","spark_pilot_norest","8321","3","12","Male","","","","","","","null","<div style=""font-size:60px;"">+</div>","null","fixation","","","","","","","","","29","","",""
"revaluation","154","819625","0.0-4.0-2.0-0.15","spark_pilot_norest","8321","3","12","Male","","false","","","","","[963,666]","./assets/img/ocean/memory/10.jpg","[""ArrowDown"",""ArrowLeft""]","value training","ocean","8","{""ArrowUp,ArrowLeft"":23,""ArrowUp,ArrowRight"":10,""ArrowDown,ArrowLeft"":8,""ArrowDown,ArrowRight"":30}","false","ArrowDown,ArrowLeft","false","original","1","30","","",""
"html-keyboard-response","155","820144","0.0-4.0-2.0-1.15","spark_pilot_norest","8321","3","12","Male","","","","","","","null","<div style=""font-size:60px;"">+</div>","null","fixation","","","","","","","","","31","","",""
"revaluation","156","824185","0.0-4.0-2.0-0.16","spark_pilot_norest","8321","3","12","Male","","false","","","","","[849]","./assets/img/ocean/catch/6.jpg","[""spaceBar""]","value training","ocean","0","{""ArrowUp,ArrowLeft"":23,""ArrowUp,ArrowRight"":10,""ArrowDown,ArrowLeft"":8,""ArrowDown,ArrowRight"":30}","true","spaceBar","true","original","1","32","","",""
"html-keyboard-response","157","824704","0.0-4.0-2.0-1.16","spark_pilot_norest","8321","3","12","Male","","","","","","","null","<div style=""font-size:60px;"">+</div>","null","fixation","","","","","","","","","33","","",""
"revaluation","158","830754","0.0-4.0-2.0-0.17","spark_pilot_norest","8321","3","12","Male","","false","","","","","[698,545]","./assets/img/ocean/memory/5.jpg","[""ArrowUp"",""ArrowLeft""]","value training","ocean","23","{""ArrowUp,ArrowLeft"":23,""ArrowUp,ArrowRight"":10,""ArrowDown,ArrowLeft"":8,""ArrowDown,ArrowRight"":30}","false","ArrowUp,ArrowLeft","false","original","1","34","","",""
"html-keyboard-response","159","831264","0.0-4.0-2.0-1.17","spark_pilot_norest","8321","3","12","Male","","","","","","","null","<div style=""font-size:60px;"">+</div>","null","fixation","","","","","","","","","35","","",""
"revaluation","160","837304","0.0-4.0-2.0-0.18","spark_pilot_norest","8321","3","12","Male","","false","","","","","[1452,713]","./assets/img/ocean/memory/32.jpg","[""ArrowDown"",""ArrowLeft""]","value training","ocean","8","{""ArrowUp,ArrowLeft"":23,""ArrowUp,ArrowRight"":10,""ArrowDown,ArrowLeft"":8,""ArrowDown,ArrowRight"":30}","false","ArrowDown,ArrowLeft","false","original","1","36","","",""
"html-keyboard-response","161","837824","0.0-4.0-2.0-1.18","spark_pilot_norest","8321","3","12","Male","","","","","","","null","<div style=""font-size:60px;"">+</div>","null","fixation","","","","","","","","","37","","",""
"revaluation","162","843864","0.0-4.0-2.0-0.19","spark_pilot_norest","8321","3","12","Male","","false","","","","","[778,669]","./assets/img/ocean/memory/40.jpg","[""ArrowUp"",""ArrowLeft""]","value training","ocean","23","{""ArrowUp,ArrowLeft"":23,""ArrowUp,ArrowRight"":10,""ArrowDown,ArrowLeft"":8,""ArrowDown,ArrowRight"":30}","false","ArrowUp,ArrowLeft","false","original","1","38","","",""
"html-keyboard-response","163","844383","0.0-4.0-2.0-1.19","spark_pilot_norest","8321","3","12","Male","","","","","","","null","<div style=""font-size:60px;"">+</div>","null","fixation","","","","","","","","","39","","",""
"revaluation","164","850425","0.0-4.0-2.0-0.20","spark_pilot_norest","8321","3","12","Male","","false","","","","","[662,790]","./assets/img/ocean/memory/7.jpg","[""ArrowUp"",""ArrowLeft""]","value training","ocean","23","{""ArrowUp,ArrowLeft"":23,""ArrowUp,ArrowRight"":10,""ArrowDown,ArrowLeft"":8,""ArrowDown,ArrowRight"":30}","false","ArrowUp,ArrowLeft","false","original","1","40","","",""
"html-keyboard-response","165","850944","0.0-4.0-2.0-1.20","spark_pilot_norest","8321","3","12","Male","","","","","","","null","<div style=""font-size:60px;"">+</div>","null","fixation","","","","","","","","","41","","",""
"revaluation","166","854985","0.0-4.0-2.0-0.21","spark_pilot_norest","8321","3","12","Male","","false","","","","","[967]","./assets/img/ocean/catch/4.jpg","[""spaceBar""]","value training","ocean","0","{""ArrowUp,ArrowLeft"":23,""ArrowUp,ArrowRight"":10,""ArrowDown,ArrowLeft"":8,""ArrowDown,ArrowRight"":30}","true","spaceBar","true","original","1","42","","",""
"html-keyboard-response","167","855494","0.0-4.0-2.0-1.21","spark_pilot_norest","8321","3","12","Male","","","","","","","null","<div style=""font-size:60px;"">+</div>","null","fixation","","","","","","","","","43","","",""
"revaluation","168","861534","0.0-4.0-2.0-0.22","spark_pilot_norest","8321","3","12","Male","","false","","","","","[706,945]","./assets/img/ocean/memory/41.jpg","[""ArrowUp"",""ArrowLeft""]","value training","ocean","23","{""ArrowUp,ArrowLeft"":23,""ArrowUp,ArrowRight"":10,""ArrowDown,ArrowLeft"":8,""ArrowDown,ArrowRight"":30}","false","ArrowUp,ArrowLeft","false","original","1","44","","",""
"html-keyboard-response","169","862054","0.0-4.0-2.0-1.22","spark_pilot_norest","8321","3","12","Male","","","","","","","null","<div style=""font-size:60px;"">+</div>","null","fixation","","","","","","","","","45","","",""
"revaluation","170","866074","0.0-4.0-2.0-0.23","spark_pilot_norest","8321","3","12","Male","","true","","","","","[]","./assets/img/ocean/memory/6.jpg","[]","value training","ocean","-5","{""ArrowUp,ArrowLeft"":23,""ArrowUp,ArrowRight"":10,""ArrowDown,ArrowLeft"":8,""ArrowDown,ArrowRight"":30}","false","","false","original","1","46","","",""
"html-keyboard-response","171","866594","0.0-4.0-2.0-1.23","spark_pilot_norest","8321","3","12","Male","","","","","","","null","<div style=""font-size:60px;"">+</div>","null","fixation","","","","","","","","","47","","",""
"revaluation","172","872619","0.0-4.0-2.0-0.24","spark_pilot_norest","8321","3","12","Male","","false","","","","","[558,672]","./assets/img/ocean/memory/14.jpg","[""ArrowUp"",""ArrowLeft""]","value training","ocean","23","{""ArrowUp,ArrowLeft"":23,""ArrowUp,ArrowRight"":10,""ArrowDown,ArrowLeft"":8,""ArrowDown,ArrowRight"":30}","false","ArrowUp,ArrowLeft","false","original","1","48","","",""
"html-keyboard-response","173","873124","0.0-4.0-2.0-1.24","spark_pilot_norest","8321","3","12","Male","","","","","","","null","<div style=""font-size:60px;"">+</div>","null","fixation","","","","","","","","","49","","",""
"revaluation","174","879155","0.0-4.0-2.0-0.25","spark_pilot_norest","8321","3","12","Male","","false","","","","","[661,738]","./assets/img/ocean/memory/8.jpg","[""ArrowUp"",""ArrowLeft""]","value training","ocean","23","{""ArrowUp,ArrowLeft"":23,""ArrowUp,ArrowRight"":10,""ArrowDown,ArrowLeft"":8,""ArrowDown,ArrowRight"":30}","false","ArrowUp,ArrowLeft","false","original","1","50","","",""
"html-keyboard-response","175","879674","0.0-4.0-2.0-1.25","spark_pilot_norest","8321","3","12","Male","","","","","","","null","<div style=""font-size:60px;"">+</div>","null","fixation","","","","","","","","","51","","",""
"revaluation","176","885725","0.0-4.0-2.0-0.26","spark_pilot_norest","8321","3","12","Male","","false","","","","","[622,689]","./assets/img/ocean/memory/41.jpg","[""ArrowUp"",""ArrowLeft""]","value training","ocean","23","{""ArrowUp,ArrowLeft"":23,""ArrowUp,ArrowRight"":10,""ArrowDown,ArrowLeft"":8,""ArrowDown,ArrowRight"":30}","false","ArrowUp,ArrowLeft","false","original","1","52","","",""
"html-keyboard-response","177","886244","0.0-4.0-2.0-1.26","spark_pilot_norest","8321","3","12","Male","","","","","","","null","<div style=""font-size:60px;"">+</div>","null","fixation","","","","","","","","","53","","",""
"revaluation","178","892305","0.0-4.0-2.0-0.27","spark_pilot_norest","8321","3","12","Male","","false","","","","","[590,605]","./assets/img/ocean/memory/36.jpg","[""ArrowUp"",""ArrowLeft""]","value training","ocean","23","{""ArrowUp,ArrowLeft"":23,""ArrowUp,ArrowRight"":10,""ArrowDown,ArrowLeft"":8,""ArrowDown,ArrowRight"":30}","false","ArrowUp,ArrowLeft","false","original","1","54","","",""
"html-keyboard-response","179","892824","0.0-4.0-2.0-1.27","spark_pilot_norest","8321","3","12","Male","","","","","","","null","<div style=""font-size:60px;"">+</div>","null","fixation","","","","","","","","","55","","",""
"revaluation","180","898876","0.0-4.0-2.0-0.28","spark_pilot_norest","8321","3","12","Male","","false","","","","","[555,405]","./assets/img/ocean/memory/11.jpg","[""ArrowUp"",""ArrowLeft""]","value training","ocean","23","{""ArrowUp,ArrowLeft"":23,""ArrowUp,ArrowRight"":10,""ArrowDown,ArrowLeft"":8,""ArrowDown,ArrowRight"":30}","false","ArrowUp,ArrowLeft","false","original","1","56","","",""
"html-keyboard-response","181","899394","0.0-4.0-2.0-1.28","spark_pilot_norest","8321","3","12","Male","","","","","","","null","<div style=""font-size:60px;"">+</div>","null","fixation","","","","","","","","","57","","",""
"revaluation","182","905435","0.0-4.0-2.0-0.29","spark_pilot_norest","8321","3","12","Male","","false","","","","","[1550,807]","./assets/img/ocean/memory/10.jpg","[""ArrowDown"",""ArrowLeft""]","value training","ocean","8","{""ArrowUp,ArrowLeft"":23,""ArrowUp,ArrowRight"":10,""ArrowDown,ArrowLeft"":8,""ArrowDown,ArrowRight"":30}","false","ArrowDown,ArrowLeft","false","original","1","58","","",""
"html-keyboard-response","183","905954","0.0-4.0-2.0-1.29","spark_pilot_norest","8321","3","12","Male","","","","","","","null","<div style=""font-size:60px;"">+</div>","null","fixation","","","","","","","","","59","","",""
"revaluation","184","911975","0.0-4.0-2.0-0.30","spark_pilot_norest","8321","3","12","Male","","false","","","","","[853,703]","./assets/img/ocean/memory/35.jpg","[""ArrowUp"",""ArrowLeft""]","value training","ocean","23","{""ArrowUp,ArrowLeft"":23,""ArrowUp,ArrowRight"":10,""ArrowDown,ArrowLeft"":8,""ArrowDown,ArrowRight"":30}","false","ArrowUp,ArrowLeft","false","original","1","60","","",""
"html-keyboard-response","185","912484","0.0-4.0-2.0-1.30","spark_pilot_norest","8321","3","12","Male","","","","","","","null","<div style=""font-size:60px;"">+</div>","null","fixation","","","","","","","","","61","","",""
"revaluation","186","918534","0.0-4.0-2.0-0.31","spark_pilot_norest","8321","3","12","Male","","false","","","","","[734,437]","./assets/img/ocean/memory/33.jpg","[""ArrowUp"",""ArrowLeft""]","value training","ocean","23","{""ArrowUp,ArrowLeft"":23,""ArrowUp,ArrowRight"":10,""ArrowDown,ArrowLeft"":8,""ArrowDown,ArrowRight"":30}","false","ArrowUp,ArrowLeft","false","original","1","62","","",""
"html-keyboard-response","187","919054","0.0-4.0-2.0-1.31","spark_pilot_norest","8321","3","12","Male","","","","","","","null","<div style=""font-size:60px;"">+</div>","null","fixation","","","","","","","","","63","","",""
"revaluation","188","925085","0.0-4.0-2.0-0.32","spark_pilot_norest","8321","3","12","Male","","false","","","","","[756,713]","./assets/img/ocean/memory/4.jpg","[""ArrowUp"",""ArrowRight""]","value training","ocean","10","{""ArrowUp,ArrowLeft"":23,""ArrowUp,ArrowRight"":10,""ArrowDown,ArrowLeft"":8,""ArrowDown,ArrowRight"":30}","false","ArrowUp,ArrowRight","false","original","1","64","","",""
"html-keyboard-response","189","925604","0.0-4.0-2.0-1.32","spark_pilot_norest","8321","3","12","Male","","","","","","","null","<div style=""font-size:60px;"">+</div>","null","fixation","","","","","","","","","65","","",""
"revaluation","190","929645","0.0-4.0-2.0-0.33","spark_pilot_norest","8321","3","12","Male","","false","","","","","[700]","./assets/img/ocean/catch/2.jpg","[""spaceBar""]","value training","ocean","0","{""ArrowUp,ArrowLeft"":23,""ArrowUp,ArrowRight"":10,""ArrowDown,ArrowLeft"":8,""ArrowDown,ArrowRight"":30}","true","spaceBar","true","original","1","66","","",""
"html-keyboard-response","191","930164","0.0-4.0-2.0-1.33","spark_pilot_norest","8321","3","12","Male","","","","","","","null","<div style=""font-size:60px;"">+</div>","null","fixation","","","","","","","","","67","","",""
"revaluation","192","936205","0.0-4.0-2.0-0.34","spark_pilot_norest","8321","3","12","Male","","false","","","","","[532,689]","./assets/img/ocean/memory/40.jpg","[""ArrowUp"",""ArrowLeft""]","value training","ocean","23","{""ArrowUp,ArrowLeft"":23,""ArrowUp,ArrowRight"":10,""ArrowDown,ArrowLeft"":8,""ArrowDown,ArrowRight"":30}","false","ArrowUp,ArrowLeft","false","original","1","68","","",""
"html-keyboard-response","193","936723","0.0-4.0-2.0-1.34","spark_pilot_norest","8321","3","12","Male","","","","","","","null","<div style=""font-size:60px;"">+</div>","null","fixation","","","","","","","","","69","","",""
"revaluation","194","942784","0.0-4.0-2.0-0.35","spark_pilot_norest","8321","3","12","Male","","false","","","","","[530,850]","./assets/img/ocean/memory/13.jpg","[""ArrowUp"",""ArrowLeft""]","value training","ocean","23","{""ArrowUp,ArrowLeft"":23,""ArrowUp,ArrowRight"":10,""ArrowDown,ArrowLeft"":8,""ArrowDown,ArrowRight"":30}","false","ArrowUp,ArrowLeft","false","original","1","70","","",""
"html-keyboard-response","195","943304","0.0-4.0-2.0-1.35","spark_pilot_norest","8321","3","12","Male","","","","","","","null","<div style=""font-size:60px;"">+</div>","null","fixation","","","","","","","","","71","","",""
"revaluation","196","947325","0.0-4.0-2.0-0.36","spark_pilot_norest","8321","3","12","Male","","false","","","","","[948]","./assets/img/ocean/catch/5.jpg","[""spaceBar""]","value training","ocean","0","{""ArrowUp,ArrowLeft"":23,""ArrowUp,ArrowRight"":10,""ArrowDown,ArrowLeft"":8,""ArrowDown,ArrowRight"":30}","true","spaceBar","true","original","1","72","","",""
"html-keyboard-response","197","947844","0.0-4.0-2.0-1.36","spark_pilot_norest","8321","3","12","Male","","","","","","","null","<div style=""font-size:60px;"">+</div>","null","fixation","","","","","","","","","73","","",""
"revaluation","198","953874","0.0-4.0-2.0-0.37","spark_pilot_norest","8321","3","12","Male","","false","","","","","[733,694]","./assets/img/ocean/memory/1.jpg","[""ArrowUp"",""ArrowLeft""]","value training","ocean","23","{""ArrowUp,ArrowLeft"":23,""ArrowUp,ArrowRight"":10,""ArrowDown,ArrowLeft"":8,""ArrowDown,ArrowRight"":30}","false","ArrowUp,ArrowLeft","false","original","1","74","","",""
"html-keyboard-response","199","954394","0.0-4.0-2.0-1.37","spark_pilot_norest","8321","3","12","Male","","","","","","","null","<div style=""font-size:60px;"">+</div>","null","fixation","","","","","","","","","75","","",""
"revaluation","200","960425","0.0-4.0-2.0-0.38","spark_pilot_norest","8321","3","12","Male","","false","","","","","[918,780]","./assets/img/ocean/memory/38.jpg","[""ArrowUp"",""ArrowLeft""]","value training","ocean","23","{""ArrowUp,ArrowLeft"":23,""ArrowUp,ArrowRight"":10,""ArrowDown,ArrowLeft"":8,""ArrowDown,ArrowRight"":30}","false","ArrowUp,ArrowLeft","false","original","1","76","","",""
"html-keyboard-response","201","960944","0.0-4.0-2.0-1.38","spark_pilot_norest","8321","3","12","Male","","","","","","","null","<div style=""font-size:60px;"">+</div>","null","fixation","","","","","","","","","77","","",""
"revaluation","202","966993","0.0-4.0-2.0-0.39","spark_pilot_norest","8321","3","12","Male","","false","","","","","[774,497]","./assets/img/ocean/memory/11.jpg","[""ArrowUp"",""ArrowLeft""]","value training","ocean","23","{""ArrowUp,ArrowLeft"":23,""ArrowUp,ArrowRight"":10,""ArrowDown,ArrowLeft"":8,""ArrowDown,ArrowRight"":30}","false","ArrowUp,ArrowLeft","false","original","1","78","","",""
"html-keyboard-response","203","967514","0.0-4.0-2.0-1.39","spark_pilot_norest","8321","3","12","Male","","","","","","","null","<div style=""font-size:60px;"">+</div>","null","fixation","","","","","","","","","79","","",""
"revaluation","204","971535","0.0-4.0-2.0-0.40","spark_pilot_norest","8321","3","12","Male","","false","","","","","[846]","./assets/img/ocean/catch/7.jpg","[""spaceBar""]","value training","ocean","0","{""ArrowUp,ArrowLeft"":23,""ArrowUp,ArrowRight"":10,""ArrowDown,ArrowLeft"":8,""ArrowDown,ArrowRight"":30}","true","spaceBar","true","original","1","80","","",""
"html-keyboard-response","205","972054","0.0-4.0-2.0-1.40","spark_pilot_norest","8321","3","12","Male","","","","","","","null","<div style=""font-size:60px;"">+</div>","null","fixation","","","","","","","","","81","","",""
"revaluation","206","978095","0.0-4.0-2.0-0.41","spark_pilot_norest","8321","3","12","Male","","false","","","","","[629,933]","./assets/img/ocean/memory/6.jpg","[""ArrowUp"",""ArrowLeft""]","value training","ocean","23","{""ArrowUp,ArrowLeft"":23,""ArrowUp,ArrowRight"":10,""ArrowDown,ArrowLeft"":8,""ArrowDown,ArrowRight"":30}","false","ArrowUp,ArrowLeft","false","original","1","82","","",""
"html-keyboard-response","207","978614","0.0-4.0-2.0-1.41","spark_pilot_norest","8321","3","12","Male","","","","","","","null","<div style=""font-size:60px;"">+</div>","null","fixation","","","","","","","","","83","","",""
"revaluation","208","982645","0.0-4.0-2.0-0.42","spark_pilot_norest","8321","3","12","Male","","false","","","","","[863]","./assets/img/ocean/catch/1.jpg","[""spaceBar""]","value training","ocean","0","{""ArrowUp,ArrowLeft"":23,""ArrowUp,ArrowRight"":10,""ArrowDown,ArrowLeft"":8,""ArrowDown,ArrowRight"":30}","true","spaceBar","true","original","1","84","","",""
"html-keyboard-response","209","983164","0.0-4.0-2.0-1.42","spark_pilot_norest","8321","3","12","Male","","","","","","","null","<div style=""font-size:60px;"">+</div>","null","fixation","","","","","","","","","85","","",""
"revaluation","210","989205","0.0-4.0-2.0-0.43","spark_pilot_norest","8321","3","12","Male","","false","","","","","[628,878]","./assets/img/ocean/memory/35.jpg","[""ArrowUp"",""ArrowLeft""]","value training","ocean","23","{""ArrowUp,ArrowLeft"":23,""ArrowUp,ArrowRight"":10,""ArrowDown,ArrowLeft"":8,""ArrowDown,ArrowRight"":30}","false","ArrowUp,ArrowLeft","false","original","1","86","","",""
"html-keyboard-response","211","989724","0.0-4.0-2.0-1.43","spark_pilot_norest","8321","3","12","Male","","","","","","","null","<div style=""font-size:60px;"">+</div>","null","fixation","","","","","","","","","87","","",""
"revaluation","212","995755","0.0-4.0-2.0-0.44","spark_pilot_norest","8321","3","12","Male","","false","","","","","[1061,884]","./assets/img/ocean/memory/9.jpg","[""ArrowUp"",""ArrowLeft""]","value training","ocean","23","{""ArrowUp,ArrowLeft"":23,""ArrowUp,ArrowRight"":10,""ArrowDown,ArrowLeft"":8,""ArrowDown,ArrowRight"":30}","false","ArrowUp,ArrowLeft","false","original","1","88","","",""
"html-keyboard-response","213","996274","0.0-4.0-2.0-1.44","spark_pilot_norest","8321","3","12","Male","","","","","","","null","<div style=""font-size:60px;"">+</div>","null","fixation","","","","","","","","","89","","",""
"revaluation","214","1002301","0.0-4.0-2.0-0.45","spark_pilot_norest","8321","3","12","Male","","false","","","","","[678,700]","./assets/img/ocean/memory/15.jpg","[""ArrowUp"",""ArrowLeft""]","value training","ocean","23","{""ArrowUp,ArrowLeft"":23,""ArrowUp,ArrowRight"":10,""ArrowDown,ArrowLeft"":8,""ArrowDown,ArrowRight"":30}","false","ArrowUp,ArrowLeft","false","original","1","90","","",""
"html-keyboard-response","215","1002804","0.0-4.0-2.0-1.45","spark_pilot_norest","8321","3","12","Male","","","","","","","null","<div style=""font-size:60px;"">+</div>","null","fixation","","","","","","","","","91","","",""
"revaluation","216","1008835","0.0-4.0-2.0-0.46","spark_pilot_norest","8321","3","12","Male","","false","","","","","[548,697]","./assets/img/ocean/memory/32.jpg","[""ArrowUp"",""ArrowLeft""]","value training","ocean","23","{""ArrowUp,ArrowLeft"":23,""ArrowUp,ArrowRight"":10,""ArrowDown,ArrowLeft"":8,""ArrowDown,ArrowRight"":30}","false","ArrowUp,ArrowLeft","false","original","1","92","","",""
"html-keyboard-response","217","1009344","0.0-4.0-2.0-1.46","spark_pilot_norest","8321","3","12","Male","","","","","","","null","<div style=""font-size:60px;"">+</div>","null","fixation","","","","","","","","","93","","",""
"revaluation","218","1015400","0.0-4.0-2.0-0.47","spark_pilot_norest","8321","3","12","Male","","false","","","","","[671,628]","./assets/img/ocean/memory/15.jpg","[""ArrowUp"",""ArrowLeft""]","value training","ocean","23","{""ArrowUp,ArrowLeft"":23,""ArrowUp,ArrowRight"":10,""ArrowDown,ArrowLeft"":8,""ArrowDown,ArrowRight"":30}","false","ArrowUp,ArrowLeft","false","original","1","94","","",""
"html-keyboard-response","219","1015924","0.0-4.0-2.0-1.47","spark_pilot_norest","8321","3","12","Male","","","","","","","null","<div style=""font-size:60px;"">+</div>","null","fixation","","","","","","","","","95","","",""
"revaluation","220","1021954","0.0-4.0-2.0-0.48","spark_pilot_norest","8321","3","12","Male","","false","","","","","[902,676]","./assets/img/ocean/memory/9.jpg","[""ArrowUp"",""ArrowLeft""]","value training","ocean","23","{""ArrowUp,ArrowLeft"":23,""ArrowUp,ArrowRight"":10,""ArrowDown,ArrowLeft"":8,""ArrowDown,ArrowRight"":30}","false","ArrowUp,ArrowLeft","false","original","1","96","","",""
"html-keyboard-response","221","1022475","0.0-4.0-2.0-1.48","spark_pilot_norest","8321","3","12","Male","","","","","","","null","<div style=""font-size:60px;"">+</div>","null","fixation","","","","","","","","","97","","",""
"revaluation","222","1026515","0.0-4.0-2.0-0.49","spark_pilot_norest","8321","3","12","Male","","false","","","","","[787]","./assets/img/ocean/catch/0.jpg","[""spaceBar""]","value training","ocean","0","{""ArrowUp,ArrowLeft"":23,""ArrowUp,ArrowRight"":10,""ArrowDown,ArrowLeft"":8,""ArrowDown,ArrowRight"":30}","true","spaceBar","true","original","1","98","","",""
"html-keyboard-response","223","1027034","0.0-4.0-2.0-1.49","spark_pilot_norest","8321","3","12","Male","","","","","","","null","<div style=""font-size:60px;"">+</div>","null","fixation","","","","","","","","","99","","",""
"learning-instructions","224","1044617","0.0-4.0-3.0-0.0","spark_pilot_norest","8321","3","12","Male","","","","","","[{""event"":""fullscreenenter"",""trial"":2,""time"":25731},{""event"":""blur"",""trial"":225,""time"":1047194},{""event"":""focus"",""trial"":229,""time"":1054533}]","4691","<p> Now, you will travel with a friend who will choose whether you go up or down first. </p>
            <p> On these turns, you will just see the animal that they found. You will still get to choose which chest to search for treasure.</p>","","instructions","","","","","","","","","","","",""
"revaluation","225","1048648","0.0-4.0-4.0-0.0","spark_pilot_norest","8321","3","12","Male","","false","","","","","[1536]","./assets/img/ocean/animals/octopus.jpg","[""ArrowLeft""]","revaluation","ocean","8","{""ArrowUp,ArrowLeft"":23,""ArrowUp,ArrowRight"":10,""ArrowDown,ArrowLeft"":8,""ArrowDown,ArrowRight"":30}","false","ArrowDown,ArrowLeft","","original","1","0","","",""
"html-keyboard-response","226","1049207","0.0-4.0-4.0-1.0","spark_pilot_norest","8321","3","12","Male","","","","","","","null","<div style=""font-size:60px;"">+</div>","null","fixation","","","","","","","","","1","","",""
"revaluation","227","1053233","0.0-4.0-4.0-0.1","spark_pilot_norest","8321","3","12","Male","","true","","","","","[]","./assets/img/ocean/animals/octopus.jpg","[]","revaluation","ocean","-5","{""ArrowUp,ArrowLeft"":23,""ArrowUp,ArrowRight"":10,""ArrowDown,ArrowLeft"":8,""ArrowDown,ArrowRight"":30}","false","ArrowDown","","original","1","2","","",""
"html-keyboard-response","228","1053734","0.0-4.0-4.0-1.1","spark_pilot_norest","8321","3","12","Male","","","","","","[{""event"":""fullscreenenter"",""trial"":2,""time"":25731},{""event"":""blur"",""trial"":225,""time"":1047194},{""event"":""focus"",""trial"":229,""time"":1054533}]","null","<div style=""font-size:60px;"">+</div>","null","fixation","","","","","","","","","3","","",""
"revaluation","229","1057764","0.0-4.0-4.0-0.2","spark_pilot_norest","8321","3","12","Male","","false","","","","","[1711]","./assets/img/ocean/animals/seahorse.jpg","[""ArrowRight""]","revaluation","ocean","10","{""ArrowUp,ArrowLeft"":23,""ArrowUp,ArrowRight"":10,""ArrowDown,ArrowLeft"":8,""ArrowDown,ArrowRight"":30}","false","ArrowUp,ArrowRight","","original","1","4","","",""
"html-keyboard-response","230","1058284","0.0-4.0-4.0-1.2","spark_pilot_norest","8321","3","12","Male","","","","","","","null","<div style=""font-size:60px;"">+</div>","null","fixation","","","","","","","","","5","","",""
"revaluation","231","1062294","0.0-4.0-4.0-0.3","spark_pilot_norest","8321","3","12","Male","","false","","","","","[628]","./assets/img/ocean/animals/octopus.jpg","[""ArrowRight""]","revaluation","ocean","30","{""ArrowUp,ArrowLeft"":23,""ArrowUp,ArrowRight"":10,""ArrowDown,ArrowLeft"":8,""ArrowDown,ArrowRight"":30}","true","ArrowDown,ArrowRight","","original","1","6","","",""
"html-keyboard-response","232","1062814","0.0-4.0-4.0-1.3","spark_pilot_norest","8321","3","12","Male","","","","","","","null","<div style=""font-size:60px;"">+</div>","null","fixation","","","","","","","","","7","","",""
"revaluation","233","1066844","0.0-4.0-4.0-0.4","spark_pilot_norest","8321","3","12","Male","","false","","","","","[894]","./assets/img/ocean/animals/octopus.jpg","[""ArrowLeft""]","revaluation","ocean","8","{""ArrowUp,ArrowLeft"":23,""ArrowUp,ArrowRight"":10,""ArrowDown,ArrowLeft"":8,""ArrowDown,ArrowRight"":30}","false","ArrowDown,ArrowLeft","","original","1","8","","",""
"html-keyboard-response","234","1067348","0.0-4.0-4.0-1.4","spark_pilot_norest","8321","3","12","Male","","","","","","","null","<div style=""font-size:60px;"">+</div>","null","fixation","","","","","","","","","9","","",""
"revaluation","235","1071384","0.0-4.0-4.0-0.5","spark_pilot_norest","8321","3","12","Male","","false","","","","","[563]","./assets/img/ocean/animals/octopus.jpg","[""ArrowLeft""]","revaluation","ocean","8","{""ArrowUp,ArrowLeft"":23,""ArrowUp,ArrowRight"":10,""ArrowDown,ArrowLeft"":8,""ArrowDown,ArrowRight"":30}","false","ArrowDown,ArrowLeft","","original","1","10","","",""
"html-keyboard-response","236","1071899","0.0-4.0-4.0-1.5","spark_pilot_norest","8321","3","12","Male","","","","","","","null","<div style=""font-size:60px;"">+</div>","null","fixation","","","","","","","","","11","","",""
"revaluation","237","1075934","0.0-4.0-4.0-0.6","spark_pilot_norest","8321","3","12","Male","","false","","","","","[527]","./assets/img/ocean/animals/seahorse.jpg","[""ArrowLeft""]","revaluation","ocean","23","{""ArrowUp,ArrowLeft"":23,""ArrowUp,ArrowRight"":10,""ArrowDown,ArrowLeft"":8,""ArrowDown,ArrowRight"":30}","true","ArrowUp,ArrowLeft","","original","1","12","","",""
"html-keyboard-response","238","1076454","0.0-4.0-4.0-1.6","spark_pilot_norest","8321","3","12","Male","","","","","","","null","<div style=""font-size:60px;"">+</div>","null","fixation","","","","","","","","","13","","",""
"revaluation","239","1080465","0.0-4.0-4.0-0.7","spark_pilot_norest","8321","3","12","Male","","false","","","","","[547]","./assets/img/ocean/animals/seahorse.jpg","[""ArrowRight""]","revaluation","ocean","10","{""ArrowUp,ArrowLeft"":23,""ArrowUp,ArrowRight"":10,""ArrowDown,ArrowLeft"":8,""ArrowDown,ArrowRight"":30}","false","ArrowUp,ArrowRight","","original","1","14","","",""
"html-keyboard-response","240","1080984","0.0-4.0-4.0-1.7","spark_pilot_norest","8321","3","12","Male","","","","","","","null","<div style=""font-size:60px;"">+</div>","null","fixation","","","","","","","","","15","","",""
"revaluation","241","1085024","0.0-4.0-4.0-0.8","spark_pilot_norest","8321","3","12","Male","","false","","","","","[406]","./assets/img/ocean/animals/seahorse.jpg","[""ArrowLeft""]","revaluation","ocean","23","{""ArrowUp,ArrowLeft"":23,""ArrowUp,ArrowRight"":10,""ArrowDown,ArrowLeft"":8,""ArrowDown,ArrowRight"":30}","true","ArrowUp,ArrowLeft","","original","1","16","","",""
"html-keyboard-response","242","1085544","0.0-4.0-4.0-1.8","spark_pilot_norest","8321","3","12","Male","","","","","","","null","<div style=""font-size:60px;"">+</div>","null","fixation","","","","","","","","","17","","",""
"revaluation","243","1089582","0.0-4.0-4.0-0.9","spark_pilot_norest","8321","3","12","Male","","false","","","","","[449]","./assets/img/ocean/animals/octopus.jpg","[""ArrowLeft""]","revaluation","ocean","8","{""ArrowUp,ArrowLeft"":23,""ArrowUp,ArrowRight"":10,""ArrowDown,ArrowLeft"":8,""ArrowDown,ArrowRight"":30}","false","ArrowDown,ArrowLeft","","original","1","18","","",""
"html-keyboard-response","244","1090083","0.0-4.0-4.0-1.9","spark_pilot_norest","8321","3","12","Male","","","","","","","null","<div style=""font-size:60px;"">+</div>","null","fixation","","","","","","","","","19","","",""
"revaluation","245","1094124","0.0-4.0-4.0-0.10","spark_pilot_norest","8321","3","12","Male","","false","","","","","[380]","./assets/img/ocean/animals/octopus.jpg","[""ArrowLeft""]","revaluation","ocean","8","{""ArrowUp,ArrowLeft"":23,""ArrowUp,ArrowRight"":10,""ArrowDown,ArrowLeft"":8,""ArrowDown,ArrowRight"":30}","false","ArrowDown,ArrowLeft","","original","1","20","","",""
"html-keyboard-response","246","1094644","0.0-4.0-4.0-1.10","spark_pilot_norest","8321","3","12","Male","","","","","","","null","<div style=""font-size:60px;"">+</div>","null","fixation","","","","","","","","","21","","",""
"revaluation","247","1098684","0.0-4.0-4.0-0.11","spark_pilot_norest","8321","3","12","Male","","false","","","","","[416]","./assets/img/ocean/animals/seahorse.jpg","[""ArrowLeft""]","revaluation","ocean","23","{""ArrowUp,ArrowLeft"":23,""ArrowUp,ArrowRight"":10,""ArrowDown,ArrowLeft"":8,""ArrowDown,ArrowRight"":30}","true","ArrowUp,ArrowLeft","","original","1","22","","",""
"html-keyboard-response","248","1099193","0.0-4.0-4.0-1.11","spark_pilot_norest","8321","3","12","Male","","","","","","","null","<div style=""font-size:60px;"">+</div>","null","fixation","","","","","","","","","23","","",""
"revaluation","249","1103214","0.0-4.0-4.0-0.12","spark_pilot_norest","8321","3","12","Male","","false","","","","","[499]","./assets/img/ocean/animals/seahorse.jpg","[""ArrowLeft""]","revaluation","ocean","23","{""ArrowUp,ArrowLeft"":23,""ArrowUp,ArrowRight"":10,""ArrowDown,ArrowLeft"":8,""ArrowDown,ArrowRight"":30}","true","ArrowUp,ArrowLeft","","original","1","24","","",""
"html-keyboard-response","250","1103734","0.0-4.0-4.0-1.12","spark_pilot_norest","8321","3","12","Male","","","","","","","null","<div style=""font-size:60px;"">+</div>","null","fixation","","","","","","","","","25","","",""
"revaluation","251","1107764","0.0-4.0-4.0-0.13","spark_pilot_norest","8321","3","12","Male","","false","","","","","[564]","./assets/img/ocean/animals/octopus.jpg","[""ArrowLeft""]","revaluation","ocean","8","{""ArrowUp,ArrowLeft"":23,""ArrowUp,ArrowRight"":10,""ArrowDown,ArrowLeft"":8,""ArrowDown,ArrowRight"":30}","false","ArrowDown,ArrowLeft","","original","1","26","","",""
"html-keyboard-response","252","1108285","0.0-4.0-4.0-1.13","spark_pilot_norest","8321","3","12","Male","","","","","","","null","<div style=""font-size:60px;"">+</div>","null","fixation","","","","","","","","","27","","",""
"revaluation","253","1112314","0.0-4.0-4.0-0.14","spark_pilot_norest","8321","3","12","Male","","false","","","","","[427]","./assets/img/ocean/animals/seahorse.jpg","[""ArrowLeft""]","revaluation","ocean","23","{""ArrowUp,ArrowLeft"":23,""ArrowUp,ArrowRight"":10,""ArrowDown,ArrowLeft"":8,""ArrowDown,ArrowRight"":30}","true","ArrowUp,ArrowLeft","","original","1","28","","",""
"html-keyboard-response","254","1112834","0.0-4.0-4.0-1.14","spark_pilot_norest","8321","3","12","Male","","","","","","","null","<div style=""font-size:60px;"">+</div>","null","fixation","","","","","","","","","29","","",""
"revaluation","255","1116875","0.0-4.0-4.0-0.15","spark_pilot_norest","8321","3","12","Male","","false","","","","","[486]","./assets/img/ocean/animals/octopus.jpg","[""ArrowLeft""]","revaluation","ocean","8","{""ArrowUp,ArrowLeft"":23,""ArrowUp,ArrowRight"":10,""ArrowDown,ArrowLeft"":8,""ArrowDown,ArrowRight"":30}","false","ArrowDown,ArrowLeft","","original","1","30","","",""
"html-keyboard-response","256","1117394","0.0-4.0-4.0-1.15","spark_pilot_norest","8321","3","12","Male","","","","","","","null","<div style=""font-size:60px;"">+</div>","null","fixation","","","","","","","","","31","","",""
"revaluation","257","1121425","0.0-4.0-4.0-0.16","spark_pilot_norest","8321","3","12","Male","","false","","","","","[440]","./assets/img/ocean/animals/seahorse.jpg","[""ArrowLeft""]","revaluation","ocean","23","{""ArrowUp,ArrowLeft"":23,""ArrowUp,ArrowRight"":10,""ArrowDown,ArrowLeft"":8,""ArrowDown,ArrowRight"":30}","true","ArrowUp,ArrowLeft","","original","1","32","","",""
"html-keyboard-response","258","1121945","0.0-4.0-4.0-1.16","spark_pilot_norest","8321","3","12","Male","","","","","","","null","<div style=""font-size:60px;"">+</div>","null","fixation","","","","","","","","","33","","",""
"revaluation","259","1125964","0.0-4.0-4.0-0.17","spark_pilot_norest","8321","3","12","Male","","false","","","","","[343]","./assets/img/ocean/animals/seahorse.jpg","[""ArrowLeft""]","revaluation","ocean","23","{""ArrowUp,ArrowLeft"":23,""ArrowUp,ArrowRight"":10,""ArrowDown,ArrowLeft"":8,""ArrowDown,ArrowRight"":30}","true","ArrowUp,ArrowLeft","","original","1","34","","",""
"html-keyboard-response","260","1126484","0.0-4.0-4.0-1.17","spark_pilot_norest","8321","3","12","Male","","","","","","","null","<div style=""font-size:60px;"">+</div>","null","fixation","","","","","","","","","35","","",""
"learning-instructions","261","1134603","0.0-4.0-5.0-0.0","spark_pilot_norest","8321","3","12","Male","","","","","","","null","<p> You have almost finished this part of the game! </p>
            <p> We are going to ask you to make a few more choices. </p>","","instructions","","","","","","","","","","","",""
"learning-instructions","262","1150604","0.0-4.0-5.0-0.1","spark_pilot_norest","8321","3","12","Male","","","","","","","null","<p> First, you need to decide whether to go up or down. When you see each picture, use the arrow keys to make your choice. </p>
            <p><b>You will not see which animal you found, but try to get to the one that will give you the most treasure.</b></p>","","instructions","","","","","","","","","","","",""
"html-keyboard-response","263","1151623","0.0-4.0-6.0-0.0","spark_pilot_norest","8321","3","12","Male","","","","","","","null","<div style=""font-size:100px;color:red;"">Starting in...</div>","null","","","","","","","","","","","","",""
"html-keyboard-response","264","1152635","0.0-4.0-6.0-1.0","spark_pilot_norest","8321","3","12","Male","","","","","","","null","<div style=""font-size:200px;color:red;"">3</div>","null","","","","","","","","","","","","",""
"html-keyboard-response","265","1153654","0.0-4.0-6.0-2.0","spark_pilot_norest","8321","3","12","Male","","","","","","","null","<div style=""font-size:200px;color:red;"">2</div>","null","","","","","","","","","","","","",""
"html-keyboard-response","266","1154674","0.0-4.0-6.0-3.0","spark_pilot_norest","8321","3","12","Male","","","","","","","null","<div style=""font-size:200px;color:red;"">1</div>","null","","","","","","","","","","","","",""
"revaluation","267","1155848","0.0-4.0-7.0-0.0","spark_pilot_norest","8321","3","12","Male","","false","","","","","[1169]","./assets/img/ocean/test/1.jpg","[""ArrowDown""]","first stage test","ocean","0","{""ArrowUp,ArrowLeft"":23,""ArrowUp,ArrowRight"":10,""ArrowDown,ArrowLeft"":8,""ArrowDown,ArrowRight"":30}","true","ArrowDown","false","original","1","","","",""
"html-keyboard-response","268","1156354","0.0-4.0-7.0-1.0","spark_pilot_norest","8321","3","12","Male","","","","","","","null","<div style=""font-size:60px;"">+</div>","null","fixation","","","","","","","","","","","",""
"revaluation","269","1157302","0.0-4.0-7.0-0.1","spark_pilot_norest","8321","3","12","Male","","false","","","","","[943]","./assets/img/ocean/test/3.jpg","[""ArrowDown""]","first stage test","ocean","0","{""ArrowUp,ArrowLeft"":23,""ArrowUp,ArrowRight"":10,""ArrowDown,ArrowLeft"":8,""ArrowDown,ArrowRight"":30}","true","ArrowDown","false","original","1","","","",""
"html-keyboard-response","270","1157814","0.0-4.0-7.0-1.1","spark_pilot_norest","8321","3","12","Male","","","","","","","null","<div style=""font-size:60px;"">+</div>","null","fixation","","","","","","","","","","","",""
"revaluation","271","1158374","0.0-4.0-7.0-0.2","spark_pilot_norest","8321","3","12","Male","","false","","","","","[554]","./assets/img/ocean/test/2.jpg","[""ArrowDown""]","first stage test","ocean","0","{""ArrowUp,ArrowLeft"":23,""ArrowUp,ArrowRight"":10,""ArrowDown,ArrowLeft"":8,""ArrowDown,ArrowRight"":30}","true","ArrowDown","false","original","1","","","",""
"html-keyboard-response","272","1158885","0.0-4.0-7.0-1.2","spark_pilot_norest","8321","3","12","Male","","","","","","","null","<div style=""font-size:60px;"">+</div>","null","fixation","","","","","","","","","","","",""
"revaluation","273","1159694","0.0-4.0-7.0-0.3","spark_pilot_norest","8321","3","12","Male","","false","","","","","[806]","./assets/img/ocean/test/0.jpg","[""ArrowDown""]","first stage test","ocean","0","{""ArrowUp,ArrowLeft"":23,""ArrowUp,ArrowRight"":10,""ArrowDown,ArrowLeft"":8,""ArrowDown,ArrowRight"":30}","true","ArrowDown","false","original","1","","","",""
"html-keyboard-response","274","1160205","0.0-4.0-7.0-1.3","spark_pilot_norest","8321","3","12","Male","","","","","","","null","<div style=""font-size:60px;"">+</div>","null","fixation","","","","","","","","","","","",""
"learning-instructions","275","1173574","0.0-4.0-8.0-0.0","spark_pilot_norest","8321","3","12","Male","","","","","","","null","<p> Now you will see the animals again and can search their chests for treasure. </p>
            <p> This time, you will not see how much treasure you earned, but you will earn more bonus money for making better choices. </p>","","instructions","","","","","","","","","","","",""
"html-keyboard-response","276","1174583","0.0-4.0-9.0-0.0","spark_pilot_norest","8321","3","12","Male","","","","","","","null","<div style=""font-size:100px;color:red;"">Starting in...</div>","null","","","","","","","","","","","","",""
"html-keyboard-response","277","1175584","0.0-4.0-9.0-1.0","spark_pilot_norest","8321","3","12","Male","","","","","","","null","<div style=""font-size:200px;color:red;"">3</div>","null","","","","","","","","","","","","",""
"html-keyboard-response","278","1176605","0.0-4.0-9.0-2.0","spark_pilot_norest","8321","3","12","Male","","","","","","","null","<div style=""font-size:200px;color:red;"">2</div>","null","","","","","","","","","","","","",""
"html-keyboard-response","279","1177624","0.0-4.0-9.0-3.0","spark_pilot_norest","8321","3","12","Male","","","","","","","null","<div style=""font-size:200px;color:red;"">1</div>","null","","","","","","","","","","","","",""
"revaluation","280","1178186","0.0-4.0-10.0-0.0","spark_pilot_norest","8321","3","12","Male","","false","","","","","[557]","./assets/img/ocean/animals/seahorse.jpg","[""ArrowLeft""]","second stage test","ocean","0","{""ArrowUp,ArrowLeft"":23,""ArrowUp,ArrowRight"":10,""ArrowDown,ArrowLeft"":8,""ArrowDown,ArrowRight"":30}","true","ArrowUp,ArrowLeft","","original","1","","","",""
"html-keyboard-response","281","1178704","0.0-4.0-10.0-1.0","spark_pilot_norest","8321","3","12","Male","","","","","","","null","<div style=""font-size:60px;"">+</div>","null","fixation","","","","","","","","","","","",""
"revaluation","282","1179326","0.0-4.0-10.0-0.1","spark_pilot_norest","8321","3","12","Male","","false","","","","","[617]","./assets/img/ocean/animals/seahorse.jpg","[""ArrowLeft""]","second stage test","ocean","0","{""ArrowUp,ArrowLeft"":23,""ArrowUp,ArrowRight"":10,""ArrowDown,ArrowLeft"":8,""ArrowDown,ArrowRight"":30}","true","ArrowUp,ArrowLeft","","original","1","","","",""
"html-keyboard-response","283","1179842","0.0-4.0-10.0-1.1","spark_pilot_norest","8321","3","12","Male","","","","","","","null","<div style=""font-size:60px;"">+</div>","null","fixation","","","","","","","","","","","",""
"revaluation","284","1180291","0.0-4.0-10.0-0.2","spark_pilot_norest","8321","3","12","Male","","false","","","","","[443]","./assets/img/ocean/animals/seahorse.jpg","[""ArrowRight""]","second stage test","ocean","0","{""ArrowUp,ArrowLeft"":23,""ArrowUp,ArrowRight"":10,""ArrowDown,ArrowLeft"":8,""ArrowDown,ArrowRight"":30}","false","ArrowUp,ArrowRight","","original","1","","","",""
"html-keyboard-response","285","1180804","0.0-4.0-10.0-1.2","spark_pilot_norest","8321","3","12","Male","","","","","","","null","<div style=""font-size:60px;"">+</div>","null","fixation","","","","","","","","","","","",""
"revaluation","286","1181216","0.0-4.0-10.0-0.3","spark_pilot_norest","8321","3","12","Male","","false","","","","","[408]","./assets/img/ocean/animals/seahorse.jpg","[""ArrowLeft""]","second stage test","ocean","0","{""ArrowUp,ArrowLeft"":23,""ArrowUp,ArrowRight"":10,""ArrowDown,ArrowLeft"":8,""ArrowDown,ArrowRight"":30}","true","ArrowUp,ArrowLeft","","original","1","","","",""
"html-keyboard-response","287","1181724","0.0-4.0-10.0-1.3","spark_pilot_norest","8321","3","12","Male","","","","","","","null","<div style=""font-size:60px;"">+</div>","null","fixation","","","","","","","","","","","",""
"revaluation","288","1182196","0.0-4.0-10.0-0.4","spark_pilot_norest","8321","3","12","Male","","false","","","","","[468]","./assets/img/ocean/animals/octopus.jpg","[""ArrowLeft""]","second stage test","ocean","0","{""ArrowUp,ArrowLeft"":23,""ArrowUp,ArrowRight"":10,""ArrowDown,ArrowLeft"":8,""ArrowDown,ArrowRight"":30}","false","ArrowDown,ArrowLeft","","original","1","","","",""
"html-keyboard-response","289","1182704","0.0-4.0-10.0-1.4","spark_pilot_norest","8321","3","12","Male","","","","","","","null","<div style=""font-size:60px;"">+</div>","null","fixation","","","","","","","","","","","",""
"revaluation","290","1183057","0.0-4.0-10.0-0.5","spark_pilot_norest","8321","3","12","Male","","false","","","","","[350]","./assets/img/ocean/animals/octopus.jpg","[""ArrowRight""]","second stage test","ocean","0","{""ArrowUp,ArrowLeft"":23,""ArrowUp,ArrowRight"":10,""ArrowDown,ArrowLeft"":8,""ArrowDown,ArrowRight"":30}","true","ArrowDown,ArrowRight","","original","1","","","",""
"html-keyboard-response","291","1183575","0.0-4.0-10.0-1.5","spark_pilot_norest","8321","3","12","Male","","","","","","","null","<div style=""font-size:60px;"">+</div>","null","fixation","","","","","","","","","","","",""
"revaluation","292","1183948","0.0-4.0-10.0-0.6","spark_pilot_norest","8321","3","12","Male","","false","","","","","[368]","./assets/img/ocean/animals/octopus.jpg","[""ArrowLeft""]","second stage test","ocean","0","{""ArrowUp,ArrowLeft"":23,""ArrowUp,ArrowRight"":10,""ArrowDown,ArrowLeft"":8,""ArrowDown,ArrowRight"":30}","false","ArrowDown,ArrowLeft","","original","1","","","",""
"html-keyboard-response","293","1184454","0.0-4.0-10.0-1.6","spark_pilot_norest","8321","3","12","Male","","","","","","","null","<div style=""font-size:60px;"">+</div>","null","fixation","","","","","","","","","","","",""
"revaluation","294","1184867","0.0-4.0-10.0-0.7","spark_pilot_norest","8321","3","12","Male","","false","","","","","[410]","./assets/img/ocean/animals/octopus.jpg","[""ArrowLeft""]","second stage test","ocean","0","{""ArrowUp,ArrowLeft"":23,""ArrowUp,ArrowRight"":10,""ArrowDown,ArrowLeft"":8,""ArrowDown,ArrowRight"":30}","false","ArrowDown,ArrowLeft","","original","1","","","",""
"html-keyboard-response","295","1185375","0.0-4.0-10.0-1.7","spark_pilot_norest","8321","3","12","Male","","","","","","","null","<div style=""font-size:60px;"">+</div>","null","fixation","","","","","","","","","","","",""
"learning-instructions","296","1191108","0.0-4.0-0.1-0.2","spark_pilot_norest","8321","3","12","Male","","","","","","","2902","<p> This time you are searching for treasure in the <b>canyon</b>.</p>","","instructions","","","","","","","","","","","",""
"learning-instructions","297","1210166","0.0-4.0-0.1-0.3","spark_pilot_norest","8321","3","12","Male","","","","","","","1801","<p><b>New</b> animals with <b>new</b> treasure chests live here. You need to explore to discover where the animal with the best treasure chest is.</p>
                    <p> Like before, once you figure out which animal has the chest with the most treasure, you should try to get to that animal and select that chest! </p>","","instructions","","","","","","","","","","","",""
"learning-instructions","298","1227797","0.0-4.0-1.1-0.1","spark_pilot_norest","8321","3","12","Male","","","","","","","2890","<p> Remember, when you see a picture of the place, use the up and down keys to <b>find an animal</b>.</p>
            <p> When you encounter an animal, you should use the left and right keys to <b>select a treasure chest</b>.</p>
            <p> Don't forget to look out for the robber! </p>","","instructions","","","","","","","","","","","",""
"revaluation","299","1233825","0.0-4.0-2.1-0.50","spark_pilot_norest","8321","3","12","Male","","false","","","","","[1627,1176]","./assets/img/canyon/memory/10.jpg","[""ArrowDown"",""ArrowLeft""]","value training","canyon","5","{""ArrowUp,ArrowLeft"":26,""ArrowUp,ArrowRight"":10,""ArrowDown,ArrowLeft"":5,""ArrowDown,ArrowRight"":17}","false","ArrowDown,ArrowLeft","false","revaluation","2","0","","",""
"html-keyboard-response","300","1234346","0.0-4.0-2.1-1.50","spark_pilot_norest","8321","3","12","Male","","","","","","","null","<div style=""font-size:60px;"">+</div>","null","fixation","","","","","","","","","1","","",""
"revaluation","301","1240385","0.0-4.0-2.1-0.51","spark_pilot_norest","8321","3","12","Male","","false","","","","","[545,512]","./assets/img/canyon/memory/7.jpg","[""ArrowUp"",""ArrowLeft""]","value training","canyon","26","{""ArrowUp,ArrowLeft"":26,""ArrowUp,ArrowRight"":10,""ArrowDown,ArrowLeft"":5,""ArrowDown,ArrowRight"":17}","true","ArrowUp,ArrowLeft","false","revaluation","2","2","","",""
"html-keyboard-response","302","1240904","0.0-4.0-2.1-1.51","spark_pilot_norest","8321","3","12","Male","","","","","","","null","<div style=""font-size:60px;"">+</div>","null","fixation","","","","","","","","","3","","",""
"revaluation","303","1246955","0.0-4.0-2.1-0.52","spark_pilot_norest","8321","3","12","Male","","false","","","","","[616,600]","./assets/img/canyon/memory/11.jpg","[""ArrowUp"",""ArrowLeft""]","value training","canyon","26","{""ArrowUp,ArrowLeft"":26,""ArrowUp,ArrowRight"":10,""ArrowDown,ArrowLeft"":5,""ArrowDown,ArrowRight"":17}","true","ArrowUp,ArrowLeft","false","revaluation","2","4","","",""
"html-keyboard-response","304","1247465","0.0-4.0-2.1-1.52","spark_pilot_norest","8321","3","12","Male","","","","","","","null","<div style=""font-size:60px;"">+</div>","null","fixation","","","","","","","","","5","","",""
"revaluation","305","1253484","0.0-4.0-2.1-0.53","spark_pilot_norest","8321","3","12","Male","","false","","","","","[760,599]","./assets/img/canyon/memory/7.jpg","[""ArrowUp"",""ArrowLeft""]","value training","canyon","26","{""ArrowUp,ArrowLeft"":26,""ArrowUp,ArrowRight"":10,""ArrowDown,ArrowLeft"":5,""ArrowDown,ArrowRight"":17}","true","ArrowUp,ArrowLeft","false","revaluation","2","6","","",""
"html-keyboard-response","306","1254005","0.0-4.0-2.1-1.53","spark_pilot_norest","8321","3","12","Male","","","","","","","null","<div style=""font-size:60px;"">+</div>","null","fixation","","","","","","","","","7","","",""
"revaluation","307","1260044","0.0-4.0-2.1-0.54","spark_pilot_norest","8321","3","12","Male","","false","","","","","[414,357]","./assets/img/canyon/memory/33.jpg","[""ArrowUp"",""ArrowLeft""]","value training","canyon","26","{""ArrowUp,ArrowLeft"":26,""ArrowUp,ArrowRight"":10,""ArrowDown,ArrowLeft"":5,""ArrowDown,ArrowRight"":17}","true","ArrowUp,ArrowLeft","false","revaluation","2","8","","",""
"html-keyboard-response","308","1260562","0.0-4.0-2.1-1.54","spark_pilot_norest","8321","3","12","Male","","","","","","","null","<div style=""font-size:60px;"">+</div>","null","fixation","","","","","","","","","9","","",""
"revaluation","309","1266604","0.0-4.0-2.1-0.55","spark_pilot_norest","8321","3","12","Male","","false","","","","","[1114,552]","./assets/img/canyon/memory/35.jpg","[""ArrowUp"",""ArrowRight""]","value training","canyon","10","{""ArrowUp,ArrowLeft"":26,""ArrowUp,ArrowRight"":10,""ArrowDown,ArrowLeft"":5,""ArrowDown,ArrowRight"":17}","false","ArrowUp,ArrowRight","false","revaluation","2","10","","",""
"html-keyboard-response","310","1267104","0.0-4.0-2.1-1.55","spark_pilot_norest","8321","3","12","Male","","","","","","","null","<div style=""font-size:60px;"">+</div>","null","fixation","","","","","","","","","11","","",""
"revaluation","311","1273145","0.0-4.0-2.1-0.56","spark_pilot_norest","8321","3","12","Male","","false","","","","","[494,363]","./assets/img/canyon/memory/38.jpg","[""ArrowUp"",""ArrowLeft""]","value training","canyon","26","{""ArrowUp,ArrowLeft"":26,""ArrowUp,ArrowRight"":10,""ArrowDown,ArrowLeft"":5,""ArrowDown,ArrowRight"":17}","true","ArrowUp,ArrowLeft","false","revaluation","2","12","","",""
"html-keyboard-response","312","1273645","0.0-4.0-2.1-1.56","spark_pilot_norest","8321","3","12","Male","","","","","","","null","<div style=""font-size:60px;"">+</div>","null","fixation","","","","","","","","","13","","",""
"revaluation","313","1279695","0.0-4.0-2.1-0.57","spark_pilot_norest","8321","3","12","Male","","false","","","","","[530,335]","./assets/img/canyon/memory/33.jpg","[""ArrowUp"",""ArrowLeft""]","value training","canyon","26","{""ArrowUp,ArrowLeft"":26,""ArrowUp,ArrowRight"":10,""ArrowDown,ArrowLeft"":5,""ArrowDown,ArrowRight"":17}","true","ArrowUp,ArrowLeft","false","revaluation","2","14","","",""
"html-keyboard-response","314","1280214","0.0-4.0-2.1-1.57","spark_pilot_norest","8321","3","12","Male","","","","","","","null","<div style=""font-size:60px;"">+</div>","null","fixation","","","","","","","","","15","","",""
"revaluation","315","1286264","0.0-4.0-2.1-0.58","spark_pilot_norest","8321","3","12","Male","","false","","","","","[653,900]","./assets/img/canyon/memory/32.jpg","[""ArrowUp"",""ArrowLeft""]","value training","canyon","26","{""ArrowUp,ArrowLeft"":26,""ArrowUp,ArrowRight"":10,""ArrowDown,ArrowLeft"":5,""ArrowDown,ArrowRight"":17}","true","ArrowUp,ArrowLeft","false","revaluation","2","16","","",""
"html-keyboard-response","316","1286784","0.0-4.0-2.1-1.58","spark_pilot_norest","8321","3","12","Male","","","","","","","null","<div style=""font-size:60px;"">+</div>","null","fixation","","","","","","","","","17","","",""
"revaluation","317","1290795","0.0-4.0-2.1-0.59","spark_pilot_norest","8321","3","12","Male","","false","","","","","[366]","./assets/img/canyon/catch/6.jpg","[""ArrowUp""]","value training","canyon","-10","{""ArrowUp,ArrowLeft"":26,""ArrowUp,ArrowRight"":10,""ArrowDown,ArrowLeft"":5,""ArrowDown,ArrowRight"":17}","false","ArrowUp","true","revaluation","2","18","","",""
"html-keyboard-response","318","1291313","0.0-4.0-2.1-1.59","spark_pilot_norest","8321","3","12","Male","","","","","","","null","<div style=""font-size:60px;"">+</div>","null","fixation","","","","","","","","","19","","",""
"revaluation","319","1297358","0.0-4.0-2.1-0.60","spark_pilot_norest","8321","3","12","Male","","false","","","","","[652,690]","./assets/img/canyon/memory/36.jpg","[""ArrowUp"",""ArrowLeft""]","value training","canyon","26","{""ArrowUp,ArrowLeft"":26,""ArrowUp,ArrowRight"":10,""ArrowDown,ArrowLeft"":5,""ArrowDown,ArrowRight"":17}","true","ArrowUp,ArrowLeft","false","revaluation","2","20","","",""
"html-keyboard-response","320","1297869","0.0-4.0-2.1-1.60","spark_pilot_norest","8321","3","12","Male","","","","","","","null","<div style=""font-size:60px;"">+</div>","null","fixation","","","","","","","","","21","","",""
"revaluation","321","1303914","0.0-4.0-2.1-0.61","spark_pilot_norest","8321","3","12","Male","","false","","","","","[572,713]","./assets/img/canyon/memory/8.jpg","[""ArrowUp"",""ArrowLeft""]","value training","canyon","26","{""ArrowUp,ArrowLeft"":26,""ArrowUp,ArrowRight"":10,""ArrowDown,ArrowLeft"":5,""ArrowDown,ArrowRight"":17}","true","ArrowUp,ArrowLeft","false","revaluation","2","22","","",""
