"trial_type","trial_index","time_elapsed","internal_node_id","task_version","subject_id","assigned_condition","age","gender","browser_interaction","success","timeout","failed_images","failed_audio","failed_video","rt","stimulus","response","task_part","environment","score","rewardMap","correct","fullState","isCatch","condition","order","trial_num","key_press","ground_truth","bonus"
"pavlovia","0","1960","0.0-0.0","spark_pilot_norest","9677","7","21","Female","[{""event"":""focus"",""trial"":0,""time"":936},{""event"":""blur"",""trial"":1,""time"":4055},{""event"":""focus"",""trial"":1,""time"":8652},{""event"":""blur"",""trial"":1,""time"":14536},{""event"":""focus"",""trial"":1,""time"":26307},{""event"":""fullscreenenter"",""trial"":2,""time"":31599}]","","","","","","","","","","","","","","","","","","","","",""
"preload","1","28562","0.0-1.0","spark_pilot_norest","9677","7","21","Female","[{""event"":""focus"",""trial"":0,""time"":936},{""event"":""blur"",""trial"":1,""time"":4055},{""event"":""focus"",""trial"":1,""time"":8652},{""event"":""blur"",""trial"":1,""time"":14536},{""event"":""focus"",""trial"":1,""time"":26307},{""event"":""fullscreenenter"",""trial"":2,""time"":31599}]","true","false","[]","[]","[]","","","","","","","","","","","","","","","",""
"fullscreen","2","32596","0.0-2.0","spark_pilot_norest","9677","7","21","Female","","true","","","","","","","","","","","","","","","","","","","",""
"audio-button-response","3","34391","0.0-3.0-0.0-0.0","spark_pilot_norest","9677","7","21","Female","","","","","","","1730","./assets/audio/audiotest/turtle.mp3","2","audio_test","","","","","","","","","","","",""
"learning-instructions","4","43033","0.0-3.0-1.0-0.0","spark_pilot_norest","9677","7","21","Female","","","","","","","1637.7000000178814","<p> Welcome! Please remember to stay in fullscreen mode and don't click away from the experiment. </p>","","instructions","","","","","","","","","","","",""
"learning-instructions","5","53040","0.0-3.0-1.0-0.1","spark_pilot_norest","9677","7","21","Female","","","","","","","1539","<p> Today you will be playing a game to earn treasure. </p>
            <p> At the end of the experiment, you will earn a bonus based on how much treasure you find. </p>
            <img src='./assets/img/instructions/treasure.jpg' class='instructions-image'>","","instructions","","","","","","","","","","","",""
"learning-instructions","6","62583","0.0-3.0-1.0-0.2","spark_pilot_norest","9677","7","21","Female","","","","","","","1247","<p> Animals have hidden treasure in treasure chests. </p>
            <p> You need to first find an animal and then choose which of their treasure chests to search. </p>
            <img src='./assets/img/space/animals/cat.jpg' class='instructions-image'>","","instructions","","","","","","","","","","","",""
"learning-instructions","7","77067","0.0-3.0-1.0-0.3","spark_pilot_norest","9677","7","21","Female","","","","","","","1260.199999988079","<p> In each round, you will search for treasure in a different place. In the real game, there will be two rounds. </p>
            <p> You will begin with a separate, practice round where you will search for treasure in outer space. </p>
            <img src='./assets/img/space/0.jpg' class='instructions-image'>","","instructions","","","","","","","","","","","",""
"learning-instructions","8","89498","0.0-3.0-1.0-0.4","spark_pilot_norest","9677","7","21","Female","","","","","","","960.5","<p> On every turn, you will see a picture of the place that you are in, but the specific image may be different each time. </p>
            <p> For example, both of these images mean you are in outer space. </p>
            <img src='./assets/img/instructions/outerspace.jpg' class='instructions-image'>","","instructions","","","","","","","","","","","",""
"learning-instructions","9","98371","0.0-3.0-1.0-0.5","spark_pilot_norest","9677","7","21","Female","","","","","","","1002.3000000119209","<p> You need to decide which direction to travel in. </p>
            <p> You can choose between going <b>up or down</b> by using the arrow keys. </p>
            <img src='./assets/img/instructions/updown.jpg' class='instructions-image'>","","instructions","","","","","","","","","","","",""
"learning-instructions","10","108287","0.0-3.0-1.0-0.6","spark_pilot_norest","9677","7","21","Female","","","","","","","1057.4000000059605","<p> You will have <b>2 seconds</b> to make your choice. </p>
            <p> If you do not make a choice within 2 seconds, you will not find an animal or earn treasure. </p>
            <img src='./assets/img/instructions/2seconds.jpg' class='instructions-image'>","","instructions","","","","","","","","","","","",""
"learning-instructions","11","116130","0.0-3.0-1.0-0.7","spark_pilot_norest","9677","7","21","Female","","","","","","","774.4000000059605","<p> Let’s try practicing that now! </p>
            <p> When you see a picture of the place you are in, press the <b>up</b> key to travel up. </p>
            <img src='./assets/img/instructions/pressUp.jpg' class='instructions-image'>","","instructions","","","","","","","","","","","",""
"revaluation","12","120157","0.0-3.0-2.0-0.0","spark_pilot_norest","9677","7","21","Female","","","false","","","","[783.2999999821186]","./assets/img/space/0.jpg","[""ArrowUp""]","first stage practice","space","0","null","null","ArrowUp","false","","","","","",""
"html-keyboard-response","13","120666","0.0-3.0-2.0-1.0","spark_pilot_norest","9677","7","21","Female","","","","","","","null","<div style=""font-size:60px;"">+</div>","null","fixation","","","","","","","","","","","",""
"revaluation","14","124683","0.0-3.0-2.0-0.1","spark_pilot_norest","9677","7","21","Female","","","false","","","","[1400.9000000059605]","./assets/img/space/1.jpg","[""ArrowUp""]","first stage practice","space","0","null","null","ArrowUp","false","","","","","",""
"html-keyboard-response","15","125186","0.0-3.0-2.0-1.1","spark_pilot_norest","9677","7","21","Female","","","","","","","null","<div style=""font-size:60px;"">+</div>","null","fixation","","","","","","","","","","","",""
"revaluation","16","129206","0.0-3.0-2.0-0.2","spark_pilot_norest","9677","7","21","Female","","","false","","","","[455.60000002384186]","./assets/img/space/2.jpg","[""ArrowUp""]","first stage practice","space","0","null","null","ArrowUp","false","","","","","",""
"html-keyboard-response","17","129716","0.0-3.0-2.0-1.2","spark_pilot_norest","9677","7","21","Female","","","","","","","null","<div style=""font-size:60px;"">+</div>","null","fixation","","","","","","","","","","","",""
"learning-instructions","18","135376","0.0-3.0-3.0-0.0","spark_pilot_norest","9677","7","21","Female","","","","","","","933.6000000238419","<p> Great job! Now try pressing the <b>down</b> key to travel down. </p>
            <img src='./assets/img/instructions/pressDown.jpg' class='instructions-image'>","","instructions","","","","","","","","","","","",""
"revaluation","19","139394","0.0-3.0-4.0-0.0","spark_pilot_norest","9677","7","21","Female","","","false","","","","[597.3000000119209]","./assets/img/space/3.jpg","[""ArrowDown""]","first stage practice","space","0","null","null","ArrowDown","false","","","","","",""
"html-keyboard-response","20","139900","0.0-3.0-4.0-1.0","spark_pilot_norest","9677","7","21","Female","","","","","","","null","<div style=""font-size:60px;"">+</div>","null","fixation","","","","","","","","","","","",""
"revaluation","21","143915","0.0-3.0-4.0-0.1","spark_pilot_norest","9677","7","21","Female","","","false","","","","[333]","./assets/img/space/4.jpg","[""ArrowDown""]","first stage practice","space","0","null","null","ArrowDown","false","","","","","",""
"html-keyboard-response","22","144419","0.0-3.0-4.0-1.1","spark_pilot_norest","9677","7","21","Female","","","","","","","null","<div style=""font-size:60px;"">+</div>","null","fixation","","","","","","","","","","","",""
"revaluation","23","148434","0.0-3.0-4.0-0.2","spark_pilot_norest","9677","7","21","Female","","","false","","","","[446.90000000596046]","./assets/img/space/5.jpg","[""ArrowDown""]","first stage practice","space","0","null","null","ArrowDown","false","","","","","",""
"html-keyboard-response","24","148938","0.0-3.0-4.0-1.2","spark_pilot_norest","9677","7","21","Female","","","","","","","null","<div style=""font-size:60px;"">+</div>","null","fixation","","","","","","","","","","","",""
"learning-instructions","25","159776","0.0-3.0-5.0-0.0","spark_pilot_norest","9677","7","21","Female","","","","","","","935.8000000119209","<p> The animals don’t move, so the animal in the upper part of a place will stay in the upper part of a place, and the animal in the lower part of a place will stay in the lower part of a place. </p>","","instructions","","","","","","","","","","","",""
"learning-instructions","26","170899","0.0-3.0-5.0-0.1","spark_pilot_norest","9677","7","21","Female","","","","","","","1957.5","<p> Each animal has two treasure chests for you to choose from. </p>
            <p> The amount of treasure in each chest can range from <b> 0 to 40 pieces.</b></p>","","instructions","","","","","","","","","","","",""
"learning-instructions","27","182944","0.0-3.0-5.0-0.2","spark_pilot_norest","9677","7","21","Female","","","","","","","813.5","<p> You should decide which chest to search for treasure by using the <b>left</b> and <b>right</b> arrow keys. </p>
            <p><b> Pay attention to which animal is on the screen, as the animals have different treasure chests. </b></p>
            <img src='./assets/img/instructions/leftright.jpg' class='instructions-image'>","","instructions","","","","","","","","","","","",""
"learning-instructions","28","189869","0.0-3.0-5.0-0.3","spark_pilot_norest","9677","7","21","Female","","","","","","","528.5","<p> Let’s try practicing that now. </p>
            <p> When you see an animal, choose which chest to search for treasure. </p>
            <img src='./assets/img/instructions/chooseChest.jpg' class='instructions-image'>","","instructions","","","","","","","","","","","",""
"revaluation","29","193885","0.0-3.0-6.0-0.0","spark_pilot_norest","9677","7","21","Female","","","false","","","","[509.69999998807907]","./assets/img/space/animals/rabbit.jpg","[""ArrowLeft""]","second stage practice","space","15","{""ArrowUp,ArrowLeft"":3,""ArrowUp,ArrowRight"":36,""ArrowDown,ArrowLeft"":15,""ArrowDown,ArrowRight"":23}","false","ArrowDown,ArrowLeft","","","","","","",""
"html-keyboard-response","30","194395","0.0-3.0-6.0-1.0","spark_pilot_norest","9677","7","21","Female","","","","","","","null","<div style=""font-size:60px;"">+</div>","null","fixation","","","","","","","","","","","",""
"revaluation","31","198411","0.0-3.0-6.0-0.1","spark_pilot_norest","9677","7","21","Female","","","false","","","","[735.5999999940395]","./assets/img/space/animals/rabbit.jpg","[""ArrowLeft""]","second stage practice","space","15","{""ArrowUp,ArrowLeft"":3,""ArrowUp,ArrowRight"":36,""ArrowDown,ArrowLeft"":15,""ArrowDown,ArrowRight"":23}","false","ArrowDown,ArrowLeft","","","","","","",""
"html-keyboard-response","32","198915","0.0-3.0-6.0-1.1","spark_pilot_norest","9677","7","21","Female","","","","","","","null","<div style=""font-size:60px;"">+</div>","null","fixation","","","","","","","","","","","",""
"revaluation","33","202931","0.0-3.0-6.0-0.2","spark_pilot_norest","9677","7","21","Female","","","false","","","","[854]","./assets/img/space/animals/cat.jpg","[""ArrowRight""]","second stage practice","space","36","{""ArrowUp,ArrowLeft"":3,""ArrowUp,ArrowRight"":36,""ArrowDown,ArrowLeft"":15,""ArrowDown,ArrowRight"":23}","true","ArrowUp,ArrowRight","","","","","","",""
"html-keyboard-response","34","203439","0.0-3.0-6.0-1.2","spark_pilot_norest","9677","7","21","Female","","","","","","","null","<div style=""font-size:60px;"">+</div>","null","fixation","","","","","","","","","","","",""
"revaluation","35","207451","0.0-3.0-6.0-0.3","spark_pilot_norest","9677","7","21","Female","","","false","","","","[526]","./assets/img/space/animals/cat.jpg","[""ArrowRight""]","second stage practice","space","36","{""ArrowUp,ArrowLeft"":3,""ArrowUp,ArrowRight"":36,""ArrowDown,ArrowLeft"":15,""ArrowDown,ArrowRight"":23}","true","ArrowUp,ArrowRight","","","","","","",""
"html-keyboard-response","36","207956","0.0-3.0-6.0-1.3","spark_pilot_norest","9677","7","21","Female","","","","","","","null","<div style=""font-size:60px;"">+</div>","null","fixation","","","","","","","","","","","",""
"learning-instructions","37","225792","0.0-3.0-7.0-0.0","spark_pilot_norest","9677","7","21","Female","","","","","","","954.8000000119209","<p> Great job. Now let’s try putting it together. </p>
            <p> On each turn, you will first see a picture to remind you of the place you are in, and you need to choose whether to go up or down. </p>
            <p> Then you will see an animal and choose which of its chests to search for treasure. </p>","","instructions","","","","","","","","","","","",""
"learning-instructions","38","234745","0.0-3.0-7.0-0.1","spark_pilot_norest","9677","7","21","Female","","","","","","","660.0999999940395","<p> When you choose whether to go up or down, try to go to the animal with the chest with the most treasure. </p>
            <p> Try practicing that now! </p>","","instructions","","","","","","","","","","","",""
"revaluation","39","240774","0.0-3.0-8.0-0.0","spark_pilot_norest","9677","7","21","Female","","","false","","","","[588.5,368.5]","./assets/img/space/6.jpg","[""ArrowUp"",""ArrowLeft""]","full practice","space","3","{""ArrowUp,ArrowLeft"":3,""ArrowUp,ArrowRight"":36,""ArrowDown,ArrowLeft"":15,""ArrowDown,ArrowRight"":23}","false","ArrowUp,ArrowLeft","false","","","","","",""
"html-keyboard-response","40","241284","0.0-3.0-8.0-1.0","spark_pilot_norest","9677","7","21","Female","","","","","","","null","<div style=""font-size:60px;"">+</div>","null","fixation","","","","","","","","","","","",""
"revaluation","41","247309","0.0-3.0-8.0-0.1","spark_pilot_norest","9677","7","21","Female","","","false","","","","[884.6999999880791,797.1999999880791]","./assets/img/space/7.jpg","[""ArrowDown"",""ArrowRight""]","full practice","space","23","{""ArrowUp,ArrowLeft"":3,""ArrowUp,ArrowRight"":36,""ArrowDown,ArrowLeft"":15,""ArrowDown,ArrowRight"":23}","false","ArrowDown,ArrowRight","false","","","","","",""
"html-keyboard-response","42","247818","0.0-3.0-8.0-1.1","spark_pilot_norest","9677","7","21","Female","","","","","","","null","<div style=""font-size:60px;"">+</div>","null","fixation","","","","","","","","","","","",""
"revaluation","43","253846","0.0-3.0-8.0-0.2","spark_pilot_norest","9677","7","21","Female","","","false","","","","[842.2999999821186,460.39999997615814]","./assets/img/space/8.jpg","[""ArrowUp"",""ArrowRight""]","full practice","space","36","{""ArrowUp,ArrowLeft"":3,""ArrowUp,ArrowRight"":36,""ArrowDown,ArrowLeft"":15,""ArrowDown,ArrowRight"":23}","true","ArrowUp,ArrowRight","false","","","","","",""
"html-keyboard-response","44","254355","0.0-3.0-8.0-1.2","spark_pilot_norest","9677","7","21","Female","","","","","","","null","<div style=""font-size:60px;"">+</div>","null","fixation","","","","","","","","","","","",""
"revaluation","45","260381","0.0-3.0-8.0-0.3","spark_pilot_norest","9677","7","21","Female","","","false","","","","[474.90000000596046,459.59999999403954]","./assets/img/space/9.jpg","[""ArrowDown"",""ArrowLeft""]","full practice","space","15","{""ArrowUp,ArrowLeft"":3,""ArrowUp,ArrowRight"":36,""ArrowDown,ArrowLeft"":15,""ArrowDown,ArrowRight"":23}","false","ArrowDown,ArrowLeft","false","","","","","",""
"html-keyboard-response","46","260885","0.0-3.0-8.0-1.3","spark_pilot_norest","9677","7","21","Female","","","","","","","null","<div style=""font-size:60px;"">+</div>","null","fixation","","","","","","","","","","","",""
"revaluation","47","266907","0.0-3.0-8.0-0.4","spark_pilot_norest","9677","7","21","Female","","","false","","","","[487,652.0999999940395]","./assets/img/space/10.jpg","[""ArrowUp"",""ArrowRight""]","full practice","space","36","{""ArrowUp,ArrowLeft"":3,""ArrowUp,ArrowRight"":36,""ArrowDown,ArrowLeft"":15,""ArrowDown,ArrowRight"":23}","true","ArrowUp,ArrowRight","false","","","","","",""
"html-keyboard-response","48","267412","0.0-3.0-8.0-1.4","spark_pilot_norest","9677","7","21","Female","","","","","","","null","<div style=""font-size:60px;"">+</div>","null","fixation","","","","","","","","","","","",""
"learning-instructions","49","278960","0.0-3.0-9.0-0.0","spark_pilot_norest","9677","7","21","Female","","","","","","","1150.0999999940395","<p> One last thing: sometimes, you will see a robber. The robber can be anywhere in the picture. </p>
            <p> If you do not stop them, you will lose treasure. </p>
            <img src='./assets/img/instructions/robber.jpg' class='instructions-image'>","","instructions","","","","","","","","","","","",""
"learning-instructions","50","287214","0.0-3.0-9.0-0.1","spark_pilot_norest","9677","7","21","Female","","","","","","","1061","<p> If you see the robber, you should <b>press the space bar</b> rather than using the arrow keys. </p>
            <p> Try practicing that now! </p>","","instructions","","","","","","","","","","","",""
"revaluation","51","291228","0.0-3.0-10.0-0.0","spark_pilot_norest","9677","7","21","Female","","","false","","","","[707]","./assets/img/space/catch/0.jpg","[""spaceBar""]","catch practice","space","0","{""ArrowUp,ArrowLeft"":3,""ArrowUp,ArrowRight"":36,""ArrowDown,ArrowLeft"":15,""ArrowDown,ArrowRight"":23}","true","spaceBar","true","","","","","",""
"html-keyboard-response","52","291731","0.0-3.0-10.0-1.0","spark_pilot_norest","9677","7","21","Female","","","","","","","null","<div style=""font-size:60px;"">+</div>","null","fixation","","","","","","","","","","","",""
"revaluation","53","295752","0.0-3.0-10.0-0.1","spark_pilot_norest","9677","7","21","Female","","","false","","","","[589.4000000059605]","./assets/img/space/catch/1.jpg","[""spaceBar""]","catch practice","space","0","{""ArrowUp,ArrowLeft"":3,""ArrowUp,ArrowRight"":36,""ArrowDown,ArrowLeft"":15,""ArrowDown,ArrowRight"":23}","true","spaceBar","true","","","","","",""
"html-keyboard-response","54","296263","0.0-3.0-10.0-1.1","spark_pilot_norest","9677","7","21","Female","","","","","","","null","<div style=""font-size:60px;"">+</div>","null","fixation","","","","","","","","","","","",""
"revaluation","55","300278","0.0-3.0-10.0-0.2","spark_pilot_norest","9677","7","21","Female","","","false","","","","[535.8000000119209]","./assets/img/space/catch/2.jpg","[""spaceBar""]","catch practice","space","0","{""ArrowUp,ArrowLeft"":3,""ArrowUp,ArrowRight"":36,""ArrowDown,ArrowLeft"":15,""ArrowDown,ArrowRight"":23}","true","spaceBar","true","","","","","",""
"html-keyboard-response","56","300787","0.0-3.0-10.0-1.2","spark_pilot_norest","9677","7","21","Female","","","","","","","null","<div style=""font-size:60px;"">+</div>","null","fixation","","","","","","","","","","","",""
"learning-instructions","57","306902","0.0-3.0-11.0-0.0-0.0","spark_pilot_norest","9677","7","21","Female","","","","","","","862.8999999761581","<p> Now, you will practice a shortened version of the game to get a sense of how it all fits together. </p>","","instructions","","","","","","","","","","","",""
"learning-instructions","58","310901","0.0-3.0-11.0-0.0-0.1","spark_pilot_norest","9677","7","21","Female","","","","","","","787.0999999940395","<p>This time you are searching for treasure in outer space.</p>","","instructions","","","","","","","","","","","",""
"learning-instructions","59","326850","0.0-3.0-11.0-1.0-0.0","spark_pilot_norest","9677","7","21","Female","","","","","","","1115","<p> Remember, when you see a picture of the place, use the up and down keys to <b>find an animal</b>.</p>
            <p> When you encounter an animal, you should use the left and right keys to <b>select a treasure chest</b>.</p>
            <p> Don't forget to look out for the robber! </p>","","instructions","","","","","","","","","","","",""
"revaluation","60","332875","0.0-3.0-11.0-2.0-0.0","spark_pilot_norest","9677","7","21","Female","","","false","","","","[919.2000000178814,425.69999998807907]","./assets/img/space/11.jpg","[""ArrowUp"",""ArrowRight""]","practice block","space","36","{""ArrowUp,ArrowLeft"":3,""ArrowUp,ArrowRight"":36,""ArrowDown,ArrowLeft"":15,""ArrowDown,ArrowRight"":23}","true","ArrowUp,ArrowRight","false","","","","","",""
"html-keyboard-response","61","333380","0.0-3.0-11.0-2.0-1.0","spark_pilot_norest","9677","7","21","Female","","","","","","","null","<div style=""font-size:60px;"">+</div>","null","fixation","","","","","","","","","","","",""
"revaluation","62","339396","0.0-3.0-11.0-2.0-0.1","spark_pilot_norest","9677","7","21","Female","","","false","","","","[884.1999999880791,675.2999999821186]","./assets/img/space/12.jpg","[""ArrowDown"",""ArrowLeft""]","practice block","space","15","{""ArrowUp,ArrowLeft"":3,""ArrowUp,ArrowRight"":36,""ArrowDown,ArrowLeft"":15,""ArrowDown,ArrowRight"":23}","false","ArrowDown,ArrowLeft","false","","","","","",""
"html-keyboard-response","63","339900","0.0-3.0-11.0-2.0-1.1","spark_pilot_norest","9677","7","21","Female","","","","","","","null","<div style=""font-size:60px;"">+</div>","null","fixation","","","","","","","","","","","",""
"revaluation","64","345924","0.0-3.0-11.0-2.0-0.2","spark_pilot_norest","9677","7","21","Female","","","false","","","","[418.80000001192093,494.69999998807907]","./assets/img/space/13.jpg","[""ArrowUp"",""ArrowLeft""]","practice block","space","3","{""ArrowUp,ArrowLeft"":3,""ArrowUp,ArrowRight"":36,""ArrowDown,ArrowLeft"":15,""ArrowDown,ArrowRight"":23}","false","ArrowUp,ArrowLeft","false","","","","","",""
"html-keyboard-response","65","346428","0.0-3.0-11.0-2.0-1.2","spark_pilot_norest","9677","7","21","Female","","","","","","","null","<div style=""font-size:60px;"">+</div>","null","fixation","","","","","","","","","","","",""
"revaluation","66","352454","0.0-3.0-11.0-2.0-0.3","spark_pilot_norest","9677","7","21","Female","","","false","","","","[435.30000001192093,531.0999999940395]","./assets/img/space/14.jpg","[""ArrowDown"",""ArrowRight""]","practice block","space","23","{""ArrowUp,ArrowLeft"":3,""ArrowUp,ArrowRight"":36,""ArrowDown,ArrowLeft"":15,""ArrowDown,ArrowRight"":23}","false","ArrowDown,ArrowRight","false","","","","","",""
"html-keyboard-response","67","352965","0.0-3.0-11.0-2.0-1.3","spark_pilot_norest","9677","7","21","Female","","","","","","","null","<div style=""font-size:60px;"">+</div>","null","fixation","","","","","","","","","","","",""
"revaluation","68","358988","0.0-3.0-11.0-2.0-0.4","spark_pilot_norest","9677","7","21","Female","","","false","","","","[699.2000000178814,397]","./assets/img/space/11.jpg","[""ArrowUp"",""ArrowRight""]","practice block","space","36","{""ArrowUp,ArrowLeft"":3,""ArrowUp,ArrowRight"":36,""ArrowDown,ArrowLeft"":15,""ArrowDown,ArrowRight"":23}","true","ArrowUp,ArrowRight","false","","","","","",""
"html-keyboard-response","69","359491","0.0-3.0-11.0-2.0-1.4","spark_pilot_norest","9677","7","21","Female","","","","","","","null","<div style=""font-size:60px;"">+</div>","null","fixation","","","","","","","","","","","",""
"revaluation","70","365517","0.0-3.0-11.0-2.0-0.5","spark_pilot_norest","9677","7","21","Female","","","false","","","","[875.9000000059605,691.0999999940395]","./assets/img/space/12.jpg","[""ArrowUp"",""ArrowRight""]","practice block","space","36","{""ArrowUp,ArrowLeft"":3,""ArrowUp,ArrowRight"":36,""ArrowDown,ArrowLeft"":15,""ArrowDown,ArrowRight"":23}","true","ArrowUp,ArrowRight","false","","","","","",""
"html-keyboard-response","71","366022","0.0-3.0-11.0-2.0-1.5","spark_pilot_norest","9677","7","21","Female","","","","","","","null","<div style=""font-size:60px;"">+</div>","null","fixation","","","","","","","","","","","",""
"revaluation","72","372048","0.0-3.0-11.0-2.0-0.6","spark_pilot_norest","9677","7","21","Female","","","false","","","","[551.1999999880791,487.40000000596046]","./assets/img/space/13.jpg","[""ArrowUp"",""ArrowRight""]","practice block","space","36","{""ArrowUp,ArrowLeft"":3,""ArrowUp,ArrowRight"":36,""ArrowDown,ArrowLeft"":15,""ArrowDown,ArrowRight"":23}","true","ArrowUp,ArrowRight","false","","","","","",""
"html-keyboard-response","73","372558","0.0-3.0-11.0-2.0-1.6","spark_pilot_norest","9677","7","21","Female","","","","","","","null","<div style=""font-size:60px;"">+</div>","null","fixation","","","","","","","","","","","",""
"revaluation","74","378584","0.0-3.0-11.0-2.0-0.7","spark_pilot_norest","9677","7","21","Female","","","false","","","","[585.7999999821186,416.80000001192093]","./assets/img/space/14.jpg","[""ArrowUp"",""ArrowRight""]","practice block","space","36","{""ArrowUp,ArrowLeft"":3,""ArrowUp,ArrowRight"":36,""ArrowDown,ArrowLeft"":15,""ArrowDown,ArrowRight"":23}","true","ArrowUp,ArrowRight","false","","","","","",""
"html-keyboard-response","75","379095","0.0-3.0-11.0-2.0-1.7","spark_pilot_norest","9677","7","21","Female","","","","","","","null","<div style=""font-size:60px;"">+</div>","null","fixation","","","","","","","","","","","",""
"revaluation","76","383112","0.0-3.0-11.0-2.0-0.8","spark_pilot_norest","9677","7","21","Female","","","false","","","","[605.5]","./assets/img/space/catch/3.jpg","[""spaceBar""]","practice block","space","0","{""ArrowUp,ArrowLeft"":3,""ArrowUp,ArrowRight"":36,""ArrowDown,ArrowLeft"":15,""ArrowDown,ArrowRight"":23}","true","spaceBar","true","","","","","",""
"html-keyboard-response","77","383623","0.0-3.0-11.0-2.0-1.8","spark_pilot_norest","9677","7","21","Female","","","","","","","null","<div style=""font-size:60px;"">+</div>","null","fixation","","","","","","","","","","","",""
"learning-instructions","78","398121","0.0-3.0-11.0-3.0-0.0","spark_pilot_norest","9677","7","21","Female","","","","","","","1479.5","<p> Now, you will travel with a friend who will choose whether you go up or down first. </p>
            <p> On these turns, you will just see the animal that they found. You will still get to choose which chest to search for treasure.</p>","","instructions","","","","","","","","","","","",""
"revaluation","79","402143","0.0-3.0-11.0-4.0-0.0","spark_pilot_norest","9677","7","21","Female","","","false","","","","[626.2000000178814]","./assets/img/space/animals/rabbit.jpg","[""ArrowRight""]","practice block","space","23","{""ArrowUp,ArrowLeft"":3,""ArrowUp,ArrowRight"":36,""ArrowDown,ArrowLeft"":15,""ArrowDown,ArrowRight"":23}","true","ArrowDown,ArrowRight","","","","","","",""
"html-keyboard-response","80","402654","0.0-3.0-11.0-4.0-1.0","spark_pilot_norest","9677","7","21","Female","","","","","","","null","<div style=""font-size:60px;"">+</div>","null","fixation","","","","","","","","","","","",""
"revaluation","81","406668","0.0-3.0-11.0-4.0-0.1","spark_pilot_norest","9677","7","21","Female","","","false","","","","[527.6999999880791]","./assets/img/space/animals/rabbit.jpg","[""ArrowRight""]","practice block","space","23","{""ArrowUp,ArrowLeft"":3,""ArrowUp,ArrowRight"":36,""ArrowDown,ArrowLeft"":15,""ArrowDown,ArrowRight"":23}","true","ArrowDown,ArrowRight","","","","","","",""
"html-keyboard-response","82","407172","0.0-3.0-11.0-4.0-1.1","spark_pilot_norest","9677","7","21","Female","","","","","","","null","<div style=""font-size:60px;"">+</div>","null","fixation","","","","","","","","","","","",""
"revaluation","83","411192","0.0-3.0-11.0-4.0-0.2","spark_pilot_norest","9677","7","21","Female","","","false","","","","[566]","./assets/img/space/animals/cat.jpg","[""ArrowRight""]","practice block","space","36","{""ArrowUp,ArrowLeft"":3,""ArrowUp,ArrowRight"":36,""ArrowDown,ArrowLeft"":15,""ArrowDown,ArrowRight"":23}","true","ArrowUp,ArrowRight","","","","","","",""
"html-keyboard-response","84","411704","0.0-3.0-11.0-4.0-1.2","spark_pilot_norest","9677","7","21","Female","","","","","","","null","<div style=""font-size:60px;"">+</div>","null","fixation","","","","","","","","","","","",""
"revaluation","85","415717","0.0-3.0-11.0-4.0-0.3","spark_pilot_norest","9677","7","21","Female","","","false","","","","[603.0999999940395]","./assets/img/space/animals/cat.jpg","[""ArrowRight""]","practice block","space","36","{""ArrowUp,ArrowLeft"":3,""ArrowUp,ArrowRight"":36,""ArrowDown,ArrowLeft"":15,""ArrowDown,ArrowRight"":23}","true","ArrowUp,ArrowRight","","","","","","",""
"html-keyboard-response","86","416220","0.0-3.0-11.0-4.0-1.3","spark_pilot_norest","9677","7","21","Female","","","","","","","null","<div style=""font-size:60px;"">+</div>","null","fixation","","","","","","","","","","","",""
"learning-instructions","87","424379","0.0-3.0-11.0-5.0-0.0","spark_pilot_norest","9677","7","21","Female","","","","","","","null","<p> You have almost finished this part of the game! </p>
            <p> We are going to ask you to make a few more choices. </p>","","instructions","","","","","","","","","","","",""
"learning-instructions","88","440456","0.0-3.0-11.0-5.0-0.1","spark_pilot_norest","9677","7","21","Female","","","","","","","null","<p> First, you need to decide whether to go up or down. When you see each picture, use the arrow keys to make your choice. </p>
            <p><b>You will not see which animal you found, but try to get to the one that will give you the most treasure.</b></p>","","instructions","","","","","","","","","","","",""
"html-keyboard-response","89","441464","0.0-3.0-11.0-6.0-0.0","spark_pilot_norest","9677","7","21","Female","","","","","","","null","<div style=""font-size:100px;color:red;"">Starting in...</div>","null","","","","","","","","","","","","",""
"html-keyboard-response","90","442470","0.0-3.0-11.0-6.0-1.0","spark_pilot_norest","9677","7","21","Female","","","","","","","null","<div style=""font-size:200px;color:red;"">3</div>","null","","","","","","","","","","","","",""
"html-keyboard-response","91","443480","0.0-3.0-11.0-6.0-2.0","spark_pilot_norest","9677","7","21","Female","","","","","","","null","<div style=""font-size:200px;color:red;"">2</div>","null","","","","","","","","","","","","",""
"html-keyboard-response","92","444485","0.0-3.0-11.0-6.0-3.0","spark_pilot_norest","9677","7","21","Female","","","","","","","null","<div style=""font-size:200px;color:red;"">1</div>","null","","","","","","","","","","","","",""
"revaluation","93","444917","0.0-3.0-11.0-7.0","spark_pilot_norest","9677","7","21","Female","","","false","","","","[430.2000000178814]","./assets/img/space/15.jpg","[""ArrowUp""]","practice block","space","0","{""ArrowUp,ArrowLeft"":3,""ArrowUp,ArrowRight"":36,""ArrowDown,ArrowLeft"":15,""ArrowDown,ArrowRight"":23}","true","ArrowUp","false","","","","","",""
"html-keyboard-response","94","445421","0.0-3.0-11.0-8.0","spark_pilot_norest","9677","7","21","Female","","","","","","","null","<div style=""font-size:60px;"">+</div>","null","fixation","","","","","","","","","","","",""
"learning-instructions","95","458852","0.0-3.0-11.0-9.0-0.0","spark_pilot_norest","9677","7","21","Female","","","","","","","null","<p> Now you will see the animals again and can search their chests for treasure. </p>
            <p> This time, you will not see how much treasure you earned, but you will earn more bonus money for making better choices. </p>","","instructions","","","","","","","","","","","",""
"html-keyboard-response","96","459863","0.0-3.0-11.0-10.0-0.0","spark_pilot_norest","9677","7","21","Female","","","","","","","null","<div style=""font-size:100px;color:red;"">Starting in...</div>","null","","","","","","","","","","","","",""
"html-keyboard-response","97","460872","0.0-3.0-11.0-10.0-1.0","spark_pilot_norest","9677","7","21","Female","","","","","","","null","<div style=""font-size:200px;color:red;"">3</div>","null","","","","","","","","","","","","",""
"html-keyboard-response","98","461876","0.0-3.0-11.0-10.0-2.0","spark_pilot_norest","9677","7","21","Female","","","","","","","null","<div style=""font-size:200px;color:red;"">2</div>","null","","","","","","","","","","","","",""
"html-keyboard-response","99","462884","0.0-3.0-11.0-10.0-3.0","spark_pilot_norest","9677","7","21","Female","","","","","","","null","<div style=""font-size:200px;color:red;"">1</div>","null","","","","","","","","","","","","",""
"revaluation","100","463286","0.0-3.0-11.0-11.0-0.0","spark_pilot_norest","9677","7","21","Female","","","false","","","","[395]","./assets/img/space/animals/cat.jpg","[""ArrowRight""]","practice block","space","0","{""ArrowUp,ArrowLeft"":3,""ArrowUp,ArrowRight"":36,""ArrowDown,ArrowLeft"":15,""ArrowDown,ArrowRight"":23}","true","ArrowUp,ArrowRight","","","","","","",""
"html-keyboard-response","101","463792","0.0-3.0-11.0-11.0-1.0","spark_pilot_norest","9677","7","21","Female","","","","","","","null","<div style=""font-size:60px;"">+</div>","null","fixation","","","","","","","","","","","",""
"revaluation","102","464562","0.0-3.0-11.0-11.0-0.1","spark_pilot_norest","9677","7","21","Female","","","false","","","","[766.9000000059605]","./assets/img/space/animals/rabbit.jpg","[""ArrowLeft""]","practice block","space","0","{""ArrowUp,ArrowLeft"":3,""ArrowUp,ArrowRight"":36,""ArrowDown,ArrowLeft"":15,""ArrowDown,ArrowRight"":23}","false","ArrowDown,ArrowLeft","","","","","","",""
"html-keyboard-response","103","465069","0.0-3.0-11.0-11.0-1.1","spark_pilot_norest","9677","7","21","Female","","","","","","","null","<div style=""font-size:60px;"">+</div>","null","fixation","","","","","","","","","","","",""
"learning-instructions","104","470702","0.0-3.0-12.0-0.0","spark_pilot_norest","9677","7","21","Female","","","","","","","1028.7000000178814","<p> Before you start, we're going to ask you a few questions about how the game works. </p>","","instructions","","","","","","","","","","","",""
"comp-q","105","477786","0.0-3.0-13.0-0.0-0.0","spark_pilot_norest","9677","7","21","Female","","","","","","","1466.3999999761581","<p> <b> True or False? </b> </p>
            <p> There can be 50 pieces of treasure in a given animal's chest. </p>","1","comp_question","","","","true","","","","","","","",""
"comp-q","106","486610","0.0-3.0-13.0-0.0-1.0","spark_pilot_norest","9677","7","21","Female","","","","","","","2134.199999988079","<p> <b> That's right! </b> The amount of treasure in each chest can range from 0 to 40 pieces. </p>","0","comp_answer","","","","","","","","","","","",""
"comp-q","107","494395","0.0-3.0-13.0-0.1-0.1","spark_pilot_norest","9677","7","21","Female","","","","","","","630.5","<p> <b> True or False? </b> </p><p> In this game, all animals have the same amount of treasure in their left and right chests. </p>","0","comp_question","","","","false","","","","","","","",""
"comp-q","108","500639","0.0-3.0-13.0-0.1-1.1","spark_pilot_norest","9677","7","21","Female","","","","","","","1121.9000000059605","<p> <b>Incorrect.</b> Animals have different amounts of treasure in their treasure chests. </p>","0","comp_answer","","","","","","","","","","","",""
"comp-q","109","508453","0.0-3.0-13.0-0.2-0.2","spark_pilot_norest","9677","7","21","Female","","","","","","","721.2999999821186","<p> <b> True or False? </b> </p><p> In this game, all animals have the same amount of treasure in their left and right chests. </p>","1","comp_question","","","","true","","","","","","","",""
"comp-q","110","514512","0.0-3.0-13.0-0.2-1.2","spark_pilot_norest","9677","7","21","Female","","","","","","","796.3000000119209","<p> <b> That's right! </b> Animals have different amounts of treasure in their treasure chests. </p>","0","comp_answer","","","","","","","","","","","",""
"comp-q","111","522249","0.0-3.0-13.0-0.3-0.3","spark_pilot_norest","9677","7","21","Female","","","","","","","1861.5999999940395","<p> <b> True or False? </b> </p><p> The same animal will always be there if you go up in the same place. </p>","0","comp_question","","","","true","","","","","","","",""
"comp-q","112","529673","0.0-3.0-13.0-0.3-1.3","spark_pilot_norest","9677","7","21","Female","","","","","","","944.6999999880791","<p> <b> That's right! </b> One animal lives in the upper part and one lives in the lower part of every place. </p>","0","comp_answer","","","","","","","","","","","",""
"comp-q","113","535891","0.0-3.0-13.0-0.4-0.4","spark_pilot_norest","9677","7","21","Female","","","","","","","668","<p> <b> True or False? </b> </p><p> If you see a different picture, it means you are in a new place. </p>","1","comp_question","","","","true","","","","","","","",""
"comp-q","114","549931","0.0-3.0-13.0-0.4-1.4","spark_pilot_norest","9677","7","21","Female","","","","","","","2761.5999999940395","<p> <b> That's right! </b> Lots of different images may show the same place. For example,  you may see three different images that all remind you that you are in outer space. </p>","0","comp_answer","","","","","","","","","","","",""
"learning-instructions","115","561973","0.0-3.0-14.0-0.0","spark_pilot_norest","9677","7","21","Female","","","","","","","2148.0999999940395","<p> Good job. Remember to do your best because the amount of treasure you earn will be converted into bonus money. </p>
            <p> It’s time to start the real game! </p>","","instructions","","","","","","","","","","","",""
"learning-instructions","116","566228","0.0-4.0-0.0-0.0","spark_pilot_norest","9677","7","21","Female","","","","","","","1475.300000011921","<p> This time you are searching for treasure in the <b>canyon</b>.</p>","","instructions","","","","","","","","","","","",""
"learning-instructions","117","585234","0.0-4.0-0.0-0.1","spark_pilot_norest","9677","7","21","Female","","","","","","","1638.5","<p><b>New</b> animals with <b>new</b> treasure chests live here. You need to explore to discover where the animal with the best treasure chest is.</p>
                    <p> Like before, once you figure out which animal has the chest with the most treasure, you should try to get to that animal and select that chest! </p>","","instructions","","","","","","","","","","","",""
"learning-instructions","118","600720","0.0-4.0-1.0-0.0","spark_pilot_norest","9677","7","21","Female","","","","","","","753.3000000119209","<p> Remember, when you see a picture of the place, use the up and down keys to <b>find an animal</b>.</p>
            <p> When you encounter an animal, you should use the left and right keys to <b>select a treasure chest</b>.</p>
            <p> Don't forget to look out for the robber! </p>","","instructions","","","","","","","","","","","",""
"revaluation","119","606742","0.0-4.0-2.0-0.0","spark_pilot_norest","9677","7","21","Female","","","false","","","","[673.2000000178814,573]","./assets/img/canyon/memory/20.jpg","[""ArrowUp"",""ArrowRight""]","value training","canyon","10","{""ArrowUp,ArrowLeft"":23,""ArrowUp,ArrowRight"":10,""ArrowDown,ArrowLeft"":8,""ArrowDown,ArrowRight"":30}","false","ArrowUp,ArrowRight","false","original","1","0","","",""
"html-keyboard-response","120","607256","0.0-4.0-2.0-1.0","spark_pilot_norest","9677","7","21","Female","","","","","","","null","<div style=""font-size:60px;"">+</div>","null","fixation","","","","","","","","","1","","",""
"revaluation","121","613282","0.0-4.0-2.0-0.1","spark_pilot_norest","9677","7","21","Female","","","false","","","","[599.0999999940395,403.59999999403954]","./assets/img/canyon/memory/31.jpg","[""ArrowUp"",""ArrowLeft""]","value training","canyon","23","{""ArrowUp,ArrowLeft"":23,""ArrowUp,ArrowRight"":10,""ArrowDown,ArrowLeft"":8,""ArrowDown,ArrowRight"":30}","false","ArrowUp,ArrowLeft","false","original","1","2","","",""
"html-keyboard-response","122","613790","0.0-4.0-2.0-1.1","spark_pilot_norest","9677","7","21","Female","","","","","","","null","<div style=""font-size:60px;"">+</div>","null","fixation","","","","","","","","","3","","",""
"revaluation","123","619816","0.0-4.0-2.0-0.2","spark_pilot_norest","9677","7","21","Female","","","false","","","","[549,420.59999999403954]","./assets/img/canyon/memory/1.jpg","[""ArrowDown"",""ArrowRight""]","value training","canyon","30","{""ArrowUp,ArrowLeft"":23,""ArrowUp,ArrowRight"":10,""ArrowDown,ArrowLeft"":8,""ArrowDown,ArrowRight"":30}","true","ArrowDown,ArrowRight","false","original","1","4","","",""
"html-keyboard-response","124","620327","0.0-4.0-2.0-1.2","spark_pilot_norest","9677","7","21","Female","","","","","","","null","<div style=""font-size:60px;"">+</div>","null","fixation","","","","","","","","","5","","",""
"revaluation","125","626353","0.0-4.0-2.0-0.3","spark_pilot_norest","9677","7","21","Female","","","false","","","","[648.6999999880791,444.90000000596046]","./assets/img/canyon/memory/12.jpg","[""ArrowDown"",""ArrowLeft""]","value training","canyon","8","{""ArrowUp,ArrowLeft"":23,""ArrowUp,ArrowRight"":10,""ArrowDown,ArrowLeft"":8,""ArrowDown,ArrowRight"":30}","false","ArrowDown,ArrowLeft","false","original","1","6","","",""
"html-keyboard-response","126","626865","0.0-4.0-2.0-1.3","spark_pilot_norest","9677","7","21","Female","","","","","","","null","<div style=""font-size:60px;"">+</div>","null","fixation","","","","","","","","","7","","",""
"revaluation","127","632887","0.0-4.0-2.0-0.4","spark_pilot_norest","9677","7","21","Female","","","false","","","","[580.2999999821186,372.2999999821186]","./assets/img/canyon/memory/7.jpg","[""ArrowDown"",""ArrowRight""]","value training","canyon","30","{""ArrowUp,ArrowLeft"":23,""ArrowUp,ArrowRight"":10,""ArrowDown,ArrowLeft"":8,""ArrowDown,ArrowRight"":30}","true","ArrowDown,ArrowRight","false","original","1","8","","",""
"html-keyboard-response","128","633391","0.0-4.0-2.0-1.4","spark_pilot_norest","9677","7","21","Female","","","","","","","null","<div style=""font-size:60px;"">+</div>","null","fixation","","","","","","","","","9","","",""
"revaluation","129","639418","0.0-4.0-2.0-0.5","spark_pilot_norest","9677","7","21","Female","","","false","","","","[792,406.09999999403954]","./assets/img/canyon/memory/23.jpg","[""ArrowDown"",""ArrowRight""]","value training","canyon","30","{""ArrowUp,ArrowLeft"":23,""ArrowUp,ArrowRight"":10,""ArrowDown,ArrowLeft"":8,""ArrowDown,ArrowRight"":30}","true","ArrowDown,ArrowRight","false","original","1","10","","",""
"html-keyboard-response","130","639929","0.0-4.0-2.0-1.5","spark_pilot_norest","9677","7","21","Female","","","","","","","null","<div style=""font-size:60px;"">+</div>","null","fixation","","","","","","","","","11","","",""
"revaluation","131","645950","0.0-4.0-2.0-0.6","spark_pilot_norest","9677","7","21","Female","","","false","","","","[776,545.0999999940395]","./assets/img/canyon/memory/26.jpg","[""ArrowDown"",""ArrowRight""]","value training","canyon","30","{""ArrowUp,ArrowLeft"":23,""ArrowUp,ArrowRight"":10,""ArrowDown,ArrowLeft"":8,""ArrowDown,ArrowRight"":30}","true","ArrowDown,ArrowRight","false","original","1","12","","",""
"html-keyboard-response","132","646453","0.0-4.0-2.0-1.6","spark_pilot_norest","9677","7","21","Female","","","","","","","null","<div style=""font-size:60px;"">+</div>","null","fixation","","","","","","","","","13","","",""
"revaluation","133","652479","0.0-4.0-2.0-0.7","spark_pilot_norest","9677","7","21","Female","","","false","","","","[581.9000000059605,365.2999999821186]","./assets/img/canyon/memory/2.jpg","[""ArrowDown"",""ArrowRight""]","value training","canyon","30","{""ArrowUp,ArrowLeft"":23,""ArrowUp,ArrowRight"":10,""ArrowDown,ArrowLeft"":8,""ArrowDown,ArrowRight"":30}","true","ArrowDown,ArrowRight","false","original","1","14","","",""
"html-keyboard-response","134","652984","0.0-4.0-2.0-1.7","spark_pilot_norest","9677","7","21","Female","","","","","","","null","<div style=""font-size:60px;"">+</div>","null","fixation","","","","","","","","","15","","",""
"revaluation","135","657001","0.0-4.0-2.0-0.8","spark_pilot_norest","9677","7","21","Female","","","false","","","","[719.3000000119209]","./assets/img/canyon/catch/4.jpg","[""spaceBar""]","value training","canyon","0","{""ArrowUp,ArrowLeft"":23,""ArrowUp,ArrowRight"":10,""ArrowDown,ArrowLeft"":8,""ArrowDown,ArrowRight"":30}","true","spaceBar","true","original","1","16","","",""
"html-keyboard-response","136","657512","0.0-4.0-2.0-1.8","spark_pilot_norest","9677","7","21","Female","","","","","","","null","<div style=""font-size:60px;"">+</div>","null","fixation","","","","","","","","","17","","",""
"revaluation","137","663538","0.0-4.0-2.0-0.9","spark_pilot_norest","9677","7","21","Female","","","false","","","","[553.0999999940395,449.69999998807907]","./assets/img/canyon/memory/11.jpg","[""ArrowDown"",""ArrowRight""]","value training","canyon","30","{""ArrowUp,ArrowLeft"":23,""ArrowUp,ArrowRight"":10,""ArrowDown,ArrowLeft"":8,""ArrowDown,ArrowRight"":30}","true","ArrowDown,ArrowRight","false","original","1","18","","",""
"html-keyboard-response","138","664048","0.0-4.0-2.0-1.9","spark_pilot_norest","9677","7","21","Female","","","","","","","null","<div style=""font-size:60px;"">+</div>","null","fixation","","","","","","","","","19","","",""
"revaluation","139","668066","0.0-4.0-2.0-0.10","spark_pilot_norest","9677","7","21","Female","","","false","","","","[825.7999999821186]","./assets/img/canyon/catch/2.jpg","[""spaceBar""]","value training","canyon","0","{""ArrowUp,ArrowLeft"":23,""ArrowUp,ArrowRight"":10,""ArrowDown,ArrowLeft"":8,""ArrowDown,ArrowRight"":30}","true","spaceBar","true","original","1","20","","",""
"html-keyboard-response","140","668576","0.0-4.0-2.0-1.10","spark_pilot_norest","9677","7","21","Female","","","","","","","null","<div style=""font-size:60px;"">+</div>","null","fixation","","","","","","","","","21","","",""
"revaluation","141","674599","0.0-4.0-2.0-0.11","spark_pilot_norest","9677","7","21","Female","","","false","","","","[523,445.40000000596046]","./assets/img/canyon/memory/2.jpg","[""ArrowDown"",""ArrowRight""]","value training","canyon","30","{""ArrowUp,ArrowLeft"":23,""ArrowUp,ArrowRight"":10,""ArrowDown,ArrowLeft"":8,""ArrowDown,ArrowRight"":30}","true","ArrowDown,ArrowRight","false","original","1","22","","",""
"html-keyboard-response","142","675101","0.0-4.0-2.0-1.11","spark_pilot_norest","9677","7","21","Female","","","","","","","null","<div style=""font-size:60px;"">+</div>","null","fixation","","","","","","","","","23","","",""
"revaluation","143","679118","0.0-4.0-2.0-0.12","spark_pilot_norest","9677","7","21","Female","","","false","","","","[728.9000000059605]","./assets/img/canyon/catch/5.jpg","[""spaceBar""]","value training","canyon","0","{""ArrowUp,ArrowLeft"":23,""ArrowUp,ArrowRight"":10,""ArrowDown,ArrowLeft"":8,""ArrowDown,ArrowRight"":30}","true","spaceBar","true","original","1","24","","",""
"html-keyboard-response","144","679623","0.0-4.0-2.0-1.12","spark_pilot_norest","9677","7","21","Female","","","","","","","null","<div style=""font-size:60px;"">+</div>","null","fixation","","","","","","","","","25","","",""
"revaluation","145","685649","0.0-4.0-2.0-0.13","spark_pilot_norest","9677","7","21","Female","","","false","","","","[663.3000000119209,542.4000000059605]","./assets/img/canyon/memory/28.jpg","[""ArrowDown"",""ArrowRight""]","value training","canyon","30","{""ArrowUp,ArrowLeft"":23,""ArrowUp,ArrowRight"":10,""ArrowDown,ArrowLeft"":8,""ArrowDown,ArrowRight"":30}","true","ArrowDown,ArrowRight","false","original","1","26","","",""
"html-keyboard-response","146","686160","0.0-4.0-2.0-1.13","spark_pilot_norest","9677","7","21","Female","","","","","","","null","<div style=""font-size:60px;"">+</div>","null","fixation","","","","","","","","","27","","",""
"revaluation","147","692186","0.0-4.0-2.0-0.14","spark_pilot_norest","9677","7","21","Female","","","false","","","","[608.8000000119209,544]","./assets/img/canyon/memory/11.jpg","[""ArrowDown"",""ArrowRight""]","value training","canyon","30","{""ArrowUp,ArrowLeft"":23,""ArrowUp,ArrowRight"":10,""ArrowDown,ArrowLeft"":8,""ArrowDown,ArrowRight"":30}","true","ArrowDown,ArrowRight","false","original","1","28","","",""
"html-keyboard-response","148","692696","0.0-4.0-2.0-1.14","spark_pilot_norest","9677","7","21","Female","","","","","","","null","<div style=""font-size:60px;"">+</div>","null","fixation","","","","","","","","","29","","",""
"revaluation","149","698722","0.0-4.0-2.0-0.15","spark_pilot_norest","9677","7","21","Female","","","false","","","","[862.4000000059605,598.5]","./assets/img/canyon/memory/6.jpg","[""ArrowDown"",""ArrowRight""]","value training","canyon","30","{""ArrowUp,ArrowLeft"":23,""ArrowUp,ArrowRight"":10,""ArrowDown,ArrowLeft"":8,""ArrowDown,ArrowRight"":30}","true","ArrowDown,ArrowRight","false","original","1","30","","",""
"html-keyboard-response","150","699232","0.0-4.0-2.0-1.15","spark_pilot_norest","9677","7","21","Female","","","","","","","null","<div style=""font-size:60px;"">+</div>","null","fixation","","","","","","","","","31","","",""
"revaluation","151","705259","0.0-4.0-2.0-0.16","spark_pilot_norest","9677","7","21","Female","","","false","","","","[801.3000000119209,423.19999998807907]","./assets/img/canyon/memory/12.jpg","[""ArrowDown"",""ArrowRight""]","value training","canyon","30","{""ArrowUp,ArrowLeft"":23,""ArrowUp,ArrowRight"":10,""ArrowDown,ArrowLeft"":8,""ArrowDown,ArrowRight"":30}","true","ArrowDown,ArrowRight","false","original","1","32","","",""
"html-keyboard-response","152","705769","0.0-4.0-2.0-1.16","spark_pilot_norest","9677","7","21","Female","","","","","","","null","<div style=""font-size:60px;"">+</div>","null","fixation","","","","","","","","","33","","",""
"revaluation","153","711795","0.0-4.0-2.0-0.17","spark_pilot_norest","9677","7","21","Female","","","false","","","","[686.3000000119209,522.4000000059605]","./assets/img/canyon/memory/28.jpg","[""ArrowDown"",""ArrowRight""]","value training","canyon","30","{""ArrowUp,ArrowLeft"":23,""ArrowUp,ArrowRight"":10,""ArrowDown,ArrowLeft"":8,""ArrowDown,ArrowRight"":30}","true","ArrowDown,ArrowRight","false","original","1","34","","",""
"html-keyboard-response","154","712306","0.0-4.0-2.0-1.17","spark_pilot_norest","9677","7","21","Female","","","","","","","null","<div style=""font-size:60px;"">+</div>","null","fixation","","","","","","","","","35","","",""
"revaluation","155","718326","0.0-4.0-2.0-0.18","spark_pilot_norest","9677","7","21","Female","","","false","","","","[755.1999999880791,381.80000001192093]","./assets/img/canyon/memory/1.jpg","[""ArrowDown"",""ArrowRight""]","value training","canyon","30","{""ArrowUp,ArrowLeft"":23,""ArrowUp,ArrowRight"":10,""ArrowDown,ArrowLeft"":8,""ArrowDown,ArrowRight"":30}","true","ArrowDown,ArrowRight","false","original","1","36","","",""
"html-keyboard-response","156","718831","0.0-4.0-2.0-1.18","spark_pilot_norest","9677","7","21","Female","","","","","","","null","<div style=""font-size:60px;"">+</div>","null","fixation","","","","","","","","","37","","",""
"revaluation","157","724856","0.0-4.0-2.0-0.19","spark_pilot_norest","9677","7","21","Female","","","false","","","","[742,375.5]","./assets/img/canyon/memory/15.jpg","[""ArrowDown"",""ArrowRight""]","value training","canyon","30","{""ArrowUp,ArrowLeft"":23,""ArrowUp,ArrowRight"":10,""ArrowDown,ArrowLeft"":8,""ArrowDown,ArrowRight"":30}","true","ArrowDown,ArrowRight","false","original","1","38","","",""
"html-keyboard-response","158","725367","0.0-4.0-2.0-1.19","spark_pilot_norest","9677","7","21","Female","","","","","","","null","<div style=""font-size:60px;"">+</div>","null","fixation","","","","","","","","","39","","",""
"revaluation","159","731393","0.0-4.0-2.0-0.20","spark_pilot_norest","9677","7","21","Female","","","false","","","","[535.7999999821186,376.30000001192093]","./assets/img/canyon/memory/15.jpg","[""ArrowDown"",""ArrowRight""]","value training","canyon","30","{""ArrowUp,ArrowLeft"":23,""ArrowUp,ArrowRight"":10,""ArrowDown,ArrowLeft"":8,""ArrowDown,ArrowRight"":30}","true","ArrowDown,ArrowRight","false","original","1","40","","",""
"html-keyboard-response","160","731903","0.0-4.0-2.0-1.20","spark_pilot_norest","9677","7","21","Female","","","","","","","null","<div style=""font-size:60px;"">+</div>","null","fixation","","","","","","","","","41","","",""
"revaluation","161","737929","0.0-4.0-2.0-0.21","spark_pilot_norest","9677","7","21","Female","","","false","","","","[681.5999999940395,345.7000000178814]","./assets/img/canyon/memory/41.jpg","[""ArrowDown"",""ArrowRight""]","value training","canyon","30","{""ArrowUp,ArrowLeft"":23,""ArrowUp,ArrowRight"":10,""ArrowDown,ArrowLeft"":8,""ArrowDown,ArrowRight"":30}","true","ArrowDown,ArrowRight","false","original","1","42","","",""
"html-keyboard-response","162","738439","0.0-4.0-2.0-1.21","spark_pilot_norest","9677","7","21","Female","","","","","","","null","<div style=""font-size:60px;"">+</div>","null","fixation","","","","","","","","","43","","",""
"revaluation","163","744466","0.0-4.0-2.0-0.22","spark_pilot_norest","9677","7","21","Female","","","false","","","","[709,334.7000000178814]","./assets/img/canyon/memory/30.jpg","[""ArrowDown"",""ArrowRight""]","value training","canyon","30","{""ArrowUp,ArrowLeft"":23,""ArrowUp,ArrowRight"":10,""ArrowDown,ArrowLeft"":8,""ArrowDown,ArrowRight"":30}","true","ArrowDown,ArrowRight","false","original","1","44","","",""
"html-keyboard-response","164","744976","0.0-4.0-2.0-1.22","spark_pilot_norest","9677","7","21","Female","","","","","","","null","<div style=""font-size:60px;"">+</div>","null","fixation","","","","","","","","","45","","",""
"revaluation","165","751002","0.0-4.0-2.0-0.23","spark_pilot_norest","9677","7","21","Female","","","false","","","","[582.8000000119209,401.19999998807907]","./assets/img/canyon/memory/13.jpg","[""ArrowDown"",""ArrowRight""]","value training","canyon","30","{""ArrowUp,ArrowLeft"":23,""ArrowUp,ArrowRight"":10,""ArrowDown,ArrowLeft"":8,""ArrowDown,ArrowRight"":30}","true","ArrowDown,ArrowRight","false","original","1","46","","",""
"html-keyboard-response","166","751513","0.0-4.0-2.0-1.23","spark_pilot_norest","9677","7","21","Female","","","","","","","null","<div style=""font-size:60px;"">+</div>","null","fixation","","","","","","","","","47","","",""
"revaluation","167","757538","0.0-4.0-2.0-0.24","spark_pilot_norest","9677","7","21","Female","","","false","","","","[744.3000000119209,339.09999999403954]","./assets/img/canyon/memory/41.jpg","[""ArrowDown"",""ArrowRight""]","value training","canyon","30","{""ArrowUp,ArrowLeft"":23,""ArrowUp,ArrowRight"":10,""ArrowDown,ArrowLeft"":8,""ArrowDown,ArrowRight"":30}","true","ArrowDown,ArrowRight","false","original","1","48","","",""
"html-keyboard-response","168","758049","0.0-4.0-2.0-1.24","spark_pilot_norest","9677","7","21","Female","","","","","","","null","<div style=""font-size:60px;"">+</div>","null","fixation","","","","","","","","","49","","",""
"revaluation","169","764075","0.0-4.0-2.0-0.25","spark_pilot_norest","9677","7","21","Female","","","false","","","","[613.8000000119209,426.5]","./assets/img/canyon/memory/6.jpg","[""ArrowDown"",""ArrowRight""]","value training","canyon","30","{""ArrowUp,ArrowLeft"":23,""ArrowUp,ArrowRight"":10,""ArrowDown,ArrowLeft"":8,""ArrowDown,ArrowRight"":30}","true","ArrowDown,ArrowRight","false","original","1","50","","",""
"html-keyboard-response","170","764586","0.0-4.0-2.0-1.25","spark_pilot_norest","9677","7","21","Female","","","","","","","null","<div style=""font-size:60px;"">+</div>","null","fixation","","","","","","","","","51","","",""
"revaluation","171","770606","0.0-4.0-2.0-0.26","spark_pilot_norest","9677","7","21","Female","","","false","","","","[830.5,534]","./assets/img/canyon/memory/10.jpg","[""ArrowDown"",""ArrowRight""]","value training","canyon","30","{""ArrowUp,ArrowLeft"":23,""ArrowUp,ArrowRight"":10,""ArrowDown,ArrowLeft"":8,""ArrowDown,ArrowRight"":30}","true","ArrowDown,ArrowRight","false","original","1","52","","",""
"html-keyboard-response","172","771111","0.0-4.0-2.0-1.26","spark_pilot_norest","9677","7","21","Female","","","","","","","null","<div style=""font-size:60px;"">+</div>","null","fixation","","","","","","","","","53","","",""
"revaluation","173","777137","0.0-4.0-2.0-0.27","spark_pilot_norest","9677","7","21","Female","","","false","","","","[581.3000000119209,371.90000000596046]","./assets/img/canyon/memory/31.jpg","[""ArrowUp"",""ArrowRight""]","value training","canyon","10","{""ArrowUp,ArrowLeft"":23,""ArrowUp,ArrowRight"":10,""ArrowDown,ArrowLeft"":8,""ArrowDown,ArrowRight"":30}","false","ArrowUp,ArrowRight","false","original","1","54","","",""
"html-keyboard-response","174","777646","0.0-4.0-2.0-1.27","spark_pilot_norest","9677","7","21","Female","","","","","","","null","<div style=""font-size:60px;"">+</div>","null","fixation","","","","","","","","","55","","",""
"revaluation","175","781664","0.0-4.0-2.0-0.28","spark_pilot_norest","9677","7","21","Female","","","false","","","","[954.0999999940395]","./assets/img/canyon/catch/1.jpg","[""spaceBar""]","value training","canyon","0","{""ArrowUp,ArrowLeft"":23,""ArrowUp,ArrowRight"":10,""ArrowDown,ArrowLeft"":8,""ArrowDown,ArrowRight"":30}","true","spaceBar","true","original","1","56","","",""
"html-keyboard-response","176","782169","0.0-4.0-2.0-1.28","spark_pilot_norest","9677","7","21","Female","","","","","","","null","<div style=""font-size:60px;"">+</div>","null","fixation","","","","","","","","","57","","",""
"revaluation","177","788195","0.0-4.0-2.0-0.29","spark_pilot_norest","9677","7","21","Female","","","false","","","","[505.90000000596046,325.80000001192093]","./assets/img/canyon/memory/38.jpg","[""ArrowDown"",""ArrowLeft""]","value training","canyon","8","{""ArrowUp,ArrowLeft"":23,""ArrowUp,ArrowRight"":10,""ArrowDown,ArrowLeft"":8,""ArrowDown,ArrowRight"":30}","false","ArrowDown,ArrowLeft","false","original","1","58","","",""
"html-keyboard-response","178","788706","0.0-4.0-2.0-1.29","spark_pilot_norest","9677","7","21","Female","","","","","","","null","<div style=""font-size:60px;"">+</div>","null","fixation","","","","","","","","","59","","",""
"revaluation","179","794727","0.0-4.0-2.0-0.30","spark_pilot_norest","9677","7","21","Female","","","false","","","","[795,412.5]","./assets/img/canyon/memory/19.jpg","[""ArrowDown"",""ArrowRight""]","value training","canyon","30","{""ArrowUp,ArrowLeft"":23,""ArrowUp,ArrowRight"":10,""ArrowDown,ArrowLeft"":8,""ArrowDown,ArrowRight"":30}","true","ArrowDown,ArrowRight","false","original","1","60","","",""
"html-keyboard-response","180","795231","0.0-4.0-2.0-1.30","spark_pilot_norest","9677","7","21","Female","","","","","","","null","<div style=""font-size:60px;"">+</div>","null","fixation","","","","","","","","","61","","",""
"revaluation","181","801257","0.0-4.0-2.0-0.31","spark_pilot_norest","9677","7","21","Female","","","false","","","","[890.9000000059605,475.40000000596046]","./assets/img/canyon/memory/22.jpg","[""ArrowUp"",""ArrowLeft""]","value training","canyon","23","{""ArrowUp,ArrowLeft"":23,""ArrowUp,ArrowRight"":10,""ArrowDown,ArrowLeft"":8,""ArrowDown,ArrowRight"":30}","false","ArrowUp,ArrowLeft","false","original","1","62","","",""
"html-keyboard-response","182","801761","0.0-4.0-2.0-1.31","spark_pilot_norest","9677","7","21","Female","","","","","","","null","<div style=""font-size:60px;"">+</div>","null","fixation","","","","","","","","","63","","",""
"revaluation","183","807787","0.0-4.0-2.0-0.32","spark_pilot_norest","9677","7","21","Female","","","false","","","","[588.5999999940395,566.3000000119209]","./assets/img/canyon/memory/38.jpg","[""ArrowDown"",""ArrowRight""]","value training","canyon","30","{""ArrowUp,ArrowLeft"":23,""ArrowUp,ArrowRight"":10,""ArrowDown,ArrowLeft"":8,""ArrowDown,ArrowRight"":30}","true","ArrowDown,ArrowRight","false","original","1","64","","",""
"html-keyboard-response","184","808298","0.0-4.0-2.0-1.32","spark_pilot_norest","9677","7","21","Female","","","","","","","null","<div style=""font-size:60px;"">+</div>","null","fixation","","","","","","","","","65","","",""
"revaluation","185","814324","0.0-4.0-2.0-0.33","spark_pilot_norest","9677","7","21","Female","","","false","","","","[689.9000000059605,487.89999997615814]","./assets/img/canyon/memory/19.jpg","[""ArrowDown"",""ArrowRight""]","value training","canyon","30","{""ArrowUp,ArrowLeft"":23,""ArrowUp,ArrowRight"":10,""ArrowDown,ArrowLeft"":8,""ArrowDown,ArrowRight"":30}","true","ArrowDown,ArrowRight","false","original","1","66","","",""
"html-keyboard-response","186","814834","0.0-4.0-2.0-1.33","spark_pilot_norest","9677","7","21","Female","","","","","","","null","<div style=""font-size:60px;"">+</div>","null","fixation","","","","","","","","","67","","",""
"revaluation","187","820857","0.0-4.0-2.0-0.34","spark_pilot_norest","9677","7","21","Female","","","false","","","","[736.8999999761581,465]","./assets/img/canyon/memory/23.jpg","[""ArrowDown"",""ArrowRight""]","value training","canyon","30","{""ArrowUp,ArrowLeft"":23,""ArrowUp,ArrowRight"":10,""ArrowDown,ArrowLeft"":8,""ArrowDown,ArrowRight"":30}","true","ArrowDown,ArrowRight","false","original","1","68","","",""
"html-keyboard-response","188","821371","0.0-4.0-2.0-1.34","spark_pilot_norest","9677","7","21","Female","","","","","","","null","<div style=""font-size:60px;"">+</div>","null","fixation","","","","","","","","","69","","",""
"revaluation","189","825388","0.0-4.0-2.0-0.35","spark_pilot_norest","9677","7","21","Female","","","false","","","","[560.5]","./assets/img/canyon/catch/6.jpg","[""spaceBar""]","value training","canyon","0","{""ArrowUp,ArrowLeft"":23,""ArrowUp,ArrowRight"":10,""ArrowDown,ArrowLeft"":8,""ArrowDown,ArrowRight"":30}","true","spaceBar","true","original","1","70","","",""
"html-keyboard-response","190","825898","0.0-4.0-2.0-1.35","spark_pilot_norest","9677","7","21","Female","","","","","","","null","<div style=""font-size:60px;"">+</div>","null","fixation","","","","","","","","","71","","",""
"revaluation","191","831919","0.0-4.0-2.0-0.36","spark_pilot_norest","9677","7","21","Female","","","false","","","","[646.2000000178814,529.5999999940395]","./assets/img/canyon/memory/26.jpg","[""ArrowDown"",""ArrowRight""]","value training","canyon","30","{""ArrowUp,ArrowLeft"":23,""ArrowUp,ArrowRight"":10,""ArrowDown,ArrowLeft"":8,""ArrowDown,ArrowRight"":30}","true","ArrowDown,ArrowRight","false","original","1","72","","",""
"html-keyboard-response","192","832423","0.0-4.0-2.0-1.36","spark_pilot_norest","9677","7","21","Female","","","","","","","null","<div style=""font-size:60px;"">+</div>","null","fixation","","","","","","","","","73","","",""
"revaluation","193","838448","0.0-4.0-2.0-0.37","spark_pilot_norest","9677","7","21","Female","","","false","","","","[657.7999999821186,442.09999999403954]","./assets/img/canyon/memory/30.jpg","[""ArrowDown"",""ArrowRight""]","value training","canyon","30","{""ArrowUp,ArrowLeft"":23,""ArrowUp,ArrowRight"":10,""ArrowDown,ArrowLeft"":8,""ArrowDown,ArrowRight"":30}","true","ArrowDown,ArrowRight","false","original","1","74","","",""
"html-keyboard-response","194","838954","0.0-4.0-2.0-1.37","spark_pilot_norest","9677","7","21","Female","","","","","","","null","<div style=""font-size:60px;"">+</div>","null","fixation","","","","","","","","","75","","",""
"revaluation","195","844980","0.0-4.0-2.0-0.38","spark_pilot_norest","9677","7","21","Female","","","false","","","","[676.9000000059605,524.1999999880791]","./assets/img/canyon/memory/36.jpg","[""ArrowDown"",""ArrowRight""]","value training","canyon","30","{""ArrowUp,ArrowLeft"":23,""ArrowUp,ArrowRight"":10,""ArrowDown,ArrowLeft"":8,""ArrowDown,ArrowRight"":30}","true","ArrowDown,ArrowRight","false","original","1","76","","",""
"html-keyboard-response","196","845490","0.0-4.0-2.0-1.38","spark_pilot_norest","9677","7","21","Female","","","","","","","null","<div style=""font-size:60px;"">+</div>","null","fixation","","","","","","","","","77","","",""
"revaluation","197","851511","0.0-4.0-2.0-0.39","spark_pilot_norest","9677","7","21","Female","","","false","","","","[655.1999999880791,704]","./assets/img/canyon/memory/22.jpg","[""ArrowDown"",""ArrowRight""]","value training","canyon","30","{""ArrowUp,ArrowLeft"":23,""ArrowUp,ArrowRight"":10,""ArrowDown,ArrowLeft"":8,""ArrowDown,ArrowRight"":30}","true","ArrowDown,ArrowRight","false","original","1","78","","",""
"html-keyboard-response","198","852015","0.0-4.0-2.0-1.39","spark_pilot_norest","9677","7","21","Female","","","","","","","null","<div style=""font-size:60px;"">+</div>","null","fixation","","","","","","","","","79","","",""
"revaluation","199","858041","0.0-4.0-2.0-0.40","spark_pilot_norest","9677","7","21","Female","","","false","","","","[773,640.0999999940395]","./assets/img/canyon/memory/33.jpg","[""ArrowDown"",""ArrowRight""]","value training","canyon","30","{""ArrowUp,ArrowLeft"":23,""ArrowUp,ArrowRight"":10,""ArrowDown,ArrowLeft"":8,""ArrowDown,ArrowRight"":30}","true","ArrowDown,ArrowRight","false","original","1","80","","",""
"html-keyboard-response","200","858552","0.0-4.0-2.0-1.40","spark_pilot_norest","9677","7","21","Female","","","","","","","null","<div style=""font-size:60px;"">+</div>","null","fixation","","","","","","","","","81","","",""
"revaluation","201","864578","0.0-4.0-2.0-0.41","spark_pilot_norest","9677","7","21","Female","","","false","","","","[902.6999999880791,463.40000000596046]","./assets/img/canyon/memory/20.jpg","[""ArrowDown"",""ArrowRight""]","value training","canyon","30","{""ArrowUp,ArrowLeft"":23,""ArrowUp,ArrowRight"":10,""ArrowDown,ArrowLeft"":8,""ArrowDown,ArrowRight"":30}","true","ArrowDown,ArrowRight","false","original","1","82","","",""
"html-keyboard-response","202","865088","0.0-4.0-2.0-1.41","spark_pilot_norest","9677","7","21","Female","","","","","","","null","<div style=""font-size:60px;"">+</div>","null","fixation","","","","","","","","","83","","",""
"revaluation","203","869106","0.0-4.0-2.0-0.42","spark_pilot_norest","9677","7","21","Female","","","false","","","","[819.5]","./assets/img/canyon/catch/7.jpg","[""spaceBar""]","value training","canyon","0","{""ArrowUp,ArrowLeft"":23,""ArrowUp,ArrowRight"":10,""ArrowDown,ArrowLeft"":8,""ArrowDown,ArrowRight"":30}","true","spaceBar","true","original","1","84","","",""
"html-keyboard-response","204","869616","0.0-4.0-2.0-1.42","spark_pilot_norest","9677","7","21","Female","","","","","","","null","<div style=""font-size:60px;"">+</div>","null","fixation","","","","","","","","","85","","",""
"revaluation","205","875642","0.0-4.0-2.0-0.43","spark_pilot_norest","9677","7","21","Female","","","false","","","","[639.6999999880791,478.69999998807907]","./assets/img/canyon/memory/7.jpg","[""ArrowDown"",""ArrowRight""]","value training","canyon","30","{""ArrowUp,ArrowLeft"":23,""ArrowUp,ArrowRight"":10,""ArrowDown,ArrowLeft"":8,""ArrowDown,ArrowRight"":30}","true","ArrowDown,ArrowRight","false","original","1","86","","",""
"html-keyboard-response","206","876153","0.0-4.0-2.0-1.43","spark_pilot_norest","9677","7","21","Female","","","","","","","null","<div style=""font-size:60px;"">+</div>","null","fixation","","","","","","","","","87","","",""
"revaluation","207","882179","0.0-4.0-2.0-0.44","spark_pilot_norest","9677","7","21","Female","","","false","","","","[810.2000000178814,688.5999999940395]","./assets/img/canyon/memory/10.jpg","[""ArrowDown"",""ArrowRight""]","value training","canyon","30","{""ArrowUp,ArrowLeft"":23,""ArrowUp,ArrowRight"":10,""ArrowDown,ArrowLeft"":8,""ArrowDown,ArrowRight"":30}","true","ArrowDown,ArrowRight","false","original","1","88","","",""
"html-keyboard-response","208","882689","0.0-4.0-2.0-1.44","spark_pilot_norest","9677","7","21","Female","","","","","","","null","<div style=""font-size:60px;"">+</div>","null","fixation","","","","","","","","","89","","",""
"revaluation","209","888715","0.0-4.0-2.0-0.45","spark_pilot_norest","9677","7","21","Female","","","false","","","","[843,545.3000000119209]","./assets/img/canyon/memory/13.jpg","[""ArrowDown"",""ArrowRight""]","value training","canyon","30","{""ArrowUp,ArrowLeft"":23,""ArrowUp,ArrowRight"":10,""ArrowDown,ArrowLeft"":8,""ArrowDown,ArrowRight"":30}","true","ArrowDown,ArrowRight","false","original","1","90","","",""
"html-keyboard-response","210","889225","0.0-4.0-2.0-1.45","spark_pilot_norest","9677","7","21","Female","","","","","","","null","<div style=""font-size:60px;"">+</div>","null","fixation","","","","","","","","","91","","",""
"revaluation","211","895251","0.0-4.0-2.0-0.46","spark_pilot_norest","9677","7","21","Female","","","false","","","","[687.5999999940395,528.4000000059605]","./assets/img/canyon/memory/33.jpg","[""ArrowDown"",""ArrowRight""]","value training","canyon","30","{""ArrowUp,ArrowLeft"":23,""ArrowUp,ArrowRight"":10,""ArrowDown,ArrowLeft"":8,""ArrowDown,ArrowRight"":30}","true","ArrowDown,ArrowRight","false","original","1","92","","",""
"html-keyboard-response","212","895762","0.0-4.0-2.0-1.46","spark_pilot_norest","9677","7","21","Female","","","","","","","null","<div style=""font-size:60px;"">+</div>","null","fixation","","","","","","","","","93","","",""
"revaluation","213","899780","0.0-4.0-2.0-0.47","spark_pilot_norest","9677","7","21","Female","","","false","","","","[760.1000000238419]","./assets/img/canyon/catch/3.jpg","[""spaceBar""]","value training","canyon","0","{""ArrowUp,ArrowLeft"":23,""ArrowUp,ArrowRight"":10,""ArrowDown,ArrowLeft"":8,""ArrowDown,ArrowRight"":30}","true","spaceBar","true","original","1","94","","",""
"html-keyboard-response","214","900290","0.0-4.0-2.0-1.47","spark_pilot_norest","9677","7","21","Female","","","","","","","null","<div style=""font-size:60px;"">+</div>","null","fixation","","","","","","","","","95","","",""
"revaluation","215","906315","0.0-4.0-2.0-0.48","spark_pilot_norest","9677","7","21","Female","","","false","","","","[921.8999999761581,440.40000000596046]","./assets/img/canyon/memory/36.jpg","[""ArrowDown"",""ArrowRight""]","value training","canyon","30","{""ArrowUp,ArrowLeft"":23,""ArrowUp,ArrowRight"":10,""ArrowDown,ArrowLeft"":8,""ArrowDown,ArrowRight"":30}","true","ArrowDown,ArrowRight","false","original","1","96","","",""
"html-keyboard-response","216","906826","0.0-4.0-2.0-1.48","spark_pilot_norest","9677","7","21","Female","","","","","","","null","<div style=""font-size:60px;"">+</div>","null","fixation","","","","","","","","","97","","",""
"revaluation","217","910844","0.0-4.0-2.0-0.49","spark_pilot_norest","9677","7","21","Female","","","false","","","","[809.3000000119209]","./assets/img/canyon/catch/0.jpg","[""spaceBar""]","value training","canyon","0","{""ArrowUp,ArrowLeft"":23,""ArrowUp,ArrowRight"":10,""ArrowDown,ArrowLeft"":8,""ArrowDown,ArrowRight"":30}","true","spaceBar","true","original","1","98","","",""
"html-keyboard-response","218","911355","0.0-4.0-2.0-1.49","spark_pilot_norest","9677","7","21","Female","","","","","","","null","<div style=""font-size:60px;"">+</div>","null","fixation","","","","","","","","","99","","",""
"learning-instructions","219","926165","0.0-4.0-3.0-0.0","spark_pilot_norest","9677","7","21","Female","","","","","","","1878.300000011921","<p> Now, you will travel with a friend who will choose whether you go up or down first. </p>
            <p> On these turns, you will just see the animal that they found. You will still get to choose which chest to search for treasure.</p>","","instructions","","","","","","","","","","","",""
"revaluation","220","930187","0.0-4.0-4.0-0.0","spark_pilot_norest","9677","7","21","Female","","","false","","","","[824.1999999880791]","./assets/img/canyon/animals/giraffe.jpg","[""ArrowRight""]","revaluation","canyon","10","{""ArrowUp,ArrowLeft"":23,""ArrowUp,ArrowRight"":10,""ArrowDown,ArrowLeft"":8,""ArrowDown,ArrowRight"":30}","false","ArrowUp,ArrowRight","","original","1","0","","",""
"html-keyboard-response","221","930701","0.0-4.0-4.0-1.0","spark_pilot_norest","9677","7","21","Female","","","","","","","null","<div style=""font-size:60px;"">+</div>","null","fixation","","","","","","","","","1","","",""
"revaluation","222","934723","0.0-4.0-4.0-0.1","spark_pilot_norest","9677","7","21","Female","","","false","","","","[557.0999999940395]","./assets/img/canyon/animals/lion.jpg","[""ArrowRight""]","revaluation","canyon","30","{""ArrowUp,ArrowLeft"":23,""ArrowUp,ArrowRight"":10,""ArrowDown,ArrowLeft"":8,""ArrowDown,ArrowRight"":30}","true","ArrowDown,ArrowRight","","original","1","2","","",""
"html-keyboard-response","223","935234","0.0-4.0-4.0-1.1","spark_pilot_norest","9677","7","21","Female","","","","","","","null","<div style=""font-size:60px;"">+</div>","null","fixation","","","","","","","","","3","","",""
"revaluation","224","939251","0.0-4.0-4.0-0.2","spark_pilot_norest","9677","7","21","Female","","","false","","","","[498.7000000178814]","./assets/img/canyon/animals/lion.jpg","[""ArrowRight""]","revaluation","canyon","30","{""ArrowUp,ArrowLeft"":23,""ArrowUp,ArrowRight"":10,""ArrowDown,ArrowLeft"":8,""ArrowDown,ArrowRight"":30}","true","ArrowDown,ArrowRight","","original","1","4","","",""
"html-keyboard-response","225","939762","0.0-4.0-4.0-1.2","spark_pilot_norest","9677","7","21","Female","","","","","","","null","<div style=""font-size:60px;"">+</div>","null","fixation","","","","","","","","","5","","",""
"revaluation","226","943779","0.0-4.0-4.0-0.3","spark_pilot_norest","9677","7","21","Female","","","false","","","","[593.1999999880791]","./assets/img/canyon/animals/giraffe.jpg","[""ArrowLeft""]","revaluation","canyon","23","{""ArrowUp,ArrowLeft"":23,""ArrowUp,ArrowRight"":10,""ArrowDown,ArrowLeft"":8,""ArrowDown,ArrowRight"":30}","true","ArrowUp,ArrowLeft","","original","1","6","","",""
"html-keyboard-response","227","944290","0.0-4.0-4.0-1.3","spark_pilot_norest","9677","7","21","Female","","","","","","","null","<div style=""font-size:60px;"">+</div>","null","fixation","","","","","","","","","7","","",""
"revaluation","228","948307","0.0-4.0-4.0-0.4","spark_pilot_norest","9677","7","21","Female","","","false","","","","[458.40000000596046]","./assets/img/canyon/animals/lion.jpg","[""ArrowRight""]","revaluation","canyon","30","{""ArrowUp,ArrowLeft"":23,""ArrowUp,ArrowRight"":10,""ArrowDown,ArrowLeft"":8,""ArrowDown,ArrowRight"":30}","true","ArrowDown,ArrowRight","","original","1","8","","",""
"html-keyboard-response","229","948817","0.0-4.0-4.0-1.4","spark_pilot_norest","9677","7","21","Female","","","","","","","null","<div style=""font-size:60px;"">+</div>","null","fixation","","","","","","","","","9","","",""
"revaluation","230","952835","0.0-4.0-4.0-0.5","spark_pilot_norest","9677","7","21","Female","","","false","","","","[702]","./assets/img/canyon/animals/lion.jpg","[""ArrowRight""]","revaluation","canyon","30","{""ArrowUp,ArrowLeft"":23,""ArrowUp,ArrowRight"":10,""ArrowDown,ArrowLeft"":8,""ArrowDown,ArrowRight"":30}","true","ArrowDown,ArrowRight","","original","1","10","","",""
"html-keyboard-response","231","953345","0.0-4.0-4.0-1.5","spark_pilot_norest","9677","7","21","Female","","","","","","","null","<div style=""font-size:60px;"">+</div>","null","fixation","","","","","","","","","11","","",""
"revaluation","232","957360","0.0-4.0-4.0-0.6","spark_pilot_norest","9677","7","21","Female","","","false","","","","[442.2000000178814]","./assets/img/canyon/animals/giraffe.jpg","[""ArrowLeft""]","revaluation","canyon","23","{""ArrowUp,ArrowLeft"":23,""ArrowUp,ArrowRight"":10,""ArrowDown,ArrowLeft"":8,""ArrowDown,ArrowRight"":30}","true","ArrowUp,ArrowLeft","","original","1","12","","",""
"html-keyboard-response","233","957863","0.0-4.0-4.0-1.6","spark_pilot_norest","9677","7","21","Female","","","","","","","null","<div style=""font-size:60px;"">+</div>","null","fixation","","","","","","","","","13","","",""
"revaluation","234","961881","0.0-4.0-4.0-0.7","spark_pilot_norest","9677","7","21","Female","","","false","","","","[662.2000000178814]","./assets/img/canyon/animals/giraffe.jpg","[""ArrowLeft""]","revaluation","canyon","23","{""ArrowUp,ArrowLeft"":23,""ArrowUp,ArrowRight"":10,""ArrowDown,ArrowLeft"":8,""ArrowDown,ArrowRight"":30}","true","ArrowUp,ArrowLeft","","original","1","14","","",""
"html-keyboard-response","235","962386","0.0-4.0-4.0-1.7","spark_pilot_norest","9677","7","21","Female","","","","","","","null","<div style=""font-size:60px;"">+</div>","null","fixation","","","","","","","","","15","","",""
"revaluation","236","966403","0.0-4.0-4.0-0.8","spark_pilot_norest","9677","7","21","Female","","","false","","","","[629.3999999761581]","./assets/img/canyon/animals/giraffe.jpg","[""ArrowLeft""]","revaluation","canyon","23","{""ArrowUp,ArrowLeft"":23,""ArrowUp,ArrowRight"":10,""ArrowDown,ArrowLeft"":8,""ArrowDown,ArrowRight"":30}","true","ArrowUp,ArrowLeft","","original","1","16","","",""
"html-keyboard-response","237","966914","0.0-4.0-4.0-1.8","spark_pilot_norest","9677","7","21","Female","","","","","","","null","<div style=""font-size:60px;"">+</div>","null","fixation","","","","","","","","","17","","",""
"revaluation","238","970931","0.0-4.0-4.0-0.9","spark_pilot_norest","9677","7","21","Female","","","false","","","","[486.19999998807907]","./assets/img/canyon/animals/giraffe.jpg","[""ArrowLeft""]","revaluation","canyon","23","{""ArrowUp,ArrowLeft"":23,""ArrowUp,ArrowRight"":10,""ArrowDown,ArrowLeft"":8,""ArrowDown,ArrowRight"":30}","true","ArrowUp,ArrowLeft","","original","1","18","","",""
"html-keyboard-response","239","971441","0.0-4.0-4.0-1.9","spark_pilot_norest","9677","7","21","Female","","","","","","","null","<div style=""font-size:60px;"">+</div>","null","fixation","","","","","","","","","19","","",""
"revaluation","240","975459","0.0-4.0-4.0-0.10","spark_pilot_norest","9677","7","21","Female","","","false","","","","[509.30000001192093]","./assets/img/canyon/animals/lion.jpg","[""ArrowRight""]","revaluation","canyon","30","{""ArrowUp,ArrowLeft"":23,""ArrowUp,ArrowRight"":10,""ArrowDown,ArrowLeft"":8,""ArrowDown,ArrowRight"":30}","true","ArrowDown,ArrowRight","","original","1","20","","",""
"html-keyboard-response","241","975969","0.0-4.0-4.0-1.10","spark_pilot_norest","9677","7","21","Female","","","","","","","null","<div style=""font-size:60px;"">+</div>","null","fixation","","","","","","","","","21","","",""
"revaluation","242","979987","0.0-4.0-4.0-0.11","spark_pilot_norest","9677","7","21","Female","","","false","","","","[675.6999999880791]","./assets/img/canyon/animals/giraffe.jpg","[""ArrowLeft""]","revaluation","canyon","23","{""ArrowUp,ArrowLeft"":23,""ArrowUp,ArrowRight"":10,""ArrowDown,ArrowLeft"":8,""ArrowDown,ArrowRight"":30}","true","ArrowUp,ArrowLeft","","original","1","22","","",""
"html-keyboard-response","243","980496","0.0-4.0-4.0-1.11","spark_pilot_norest","9677","7","21","Female","","","","","","","null","<div style=""font-size:60px;"">+</div>","null","fixation","","","","","","","","","23","","",""
"revaluation","244","984515","0.0-4.0-4.0-0.12","spark_pilot_norest","9677","7","21","Female","","","false","","","","[554.5999999940395]","./assets/img/canyon/animals/lion.jpg","[""ArrowRight""]","revaluation","canyon","30","{""ArrowUp,ArrowLeft"":23,""ArrowUp,ArrowRight"":10,""ArrowDown,ArrowLeft"":8,""ArrowDown,ArrowRight"":30}","true","ArrowDown,ArrowRight","","original","1","24","","",""
"html-keyboard-response","245","985025","0.0-4.0-4.0-1.12","spark_pilot_norest","9677","7","21","Female","","","","","","","null","<div style=""font-size:60px;"">+</div>","null","fixation","","","","","","","","","25","","",""
"revaluation","246","989043","0.0-4.0-4.0-0.13","spark_pilot_norest","9677","7","21","Female","","","false","","","","[623.9000000059605]","./assets/img/canyon/animals/lion.jpg","[""ArrowRight""]","revaluation","canyon","30","{""ArrowUp,ArrowLeft"":23,""ArrowUp,ArrowRight"":10,""ArrowDown,ArrowLeft"":8,""ArrowDown,ArrowRight"":30}","true","ArrowDown,ArrowRight","","original","1","26","","",""
"html-keyboard-response","247","989553","0.0-4.0-4.0-1.13","spark_pilot_norest","9677","7","21","Female","","","","","","","null","<div style=""font-size:60px;"">+</div>","null","fixation","","","","","","","","","27","","",""
"revaluation","248","993571","0.0-4.0-4.0-0.14","spark_pilot_norest","9677","7","21","Female","","","false","","","","[705.9000000059605]","./assets/img/canyon/animals/giraffe.jpg","[""ArrowLeft""]","revaluation","canyon","23","{""ArrowUp,ArrowLeft"":23,""ArrowUp,ArrowRight"":10,""ArrowDown,ArrowLeft"":8,""ArrowDown,ArrowRight"":30}","true","ArrowUp,ArrowLeft","","original","1","28","","",""
"html-keyboard-response","249","994081","0.0-4.0-4.0-1.14","spark_pilot_norest","9677","7","21","Female","","","","","","","null","<div style=""font-size:60px;"">+</div>","null","fixation","","","","","","","","","29","","",""
"revaluation","250","998098","0.0-4.0-4.0-0.15","spark_pilot_norest","9677","7","21","Female","","","false","","","","[484.59999999403954]","./assets/img/canyon/animals/lion.jpg","[""ArrowRight""]","revaluation","canyon","30","{""ArrowUp,ArrowLeft"":23,""ArrowUp,ArrowRight"":10,""ArrowDown,ArrowLeft"":8,""ArrowDown,ArrowRight"":30}","true","ArrowDown,ArrowRight","","original","1","30","","",""
"html-keyboard-response","251","998608","0.0-4.0-4.0-1.15","spark_pilot_norest","9677","7","21","Female","","","","","","","null","<div style=""font-size:60px;"">+</div>","null","fixation","","","","","","","","","31","","",""
"revaluation","252","1002626","0.0-4.0-4.0-0.16","spark_pilot_norest","9677","7","21","Female","","","false","","","","[639.0999999940395]","./assets/img/canyon/animals/giraffe.jpg","[""ArrowLeft""]","revaluation","canyon","23","{""ArrowUp,ArrowLeft"":23,""ArrowUp,ArrowRight"":10,""ArrowDown,ArrowLeft"":8,""ArrowDown,ArrowRight"":30}","true","ArrowUp,ArrowLeft","","original","1","32","","",""
"html-keyboard-response","253","1003137","0.0-4.0-4.0-1.16","spark_pilot_norest","9677","7","21","Female","","","","","","","null","<div style=""font-size:60px;"">+</div>","null","fixation","","","","","","","","","33","","",""
"revaluation","254","1007154","0.0-4.0-4.0-0.17","spark_pilot_norest","9677","7","21","Female","","","false","","","","[595.1999999880791]","./assets/img/canyon/animals/lion.jpg","[""ArrowRight""]","revaluation","canyon","30","{""ArrowUp,ArrowLeft"":23,""ArrowUp,ArrowRight"":10,""ArrowDown,ArrowLeft"":8,""ArrowDown,ArrowRight"":30}","true","ArrowDown,ArrowRight","","original","1","34","","",""
"html-keyboard-response","255","1007665","0.0-4.0-4.0-1.17","spark_pilot_norest","9677","7","21","Female","","","","","","","null","<div style=""font-size:60px;"">+</div>","null","fixation","","","","","","","","","35","","",""
"learning-instructions","256","1015828","0.0-4.0-5.0-0.0","spark_pilot_norest","9677","7","21","Female","","","","","","","null","<p> You have almost finished this part of the game! </p>
            <p> We are going to ask you to make a few more choices. </p>","","instructions","","","","","","","","","","","",""
"learning-instructions","257","1031800","0.0-4.0-5.0-0.1","spark_pilot_norest","9677","7","21","Female","","","","","","","null","<p> First, you need to decide whether to go up or down. When you see each picture, use the arrow keys to make your choice. </p>
            <p><b>You will not see which animal you found, but try to get to the one that will give you the most treasure.</b></p>","","instructions","","","","","","","","","","","",""
"html-keyboard-response","258","1032811","0.0-4.0-6.0-0.0","spark_pilot_norest","9677","7","21","Female","","","","","","","null","<div style=""font-size:100px;color:red;"">Starting in...</div>","null","","","","","","","","","","","","",""
"html-keyboard-response","259","1033816","0.0-4.0-6.0-1.0","spark_pilot_norest","9677","7","21","Female","","","","","","","null","<div style=""font-size:200px;color:red;"">3</div>","null","","","","","","","","","","","","",""
"html-keyboard-response","260","1034825","0.0-4.0-6.0-2.0","spark_pilot_norest","9677","7","21","Female","","","","","","","null","<div style=""font-size:200px;color:red;"">2</div>","null","","","","","","","","","","","","",""
"html-keyboard-response","261","1035833","0.0-4.0-6.0-3.0","spark_pilot_norest","9677","7","21","Female","","","","","","","null","<div style=""font-size:200px;color:red;"">1</div>","null","","","","","","","","","","","","",""
"revaluation","262","1036382","0.0-4.0-7.0-0.0","spark_pilot_norest","9677","7","21","Female","","","false","","","","[546]","./assets/img/canyon/test/2.jpg","[""ArrowDown""]","first stage test","canyon","0","{""ArrowUp,ArrowLeft"":23,""ArrowUp,ArrowRight"":10,""ArrowDown,ArrowLeft"":8,""ArrowDown,ArrowRight"":30}","true","ArrowDown","false","original","1","","","",""
"html-keyboard-response","263","1036889","0.0-4.0-7.0-1.0","spark_pilot_norest","9677","7","21","Female","","","","","","","null","<div style=""font-size:60px;"">+</div>","null","fixation","","","","","","","","","","","",""
"revaluation","264","1037785","0.0-4.0-7.0-0.1","spark_pilot_norest","9677","7","21","Female","","","false","","","","[892.2000000178814]","./assets/img/canyon/test/1.jpg","[""ArrowDown""]","first stage test","canyon","0","{""ArrowUp,ArrowLeft"":23,""ArrowUp,ArrowRight"":10,""ArrowDown,ArrowLeft"":8,""ArrowDown,ArrowRight"":30}","true","ArrowDown","false","original","1","","","",""
"html-keyboard-response","265","1038289","0.0-4.0-7.0-1.1","spark_pilot_norest","9677","7","21","Female","","","","","","","null","<div style=""font-size:60px;"">+</div>","null","fixation","","","","","","","","","","","",""
"revaluation","266","1039084","0.0-4.0-7.0-0.2","spark_pilot_norest","9677","7","21","Female","","","false","","","","[791.5999999940395]","./assets/img/canyon/test/3.jpg","[""ArrowDown""]","first stage test","canyon","0","{""ArrowUp,ArrowLeft"":23,""ArrowUp,ArrowRight"":10,""ArrowDown,ArrowLeft"":8,""ArrowDown,ArrowRight"":30}","true","ArrowDown","false","original","1","","","",""
"html-keyboard-response","267","1039596","0.0-4.0-7.0-1.2","spark_pilot_norest","9677","7","21","Female","","","","","","","null","<div style=""font-size:60px;"">+</div>","null","fixation","","","","","","","","","","","",""
"revaluation","268","1040342","0.0-4.0-7.0-0.3","spark_pilot_norest","9677","7","21","Female","","","false","","","","[743.2999999821186]","./assets/img/canyon/test/0.jpg","[""ArrowDown""]","first stage test","canyon","0","{""ArrowUp,ArrowLeft"":23,""ArrowUp,ArrowRight"":10,""ArrowDown,ArrowLeft"":8,""ArrowDown,ArrowRight"":30}","true","ArrowDown","false","original","1","","","",""
"html-keyboard-response","269","1040848","0.0-4.0-7.0-1.3","spark_pilot_norest","9677","7","21","Female","","","","","","","null","<div style=""font-size:60px;"">+</div>","null","fixation","","","","","","","","","","","",""
"learning-instructions","270","1054193","0.0-4.0-8.0-0.0","spark_pilot_norest","9677","7","21","Female","","","","","","","null","<p> Now you will see the animals again and can search their chests for treasure. </p>
            <p> This time, you will not see how much treasure you earned, but you will earn more bonus money for making better choices. </p>","","instructions","","","","","","","","","","","",""
"html-keyboard-response","271","1055202","0.0-4.0-9.0-0.0","spark_pilot_norest","9677","7","21","Female","","","","","","","null","<div style=""font-size:100px;color:red;"">Starting in...</div>","null","","","","","","","","","","","","",""
"html-keyboard-response","272","1056212","0.0-4.0-9.0-1.0","spark_pilot_norest","9677","7","21","Female","","","","","","","null","<div style=""font-size:200px;color:red;"">3</div>","null","","","","","","","","","","","","",""
"html-keyboard-response","273","1057218","0.0-4.0-9.0-2.0","spark_pilot_norest","9677","7","21","Female","","","","","","","null","<div style=""font-size:200px;color:red;"">2</div>","null","","","","","","","","","","","","",""
"html-keyboard-response","274","1058227","0.0-4.0-9.0-3.0","spark_pilot_norest","9677","7","21","Female","","","","","","","null","<div style=""font-size:200px;color:red;"">1</div>","null","","","","","","","","","","","","",""
"revaluation","275","1059609","0.0-4.0-10.0-0.0","spark_pilot_norest","9677","7","21","Female","","","false","","","","[1378.7999999821186]","./assets/img/canyon/animals/giraffe.jpg","[""ArrowLeft""]","second stage test","canyon","0","{""ArrowUp,ArrowLeft"":23,""ArrowUp,ArrowRight"":10,""ArrowDown,ArrowLeft"":8,""ArrowDown,ArrowRight"":30}","true","ArrowUp,ArrowLeft","","original","1","","","",""
"html-keyboard-response","276","1060117","0.0-4.0-10.0-1.0","spark_pilot_norest","9677","7","21","Female","","","","","","","null","<div style=""font-size:60px;"">+</div>","null","fixation","","","","","","","","","","","",""
"revaluation","277","1060817","0.0-4.0-10.0-0.1","spark_pilot_norest","9677","7","21","Female","","","false","","","","[697.5999999940395]","./assets/img/canyon/animals/giraffe.jpg","[""ArrowLeft""]","second stage test","canyon","0","{""ArrowUp,ArrowLeft"":23,""ArrowUp,ArrowRight"":10,""ArrowDown,ArrowLeft"":8,""ArrowDown,ArrowRight"":30}","true","ArrowUp,ArrowLeft","","original","1","","","",""
"html-keyboard-response","278","1061324","0.0-4.0-10.0-1.1","spark_pilot_norest","9677","7","21","Female","","","","","","","null","<div style=""font-size:60px;"">+</div>","null","fixation","","","","","","","","","","","",""
"revaluation","279","1062077","0.0-4.0-10.0-0.2","spark_pilot_norest","9677","7","21","Female","","","false","","","","[750.5]","./assets/img/canyon/animals/giraffe.jpg","[""ArrowLeft""]","second stage test","canyon","0","{""ArrowUp,ArrowLeft"":23,""ArrowUp,ArrowRight"":10,""ArrowDown,ArrowLeft"":8,""ArrowDown,ArrowRight"":30}","true","ArrowUp,ArrowLeft","","original","1","","","",""
"html-keyboard-response","280","1062586","0.0-4.0-10.0-1.2","spark_pilot_norest","9677","7","21","Female","","","","","","","null","<div style=""font-size:60px;"">+</div>","null","fixation","","","","","","","","","","","",""
"revaluation","281","1063098","0.0-4.0-10.0-0.3","spark_pilot_norest","9677","7","21","Female","","","false","","","","[508.2999999821186]","./assets/img/canyon/animals/giraffe.jpg","[""ArrowLeft""]","second stage test","canyon","0","{""ArrowUp,ArrowLeft"":23,""ArrowUp,ArrowRight"":10,""ArrowDown,ArrowLeft"":8,""ArrowDown,ArrowRight"":30}","true","ArrowUp,ArrowLeft","","original","1","","","",""
"html-keyboard-response","282","1063600","0.0-4.0-10.0-1.3","spark_pilot_norest","9677","7","21","Female","","","","","","","null","<div style=""font-size:60px;"">+</div>","null","fixation","","","","","","","","","","","",""
"revaluation","283","1064131","0.0-4.0-10.0-0.4","spark_pilot_norest","9677","7","21","Female","","","false","","","","[528.7000000178814]","./assets/img/canyon/animals/lion.jpg","[""ArrowRight""]","second stage test","canyon","0","{""ArrowUp,ArrowLeft"":23,""ArrowUp,ArrowRight"":10,""ArrowDown,ArrowLeft"":8,""ArrowDown,ArrowRight"":30}","true","ArrowDown,ArrowRight","","original","1","","","",""
"html-keyboard-response","284","1064633","0.0-4.0-10.0-1.4","spark_pilot_norest","9677","7","21","Female","","","","","","","null","<div style=""font-size:60px;"">+</div>","null","fixation","","","","","","","","","","","",""
"revaluation","285","1065107","0.0-4.0-10.0-0.5","spark_pilot_norest","9677","7","21","Female","","","false","","","","[471.7999999821186]","./assets/img/canyon/animals/lion.jpg","[""ArrowRight""]","second stage test","canyon","0","{""ArrowUp,ArrowLeft"":23,""ArrowUp,ArrowRight"":10,""ArrowDown,ArrowLeft"":8,""ArrowDown,ArrowRight"":30}","true","ArrowDown,ArrowRight","","original","1","","","",""
"html-keyboard-response","286","1065610","0.0-4.0-10.0-1.5","spark_pilot_norest","9677","7","21","Female","","","","","","","null","<div style=""font-size:60px;"">+</div>","null","fixation","","","","","","","","","","","",""
"revaluation","287","1066081","0.0-4.0-10.0-0.6","spark_pilot_norest","9677","7","21","Female","","","false","","","","[469.7999999821186]","./assets/img/canyon/animals/lion.jpg","[""ArrowRight""]","second stage test","canyon","0","{""ArrowUp,ArrowLeft"":23,""ArrowUp,ArrowRight"":10,""ArrowDown,ArrowLeft"":8,""ArrowDown,ArrowRight"":30}","true","ArrowDown,ArrowRight","","original","1","","","",""
"html-keyboard-response","288","1066586","0.0-4.0-10.0-1.6","spark_pilot_norest","9677","7","21","Female","","","","","","","null","<div style=""font-size:60px;"">+</div>","null","fixation","","","","","","","","","","","",""
"revaluation","289","1067109","0.0-4.0-10.0-0.7","spark_pilot_norest","9677","7","21","Female","","","false","","","","[519.5999999940395]","./assets/img/canyon/animals/lion.jpg","[""ArrowRight""]","second stage test","canyon","0","{""ArrowUp,ArrowLeft"":23,""ArrowUp,ArrowRight"":10,""ArrowDown,ArrowLeft"":8,""ArrowDown,ArrowRight"":30}","true","ArrowDown,ArrowRight","","original","1","","","",""
"html-keyboard-response","290","1067617","0.0-4.0-10.0-1.7","spark_pilot_norest","9677","7","21","Female","","","","","","","null","<div style=""font-size:60px;"">+</div>","null","fixation","","","","","","","","","","","",""
"learning-instructions","291","1072291","0.0-4.0-0.1-0.2","spark_pilot_norest","9677","7","21","Female","","","","","","","1939.699999988079","<p> This time you are searching for treasure in the <b>ocean</b>.</p>","","instructions","","","","","","","","","","","",""
"learning-instructions","292","1091100","0.0-4.0-0.1-0.3","spark_pilot_norest","9677","7","21","Female","","","","","","","1557.0999999940395","<p><b>New</b> animals with <b>new</b> treasure chests live here. You need to explore to discover where the animal with the best treasure chest is.</p>
                    <p> Like before, once you figure out which animal has the chest with the most treasure, you should try to get to that animal and select that chest! </p>","","instructions","","","","","","","","","","","",""
"learning-instructions","293","1106753","0.0-4.0-1.1-0.1","spark_pilot_norest","9677","7","21","Female","","","","","","","911.2999999821186","<p> Remember, when you see a picture of the place, use the up and down keys to <b>find an animal</b>.</p>
            <p> When you encounter an animal, you should use the left and right keys to <b>select a treasure chest</b>.</p>
            <p> Don't forget to look out for the robber! </p>","","instructions","","","","","","","","","","","",""
"revaluation","294","1110769","0.0-4.0-2.1-0.50","spark_pilot_norest","9677","7","21","Female","","","false","","","","[652]","./assets/img/ocean/catch/6.jpg","[""ArrowUp""]","value training","ocean","-10","{""ArrowUp,ArrowLeft"":26,""ArrowUp,ArrowRight"":10,""ArrowDown,ArrowLeft"":5,""ArrowDown,ArrowRight"":17}","false","ArrowUp","true","revaluation","2","0","","",""
"html-keyboard-response","295","1111273","0.0-4.0-2.1-1.50","spark_pilot_norest","9677","7","21","Female","","","","","","","null","<div style=""font-size:60px;"">+</div>","null","fixation","","","","","","","","","1","","",""
"revaluation","296","1117298","0.0-4.0-2.1-0.51","spark_pilot_norest","9677","7","21","Female","","","false","","","","[574.0999999940395,527.5]","./assets/img/ocean/memory/41.jpg","[""ArrowUp"",""ArrowRight""]","value training","ocean","10","{""ArrowUp,ArrowLeft"":26,""ArrowUp,ArrowRight"":10,""ArrowDown,ArrowLeft"":5,""ArrowDown,ArrowRight"":17}","false","ArrowUp,ArrowRight","false","revaluation","2","2","","",""
"html-keyboard-response","297","1117804","0.0-4.0-2.1-1.51","spark_pilot_norest","9677","7","21","Female","","","","","","","null","<div style=""font-size:60px;"">+</div>","null","fixation","","","","","","","","","3","","",""
"revaluation","298","1123826","0.0-4.0-2.1-0.52","spark_pilot_norest","9677","7","21","Female","","","false","","","","[558.5,541.5999999940395]","./assets/img/ocean/memory/23.jpg","[""ArrowUp"",""ArrowLeft""]","value training","ocean","26","{""ArrowUp,ArrowLeft"":26,""ArrowUp,ArrowRight"":10,""ArrowDown,ArrowLeft"":5,""ArrowDown,ArrowRight"":17}","true","ArrowUp,ArrowLeft","false","revaluation","2","4","","",""
"html-keyboard-response","299","1124329","0.0-4.0-2.1-1.52","spark_pilot_norest","9677","7","21","Female","","","","","","","null","<div style=""font-size:60px;"">+</div>","null","fixation","","","","","","","","","5","","",""
"revaluation","300","1130357","0.0-4.0-2.1-0.53","spark_pilot_norest","9677","7","21","Female","","","false","","","","[605.8000000119209,508.09999999403954]","./assets/img/ocean/memory/19.jpg","[""ArrowDown"",""ArrowRight""]","value training","ocean","17","{""ArrowUp,ArrowLeft"":26,""ArrowUp,ArrowRight"":10,""ArrowDown,ArrowLeft"":5,""ArrowDown,ArrowRight"":17}","false","ArrowDown,ArrowRight","false","revaluation","2","6","","",""
"html-keyboard-response","301","1130867","0.0-4.0-2.1-1.53","spark_pilot_norest","9677","7","21","Female","","","","","","","null","<div style=""font-size:60px;"">+</div>","null","fixation","","","","","","","","","7","","",""
"revaluation","302","1136890","0.0-4.0-2.1-0.54","spark_pilot_norest","9677","7","21","Female","","","false","","","","[626.8000000119209,315.7000000178814]","./assets/img/ocean/memory/13.jpg","[""ArrowDown"",""ArrowLeft""]","value training","ocean","5","{""ArrowUp,ArrowLeft"":26,""ArrowUp,ArrowRight"":10,""ArrowDown,ArrowLeft"":5,""ArrowDown,ArrowRight"":17}","false","ArrowDown,ArrowLeft","false","revaluation","2","8","","",""
"html-keyboard-response","303","1137395","0.0-4.0-2.1-1.54","spark_pilot_norest","9677","7","21","Female","","","","","","","null","<div style=""font-size:60px;"">+</div>","null","fixation","","","","","","","","","9","","",""
"revaluation","304","1143421","0.0-4.0-2.1-0.55","spark_pilot_norest","9677","7","21","Female","","","false","","","","[740,364.39999997615814]","./assets/img/ocean/memory/6.jpg","[""ArrowUp"",""ArrowLeft""]","value training","ocean","26","{""ArrowUp,ArrowLeft"":26,""ArrowUp,ArrowRight"":10,""ArrowDown,ArrowLeft"":5,""ArrowDown,ArrowRight"":17}","true","ArrowUp,ArrowLeft","false","revaluation","2","10","","",""
"html-keyboard-response","305","1143931","0.0-4.0-2.1-1.55","spark_pilot_norest","9677","7","21","Female","","","","","","","null","<div style=""font-size:60px;"">+</div>","null","fixation","","","","","","","","","11","","",""
"revaluation","306","1149957","0.0-4.0-2.1-0.56","spark_pilot_norest","9677","7","21","Female","","","false","","","","[561.9000000059605,410.80000001192093]","./assets/img/ocean/memory/33.jpg","[""ArrowUp"",""ArrowLeft""]","value training","ocean","26","{""ArrowUp,ArrowLeft"":26,""ArrowUp,ArrowRight"":10,""ArrowDown,ArrowLeft"":5,""ArrowDown,ArrowRight"":17}","true","ArrowUp,ArrowLeft","false","revaluation","2","12","","",""
"html-keyboard-response","307","1150468","0.0-4.0-2.1-1.56","spark_pilot_norest","9677","7","21","Female","","","","","","","null","<div style=""font-size:60px;"">+</div>","null","fixation","","","","","","","","","13","","",""
"revaluation","308","1156493","0.0-4.0-2.1-0.57","spark_pilot_norest","9677","7","21","Female","","","false","","","","[510.5,442]","./assets/img/ocean/memory/11.jpg","[""ArrowUp"",""ArrowLeft""]","value training","ocean","26","{""ArrowUp,ArrowLeft"":26,""ArrowUp,ArrowRight"":10,""ArrowDown,ArrowLeft"":5,""ArrowDown,ArrowRight"":17}","true","ArrowUp,ArrowLeft","false","revaluation","2","14","","",""
"html-keyboard-response","309","1157003","0.0-4.0-2.1-1.57","spark_pilot_norest","9677","7","21","Female","","","","","","","null","<div style=""font-size:60px;"">+</div>","null","fixation","","","","","","","","","15","","",""
