"trial_type","trial_index","time_elapsed","internal_node_id","task_version","subject_id","assigned_condition","age","gender","rest","success","timeout","failed_images","failed_audio","failed_video","browser_interaction","rt","stimulus","response","task_part","environment","score","rewardMap","correct","fullState","isCatch","audioStim","slider_start","answer","error","trial_num","condition","order","bonus"
"pavlovia","0","1105","0.0-0.0","pilot_wm_v1","664cef98bb2e4a28e1fce2cb","6","null","null","false","","","","","","","","","","","","","","","","","","","","","","","",""
"preload","1","10901","0.0-1.0","pilot_wm_v1","664cef98bb2e4a28e1fce2cb","6","null","null","false","true","false","[]","[]","[]","[{""event"":""fullscreenenter"",""trial"":2,""time"":13979}]","","","","","","","","","","","","","","","","","",""
"fullscreen","2","14967","0.0-2.0","pilot_wm_v1","664cef98bb2e4a28e1fce2cb","6","null","null","false","true","","","","","","","","","","","","","","","","","","","","","","",""
"audio-button-response","3","16849","0.0-3.0-0.0-0.0","pilot_wm_v1","664cef98bb2e4a28e1fce2cb","6","null","null","false","","","","","","","1320","./assets/audio/audiotest/turtle.mp3","2","audio_test","","","","","","","","","","","","","",""
"learning-instructions","4","25269","0.0-3.0-1.0-0.0","pilot_wm_v1","664cef98bb2e4a28e1fce2cb","6","null","null","false","","","","","","","1439.8999999994412","<p> Welcome! Please remember to stay in fullscreen mode and don't click away from the experiment. </p>","","instructions","","","","","","","","","","","","","",""
"learning-instructions","5","34410","0.0-3.0-1.0-0.1","pilot_wm_v1","664cef98bb2e4a28e1fce2cb","6","null","null","false","","","","","","","741.0999999996275","<p> Today you will be playing a game to earn treasure. </p>
            <p> At the end of the experiment, you will earn a bonus based on how much treasure you find. </p>
            <img src='./assets/img/instructions/treasure.jpg' class='instructions-image'>","","instructions","","","","","","","","","","","","","",""
"learning-instructions","6","52945","0.0-3.0-1.0-0.2","pilot_wm_v1","664cef98bb2e4a28e1fce2cb","6","null","null","false","","","","","","","10275.200000000186","<p> Animals have hidden treasure in treasure chests. </p>
            <p> You need to first find an animal and then choose which of their treasure chests to search. </p>
            <img src='./assets/img/space/animals/cat.jpg' class='instructions-image'>","","instructions","","","","","","","","","","","","","",""
"learning-instructions","7","66876","0.0-3.0-1.0-0.3","pilot_wm_v1","664cef98bb2e4a28e1fce2cb","6","null","null","false","","","","","","","786","<p> In each round, you will search for treasure in a different place. In the real game, there will be two rounds. </p>
            <p> You will begin with a separate, practice round where you will search for treasure in outer space. </p>
            <img src='./assets/img/space/0.jpg' class='instructions-image'>","","instructions","","","","","","","","","","","","","",""
"learning-instructions","8","82280","0.0-3.0-1.0-0.4","pilot_wm_v1","664cef98bb2e4a28e1fce2cb","6","null","null","false","","","","","","","3991.4000000003725","<p> On every turn, you will see a picture of the place that you are in, but the specific image may be different each time. </p>
            <p> For example, both of these images mean you are in outer space. </p>
            <img src='./assets/img/instructions/outerspace.jpg' class='instructions-image'>","","instructions","","","","","","","","","","","","","",""
"learning-instructions","9","90955","0.0-3.0-1.0-0.5","pilot_wm_v1","664cef98bb2e4a28e1fce2cb","6","null","null","false","","","","","","","856.0999999996275","<p> You need to decide which direction to travel in. </p>
            <p> You can choose between going <b>up or down</b> by using the arrow keys. </p>
            <img src='./assets/img/instructions/updown.jpg' class='instructions-image'>","","instructions","","","","","","","","","","","","","",""
"learning-instructions","10","103059","0.0-3.0-1.0-0.6","pilot_wm_v1","664cef98bb2e4a28e1fce2cb","6","null","null","false","","","","","","","3309.5","<p> You will have <b>2 seconds</b> to make your choice. </p>
            <p> If you do not make a choice within 2 seconds, you will not find an animal or earn treasure. </p>
            <img src='./assets/img/instructions/2seconds.jpg' class='instructions-image'>","","instructions","","","","","","","","","","","","","",""
"learning-instructions","11","110955","0.0-3.0-1.0-0.7","pilot_wm_v1","664cef98bb2e4a28e1fce2cb","6","null","null","false","","","","","","","865.3000000007451","<p> Let’s try practicing that now! </p>
            <p> When you see a picture of the place you are in, press the <b>up</b> key to travel up. </p>
            <img src='./assets/img/instructions/pressUp.jpg' class='instructions-image'>","","instructions","","","","","","","","","","","","","",""
"revaluation","12","114970","0.0-3.0-2.0-0.0","pilot_wm_v1","664cef98bb2e4a28e1fce2cb","6","null","null","false","","false","","","","","[888.7000000001863]","./assets/img/space/0.jpg","[""ArrowUp""]","first stage practice","space","0","null","null","ArrowUp","false","","","","","","","",""
"html-keyboard-response","13","115480","0.0-3.0-2.0-1.0","pilot_wm_v1","664cef98bb2e4a28e1fce2cb","6","null","null","false","","","","","","","null","<div style=""font-size:60px;"">+</div>","null","fixation","","","","","","","","","","","","","",""
"revaluation","14","119488","0.0-3.0-2.0-0.1","pilot_wm_v1","664cef98bb2e4a28e1fce2cb","6","null","null","false","","false","","","","","[779.2000000001863]","./assets/img/space/1.jpg","[""ArrowUp""]","first stage practice","space","0","null","null","ArrowUp","false","","","","","","","",""
"html-keyboard-response","15","119994","0.0-3.0-2.0-1.1","pilot_wm_v1","664cef98bb2e4a28e1fce2cb","6","null","null","false","","","","","","","null","<div style=""font-size:60px;"">+</div>","null","fixation","","","","","","","","","","","","","",""
"revaluation","16","124010","0.0-3.0-2.0-0.2","pilot_wm_v1","664cef98bb2e4a28e1fce2cb","6","null","null","false","","false","","","","","[1537.7000000001863]","./assets/img/space/2.jpg","[""ArrowUp""]","first stage practice","space","0","null","null","ArrowUp","false","","","","","","","",""
"html-keyboard-response","17","124524","0.0-3.0-2.0-1.2","pilot_wm_v1","664cef98bb2e4a28e1fce2cb","6","null","null","false","","","","","","","null","<div style=""font-size:60px;"">+</div>","null","fixation","","","","","","","","","","","","","",""
"learning-instructions","18","129833","0.0-3.0-3.0-0.0","pilot_wm_v1","664cef98bb2e4a28e1fce2cb","6","null","null","false","","","","","","","612.8000000007451","<p> Great job! Now try pressing the <b>down</b> key to travel down. </p>
            <img src='./assets/img/instructions/pressDown.jpg' class='instructions-image'>","","instructions","","","","","","","","","","","","","",""
"revaluation","19","133858","0.0-3.0-4.0-0.0","pilot_wm_v1","664cef98bb2e4a28e1fce2cb","6","null","null","false","","false","","","","","[340.8999999994412]","./assets/img/space/3.jpg","[""ArrowDown""]","first stage practice","space","0","null","null","ArrowDown","false","","","","","","","",""
"html-keyboard-response","20","134371","0.0-3.0-4.0-1.0","pilot_wm_v1","664cef98bb2e4a28e1fce2cb","6","null","null","false","","","","","","","null","<div style=""font-size:60px;"">+</div>","null","fixation","","","","","","","","","","","","","",""
"revaluation","21","138403","0.0-3.0-4.0-0.1","pilot_wm_v1","664cef98bb2e4a28e1fce2cb","6","null","null","false","","false","","","","","[435.70000000018626]","./assets/img/space/4.jpg","[""ArrowDown""]","first stage practice","space","0","null","null","ArrowDown","false","","","","","","","",""
"html-keyboard-response","22","138914","0.0-3.0-4.0-1.1","pilot_wm_v1","664cef98bb2e4a28e1fce2cb","6","null","null","false","","","","","","","null","<div style=""font-size:60px;"">+</div>","null","fixation","","","","","","","","","","","","","",""
"revaluation","23","142929","0.0-3.0-4.0-0.2","pilot_wm_v1","664cef98bb2e4a28e1fce2cb","6","null","null","false","","false","","","","","[305.6000000005588]","./assets/img/space/5.jpg","[""ArrowDown""]","first stage practice","space","0","null","null","ArrowDown","false","","","","","","","",""
"html-keyboard-response","24","143441","0.0-3.0-4.0-1.2","pilot_wm_v1","664cef98bb2e4a28e1fce2cb","6","null","null","false","","","","","","","null","<div style=""font-size:60px;"">+</div>","null","fixation","","","","","","","","","","","","","",""
"learning-instructions","25","153811","0.0-3.0-5.0-0.0","pilot_wm_v1","664cef98bb2e4a28e1fce2cb","6","null","null","false","","","","","","","521.7000000001863","<p> The animals don’t move, so the animal in the upper part of a place will stay in the upper part of a place, and the animal in the lower part of a place will stay in the lower part of a place. </p>","","instructions","","","","","","","","","","","","","",""
"learning-instructions","26","163567","0.0-3.0-5.0-0.1","pilot_wm_v1","664cef98bb2e4a28e1fce2cb","6","null","null","false","","","","","","","627.6999999992549","<p> Each animal has two treasure chests for you to choose from. </p>
            <p> The amount of treasure in each chest can range from <b> 0 to 40 pieces.</b></p>","","instructions","","","","","","","","","","","","","",""
"learning-instructions","27","175321","0.0-3.0-5.0-0.2","pilot_wm_v1","664cef98bb2e4a28e1fce2cb","6","null","null","false","","","","","","","571.1000000005588","<p> You should decide which chest to search for treasure by using the <b>left</b> and <b>right</b> arrow keys. </p>
            <p><b> Pay attention to which animal is on the screen, as the animals have different treasure chests. </b></p>
            <img src='./assets/img/instructions/leftright.jpg' class='instructions-image'>","","instructions","","","","","","","","","","","","","",""
"learning-instructions","28","182271","0.0-3.0-5.0-0.3","pilot_wm_v1","664cef98bb2e4a28e1fce2cb","6","null","null","false","","","","","","","600.7000000001863","<p> Let’s try practicing that now. </p>
            <p> When you see an animal, choose which chest to search for treasure. </p>
            <img src='./assets/img/instructions/chooseChest.jpg' class='instructions-image'>","","instructions","","","","","","","","","","","","","",""
"revaluation","29","186296","0.0-3.0-6.0-0.0","pilot_wm_v1","664cef98bb2e4a28e1fce2cb","6","null","null","false","","false","","","","","[1192.8999999994412]","./assets/img/space/animals/cat.jpg","[""ArrowLeft""]","second stage practice","space","3","{""ArrowUp,ArrowLeft"":3,""ArrowUp,ArrowRight"":36,""ArrowDown,ArrowLeft"":15,""ArrowDown,ArrowRight"":23}","false","ArrowUp,ArrowLeft","","","","","","","","",""
"html-keyboard-response","30","186798","0.0-3.0-6.0-1.0","pilot_wm_v1","664cef98bb2e4a28e1fce2cb","6","null","null","false","","","","","","","null","<div style=""font-size:60px;"">+</div>","null","fixation","","","","","","","","","","","","","",""
"revaluation","31","190814","0.0-3.0-6.0-0.1","pilot_wm_v1","664cef98bb2e4a28e1fce2cb","6","null","null","false","","false","","","","","[679.7999999998137]","./assets/img/space/animals/cat.jpg","[""ArrowLeft""]","second stage practice","space","3","{""ArrowUp,ArrowLeft"":3,""ArrowUp,ArrowRight"":36,""ArrowDown,ArrowLeft"":15,""ArrowDown,ArrowRight"":23}","false","ArrowUp,ArrowLeft","","","","","","","","",""
"html-keyboard-response","32","191325","0.0-3.0-6.0-1.1","pilot_wm_v1","664cef98bb2e4a28e1fce2cb","6","null","null","false","","","","","","","null","<div style=""font-size:60px;"">+</div>","null","fixation","","","","","","","","","","","","","",""
"revaluation","33","195343","0.0-3.0-6.0-0.2","pilot_wm_v1","664cef98bb2e4a28e1fce2cb","6","null","null","false","","false","","","","","[663.2999999998137]","./assets/img/space/animals/rabbit.jpg","[""ArrowRight""]","second stage practice","space","23","{""ArrowUp,ArrowLeft"":3,""ArrowUp,ArrowRight"":36,""ArrowDown,ArrowLeft"":15,""ArrowDown,ArrowRight"":23}","true","ArrowDown,ArrowRight","","","","","","","","",""
"html-keyboard-response","34","195856","0.0-3.0-6.0-1.2","pilot_wm_v1","664cef98bb2e4a28e1fce2cb","6","null","null","false","","","","","","","null","<div style=""font-size:60px;"">+</div>","null","fixation","","","","","","","","","","","","","",""
"revaluation","35","199867","0.0-3.0-6.0-0.3","pilot_wm_v1","664cef98bb2e4a28e1fce2cb","6","null","null","false","","false","","","","","[1432.5]","./assets/img/space/animals/rabbit.jpg","[""ArrowRight""]","second stage practice","space","23","{""ArrowUp,ArrowLeft"":3,""ArrowUp,ArrowRight"":36,""ArrowDown,ArrowLeft"":15,""ArrowDown,ArrowRight"":23}","true","ArrowDown,ArrowRight","","","","","","","","",""
"html-keyboard-response","36","200371","0.0-3.0-6.0-1.3","pilot_wm_v1","664cef98bb2e4a28e1fce2cb","6","null","null","false","","","","","","","null","<div style=""font-size:60px;"">+</div>","null","fixation","","","","","","","","","","","","","",""
"learning-instructions","37","218174","0.0-3.0-7.0-0.0","pilot_wm_v1","664cef98bb2e4a28e1fce2cb","6","null","null","false","","","","","","","1004.6000000005588","<p> Great job. Now let’s try putting it together. </p>
            <p> On each turn, you will first see a picture to remind you of the place you are in, and you need to choose whether to go up or down. </p>
            <p> Then you will see an animal and choose which of its chests to search for treasure. </p>","","instructions","","","","","","","","","","","","","",""
"learning-instructions","38","226919","0.0-3.0-7.0-0.1","pilot_wm_v1","664cef98bb2e4a28e1fce2cb","6","null","null","false","","","","","","","489.59999999962747","<p> When you choose whether to go up or down, try to go to the animal with the chest with the most treasure. </p>
            <p> Try practicing that now! </p>","","instructions","","","","","","","","","","","","","",""
"revaluation","39","232949","0.0-3.0-8.0-0.0","pilot_wm_v1","664cef98bb2e4a28e1fce2cb","6","null","null","false","","false","","","","","[495.8999999994412,1384.4000000003725]","./assets/img/space/6.jpg","[""ArrowUp"",""ArrowRight""]","full practice","space","36","{""ArrowUp,ArrowLeft"":3,""ArrowUp,ArrowRight"":36,""ArrowDown,ArrowLeft"":15,""ArrowDown,ArrowRight"":23}","true","ArrowUp,ArrowRight","false","","","","","","","",""
"html-keyboard-response","40","233464","0.0-3.0-8.0-1.0","pilot_wm_v1","664cef98bb2e4a28e1fce2cb","6","null","null","false","","","","","","","null","<div style=""font-size:60px;"">+</div>","null","fixation","","","","","","","","","","","","","",""
"revaluation","41","239492","0.0-3.0-8.0-0.1","pilot_wm_v1","664cef98bb2e4a28e1fce2cb","6","null","null","false","","false","","","","","[423.5,631.4000000003725]","./assets/img/space/7.jpg","[""ArrowDown"",""ArrowLeft""]","full practice","space","15","{""ArrowUp,ArrowLeft"":3,""ArrowUp,ArrowRight"":36,""ArrowDown,ArrowLeft"":15,""ArrowDown,ArrowRight"":23}","false","ArrowDown,ArrowLeft","false","","","","","","","",""
"html-keyboard-response","42","240005","0.0-3.0-8.0-1.1","pilot_wm_v1","664cef98bb2e4a28e1fce2cb","6","null","null","false","","","","","","","null","<div style=""font-size:60px;"">+</div>","null","fixation","","","","","","","","","","","","","",""
"revaluation","43","246017","0.0-3.0-8.0-0.2","pilot_wm_v1","664cef98bb2e4a28e1fce2cb","6","null","null","false","","false","","","","","[363,510.8999999994412]","./assets/img/space/8.jpg","[""ArrowUp"",""ArrowLeft""]","full practice","space","3","{""ArrowUp,ArrowLeft"":3,""ArrowUp,ArrowRight"":36,""ArrowDown,ArrowLeft"":15,""ArrowDown,ArrowRight"":23}","false","ArrowUp,ArrowLeft","false","","","","","","","",""
"html-keyboard-response","44","246530","0.0-3.0-8.0-1.2","pilot_wm_v1","664cef98bb2e4a28e1fce2cb","6","null","null","false","","","","","","","null","<div style=""font-size:60px;"">+</div>","null","fixation","","","","","","","","","","","","","",""
"revaluation","45","252552","0.0-3.0-8.0-0.3","pilot_wm_v1","664cef98bb2e4a28e1fce2cb","6","null","null","false","","false","","","","","[464.8999999994412,436.59999999962747]","./assets/img/space/9.jpg","[""ArrowDown"",""ArrowRight""]","full practice","space","23","{""ArrowUp,ArrowLeft"":3,""ArrowUp,ArrowRight"":36,""ArrowDown,ArrowLeft"":15,""ArrowDown,ArrowRight"":23}","false","ArrowDown,ArrowRight","false","","","","","","","",""
"html-keyboard-response","46","253066","0.0-3.0-8.0-1.3","pilot_wm_v1","664cef98bb2e4a28e1fce2cb","6","null","null","false","","","","","","","null","<div style=""font-size:60px;"">+</div>","null","fixation","","","","","","","","","","","","","",""
"revaluation","47","259076","0.0-3.0-8.0-0.4","pilot_wm_v1","664cef98bb2e4a28e1fce2cb","6","null","null","false","","false","","","","","[288,297.70000000018626]","./assets/img/space/10.jpg","[""ArrowDown"",""ArrowRight""]","full practice","space","23","{""ArrowUp,ArrowLeft"":3,""ArrowUp,ArrowRight"":36,""ArrowDown,ArrowLeft"":15,""ArrowDown,ArrowRight"":23}","false","ArrowDown,ArrowRight","false","","","","","","","",""
"html-keyboard-response","48","259578","0.0-3.0-8.0-1.4","pilot_wm_v1","664cef98bb2e4a28e1fce2cb","6","null","null","false","","","","","","","null","<div style=""font-size:60px;"">+</div>","null","fixation","","","","","","","","","","","","","",""
"learning-instructions","49","270601","0.0-3.0-9.0-0.0","pilot_wm_v1","664cef98bb2e4a28e1fce2cb","6","null","null","false","","","","","","","727.2000000001863","<p> One last thing: sometimes, you will see a robber. The robber can be anywhere in the picture. </p>
            <p> If you do not stop them, you will lose treasure. </p>
            <img src='./assets/img/instructions/robber.jpg' class='instructions-image'>","","instructions","","","","","","","","","","","","","",""
"learning-instructions","50","278069","0.0-3.0-9.0-0.1","pilot_wm_v1","664cef98bb2e4a28e1fce2cb","6","null","null","false","","","","","","","305.1000000005588","<p> If you see the robber, you should <b>press the space bar</b> rather than using the arrow keys. </p>
            <p> Try practicing that now! </p>","","instructions","","","","","","","","","","","","","",""
"revaluation","51","282089","0.0-3.0-10.0-0.0","pilot_wm_v1","664cef98bb2e4a28e1fce2cb","6","null","null","false","","false","","","","","[664.2999999998137]","./assets/img/space/catch/0.jpg","[""spaceBar""]","catch practice","space","0","{""ArrowUp,ArrowLeft"":3,""ArrowUp,ArrowRight"":36,""ArrowDown,ArrowLeft"":15,""ArrowDown,ArrowRight"":23}","true","spaceBar","true","","","","","","","",""
"html-keyboard-response","52","282591","0.0-3.0-10.0-1.0","pilot_wm_v1","664cef98bb2e4a28e1fce2cb","6","null","null","false","","","","","","","null","<div style=""font-size:60px;"">+</div>","null","fixation","","","","","","","","","","","","","",""
"revaluation","53","286607","0.0-3.0-10.0-0.1","pilot_wm_v1","664cef98bb2e4a28e1fce2cb","6","null","null","false","","false","","","","","[702.5]","./assets/img/space/catch/1.jpg","[""spaceBar""]","catch practice","space","0","{""ArrowUp,ArrowLeft"":3,""ArrowUp,ArrowRight"":36,""ArrowDown,ArrowLeft"":15,""ArrowDown,ArrowRight"":23}","true","spaceBar","true","","","","","","","",""
"html-keyboard-response","54","287123","0.0-3.0-10.0-1.1","pilot_wm_v1","664cef98bb2e4a28e1fce2cb","6","null","null","false","","","","","","","null","<div style=""font-size:60px;"">+</div>","null","fixation","","","","","","","","","","","","","",""
"revaluation","55","291132","0.0-3.0-10.0-0.2","pilot_wm_v1","664cef98bb2e4a28e1fce2cb","6","null","null","false","","false","","","","","[403.70000000018626]","./assets/img/space/catch/2.jpg","[""spaceBar""]","catch practice","space","0","{""ArrowUp,ArrowLeft"":3,""ArrowUp,ArrowRight"":36,""ArrowDown,ArrowLeft"":15,""ArrowDown,ArrowRight"":23}","true","spaceBar","true","","","","","","","",""
"html-keyboard-response","56","291645","0.0-3.0-10.0-1.2","pilot_wm_v1","664cef98bb2e4a28e1fce2cb","6","null","null","false","","","","","","","null","<div style=""font-size:60px;"">+</div>","null","fixation","","","","","","","","","","","","","",""
"learning-instructions","57","298983","0.0-3.0-11.0-0.0","pilot_wm_v1","664cef98bb2e4a28e1fce2cb","6","null","null","false","","","","","","","1259","<p> Sometimes, you will come across a special kind of treasure chest that requires a password. </p>
            <img src='./assets/img/instructions/beep_chest.jpg' class='instructions-image'>","","instructions","","","","","","","","","","","","","",""
"learning-instructions","58","322683","0.0-3.0-11.0-0.1","pilot_wm_v1","664cef98bb2e4a28e1fce2cb","6","null","null","false","","","","","","","1289.5","<p> Your friend will send you the password using a series of beeps so that you can open the chest and earn treasure. </p>
            <p> You will hear two kinds of beeps, a high beep and a low beep. </p>
            <p> You should report the number of high beeps that you heard before seeing the chest. </p>
            <img src='./assets/img/instructions/listen.jpg' class='instructions-image'>","","instructions","","","","","","","","","","","","","",""
"learning-instructions","59","345661","0.0-3.0-11.0-0.2","pilot_wm_v1","664cef98bb2e4a28e1fce2cb","6","null","null","false","","","","","","","687.5","<p> For example, if you hear this series of beeps, you should report 4 as the password using the slider. </p>
            <p> After reporting a password for a chest, you should count the high beeps again starting from 0. </p>
            <p> Let's try practicing that now. </p>","","instructions","","","","","","","","","","","","","",""
"audio-button-response","60","353693","0.0-3.0-12.0-0.0-0.0","pilot_wm_v1","664cef98bb2e4a28e1fce2cb","6","null","null","false","","","","","","","null","./assets/audio/beeps/practice_6.wav","null","","","","","","","","","","","","","","",""
"html-slider-response","61","370197","0.0-3.0-12.0-0.0-1.0","pilot_wm_v1","664cef98bb2e4a28e1fce2cb","6","null","null","false","","","","","","","16498","<div style=""width:500px;"">
        <p>What is the password?</p>
        <img src='./assets/img/instructions/beep_chest.jpg' class='instructions-image'>","8","beep chest","","","","false","","","","50","0","8","","","",""
"comp-q","62","377767","0.0-3.0-12.0-0.0-2.0","pilot_wm_v1","664cef98bb2e4a28e1fce2cb","6","null","null","false","","","","","","","1642.1000000005588","<p>Incorrect! Please try again. Remember to count the number of high pitched beeps only. </p>","0","beep answer","","","","","","","","","","","","","",""
"audio-button-response","63","385763","0.0-3.0-12.0-0.1-0.1","pilot_wm_v1","664cef98bb2e4a28e1fce2cb","6","null","null","false","","","","","","","null","./assets/audio/beeps/practice_6.wav","null","","","","","","","","","","","","","","",""
"html-slider-response","64","388607","0.0-3.0-12.0-0.1-1.1","pilot_wm_v1","664cef98bb2e4a28e1fce2cb","6","null","null","false","","","","","","","2842","<div style=""width:500px;"">
        <p>What is the password?</p>
        <img src='./assets/img/instructions/beep_chest.jpg' class='instructions-image'>","6","beep chest","","","","false","","","","50","0","6","","","",""
"comp-q","65","394983","0.0-3.0-12.0-0.1-2.1","pilot_wm_v1","664cef98bb2e4a28e1fce2cb","6","null","null","false","","","","","","","1680.4000000003725","<p>Correct! There were 6 high pitched beeps before you saw the chest. </p>","0","beep answer","","","","","","","","","","","","","",""
"audio-button-response","66","403713","0.0-3.0-12.0-0.2-0.2","pilot_wm_v1","664cef98bb2e4a28e1fce2cb","6","null","null","false","","","","","","","null","./assets/audio/beeps/practice_4.wav","null","","","","","","","","","","","","","","",""
"html-slider-response","67","407135","0.0-3.0-12.0-0.2-1.2","pilot_wm_v1","664cef98bb2e4a28e1fce2cb","6","null","null","false","","","","","","","3420","<div style=""width:500px;"">
        <p>What is the password?</p>
        <img src='./assets/img/instructions/beep_chest.jpg' class='instructions-image'>","4","beep chest","","","","false","","","","50","0","4","","","",""
"comp-q","68","413331","0.0-3.0-12.0-0.2-2.2","pilot_wm_v1","664cef98bb2e4a28e1fce2cb","6","null","null","false","","","","","","","1547.2000000001863","<p>Correct! There were 4 high pitched beeps before you saw the chest. </p>","0","beep answer","","","","","","","","","","","","","",""
"learning-instructions","69","425857","0.0-3.0-13.0-0.0","pilot_wm_v1","664cef98bb2e4a28e1fce2cb","6","null","null","false","","","","","","","1573.5","<p> Good job! In the real game we will not tell you if you entered the right password. </p>
            <p> Do your best, the treasure you earn from these chests will also give you extra bonus money. </p>","","instructions","","","","","","","","","","","","","",""
"learning-instructions","70","432488","0.0-3.0-15.0-0.0-0.0","pilot_wm_v1","664cef98bb2e4a28e1fce2cb","6","null","null","false","","","","","","","1373.6000000005588","<p> Now, you will practice a shortened version of the game to get a sense of how it all fits together. </p>","","instructions","","","","","","","","","","","","","",""
"learning-instructions","71","436531","0.0-3.0-15.0-0.0-0.1","pilot_wm_v1","664cef98bb2e4a28e1fce2cb","6","null","null","false","","","","","","","857.3000000007451","<p>This time you are searching for treasure in outer space.</p>","","instructions","","","","","","","","","","","","","",""
"learning-instructions","72","451884","0.0-3.0-15.0-1.0-0.0","pilot_wm_v1","664cef98bb2e4a28e1fce2cb","6","null","null","false","","","","","","","600.7000000001863","<p> Remember, when you see a picture of the place, use the up and down keys to <b>find an animal</b>.</p>
            <p> When you encounter an animal, you should use the left and right keys to <b>select a treasure chest</b>.</p>
            <p> Don't forget to look out for the robber! </p>","","instructions","","","","","","","","","","","","","",""
"revaluation","73","457920","0.0-3.0-15.0-2.0-0.0","pilot_wm_v1","664cef98bb2e4a28e1fce2cb","6","null","null","false","","false","","","","","[910.2999999998137,437.09999999962747]","./assets/img/space/11.jpg","[""ArrowUp"",""ArrowLeft""]","practice block","space","3","{""ArrowUp,ArrowLeft"":3,""ArrowUp,ArrowRight"":36,""ArrowDown,ArrowLeft"":15,""ArrowDown,ArrowRight"":23}","false","ArrowUp,ArrowLeft","false","","","","","","","",""
"html-keyboard-response","74","458435","0.0-3.0-15.0-2.0-1.0","pilot_wm_v1","664cef98bb2e4a28e1fce2cb","6","null","null","false","","","","","","","null","<div style=""font-size:60px;"">+</div>","null","fixation","","","","","","","","","","","","","",""
"revaluation","75","464471","0.0-3.0-15.0-2.0-0.1","pilot_wm_v1","664cef98bb2e4a28e1fce2cb","6","null","null","false","","false","","","","","[575.0999999996275,296.40000000037253]","./assets/img/space/12.jpg","[""ArrowDown"",""ArrowRight""]","practice block","space","23","{""ArrowUp,ArrowLeft"":3,""ArrowUp,ArrowRight"":36,""ArrowDown,ArrowLeft"":15,""ArrowDown,ArrowRight"":23}","false","ArrowDown,ArrowRight","false","","","","","","","",""
"html-keyboard-response","76","464986","0.0-3.0-15.0-2.0-1.1","pilot_wm_v1","664cef98bb2e4a28e1fce2cb","6","null","null","false","","","","","","","null","<div style=""font-size:60px;"">+</div>","null","fixation","","","","","","","","","","","","","",""
"revaluation","77","471017","0.0-3.0-15.0-2.0-0.2","pilot_wm_v1","664cef98bb2e4a28e1fce2cb","6","null","null","false","","false","","","","","[736.2999999998137,276.70000000018626]","./assets/img/space/13.jpg","[""ArrowDown"",""ArrowRight""]","practice block","space","23","{""ArrowUp,ArrowLeft"":3,""ArrowUp,ArrowRight"":36,""ArrowDown,ArrowLeft"":15,""ArrowDown,ArrowRight"":23}","false","ArrowDown,ArrowRight","false","","","","","","","",""
"html-keyboard-response","78","471530","0.0-3.0-15.0-2.0-1.2","pilot_wm_v1","664cef98bb2e4a28e1fce2cb","6","null","null","false","","","","","","","null","<div style=""font-size:60px;"">+</div>","null","fixation","","","","","","","","","","","","","",""
"revaluation","79","477554","0.0-3.0-15.0-2.0-0.3","pilot_wm_v1","664cef98bb2e4a28e1fce2cb","6","null","null","false","","false","","","","","[685.5999999996275,273.29999999981374]","./assets/img/space/14.jpg","[""ArrowDown"",""ArrowRight""]","practice block","space","23","{""ArrowUp,ArrowLeft"":3,""ArrowUp,ArrowRight"":36,""ArrowDown,ArrowLeft"":15,""ArrowDown,ArrowRight"":23}","false","ArrowDown,ArrowRight","false","","","","","","","",""
"html-keyboard-response","80","478061","0.0-3.0-15.0-2.0-1.3","pilot_wm_v1","664cef98bb2e4a28e1fce2cb","6","null","null","false","","","","","","","null","<div style=""font-size:60px;"">+</div>","null","fixation","","","","","","","","","","","","","",""
"revaluation","81","484068","0.0-3.0-15.0-2.0-0.4","pilot_wm_v1","664cef98bb2e4a28e1fce2cb","6","null","null","false","","false","","","","","[727.2999999998137,321.3999999994412]","./assets/img/space/11.jpg","[""ArrowDown"",""ArrowRight""]","practice block","space","23","{""ArrowUp,ArrowLeft"":3,""ArrowUp,ArrowRight"":36,""ArrowDown,ArrowLeft"":15,""ArrowDown,ArrowRight"":23}","false","ArrowDown,ArrowRight","false","","","","","","","",""
"html-keyboard-response","82","484569","0.0-3.0-15.0-2.0-1.4","pilot_wm_v1","664cef98bb2e4a28e1fce2cb","6","null","null","false","","","","","","","null","<div style=""font-size:60px;"">+</div>","null","fixation","","","","","","","","","","","","","",""
"revaluation","83","490580","0.0-3.0-15.0-2.0-0.5","pilot_wm_v1","664cef98bb2e4a28e1fce2cb","6","null","null","false","","false","","","","","[603.2000000001863,119.6000000005588]","./assets/img/space/12.jpg","[""ArrowUp"",""ArrowRight""]","practice block","space","36","{""ArrowUp,ArrowLeft"":3,""ArrowUp,ArrowRight"":36,""ArrowDown,ArrowLeft"":15,""ArrowDown,ArrowRight"":23}","true","ArrowUp,ArrowRight","false","","","","","","","",""
"html-keyboard-response","84","491082","0.0-3.0-15.0-2.0-1.5","pilot_wm_v1","664cef98bb2e4a28e1fce2cb","6","null","null","false","","","","","","","null","<div style=""font-size:60px;"">+</div>","null","fixation","","","","","","","","","","","","","",""
"revaluation","85","497087","0.0-3.0-15.0-2.0-0.6","pilot_wm_v1","664cef98bb2e4a28e1fce2cb","6","null","null","false","","false","","","","","[578.5,262.90000000037253]","./assets/img/space/13.jpg","[""ArrowUp"",""ArrowRight""]","practice block","space","36","{""ArrowUp,ArrowLeft"":3,""ArrowUp,ArrowRight"":36,""ArrowDown,ArrowLeft"":15,""ArrowDown,ArrowRight"":23}","true","ArrowUp,ArrowRight","false","","","","","","","",""
"html-keyboard-response","86","497589","0.0-3.0-15.0-2.0-1.6","pilot_wm_v1","664cef98bb2e4a28e1fce2cb","6","null","null","false","","","","","","","null","<div style=""font-size:60px;"">+</div>","null","fixation","","","","","","","","","","","","","",""
"revaluation","87","503593","0.0-3.0-15.0-2.0-0.7","pilot_wm_v1","664cef98bb2e4a28e1fce2cb","6","null","null","false","","false","","","","","[487.40000000037253,222.79999999981374]","./assets/img/space/14.jpg","[""ArrowUp"",""ArrowRight""]","practice block","space","36","{""ArrowUp,ArrowLeft"":3,""ArrowUp,ArrowRight"":36,""ArrowDown,ArrowLeft"":15,""ArrowDown,ArrowRight"":23}","true","ArrowUp,ArrowRight","false","","","","","","","",""
"html-keyboard-response","88","504094","0.0-3.0-15.0-2.0-1.7","pilot_wm_v1","664cef98bb2e4a28e1fce2cb","6","null","null","false","","","","","","","null","<div style=""font-size:60px;"">+</div>","null","fixation","","","","","","","","","","","","","",""
"revaluation","89","508100","0.0-3.0-15.0-2.0-0.8","pilot_wm_v1","664cef98bb2e4a28e1fce2cb","6","null","null","false","","false","","","","","[614.1000000005588]","./assets/img/space/catch/3.jpg","[""spaceBar""]","practice block","space","0","{""ArrowUp,ArrowLeft"":3,""ArrowUp,ArrowRight"":36,""ArrowDown,ArrowLeft"":15,""ArrowDown,ArrowRight"":23}","true","spaceBar","true","","","","","","","",""
"html-keyboard-response","90","508601","0.0-3.0-15.0-2.0-1.8","pilot_wm_v1","664cef98bb2e4a28e1fce2cb","6","null","null","false","","","","","","","null","<div style=""font-size:60px;"">+</div>","null","fixation","","","","","","","","","","","","","",""
"learning-instructions","91","522773","0.0-3.0-15.0-3.0-0.0","pilot_wm_v1","664cef98bb2e4a28e1fce2cb","6","null","null","false","","","","","","","646.1000000005588","<p> Now, you will travel with a friend who will choose whether you go up or down first. </p>
            <p> On these turns, you will just see the animal that they found. You will still get to choose which chest to search for treasure.</p>","","instructions","","","","","","","","","","","","","",""
"learning-instructions","92","534836","0.0-3.0-15.0-3.0-0.1","pilot_wm_v1","664cef98bb2e4a28e1fce2cb","6","null","null","false","","","","","","","437.59999999962747","<p> In this part, you will also hear beeps from your friend and see special treasure chests that need a password. </p>
            <p> Do your best to count the high beeps <b>and</b> choose between each animals' chests at the same time.</p>
            <img src='./assets/img/instructions/beep_chest.jpg' class='instructions-image'>","","instructions","","","","","","","","","","","","","",""
"revaluation","93","538855","0.0-3.0-15.0-4.0-0.0","pilot_wm_v1","664cef98bb2e4a28e1fce2cb","6","null","null","false","","false","","","","","[863.2999999998137]","./assets/img/space/animals/cat.jpg","[""ArrowRight""]","practice block","space","36","{""ArrowUp,ArrowLeft"":3,""ArrowUp,ArrowRight"":36,""ArrowDown,ArrowLeft"":15,""ArrowDown,ArrowRight"":23}","true","ArrowUp,ArrowRight","","[""19_0""]","","","","0","","",""
"html-keyboard-response","94","539372","0.0-3.0-15.0-4.0-1.0","pilot_wm_v1","664cef98bb2e4a28e1fce2cb","6","null","null","false","","","","","","","null","<div style=""font-size:60px;"">+</div>","null","fixation","","","","","","","","","","","","","",""
"revaluation","95","543388","0.0-3.0-15.0-4.0-0.1","pilot_wm_v1","664cef98bb2e4a28e1fce2cb","6","null","null","false","","true","","","","","[]","./assets/img/space/animals/rabbit.jpg","[]","practice block","space","-5","{""ArrowUp,ArrowLeft"":3,""ArrowUp,ArrowRight"":36,""ArrowDown,ArrowLeft"":15,""ArrowDown,ArrowRight"":23}","false","ArrowDown","","[""21_1""]","","","","1","","",""
"html-keyboard-response","96","543903","0.0-3.0-15.0-4.0-1.1","pilot_wm_v1","664cef98bb2e4a28e1fce2cb","6","null","null","false","","","","","","","null","<div style=""font-size:60px;"">+</div>","null","fixation","","","","","","","","","","","","","",""
"revaluation","97","547919","0.0-3.0-15.0-4.0-0.2","pilot_wm_v1","664cef98bb2e4a28e1fce2cb","6","null","null","false","","false","","","","","[556.3000000007451]","./assets/img/space/animals/rabbit.jpg","[""ArrowRight""]","practice block","space","23","{""ArrowUp,ArrowLeft"":3,""ArrowUp,ArrowRight"":36,""ArrowDown,ArrowLeft"":15,""ArrowDown,ArrowRight"":23}","true","ArrowDown,ArrowRight","","[""22_3""]","","","","2","","",""
"html-keyboard-response","98","548429","0.0-3.0-15.0-4.0-1.2","pilot_wm_v1","664cef98bb2e4a28e1fce2cb","6","null","null","false","","","","","","","null","<div style=""font-size:60px;"">+</div>","null","fixation","","","","","","","","","","","","","",""
"revaluation","99","552441","0.0-3.0-15.0-4.0-0.3","pilot_wm_v1","664cef98bb2e4a28e1fce2cb","6","null","null","false","","false","","","","","[722.2999999998137]","./assets/img/space/animals/cat.jpg","[""ArrowLeft""]","practice block","space","3","{""ArrowUp,ArrowLeft"":3,""ArrowUp,ArrowRight"":36,""ArrowDown,ArrowLeft"":15,""ArrowDown,ArrowRight"":23}","false","ArrowUp,ArrowLeft","","[""20_0""]","","","","3","","",""
"html-keyboard-response","100","552953","0.0-3.0-15.0-4.0-1.3","pilot_wm_v1","664cef98bb2e4a28e1fce2cb","6","null","null","false","","","","","","","null","<div style=""font-size:60px;"">+</div>","null","fixation","","","","","","","","","","","","","",""
"html-slider-response","101","558299","0.0-3.0-15.0-4.0-2.3-0.3","pilot_wm_v1","664cef98bb2e4a28e1fce2cb","6","null","null","false","","","","","","","5345","<div style=""width:500px;"">
        <p>What is the password?</p>
        <img src='./assets/img/instructions/beep_chest.jpg' class='instructions-image'>","6","beep chest","","","","false","","","","50","82","76","","","",""
"learning-instructions","102","567140","0.0-3.0-15.0-6.0-0.0","pilot_wm_v1","664cef98bb2e4a28e1fce2cb","6","null","null","false","","","","","","","null","<p> You have almost finished this part of the game! </p>
            <p> We are going to ask you to make a few more choices. </p>","","instructions","","","","","","","","","","","","","",""
"learning-instructions","103","583150","0.0-3.0-15.0-6.0-0.1","pilot_wm_v1","664cef98bb2e4a28e1fce2cb","6","null","null","false","","","","","","","null","<p> First, you need to decide whether to go up or down. When you see each picture, use the arrow keys to make your choice. </p>
            <p><b>You will not see which animal you found, but try to get to the one that will give you the most treasure.</b></p>","","instructions","","","","","","","","","","","","","",""
"html-keyboard-response","104","584160","0.0-3.0-15.0-7.0-0.0","pilot_wm_v1","664cef98bb2e4a28e1fce2cb","6","null","null","false","","","","","","","null","<div style=""font-size:100px;color:red;"">Starting in...</div>","null","","","","","","","","","","","","","","",""
"html-keyboard-response","105","585174","0.0-3.0-15.0-7.0-1.0","pilot_wm_v1","664cef98bb2e4a28e1fce2cb","6","null","null","false","","","","","","","null","<div style=""font-size:200px;color:red;"">3</div>","null","","","","","","","","","","","","","","",""
"html-keyboard-response","106","586185","0.0-3.0-15.0-7.0-2.0","pilot_wm_v1","664cef98bb2e4a28e1fce2cb","6","null","null","false","","","","","","","null","<div style=""font-size:200px;color:red;"">2</div>","null","","","","","","","","","","","","","","",""
"html-keyboard-response","107","587194","0.0-3.0-15.0-7.0-3.0","pilot_wm_v1","664cef98bb2e4a28e1fce2cb","6","null","null","false","","","","","","","null","<div style=""font-size:200px;color:red;"">1</div>","null","","","","","","","","","","","","","","",""
"revaluation","108","587442","0.0-3.0-15.0-8.0","pilot_wm_v1","664cef98bb2e4a28e1fce2cb","6","null","null","false","","false","","","","","[245.5]","./assets/img/space/15.jpg","[""ArrowUp""]","practice block","space","0","{""ArrowUp,ArrowLeft"":3,""ArrowUp,ArrowRight"":36,""ArrowDown,ArrowLeft"":15,""ArrowDown,ArrowRight"":23}","true","ArrowUp","false","","","","","","","",""
"html-keyboard-response","109","587957","0.0-3.0-15.0-9.0","pilot_wm_v1","664cef98bb2e4a28e1fce2cb","6","null","null","false","","","","","","","null","<div style=""font-size:60px;"">+</div>","null","fixation","","","","","","","","","","","","","",""
"learning-instructions","110","601330","0.0-3.0-15.0-10.0-0.0","pilot_wm_v1","664cef98bb2e4a28e1fce2cb","6","null","null","false","","","","","","","null","<p> Now you will see the animals again and can search their chests for treasure. </p>
            <p> This time, you will not see how much treasure you earned, but you will earn more bonus money for making better choices. </p>","","instructions","","","","","","","","","","","","","",""
"html-keyboard-response","111","602339","0.0-3.0-15.0-11.0-0.0","pilot_wm_v1","664cef98bb2e4a28e1fce2cb","6","null","null","false","","","","","","","null","<div style=""font-size:100px;color:red;"">Starting in...</div>","null","","","","","","","","","","","","","","",""
"html-keyboard-response","112","603352","0.0-3.0-15.0-11.0-1.0","pilot_wm_v1","664cef98bb2e4a28e1fce2cb","6","null","null","false","","","","","","","null","<div style=""font-size:200px;color:red;"">3</div>","null","","","","","","","","","","","","","","",""
"html-keyboard-response","113","604364","0.0-3.0-15.0-11.0-2.0","pilot_wm_v1","664cef98bb2e4a28e1fce2cb","6","null","null","false","","","","","","","null","<div style=""font-size:200px;color:red;"">2</div>","null","","","","","","","","","","","","","","",""
"html-keyboard-response","114","605376","0.0-3.0-15.0-11.0-3.0","pilot_wm_v1","664cef98bb2e4a28e1fce2cb","6","null","null","false","","","","","","","null","<div style=""font-size:200px;color:red;"">1</div>","null","","","","","","","","","","","","","","",""
"revaluation","115","605941","0.0-3.0-15.0-12.0-0.0","pilot_wm_v1","664cef98bb2e4a28e1fce2cb","6","null","null","false","","false","","","","","[562.2999999998137]","./assets/img/space/animals/cat.jpg","[""ArrowRight""]","practice block","space","0","{""ArrowUp,ArrowLeft"":3,""ArrowUp,ArrowRight"":36,""ArrowDown,ArrowLeft"":15,""ArrowDown,ArrowRight"":23}","true","ArrowUp,ArrowRight","","","","","","","","",""
"html-keyboard-response","116","606450","0.0-3.0-15.0-12.0-1.0","pilot_wm_v1","664cef98bb2e4a28e1fce2cb","6","null","null","false","","","","","","","null","<div style=""font-size:60px;"">+</div>","null","fixation","","","","","","","","","","","","","",""
"revaluation","117","607107","0.0-3.0-15.0-12.0-0.1","pilot_wm_v1","664cef98bb2e4a28e1fce2cb","6","null","null","false","","false","","","","","[654.0999999996275]","./assets/img/space/animals/rabbit.jpg","[""ArrowRight""]","practice block","space","0","{""ArrowUp,ArrowLeft"":3,""ArrowUp,ArrowRight"":36,""ArrowDown,ArrowLeft"":15,""ArrowDown,ArrowRight"":23}","true","ArrowDown,ArrowRight","","","","","","","","",""
"html-keyboard-response","118","607617","0.0-3.0-15.0-12.0-1.1","pilot_wm_v1","664cef98bb2e4a28e1fce2cb","6","null","null","false","","","","","","","null","<div style=""font-size:60px;"">+</div>","null","fixation","","","","","","","","","","","","","",""
"learning-instructions","119","613769","0.0-3.0-16.0-0.0","pilot_wm_v1","664cef98bb2e4a28e1fce2cb","6","null","null","false","","","","","","","1581.5999999996275","<p> Before you start, we're going to ask you a few questions about how the game works. </p>","","instructions","","","","","","","","","","","","","",""
"comp-q","120","620281","0.0-3.0-17.0-0.0-0.0","pilot_wm_v1","664cef98bb2e4a28e1fce2cb","6","null","null","false","","","","","","","943.5","<p> <b> True or False? </b> </p>
            <p> There can be 50 pieces of treasure in a given animal's chest. </p>","1","comp_question","","","","true","","","","","","","","","",""
"comp-q","121","633196","0.0-3.0-17.0-0.0-1.0","pilot_wm_v1","664cef98bb2e4a28e1fce2cb","6","null","null","false","","","","","","","6258.100000000559","<p> <b> That's right! </b> The amount of treasure in each chest can range from 0 to 40 pieces. </p>","0","comp_answer","","","","","","","","","","","","","",""
"comp-q","122","641863","0.0-3.0-17.0-0.1-0.1","pilot_wm_v1","664cef98bb2e4a28e1fce2cb","6","null","null","false","","","","","","","1555.5","<p> <b> True or False? </b> </p><p> In this game, all animals have the same amount of treasure in their left and right chests. </p>","1","comp_question","","","","true","","","","","","","","","",""
"comp-q","123","650828","0.0-3.0-17.0-0.1-1.1","pilot_wm_v1","664cef98bb2e4a28e1fce2cb","6","null","null","false","","","","","","","3740.199999999255","<p> <b> That's right! </b> Animals have different amounts of treasure in their treasure chests. </p>","0","comp_answer","","","","","","","","","","","","","",""
"comp-q","124","657422","0.0-3.0-17.0-0.2-0.2","pilot_wm_v1","664cef98bb2e4a28e1fce2cb","6","null","null","false","","","","","","","753.8000000007451","<p> <b> True or False? </b> </p><p> The same animal will always be there if you go up in the same place. </p>","0","comp_question","","","","true","","","","","","","","","",""
"comp-q","125","666149","0.0-3.0-17.0-0.2-1.2","pilot_wm_v1","664cef98bb2e4a28e1fce2cb","6","null","null","false","","","","","","","2291.199999999255","<p> <b> That's right! </b> One animal lives in the upper part and one lives in the lower part of every place. </p>","0","comp_answer","","","","","","","","","","","","","",""
"comp-q","126","672595","0.0-3.0-17.0-0.3-0.3","pilot_wm_v1","664cef98bb2e4a28e1fce2cb","6","null","null","false","","","","","","","937.1000000005588","<p> <b> True or False? </b> </p><p> If you see a different picture, it means you are in a new place. </p>","0","comp_question","","","","false","","","","","","","","","",""
"comp-q","127","684146","0.0-3.0-17.0-0.3-1.3","pilot_wm_v1","664cef98bb2e4a28e1fce2cb","6","null","null","false","","","","","","","457.80000000074506","<p> <b>Incorrect.</b> Lots of different images may show the same place. For example,  you may see three different images that all remind you that you are in outer space. </p>","0","comp_answer","","","","","","","","","","","","","",""
"comp-q","128","690218","0.0-3.0-17.0-0.4-0.4","pilot_wm_v1","664cef98bb2e4a28e1fce2cb","6","null","null","false","","","","","","","569.7000000001863","<p> <b> True or False? </b> </p><p> If you see a different picture, it means you are in a new place. </p>","1","comp_question","","","","true","","","","","","","","","",""
"comp-q","129","703053","0.0-3.0-17.0-0.4-1.4","pilot_wm_v1","664cef98bb2e4a28e1fce2cb","6","null","null","false","","","","","","","1626.2000000001863","<p> <b> That's right! </b> Lots of different images may show the same place. For example,  you may see three different images that all remind you that you are in outer space. </p>","0","comp_answer","","","","","","","","","","","","","",""
"learning-instructions","130","713762","0.0-3.0-18.0-0.0","pilot_wm_v1","664cef98bb2e4a28e1fce2cb","6","null","null","false","","","","","","","864.7000000001863","<p> Good job. Remember to do your best because the amount of treasure you earn will be converted into bonus money. </p>
            <p> It’s time to start the real game! </p>","","instructions","","","","","","","","","","","","","",""
"learning-instructions","131","717872","0.0-4.0-0.0-0.0","pilot_wm_v1","664cef98bb2e4a28e1fce2cb","6","null","null","false","","","","","","","1413.300000000745","<p> This time you are searching for treasure in the <b>ocean</b>.</p>","","instructions","","","","","","","","","","","","","",""
"learning-instructions","132","736564","0.0-4.0-0.0-0.1","pilot_wm_v1","664cef98bb2e4a28e1fce2cb","6","null","null","false","","","","","","","1416.5999999996275","<p><b>New</b> animals with <b>new</b> treasure chests live here. You need to explore to discover where the animal with the best treasure chest is.</p>
                    <p> Like before, once you figure out which animal has the chest with the most treasure, you should try to get to that animal and select that chest! </p>","","instructions","","","","","","","","","","","","","",""
"learning-instructions","133","752310","0.0-4.0-1.0-0.0","pilot_wm_v1","664cef98bb2e4a28e1fce2cb","6","null","null","false","","","","","","","1022.2999999998137","<p> Remember, when you see a picture of the place, use the up and down keys to <b>find an animal</b>.</p>
            <p> When you encounter an animal, you should use the left and right keys to <b>select a treasure chest</b>.</p>
            <p> Don't forget to look out for the robber! </p>","","instructions","","","","","","","","","","","","","",""
"revaluation","134","758338","0.0-4.0-2.0-0.0","pilot_wm_v1","664cef98bb2e4a28e1fce2cb","6","null","null","false","","false","","","","","[834.7999999998137,247.20000000018626]","./assets/img/ocean/memory/15.jpg","[""ArrowDown"",""ArrowLeft""]","value training","ocean","8","{""ArrowUp,ArrowLeft"":23,""ArrowUp,ArrowRight"":10,""ArrowDown,ArrowLeft"":8,""ArrowDown,ArrowRight"":30}","false","ArrowDown,ArrowLeft","false","","","","","0","revaluation","1",""
"html-keyboard-response","135","758842","0.0-4.0-2.0-1.0","pilot_wm_v1","664cef98bb2e4a28e1fce2cb","6","null","null","false","","","","","","","null","<div style=""font-size:60px;"">+</div>","null","fixation","","","","","","","","","","","1","","",""
"revaluation","136","764870","0.0-4.0-2.0-0.1","pilot_wm_v1","664cef98bb2e4a28e1fce2cb","6","null","null","false","","false","","","","","[378.09999999962747,315.29999999981374]","./assets/img/ocean/memory/5.jpg","[""ArrowUp"",""ArrowRight""]","value training","ocean","10","{""ArrowUp,ArrowLeft"":23,""ArrowUp,ArrowRight"":10,""ArrowDown,ArrowLeft"":8,""ArrowDown,ArrowRight"":30}","false","ArrowUp,ArrowRight","false","","","","","2","revaluation","1",""
"html-keyboard-response","137","765384","0.0-4.0-2.0-1.1","pilot_wm_v1","664cef98bb2e4a28e1fce2cb","6","null","null","false","","","","","","","null","<div style=""font-size:60px;"">+</div>","null","fixation","","","","","","","","","","","3","","",""
"revaluation","138","769407","0.0-4.0-2.0-0.2","pilot_wm_v1","664cef98bb2e4a28e1fce2cb","6","null","null","false","","false","","","","","[214]","./assets/img/ocean/catch/6.jpg","[""ArrowDown""]","value training","ocean","-10","{""ArrowUp,ArrowLeft"":23,""ArrowUp,ArrowRight"":10,""ArrowDown,ArrowLeft"":8,""ArrowDown,ArrowRight"":30}","false","ArrowDown","true","","","","","4","revaluation","1",""
"html-keyboard-response","139","769917","0.0-4.0-2.0-1.2","pilot_wm_v1","664cef98bb2e4a28e1fce2cb","6","null","null","false","","","","","","","null","<div style=""font-size:60px;"">+</div>","null","fixation","","","","","","","","","","","5","","",""
"revaluation","140","775939","0.0-4.0-2.0-0.3","pilot_wm_v1","664cef98bb2e4a28e1fce2cb","6","null","null","false","","false","","","","","[649.7999999998137,288.6000000005588]","./assets/img/ocean/memory/31.jpg","[""ArrowDown"",""ArrowRight""]","value training","ocean","30","{""ArrowUp,ArrowLeft"":23,""ArrowUp,ArrowRight"":10,""ArrowDown,ArrowLeft"":8,""ArrowDown,ArrowRight"":30}","true","ArrowDown,ArrowRight","false","","","","","6","revaluation","1",""
"html-keyboard-response","141","776453","0.0-4.0-2.0-1.3","pilot_wm_v1","664cef98bb2e4a28e1fce2cb","6","null","null","false","","","","","","","null","<div style=""font-size:60px;"">+</div>","null","fixation","","","","","","","","","","","7","","",""
"revaluation","142","782482","0.0-4.0-2.0-0.4","pilot_wm_v1","664cef98bb2e4a28e1fce2cb","6","null","null","false","","false","","","","","[958.2000000001863,229.29999999981374]","./assets/img/ocean/memory/33.jpg","[""ArrowDown"",""ArrowRight""]","value training","ocean","30","{""ArrowUp,ArrowLeft"":23,""ArrowUp,ArrowRight"":10,""ArrowDown,ArrowLeft"":8,""ArrowDown,ArrowRight"":30}","true","ArrowDown,ArrowRight","false","","","","","8","revaluation","1",""
"html-keyboard-response","143","782983","0.0-4.0-2.0-1.4","pilot_wm_v1","664cef98bb2e4a28e1fce2cb","6","null","null","false","","","","","","","null","<div style=""font-size:60px;"">+</div>","null","fixation","","","","","","","","","","","9","","",""
"revaluation","144","786987","0.0-4.0-2.0-0.5","pilot_wm_v1","664cef98bb2e4a28e1fce2cb","6","null","null","false","","false","","","","","[616.2000000001863]","./assets/img/ocean/catch/1.jpg","[""spaceBar""]","value training","ocean","0","{""ArrowUp,ArrowLeft"":23,""ArrowUp,ArrowRight"":10,""ArrowDown,ArrowLeft"":8,""ArrowDown,ArrowRight"":30}","true","spaceBar","true","","","","","10","revaluation","1",""
"html-keyboard-response","145","787490","0.0-4.0-2.0-1.5","pilot_wm_v1","664cef98bb2e4a28e1fce2cb","6","null","null","false","","","","","","","null","<div style=""font-size:60px;"">+</div>","null","fixation","","","","","","","","","","","11","","",""
"revaluation","146","793494","0.0-4.0-2.0-0.6","pilot_wm_v1","664cef98bb2e4a28e1fce2cb","6","null","null","false","","false","","","","","[314.59999999962747,269.19999999925494]","./assets/img/ocean/memory/27.jpg","[""ArrowUp"",""ArrowLeft""]","value training","ocean","23","{""ArrowUp,ArrowLeft"":23,""ArrowUp,ArrowRight"":10,""ArrowDown,ArrowLeft"":8,""ArrowDown,ArrowRight"":30}","false","ArrowUp,ArrowLeft","false","","","","","12","revaluation","1",""
"html-keyboard-response","147","793996","0.0-4.0-2.0-1.6","pilot_wm_v1","664cef98bb2e4a28e1fce2cb","6","null","null","false","","","","","","","null","<div style=""font-size:60px;"">+</div>","null","fixation","","","","","","","","","","","13","","",""
"revaluation","148","800001","0.0-4.0-2.0-0.7","pilot_wm_v1","664cef98bb2e4a28e1fce2cb","6","null","null","false","","false","","","","","[558.4000000003725,244.90000000037253]","./assets/img/ocean/memory/30.jpg","[""ArrowDown"",""ArrowRight""]","value training","ocean","30","{""ArrowUp,ArrowLeft"":23,""ArrowUp,ArrowRight"":10,""ArrowDown,ArrowLeft"":8,""ArrowDown,ArrowRight"":30}","true","ArrowDown,ArrowRight","false","","","","","14","revaluation","1",""
"html-keyboard-response","149","800503","0.0-4.0-2.0-1.7","pilot_wm_v1","664cef98bb2e4a28e1fce2cb","6","null","null","false","","","","","","","null","<div style=""font-size:60px;"">+</div>","null","fixation","","","","","","","","","","","15","","",""
"revaluation","150","804508","0.0-4.0-2.0-0.8","pilot_wm_v1","664cef98bb2e4a28e1fce2cb","6","null","null","false","","false","","","","","[361]","./assets/img/ocean/catch/2.jpg","[""ArrowDown""]","value training","ocean","-10","{""ArrowUp,ArrowLeft"":23,""ArrowUp,ArrowRight"":10,""ArrowDown,ArrowLeft"":8,""ArrowDown,ArrowRight"":30}","false","ArrowDown","true","","","","","16","revaluation","1",""
"html-keyboard-response","151","805009","0.0-4.0-2.0-1.8","pilot_wm_v1","664cef98bb2e4a28e1fce2cb","6","null","null","false","","","","","","","null","<div style=""font-size:60px;"">+</div>","null","fixation","","","","","","","","","","","17","","",""
"revaluation","152","811015","0.0-4.0-2.0-0.9","pilot_wm_v1","664cef98bb2e4a28e1fce2cb","6","null","null","false","","false","","","","","[695.9000000003725,226.70000000018626]","./assets/img/ocean/memory/28.jpg","[""ArrowDown"",""ArrowRight""]","value training","ocean","30","{""ArrowUp,ArrowLeft"":23,""ArrowUp,ArrowRight"":10,""ArrowDown,ArrowLeft"":8,""ArrowDown,ArrowRight"":30}","true","ArrowDown,ArrowRight","false","","","","","18","revaluation","1",""
"html-keyboard-response","153","811517","0.0-4.0-2.0-1.9","pilot_wm_v1","664cef98bb2e4a28e1fce2cb","6","null","null","false","","","","","","","null","<div style=""font-size:60px;"">+</div>","null","fixation","","","","","","","","","","","19","","",""
"revaluation","154","815520","0.0-4.0-2.0-0.10","pilot_wm_v1","664cef98bb2e4a28e1fce2cb","6","null","null","false","","false","","","","","[604.1000000005588]","./assets/img/ocean/catch/4.jpg","[""spaceBar""]","value training","ocean","0","{""ArrowUp,ArrowLeft"":23,""ArrowUp,ArrowRight"":10,""ArrowDown,ArrowLeft"":8,""ArrowDown,ArrowRight"":30}","true","spaceBar","true","","","","","20","revaluation","1",""
"html-keyboard-response","155","816021","0.0-4.0-2.0-1.10","pilot_wm_v1","664cef98bb2e4a28e1fce2cb","6","null","null","false","","","","","","","null","<div style=""font-size:60px;"">+</div>","null","fixation","","","","","","","","","","","21","","",""
"revaluation","156","820025","0.0-4.0-2.0-0.11","pilot_wm_v1","664cef98bb2e4a28e1fce2cb","6","null","null","false","","false","","","","","[447.59999999962747]","./assets/img/ocean/catch/0.jpg","[""spaceBar""]","value training","ocean","0","{""ArrowUp,ArrowLeft"":23,""ArrowUp,ArrowRight"":10,""ArrowDown,ArrowLeft"":8,""ArrowDown,ArrowRight"":30}","true","spaceBar","true","","","","","22","revaluation","1",""
"html-keyboard-response","157","820526","0.0-4.0-2.0-1.11","pilot_wm_v1","664cef98bb2e4a28e1fce2cb","6","null","null","false","","","","","","","null","<div style=""font-size:60px;"">+</div>","null","fixation","","","","","","","","","","","23","","",""
"revaluation","158","826532","0.0-4.0-2.0-0.12","pilot_wm_v1","664cef98bb2e4a28e1fce2cb","6","null","null","false","","false","","","","","[520.5,263.19999999925494]","./assets/img/ocean/memory/37.jpg","[""ArrowDown"",""ArrowRight""]","value training","ocean","30","{""ArrowUp,ArrowLeft"":23,""ArrowUp,ArrowRight"":10,""ArrowDown,ArrowLeft"":8,""ArrowDown,ArrowRight"":30}","true","ArrowDown,ArrowRight","false","","","","","24","revaluation","1",""
"html-keyboard-response","159","827033","0.0-4.0-2.0-1.12","pilot_wm_v1","664cef98bb2e4a28e1fce2cb","6","null","null","false","","","","","","","null","<div style=""font-size:60px;"">+</div>","null","fixation","","","","","","","","","","","25","","",""
"revaluation","160","833038","0.0-4.0-2.0-0.13","pilot_wm_v1","664cef98bb2e4a28e1fce2cb","6","null","null","false","","false","","","","","[621.7999999998137,315.70000000018626]","./assets/img/ocean/memory/20.jpg","[""ArrowDown"",""ArrowRight""]","value training","ocean","30","{""ArrowUp,ArrowLeft"":23,""ArrowUp,ArrowRight"":10,""ArrowDown,ArrowLeft"":8,""ArrowDown,ArrowRight"":30}","true","ArrowDown,ArrowRight","false","","","","","26","revaluation","1",""
"html-keyboard-response","161","833539","0.0-4.0-2.0-1.13","pilot_wm_v1","664cef98bb2e4a28e1fce2cb","6","null","null","false","","","","","","","null","<div style=""font-size:60px;"">+</div>","null","fixation","","","","","","","","","","","27","","",""
"revaluation","162","839544","0.0-4.0-2.0-0.14","pilot_wm_v1","664cef98bb2e4a28e1fce2cb","6","null","null","false","","false","","","","","[457.70000000018626,268.20000000018626]","./assets/img/ocean/memory/40.jpg","[""ArrowDown"",""ArrowRight""]","value training","ocean","30","{""ArrowUp,ArrowLeft"":23,""ArrowUp,ArrowRight"":10,""ArrowDown,ArrowLeft"":8,""ArrowDown,ArrowRight"":30}","true","ArrowDown,ArrowRight","false","","","","","28","revaluation","1",""
"html-keyboard-response","163","840045","0.0-4.0-2.0-1.14","pilot_wm_v1","664cef98bb2e4a28e1fce2cb","6","null","null","false","","","","","","","null","<div style=""font-size:60px;"">+</div>","null","fixation","","","","","","","","","","","29","","",""
"revaluation","164","846050","0.0-4.0-2.0-0.15","pilot_wm_v1","664cef98bb2e4a28e1fce2cb","6","null","null","false","","false","","","","","[676.7000000001863,260.40000000037253]","./assets/img/ocean/memory/24.jpg","[""ArrowDown"",""ArrowRight""]","value training","ocean","30","{""ArrowUp,ArrowLeft"":23,""ArrowUp,ArrowRight"":10,""ArrowDown,ArrowLeft"":8,""ArrowDown,ArrowRight"":30}","true","ArrowDown,ArrowRight","false","","","","","30","revaluation","1",""
"html-keyboard-response","165","846552","0.0-4.0-2.0-1.15","pilot_wm_v1","664cef98bb2e4a28e1fce2cb","6","null","null","false","","","","","","","null","<div style=""font-size:60px;"">+</div>","null","fixation","","","","","","","","","","","31","","",""
"revaluation","166","852556","0.0-4.0-2.0-0.16","pilot_wm_v1","664cef98bb2e4a28e1fce2cb","6","null","null","false","","false","","","","","[602.5,347.79999999981374]","./assets/img/ocean/memory/38.jpg","[""ArrowDown"",""ArrowRight""]","value training","ocean","30","{""ArrowUp,ArrowLeft"":23,""ArrowUp,ArrowRight"":10,""ArrowDown,ArrowLeft"":8,""ArrowDown,ArrowRight"":30}","true","ArrowDown,ArrowRight","false","","","","","32","revaluation","1",""
"html-keyboard-response","167","853057","0.0-4.0-2.0-1.16","pilot_wm_v1","664cef98bb2e4a28e1fce2cb","6","null","null","false","","","","","","","null","<div style=""font-size:60px;"">+</div>","null","fixation","","","","","","","","","","","33","","",""
"revaluation","168","859064","0.0-4.0-2.0-0.17","pilot_wm_v1","664cef98bb2e4a28e1fce2cb","6","null","null","false","","false","","","","","[625.4000000003725,243.3999999994412]","./assets/img/ocean/memory/11.jpg","[""ArrowDown"",""ArrowRight""]","value training","ocean","30","{""ArrowUp,ArrowLeft"":23,""ArrowUp,ArrowRight"":10,""ArrowDown,ArrowLeft"":8,""ArrowDown,ArrowRight"":30}","true","ArrowDown,ArrowRight","false","","","","","34","revaluation","1",""
"html-keyboard-response","169","859573","0.0-4.0-2.0-1.17","pilot_wm_v1","664cef98bb2e4a28e1fce2cb","6","null","null","false","","","","","","","null","<div style=""font-size:60px;"">+</div>","null","fixation","","","","","","","","","","","35","","",""
"revaluation","170","865576","0.0-4.0-2.0-0.18","pilot_wm_v1","664cef98bb2e4a28e1fce2cb","6","null","null","false","","false","","","","","[500.79999999981374,206.90000000037253]","./assets/img/ocean/memory/31.jpg","[""ArrowDown"",""ArrowRight""]","value training","ocean","30","{""ArrowUp,ArrowLeft"":23,""ArrowUp,ArrowRight"":10,""ArrowDown,ArrowLeft"":8,""ArrowDown,ArrowRight"":30}","true","ArrowDown,ArrowRight","false","","","","","36","revaluation","1",""
"html-keyboard-response","171","866078","0.0-4.0-2.0-1.18","pilot_wm_v1","664cef98bb2e4a28e1fce2cb","6","null","null","false","","","","","","","null","<div style=""font-size:60px;"">+</div>","null","fixation","","","","","","","","","","","37","","",""
"revaluation","172","872083","0.0-4.0-2.0-0.19","pilot_wm_v1","664cef98bb2e4a28e1fce2cb","6","null","null","false","","false","","","","","[470.1000000005588,263.6000000005588]","./assets/img/ocean/memory/4.jpg","[""ArrowDown"",""ArrowRight""]","value training","ocean","30","{""ArrowUp,ArrowLeft"":23,""ArrowUp,ArrowRight"":10,""ArrowDown,ArrowLeft"":8,""ArrowDown,ArrowRight"":30}","true","ArrowDown,ArrowRight","false","","","","","38","revaluation","1",""
"html-keyboard-response","173","872586","0.0-4.0-2.0-1.19","pilot_wm_v1","664cef98bb2e4a28e1fce2cb","6","null","null","false","","","","","","","null","<div style=""font-size:60px;"">+</div>","null","fixation","","","","","","","","","","","39","","",""
"revaluation","174","876591","0.0-4.0-2.0-0.20","pilot_wm_v1","664cef98bb2e4a28e1fce2cb","6","null","null","false","","false","","","","","[731.3999999994412]","./assets/img/ocean/catch/5.jpg","[""spaceBar""]","value training","ocean","0","{""ArrowUp,ArrowLeft"":23,""ArrowUp,ArrowRight"":10,""ArrowDown,ArrowLeft"":8,""ArrowDown,ArrowRight"":30}","true","spaceBar","true","","","","","40","revaluation","1",""
"html-keyboard-response","175","877093","0.0-4.0-2.0-1.20","pilot_wm_v1","664cef98bb2e4a28e1fce2cb","6","null","null","false","","","","","","","null","<div style=""font-size:60px;"">+</div>","null","fixation","","","","","","","","","","","41","","",""
"revaluation","176","883097","0.0-4.0-2.0-0.21","pilot_wm_v1","664cef98bb2e4a28e1fce2cb","6","null","null","false","","false","","","","","[476,276.8999999994412]","./assets/img/ocean/memory/3.jpg","[""ArrowDown"",""ArrowRight""]","value training","ocean","30","{""ArrowUp,ArrowLeft"":23,""ArrowUp,ArrowRight"":10,""ArrowDown,ArrowLeft"":8,""ArrowDown,ArrowRight"":30}","true","ArrowDown,ArrowRight","false","","","","","42","revaluation","1",""
"html-keyboard-response","177","883599","0.0-4.0-2.0-1.21","pilot_wm_v1","664cef98bb2e4a28e1fce2cb","6","null","null","false","","","","","","","null","<div style=""font-size:60px;"">+</div>","null","fixation","","","","","","","","","","","43","","",""
"revaluation","178","889603","0.0-4.0-2.0-0.22","pilot_wm_v1","664cef98bb2e4a28e1fce2cb","6","null","null","false","","false","","","","","[467.1000000005588,231.90000000037253]","./assets/img/ocean/memory/26.jpg","[""ArrowDown"",""ArrowRight""]","value training","ocean","30","{""ArrowUp,ArrowLeft"":23,""ArrowUp,ArrowRight"":10,""ArrowDown,ArrowLeft"":8,""ArrowDown,ArrowRight"":30}","true","ArrowDown,ArrowRight","false","","","","","44","revaluation","1",""
"html-keyboard-response","179","890104","0.0-4.0-2.0-1.22","pilot_wm_v1","664cef98bb2e4a28e1fce2cb","6","null","null","false","","","","","","","null","<div style=""font-size:60px;"">+</div>","null","fixation","","","","","","","","","","","45","","",""
"revaluation","180","896110","0.0-4.0-2.0-0.23","pilot_wm_v1","664cef98bb2e4a28e1fce2cb","6","null","null","false","","false","","","","","[700.5,142.5]","./assets/img/ocean/memory/16.jpg","[""ArrowDown"",""ArrowRight""]","value training","ocean","30","{""ArrowUp,ArrowLeft"":23,""ArrowUp,ArrowRight"":10,""ArrowDown,ArrowLeft"":8,""ArrowDown,ArrowRight"":30}","true","ArrowDown,ArrowRight","false","","","","","46","revaluation","1",""
"html-keyboard-response","181","896611","0.0-4.0-2.0-1.23","pilot_wm_v1","664cef98bb2e4a28e1fce2cb","6","null","null","false","","","","","","","null","<div style=""font-size:60px;"">+</div>","null","fixation","","","","","","","","","","","47","","",""
"revaluation","182","902620","0.0-4.0-2.0-0.24","pilot_wm_v1","664cef98bb2e4a28e1fce2cb","6","null","null","false","","false","","","","","[791.2999999998137,261]","./assets/img/ocean/memory/24.jpg","[""ArrowDown"",""ArrowRight""]","value training","ocean","30","{""ArrowUp,ArrowLeft"":23,""ArrowUp,ArrowRight"":10,""ArrowDown,ArrowLeft"":8,""ArrowDown,ArrowRight"":30}","true","ArrowDown,ArrowRight","false","","","","","48","revaluation","1",""
"html-keyboard-response","183","903122","0.0-4.0-2.0-1.24","pilot_wm_v1","664cef98bb2e4a28e1fce2cb","6","null","null","false","","","","","","","null","<div style=""font-size:60px;"">+</div>","null","fixation","","","","","","","","","","","49","","",""
"revaluation","184","909126","0.0-4.0-2.0-0.25","pilot_wm_v1","664cef98bb2e4a28e1fce2cb","6","null","null","false","","false","","","","","[495,78.20000000018626]","./assets/img/ocean/memory/3.jpg","[""ArrowDown"",""ArrowRight""]","value training","ocean","30","{""ArrowUp,ArrowLeft"":23,""ArrowUp,ArrowRight"":10,""ArrowDown,ArrowLeft"":8,""ArrowDown,ArrowRight"":30}","true","ArrowDown,ArrowRight","false","","","","","50","revaluation","1",""
"html-keyboard-response","185","909628","0.0-4.0-2.0-1.25","pilot_wm_v1","664cef98bb2e4a28e1fce2cb","6","null","null","false","","","","","","","null","<div style=""font-size:60px;"">+</div>","null","fixation","","","","","","","","","","","51","","",""
"revaluation","186","915642","0.0-4.0-2.0-0.26","pilot_wm_v1","664cef98bb2e4a28e1fce2cb","6","null","null","false","","false","","","","","[458.90000000037253,363.5]","./assets/img/ocean/memory/28.jpg","[""ArrowDown"",""ArrowRight""]","value training","ocean","30","{""ArrowUp,ArrowLeft"":23,""ArrowUp,ArrowRight"":10,""ArrowDown,ArrowLeft"":8,""ArrowDown,ArrowRight"":30}","true","ArrowDown,ArrowRight","false","","","","","52","revaluation","1",""
"html-keyboard-response","187","916150","0.0-4.0-2.0-1.26","pilot_wm_v1","664cef98bb2e4a28e1fce2cb","6","null","null","false","","","","","","","null","<div style=""font-size:60px;"">+</div>","null","fixation","","","","","","","","","","","53","","",""
"revaluation","188","922155","0.0-4.0-2.0-0.27","pilot_wm_v1","664cef98bb2e4a28e1fce2cb","6","null","null","false","","false","","","","","[1595.5,337.79999999981374]","./assets/img/ocean/memory/13.jpg","[""ArrowDown"",""ArrowRight""]","value training","ocean","30","{""ArrowUp,ArrowLeft"":23,""ArrowUp,ArrowRight"":10,""ArrowDown,ArrowLeft"":8,""ArrowDown,ArrowRight"":30}","true","ArrowDown,ArrowRight","false","","","","","54","revaluation","1",""
"html-keyboard-response","189","922656","0.0-4.0-2.0-1.27","pilot_wm_v1","664cef98bb2e4a28e1fce2cb","6","null","null","false","","","","","","","null","<div style=""font-size:60px;"">+</div>","null","fixation","","","","","","","","","","","55","","",""
"revaluation","190","928661","0.0-4.0-2.0-0.28","pilot_wm_v1","664cef98bb2e4a28e1fce2cb","6","null","null","false","","false","","","","","[467.90000000037253,11.799999999813735]","./assets/img/ocean/memory/5.jpg","[""ArrowDown"",""ArrowRight""]","value training","ocean","30","{""ArrowUp,ArrowLeft"":23,""ArrowUp,ArrowRight"":10,""ArrowDown,ArrowLeft"":8,""ArrowDown,ArrowRight"":30}","true","ArrowDown,ArrowRight","false","","","","","56","revaluation","1",""
"html-keyboard-response","191","929162","0.0-4.0-2.0-1.28","pilot_wm_v1","664cef98bb2e4a28e1fce2cb","6","null","null","false","","","","","","","null","<div style=""font-size:60px;"">+</div>","null","fixation","","","","","","","","","","","57","","",""
"revaluation","192","935174","0.0-4.0-2.0-0.29","pilot_wm_v1","664cef98bb2e4a28e1fce2cb","6","null","null","false","","false","","","","","[441.20000000018626,298.79999999981374]","./assets/img/ocean/memory/33.jpg","[""ArrowDown"",""ArrowRight""]","value training","ocean","30","{""ArrowUp,ArrowLeft"":23,""ArrowUp,ArrowRight"":10,""ArrowDown,ArrowLeft"":8,""ArrowDown,ArrowRight"":30}","true","ArrowDown,ArrowRight","false","","","","","58","revaluation","1",""
"html-keyboard-response","193","935676","0.0-4.0-2.0-1.29","pilot_wm_v1","664cef98bb2e4a28e1fce2cb","6","null","null","false","","","","","","","null","<div style=""font-size:60px;"">+</div>","null","fixation","","","","","","","","","","","59","","",""
"revaluation","194","941681","0.0-4.0-2.0-0.30","pilot_wm_v1","664cef98bb2e4a28e1fce2cb","6","null","null","false","","false","","","","","[632.5999999996275,226.8999999994412]","./assets/img/ocean/memory/15.jpg","[""ArrowDown"",""ArrowRight""]","value training","ocean","30","{""ArrowUp,ArrowLeft"":23,""ArrowUp,ArrowRight"":10,""ArrowDown,ArrowLeft"":8,""ArrowDown,ArrowRight"":30}","true","ArrowDown,ArrowRight","false","","","","","60","revaluation","1",""
"html-keyboard-response","195","942183","0.0-4.0-2.0-1.30","pilot_wm_v1","664cef98bb2e4a28e1fce2cb","6","null","null","false","","","","","","","null","<div style=""font-size:60px;"">+</div>","null","fixation","","","","","","","","","","","61","","",""
"revaluation","196","948189","0.0-4.0-2.0-0.31","pilot_wm_v1","664cef98bb2e4a28e1fce2cb","6","null","null","false","","false","","","","","[437.79999999981374,207.40000000037253]","./assets/img/ocean/memory/4.jpg","[""ArrowDown"",""ArrowRight""]","value training","ocean","30","{""ArrowUp,ArrowLeft"":23,""ArrowUp,ArrowRight"":10,""ArrowDown,ArrowLeft"":8,""ArrowDown,ArrowRight"":30}","true","ArrowDown,ArrowRight","false","","","","","62","revaluation","1",""
"html-keyboard-response","197","948690","0.0-4.0-2.0-1.31","pilot_wm_v1","664cef98bb2e4a28e1fce2cb","6","null","null","false","","","","","","","null","<div style=""font-size:60px;"">+</div>","null","fixation","","","","","","","","","","","63","","",""
"revaluation","198","954696","0.0-4.0-2.0-0.32","pilot_wm_v1","664cef98bb2e4a28e1fce2cb","6","null","null","false","","false","","","","","[403.79999999981374,355.5]","./assets/img/ocean/memory/16.jpg","[""ArrowDown"",""ArrowRight""]","value training","ocean","30","{""ArrowUp,ArrowLeft"":23,""ArrowUp,ArrowRight"":10,""ArrowDown,ArrowLeft"":8,""ArrowDown,ArrowRight"":30}","true","ArrowDown,ArrowRight","false","","","","","64","revaluation","1",""
"html-keyboard-response","199","955198","0.0-4.0-2.0-1.32","pilot_wm_v1","664cef98bb2e4a28e1fce2cb","6","null","null","false","","","","","","","null","<div style=""font-size:60px;"">+</div>","null","fixation","","","","","","","","","","","65","","",""
"revaluation","200","961202","0.0-4.0-2.0-0.33","pilot_wm_v1","664cef98bb2e4a28e1fce2cb","6","null","null","false","","false","","","","","[880.2000000001863,214.59999999962747]","./assets/img/ocean/memory/41.jpg","[""ArrowDown"",""ArrowRight""]","value training","ocean","30","{""ArrowUp,ArrowLeft"":23,""ArrowUp,ArrowRight"":10,""ArrowDown,ArrowLeft"":8,""ArrowDown,ArrowRight"":30}","true","ArrowDown,ArrowRight","false","","","","","66","revaluation","1",""
"html-keyboard-response","201","961703","0.0-4.0-2.0-1.33","pilot_wm_v1","664cef98bb2e4a28e1fce2cb","6","null","null","false","","","","","","","null","<div style=""font-size:60px;"">+</div>","null","fixation","","","","","","","","","","","67","","",""
"revaluation","202","967709","0.0-4.0-2.0-0.34","pilot_wm_v1","664cef98bb2e4a28e1fce2cb","6","null","null","false","","false","","","","","[900.2000000001863,343.1000000005588]","./assets/img/ocean/memory/20.jpg","[""ArrowDown"",""ArrowRight""]","value training","ocean","30","{""ArrowUp,ArrowLeft"":23,""ArrowUp,ArrowRight"":10,""ArrowDown,ArrowLeft"":8,""ArrowDown,ArrowRight"":30}","true","ArrowDown,ArrowRight","false","","","","","68","revaluation","1",""
"html-keyboard-response","203","968211","0.0-4.0-2.0-1.34","pilot_wm_v1","664cef98bb2e4a28e1fce2cb","6","null","null","false","","","","","","","null","<div style=""font-size:60px;"">+</div>","null","fixation","","","","","","","","","","","69","","",""
"revaluation","204","974215","0.0-4.0-2.0-0.35","pilot_wm_v1","664cef98bb2e4a28e1fce2cb","6","null","null","false","","false","","","","","[506.5,224.8999999994412]","./assets/img/ocean/memory/27.jpg","[""ArrowDown"",""ArrowRight""]","value training","ocean","30","{""ArrowUp,ArrowLeft"":23,""ArrowUp,ArrowRight"":10,""ArrowDown,ArrowLeft"":8,""ArrowDown,ArrowRight"":30}","true","ArrowDown,ArrowRight","false","","","","","70","revaluation","1",""
"html-keyboard-response","205","974717","0.0-4.0-2.0-1.35","pilot_wm_v1","664cef98bb2e4a28e1fce2cb","6","null","null","false","","","","","","","null","<div style=""font-size:60px;"">+</div>","null","fixation","","","","","","","","","","","71","","",""
"revaluation","206","980723","0.0-4.0-2.0-0.36","pilot_wm_v1","664cef98bb2e4a28e1fce2cb","6","null","null","false","","false","","","","","[675.6000000005588,273]","./assets/img/ocean/memory/30.jpg","[""ArrowDown"",""ArrowRight""]","value training","ocean","30","{""ArrowUp,ArrowLeft"":23,""ArrowUp,ArrowRight"":10,""ArrowDown,ArrowLeft"":8,""ArrowDown,ArrowRight"":30}","true","ArrowDown,ArrowRight","false","","","","","72","revaluation","1",""
"html-keyboard-response","207","981224","0.0-4.0-2.0-1.36","pilot_wm_v1","664cef98bb2e4a28e1fce2cb","6","null","null","false","","","","","","","null","<div style=""font-size:60px;"">+</div>","null","fixation","","","","","","","","","","","73","","",""
"revaluation","208","985228","0.0-4.0-2.0-0.37","pilot_wm_v1","664cef98bb2e4a28e1fce2cb","6","null","null","false","","false","","","","","[581.3000000007451]","./assets/img/ocean/catch/7.jpg","[""spaceBar""]","value training","ocean","0","{""ArrowUp,ArrowLeft"":23,""ArrowUp,ArrowRight"":10,""ArrowDown,ArrowLeft"":8,""ArrowDown,ArrowRight"":30}","true","spaceBar","true","","","","","74","revaluation","1",""
"html-keyboard-response","209","985730","0.0-4.0-2.0-1.37","pilot_wm_v1","664cef98bb2e4a28e1fce2cb","6","null","null","false","","","","","","","null","<div style=""font-size:60px;"">+</div>","null","fixation","","","","","","","","","","","75","","",""
"revaluation","210","991736","0.0-4.0-2.0-0.38","pilot_wm_v1","664cef98bb2e4a28e1fce2cb","6","null","null","false","","false","","","","","[1033.7999999998137,297.20000000018626]","./assets/img/ocean/memory/41.jpg","[""ArrowDown"",""ArrowRight""]","value training","ocean","30","{""ArrowUp,ArrowLeft"":23,""ArrowUp,ArrowRight"":10,""ArrowDown,ArrowLeft"":8,""ArrowDown,ArrowRight"":30}","true","ArrowDown,ArrowRight","false","","","","","76","revaluation","1",""
"html-keyboard-response","211","992238","0.0-4.0-2.0-1.38","pilot_wm_v1","664cef98bb2e4a28e1fce2cb","6","null","null","false","","","","","","","null","<div style=""font-size:60px;"">+</div>","null","fixation","","","","","","","","","","","77","","",""
"revaluation","212","998243","0.0-4.0-2.0-0.39","pilot_wm_v1","664cef98bb2e4a28e1fce2cb","6","null","null","false","","false","","","","","[613.3999999994412,240]","./assets/img/ocean/memory/38.jpg","[""ArrowDown"",""ArrowRight""]","value training","ocean","30","{""ArrowUp,ArrowLeft"":23,""ArrowUp,ArrowRight"":10,""ArrowDown,ArrowLeft"":8,""ArrowDown,ArrowRight"":30}","true","ArrowDown,ArrowRight","false","","","","","78","revaluation","1",""
"html-keyboard-response","213","998745","0.0-4.0-2.0-1.39","pilot_wm_v1","664cef98bb2e4a28e1fce2cb","6","null","null","false","","","","","","","null","<div style=""font-size:60px;"">+</div>","null","fixation","","","","","","","","","","","79","","",""
"revaluation","214","1004750","0.0-4.0-2.0-0.40","pilot_wm_v1","664cef98bb2e4a28e1fce2cb","6","null","null","false","","false","","","","","[580.1000000005588,228.90000000037253]","./assets/img/ocean/memory/9.jpg","[""ArrowDown"",""ArrowRight""]","value training","ocean","30","{""ArrowUp,ArrowLeft"":23,""ArrowUp,ArrowRight"":10,""ArrowDown,ArrowLeft"":8,""ArrowDown,ArrowRight"":30}","true","ArrowDown,ArrowRight","false","","","","","80","revaluation","1",""
"html-keyboard-response","215","1005251","0.0-4.0-2.0-1.40","pilot_wm_v1","664cef98bb2e4a28e1fce2cb","6","null","null","false","","","","","","","null","<div style=""font-size:60px;"">+</div>","null","fixation","","","","","","","","","","","81","","",""
"revaluation","216","1011256","0.0-4.0-2.0-0.41","pilot_wm_v1","664cef98bb2e4a28e1fce2cb","6","null","null","false","","false","","","","","[442.70000000018626,331.8999999994412]","./assets/img/ocean/memory/11.jpg","[""ArrowDown"",""ArrowRight""]","value training","ocean","30","{""ArrowUp,ArrowLeft"":23,""ArrowUp,ArrowRight"":10,""ArrowDown,ArrowLeft"":8,""ArrowDown,ArrowRight"":30}","true","ArrowDown,ArrowRight","false","","","","","82","revaluation","1",""
"html-keyboard-response","217","1011758","0.0-4.0-2.0-1.41","pilot_wm_v1","664cef98bb2e4a28e1fce2cb","6","null","null","false","","","","","","","null","<div style=""font-size:60px;"">+</div>","null","fixation","","","","","","","","","","","83","","",""
"revaluation","218","1017764","0.0-4.0-2.0-0.42","pilot_wm_v1","664cef98bb2e4a28e1fce2cb","6","null","null","false","","false","","","","","[458.3999999994412,325]","./assets/img/ocean/memory/37.jpg","[""ArrowDown"",""ArrowRight""]","value training","ocean","30","{""ArrowUp,ArrowLeft"":23,""ArrowUp,ArrowRight"":10,""ArrowDown,ArrowLeft"":8,""ArrowDown,ArrowRight"":30}","true","ArrowDown,ArrowRight","false","","","","","84","revaluation","1",""
"html-keyboard-response","219","1018266","0.0-4.0-2.0-1.42","pilot_wm_v1","664cef98bb2e4a28e1fce2cb","6","null","null","false","","","","","","","null","<div style=""font-size:60px;"">+</div>","null","fixation","","","","","","","","","","","85","","",""
"revaluation","220","1024270","0.0-4.0-2.0-0.43","pilot_wm_v1","664cef98bb2e4a28e1fce2cb","6","null","null","false","","false","","","","","[663.2000000001863,238.5]","./assets/img/ocean/memory/9.jpg","[""ArrowDown"",""ArrowRight""]","value training","ocean","30","{""ArrowUp,ArrowLeft"":23,""ArrowUp,ArrowRight"":10,""ArrowDown,ArrowLeft"":8,""ArrowDown,ArrowRight"":30}","true","ArrowDown,ArrowRight","false","","","","","86","revaluation","1",""
"html-keyboard-response","221","1024772","0.0-4.0-2.0-1.43","pilot_wm_v1","664cef98bb2e4a28e1fce2cb","6","null","null","false","","","","","","","null","<div style=""font-size:60px;"">+</div>","null","fixation","","","","","","","","","","","87","","",""
"revaluation","222","1030777","0.0-4.0-2.0-0.44","pilot_wm_v1","664cef98bb2e4a28e1fce2cb","6","null","null","false","","false","","","","","[581.1000000005588,240.59999999962747]","./assets/img/ocean/memory/36.jpg","[""ArrowDown"",""ArrowRight""]","value training","ocean","30","{""ArrowUp,ArrowLeft"":23,""ArrowUp,ArrowRight"":10,""ArrowDown,ArrowLeft"":8,""ArrowDown,ArrowRight"":30}","true","ArrowDown,ArrowRight","false","","","","","88","revaluation","1",""
"html-keyboard-response","223","1031279","0.0-4.0-2.0-1.44","pilot_wm_v1","664cef98bb2e4a28e1fce2cb","6","null","null","false","","","","","","","null","<div style=""font-size:60px;"">+</div>","null","fixation","","","","","","","","","","","89","","",""
"revaluation","224","1037284","0.0-4.0-2.0-0.45","pilot_wm_v1","664cef98bb2e4a28e1fce2cb","6","null","null","false","","false","","","","","[799.5999999996275,746]","./assets/img/ocean/memory/36.jpg","[""ArrowDown"",""ArrowRight""]","value training","ocean","30","{""ArrowUp,ArrowLeft"":23,""ArrowUp,ArrowRight"":10,""ArrowDown,ArrowLeft"":8,""ArrowDown,ArrowRight"":30}","true","ArrowDown,ArrowRight","false","","","","","90","revaluation","1",""
"html-keyboard-response","225","1037786","0.0-4.0-2.0-1.45","pilot_wm_v1","664cef98bb2e4a28e1fce2cb","6","null","null","false","","","","","","","null","<div style=""font-size:60px;"">+</div>","null","fixation","","","","","","","","","","","91","","",""
"revaluation","226","1043791","0.0-4.0-2.0-0.46","pilot_wm_v1","664cef98bb2e4a28e1fce2cb","6","null","null","false","","false","","","","","[603.5,230.59999999962747]","./assets/img/ocean/memory/26.jpg","[""ArrowDown"",""ArrowRight""]","value training","ocean","30","{""ArrowUp,ArrowLeft"":23,""ArrowUp,ArrowRight"":10,""ArrowDown,ArrowLeft"":8,""ArrowDown,ArrowRight"":30}","true","ArrowDown,ArrowRight","false","","","","","92","revaluation","1",""
"html-keyboard-response","227","1044292","0.0-4.0-2.0-1.46","pilot_wm_v1","664cef98bb2e4a28e1fce2cb","6","null","null","false","","","","","","","null","<div style=""font-size:60px;"">+</div>","null","fixation","","","","","","","","","","","93","","",""
"revaluation","228","1050295","0.0-4.0-2.0-0.47","pilot_wm_v1","664cef98bb2e4a28e1fce2cb","6","null","null","false","","false","","","","","[932.4000000003725,366.3999999994412]","./assets/img/ocean/memory/40.jpg","[""ArrowDown"",""ArrowRight""]","value training","ocean","30","{""ArrowUp,ArrowLeft"":23,""ArrowUp,ArrowRight"":10,""ArrowDown,ArrowLeft"":8,""ArrowDown,ArrowRight"":30}","true","ArrowDown,ArrowRight","false","","","","","94","revaluation","1",""
"html-keyboard-response","229","1050797","0.0-4.0-2.0-1.47","pilot_wm_v1","664cef98bb2e4a28e1fce2cb","6","null","null","false","","","","","","","null","<div style=""font-size:60px;"">+</div>","null","fixation","","","","","","","","","","","95","","",""
"revaluation","230","1054801","0.0-4.0-2.0-0.48","pilot_wm_v1","664cef98bb2e4a28e1fce2cb","6","null","null","false","","false","","","","","[705.5]","./assets/img/ocean/catch/3.jpg","[""spaceBar""]","value training","ocean","0","{""ArrowUp,ArrowLeft"":23,""ArrowUp,ArrowRight"":10,""ArrowDown,ArrowLeft"":8,""ArrowDown,ArrowRight"":30}","true","spaceBar","true","","","","","96","revaluation","1",""
"html-keyboard-response","231","1055302","0.0-4.0-2.0-1.48","pilot_wm_v1","664cef98bb2e4a28e1fce2cb","6","null","null","false","","","","","","","null","<div style=""font-size:60px;"">+</div>","null","fixation","","","","","","","","","","","97","","",""
"revaluation","232","1061308","0.0-4.0-2.0-0.49","pilot_wm_v1","664cef98bb2e4a28e1fce2cb","6","null","null","false","","false","","","","","[560.7999999998137,247.5]","./assets/img/ocean/memory/13.jpg","[""ArrowDown"",""ArrowRight""]","value training","ocean","30","{""ArrowUp,ArrowLeft"":23,""ArrowUp,ArrowRight"":10,""ArrowDown,ArrowLeft"":8,""ArrowDown,ArrowRight"":30}","true","ArrowDown,ArrowRight","false","","","","","98","revaluation","1",""
"html-keyboard-response","233","1061810","0.0-4.0-2.0-1.49","pilot_wm_v1","664cef98bb2e4a28e1fce2cb","6","null","null","false","","","","","","","null","<div style=""font-size:60px;"">+</div>","null","fixation","","","","","","","","","","","99","","",""
"learning-instructions","234","1077352","0.0-4.0-3.0-0.0","pilot_wm_v1","664cef98bb2e4a28e1fce2cb","6","null","null","false","","","","","","","2068.7000000001863","<p> Now, you will travel with a friend who will choose whether you go up or down first. </p>
            <p> On these turns, you will just see the animal that they found. You will still get to choose which chest to search for treasure.</p>","","instructions","","","","","","","","","","","","","",""
"learning-instructions","235","1089740","0.0-4.0-3.0-0.1","pilot_wm_v1","664cef98bb2e4a28e1fce2cb","6","null","null","false","","","","","","","775.2000000001863","<p> In this part, you will also hear beeps from your friend and see special treasure chests that need a password. </p>
            <p> Do your best to count the high beeps <b>and</b> choose between each animals' chests at the same time.</p>
            <img src='./assets/img/instructions/beep_chest.jpg' class='instructions-image'>","","instructions","","","","","","","","","","","","","",""
"revaluation","236","1093754","0.0-4.0-4.0-0.0","pilot_wm_v1","664cef98bb2e4a28e1fce2cb","6","null","null","false","","false","","","","","[550.2000000001863]","./assets/img/ocean/animals/octopus.jpg","[""ArrowRight""]","revaluation","ocean","15","{""ArrowUp,ArrowLeft"":27,""ArrowUp,ArrowRight"":15,""ArrowDown,ArrowLeft"":21,""ArrowDown,ArrowRight"":7}","false","ArrowUp,ArrowRight","","5_4","","","","0","revaluation","1",""
"html-keyboard-response","237","1094265","0.0-4.0-4.0-1.0","pilot_wm_v1","664cef98bb2e4a28e1fce2cb","6","null","null","false","","","","","","","null","<div style=""font-size:60px;"">+</div>","null","fixation","","","","","","","","","","","","","",""
"revaluation","238","1098280","0.0-4.0-4.0-0.1","pilot_wm_v1","664cef98bb2e4a28e1fce2cb","6","null","null","false","","false","","","","","[1284.7000000001863]","./assets/img/ocean/animals/seahorse.jpg","[""ArrowRight""]","revaluation","ocean","7","{""ArrowUp,ArrowLeft"":27,""ArrowUp,ArrowRight"":15,""ArrowDown,ArrowLeft"":21,""ArrowDown,ArrowRight"":7}","false","ArrowDown,ArrowRight","","14_4","","","","1","revaluation","1",""
"html-keyboard-response","239","1098791","0.0-4.0-4.0-1.1","pilot_wm_v1","664cef98bb2e4a28e1fce2cb","6","null","null","false","","","","","","","null","<div style=""font-size:60px;"">+</div>","null","fixation","","","","","","","","","","","","","",""
"revaluation","240","1102804","0.0-4.0-4.0-0.2","pilot_wm_v1","664cef98bb2e4a28e1fce2cb","6","null","null","false","","false","","","","","[601.4000000003725]","./assets/img/ocean/animals/seahorse.jpg","[""ArrowRight""]","revaluation","ocean","7","{""ArrowUp,ArrowLeft"":27,""ArrowUp,ArrowRight"":15,""ArrowDown,ArrowLeft"":21,""ArrowDown,ArrowRight"":7}","false","ArrowDown,ArrowRight","","12_2","","","","2","revaluation","1",""
"html-keyboard-response","241","1103314","0.0-4.0-4.0-1.2","pilot_wm_v1","664cef98bb2e4a28e1fce2cb","6","null","null","false","","","","","","","null","<div style=""font-size:60px;"">+</div>","null","fixation","","","","","","","","","","","","","",""
"revaluation","242","1107337","0.0-4.0-4.0-0.3","pilot_wm_v1","664cef98bb2e4a28e1fce2cb","6","null","null","false","","false","","","","","[889.2000000001863]","./assets/img/ocean/animals/seahorse.jpg","[""ArrowLeft""]","revaluation","ocean","21","{""ArrowUp,ArrowLeft"":27,""ArrowUp,ArrowRight"":15,""ArrowDown,ArrowLeft"":21,""ArrowDown,ArrowRight"":7}","true","ArrowDown,ArrowLeft","","18_0","","","","3","revaluation","1",""
"html-keyboard-response","243","1107848","0.0-4.0-4.0-1.3","pilot_wm_v1","664cef98bb2e4a28e1fce2cb","6","null","null","false","","","","","","","null","<div style=""font-size:60px;"">+</div>","null","fixation","","","","","","","","","","","","","",""
"html-slider-response","244","1112643","0.0-4.0-4.0-2.3-0.3","pilot_wm_v1","664cef98bb2e4a28e1fce2cb","6","null","null","false","","","","","","","4793","<div style=""width:500px;"">
        <p>What is the password?</p>
        <img src='./assets/img/instructions/beep_chest.jpg' class='instructions-image'>","4","beep chest","","","","false","","","","50","10","6","","","",""
"revaluation","245","1116650","0.0-4.0-4.0-0.4","pilot_wm_v1","664cef98bb2e4a28e1fce2cb","6","null","null","false","","false","","","","","[979.1000000005588]","./assets/img/ocean/animals/seahorse.jpg","[""ArrowLeft""]","revaluation","ocean","21","{""ArrowUp,ArrowLeft"":27,""ArrowUp,ArrowRight"":15,""ArrowDown,ArrowLeft"":21,""ArrowDown,ArrowRight"":7}","true","ArrowDown,ArrowLeft","","15_0","","","","4","revaluation","1",""
"html-keyboard-response","246","1117165","0.0-4.0-4.0-1.4","pilot_wm_v1","664cef98bb2e4a28e1fce2cb","6","null","null","false","","","","","","","null","<div style=""font-size:60px;"">+</div>","null","fixation","","","","","","","","","","","","","",""
"revaluation","247","1121170","0.0-4.0-4.0-0.5","pilot_wm_v1","664cef98bb2e4a28e1fce2cb","6","null","null","false","","false","","","","","[784.9000000003725]","./assets/img/ocean/animals/octopus.jpg","[""ArrowLeft""]","revaluation","ocean","27","{""ArrowUp,ArrowLeft"":27,""ArrowUp,ArrowRight"":15,""ArrowDown,ArrowLeft"":21,""ArrowDown,ArrowRight"":7}","true","ArrowUp,ArrowLeft","","1_4","","","","5","revaluation","1",""
"html-keyboard-response","248","1121672","0.0-4.0-4.0-1.5","pilot_wm_v1","664cef98bb2e4a28e1fce2cb","6","null","null","false","","","","","","","null","<div style=""font-size:60px;"">+</div>","null","fixation","","","","","","","","","","","","","",""
"revaluation","249","1125677","0.0-4.0-4.0-0.6","pilot_wm_v1","664cef98bb2e4a28e1fce2cb","6","null","null","false","","false","","","","","[1268.5999999996275]","./assets/img/ocean/animals/seahorse.jpg","[""ArrowLeft""]","revaluation","ocean","21","{""ArrowUp,ArrowLeft"":27,""ArrowUp,ArrowRight"":15,""ArrowDown,ArrowLeft"":21,""ArrowDown,ArrowRight"":7}","true","ArrowDown,ArrowLeft","","13_2","","","","6","revaluation","1",""
"html-keyboard-response","250","1126178","0.0-4.0-4.0-1.6","pilot_wm_v1","664cef98bb2e4a28e1fce2cb","6","null","null","false","","","","","","","null","<div style=""font-size:60px;"">+</div>","null","fixation","","","","","","","","","","","","","",""
"revaluation","251","1130182","0.0-4.0-4.0-0.7","pilot_wm_v1","664cef98bb2e4a28e1fce2cb","6","null","null","false","","false","","","","","[1050.5999999996275]","./assets/img/ocean/animals/seahorse.jpg","[""ArrowLeft""]","revaluation","ocean","21","{""ArrowUp,ArrowLeft"":27,""ArrowUp,ArrowRight"":15,""ArrowDown,ArrowLeft"":21,""ArrowDown,ArrowRight"":7}","true","ArrowDown,ArrowLeft","","17_1","","","","7","revaluation","1",""
"html-keyboard-response","252","1130684","0.0-4.0-4.0-1.7","pilot_wm_v1","664cef98bb2e4a28e1fce2cb","6","null","null","false","","","","","","","null","<div style=""font-size:60px;"">+</div>","null","fixation","","","","","","","","","","","","","",""
"html-slider-response","253","1136038","0.0-4.0-4.0-2.7-0.7","pilot_wm_v1","664cef98bb2e4a28e1fce2cb","6","null","null","false","","","","","","","5353","<div style=""width:500px;"">
        <p>What is the password?</p>
        <img src='./assets/img/instructions/beep_chest.jpg' class='instructions-image'>","7","beep chest","","","","true","","","","50","7","0","","","",""
"revaluation","254","1140042","0.0-4.0-4.0-0.8","pilot_wm_v1","664cef98bb2e4a28e1fce2cb","6","null","null","false","","false","","","","","[1076.7000000001863]","./assets/img/ocean/animals/octopus.jpg","[""ArrowLeft""]","revaluation","ocean","27","{""ArrowUp,ArrowLeft"":27,""ArrowUp,ArrowRight"":15,""ArrowDown,ArrowLeft"":21,""ArrowDown,ArrowRight"":7}","true","ArrowUp,ArrowLeft","","6_3","","","","8","revaluation","1",""
"html-keyboard-response","255","1140543","0.0-4.0-4.0-1.8","pilot_wm_v1","664cef98bb2e4a28e1fce2cb","6","null","null","false","","","","","","","null","<div style=""font-size:60px;"">+</div>","null","fixation","","","","","","","","","","","","","",""
"revaluation","256","1144548","0.0-4.0-4.0-0.9","pilot_wm_v1","664cef98bb2e4a28e1fce2cb","6","null","null","false","","false","","","","","[699.7999999998137]","./assets/img/ocean/animals/octopus.jpg","[""ArrowLeft""]","revaluation","ocean","27","{""ArrowUp,ArrowLeft"":27,""ArrowUp,ArrowRight"":15,""ArrowDown,ArrowLeft"":21,""ArrowDown,ArrowRight"":7}","true","ArrowUp,ArrowLeft","","3_0","","","","9","revaluation","1",""
"html-keyboard-response","257","1145050","0.0-4.0-4.0-1.9","pilot_wm_v1","664cef98bb2e4a28e1fce2cb","6","null","null","false","","","","","","","null","<div style=""font-size:60px;"">+</div>","null","fixation","","","","","","","","","","","","","",""
"revaluation","258","1149053","0.0-4.0-4.0-0.10","pilot_wm_v1","664cef98bb2e4a28e1fce2cb","6","null","null","false","","false","","","","","[698.2999999998137]","./assets/img/ocean/animals/seahorse.jpg","[""ArrowLeft""]","revaluation","ocean","21","{""ArrowUp,ArrowLeft"":27,""ArrowUp,ArrowRight"":15,""ArrowDown,ArrowLeft"":21,""ArrowDown,ArrowRight"":7}","true","ArrowDown,ArrowLeft","","10_3","","","","10","revaluation","1",""
"html-keyboard-response","259","1149556","0.0-4.0-4.0-1.10","pilot_wm_v1","664cef98bb2e4a28e1fce2cb","6","null","null","false","","","","","","","null","<div style=""font-size:60px;"">+</div>","null","fixation","","","","","","","","","","","","","",""
"revaluation","260","1153560","0.0-4.0-4.0-0.11","pilot_wm_v1","664cef98bb2e4a28e1fce2cb","6","null","null","false","","false","","","","","[1669.1000000005588]","./assets/img/ocean/animals/octopus.jpg","[""ArrowLeft""]","revaluation","ocean","27","{""ArrowUp,ArrowLeft"":27,""ArrowUp,ArrowRight"":15,""ArrowDown,ArrowLeft"":21,""ArrowDown,ArrowRight"":7}","true","ArrowUp,ArrowLeft","","2_1","","","","11","revaluation","1",""
"html-keyboard-response","261","1154061","0.0-4.0-4.0-1.11","pilot_wm_v1","664cef98bb2e4a28e1fce2cb","6","null","null","false","","","","","","","null","<div style=""font-size:60px;"">+</div>","null","fixation","","","","","","","","","","","","","",""
"html-slider-response","262","1157757","0.0-4.0-4.0-2.11-0.11","pilot_wm_v1","664cef98bb2e4a28e1fce2cb","6","null","null","false","","","","","","","3695","<div style=""width:500px;"">
        <p>What is the password?</p>
        <img src='./assets/img/instructions/beep_chest.jpg' class='instructions-image'>","6","beep chest","","","","false","","","","50","7","1","","","",""
"revaluation","263","1161761","0.0-4.0-4.0-0.12","pilot_wm_v1","664cef98bb2e4a28e1fce2cb","6","null","null","false","","false","","","","","[684.4000000003725]","./assets/img/ocean/animals/octopus.jpg","[""ArrowLeft""]","revaluation","ocean","27","{""ArrowUp,ArrowLeft"":27,""ArrowUp,ArrowRight"":15,""ArrowDown,ArrowLeft"":21,""ArrowDown,ArrowRight"":7}","true","ArrowUp,ArrowLeft","","9_2","","","","12","revaluation","1",""
"html-keyboard-response","264","1162262","0.0-4.0-4.0-1.12","pilot_wm_v1","664cef98bb2e4a28e1fce2cb","6","null","null","false","","","","","","","null","<div style=""font-size:60px;"">+</div>","null","fixation","","","","","","","","","","","","","",""
"revaluation","265","1166267","0.0-4.0-4.0-0.13","pilot_wm_v1","664cef98bb2e4a28e1fce2cb","6","null","null","false","","false","","","","","[1058.5999999996275]","./assets/img/ocean/animals/seahorse.jpg","[""ArrowLeft""]","revaluation","ocean","21","{""ArrowUp,ArrowLeft"":27,""ArrowUp,ArrowRight"":15,""ArrowDown,ArrowLeft"":21,""ArrowDown,ArrowRight"":7}","true","ArrowDown,ArrowLeft","","16_0","","","","13","revaluation","1",""
"html-keyboard-response","266","1166768","0.0-4.0-4.0-1.13","pilot_wm_v1","664cef98bb2e4a28e1fce2cb","6","null","null","false","","","","","","","null","<div style=""font-size:60px;"">+</div>","null","fixation","","","","","","","","","","","","","",""
"revaluation","267","1170772","0.0-4.0-4.0-0.14","pilot_wm_v1","664cef98bb2e4a28e1fce2cb","6","null","null","false","","false","","","","","[1128.4000000003725]","./assets/img/ocean/animals/octopus.jpg","[""ArrowLeft""]","revaluation","ocean","27","{""ArrowUp,ArrowLeft"":27,""ArrowUp,ArrowRight"":15,""ArrowDown,ArrowLeft"":21,""ArrowDown,ArrowRight"":7}","true","ArrowUp,ArrowLeft","","7_4","","","","14","revaluation","1",""
"html-keyboard-response","268","1171274","0.0-4.0-4.0-1.14","pilot_wm_v1","664cef98bb2e4a28e1fce2cb","6","null","null","false","","","","","","","null","<div style=""font-size:60px;"">+</div>","null","fixation","","","","","","","","","","","","","",""
"revaluation","269","1175279","0.0-4.0-4.0-0.15","pilot_wm_v1","664cef98bb2e4a28e1fce2cb","6","null","null","false","","false","","","","","[655.6999999992549]","./assets/img/ocean/animals/octopus.jpg","[""ArrowLeft""]","revaluation","ocean","27","{""ArrowUp,ArrowLeft"":27,""ArrowUp,ArrowRight"":15,""ArrowDown,ArrowLeft"":21,""ArrowDown,ArrowRight"":7}","true","ArrowUp,ArrowLeft","","4_0","","","","15","revaluation","1",""
"html-keyboard-response","270","1175780","0.0-4.0-4.0-1.15","pilot_wm_v1","664cef98bb2e4a28e1fce2cb","6","null","null","false","","","","","","","null","<div style=""font-size:60px;"">+</div>","null","fixation","","","","","","","","","","","","","",""
"html-slider-response","271","1179180","0.0-4.0-4.0-2.15-0.15","pilot_wm_v1","664cef98bb2e4a28e1fce2cb","6","null","null","false","","","","","","","3397","<div style=""width:500px;"">
        <p>What is the password?</p>
        <img src='./assets/img/instructions/beep_chest.jpg' class='instructions-image'>","7","beep chest","","","","false","","","","50","6","1","","","",""
"revaluation","272","1183184","0.0-4.0-4.0-0.16","pilot_wm_v1","664cef98bb2e4a28e1fce2cb","6","null","null","false","","false","","","","","[648.7000000001863]","./assets/img/ocean/animals/seahorse.jpg","[""ArrowLeft""]","revaluation","ocean","21","{""ArrowUp,ArrowLeft"":27,""ArrowUp,ArrowRight"":15,""ArrowDown,ArrowLeft"":21,""ArrowDown,ArrowRight"":7}","true","ArrowDown,ArrowLeft","","11_4","","","","16","revaluation","1",""
"html-keyboard-response","273","1183686","0.0-4.0-4.0-1.16","pilot_wm_v1","664cef98bb2e4a28e1fce2cb","6","null","null","false","","","","","","","null","<div style=""font-size:60px;"">+</div>","null","fixation","","","","","","","","","","","","","",""
"revaluation","274","1187690","0.0-4.0-4.0-0.17","pilot_wm_v1","664cef98bb2e4a28e1fce2cb","6","null","null","false","","false","","","","","[465.1000000005588]","./assets/img/ocean/animals/octopus.jpg","[""ArrowLeft""]","revaluation","ocean","27","{""ArrowUp,ArrowLeft"":27,""ArrowUp,ArrowRight"":15,""ArrowDown,ArrowLeft"":21,""ArrowDown,ArrowRight"":7}","true","ArrowUp,ArrowLeft","","8_2","","","","17","revaluation","1",""
"html-keyboard-response","275","1188192","0.0-4.0-4.0-1.17","pilot_wm_v1","664cef98bb2e4a28e1fce2cb","6","null","null","false","","","","","","","null","<div style=""font-size:60px;"">+</div>","null","fixation","","","","","","","","","","","","","",""
"learning-instructions","276","1196338","0.0-4.0-6.0-0.0","pilot_wm_v1","664cef98bb2e4a28e1fce2cb","6","null","null","false","","","","","","","null","<p> You have almost finished this part of the game! </p>
            <p> We are going to ask you to make a few more choices. </p>","","instructions","","","","","","","","","","","","","",""
"learning-instructions","277","1212316","0.0-4.0-6.0-0.1","pilot_wm_v1","664cef98bb2e4a28e1fce2cb","6","null","null","false","","","","","","","null","<p> First, you need to decide whether to go up or down. When you see each picture, use the arrow keys to make your choice. </p>
            <p><b>You will not see which animal you found, but try to get to the one that will give you the most treasure.</b></p>","","instructions","","","","","","","","","","","","","",""
"html-keyboard-response","278","1213325","0.0-4.0-7.0-0.0","pilot_wm_v1","664cef98bb2e4a28e1fce2cb","6","null","null","false","","","","","","","null","<div style=""font-size:100px;color:red;"">Starting in...</div>","null","","","","","","","","","","","","","","",""
"html-keyboard-response","279","1214339","0.0-4.0-7.0-1.0","pilot_wm_v1","664cef98bb2e4a28e1fce2cb","6","null","null","false","","","","","","","null","<div style=""font-size:200px;color:red;"">3</div>","null","","","","","","","","","","","","","","",""
"html-keyboard-response","280","1215354","0.0-4.0-7.0-2.0","pilot_wm_v1","664cef98bb2e4a28e1fce2cb","6","null","null","false","","","","","","","null","<div style=""font-size:200px;color:red;"">2</div>","null","","","","","","","","","","","","","","",""
"html-keyboard-response","281","1216366","0.0-4.0-7.0-3.0","pilot_wm_v1","664cef98bb2e4a28e1fce2cb","6","null","null","false","","","","","","","null","<div style=""font-size:200px;color:red;"">1</div>","null","","","","","","","","","","","","","","",""
"revaluation","282","1217294","0.0-4.0-8.0-0.0","pilot_wm_v1","664cef98bb2e4a28e1fce2cb","6","null","null","false","","false","","","","","[925.7000000001863]","./assets/img/ocean/test/2.jpg","[""ArrowUp""]","first stage test","ocean","0","{""ArrowUp,ArrowLeft"":27,""ArrowUp,ArrowRight"":15,""ArrowDown,ArrowLeft"":21,""ArrowDown,ArrowRight"":7}","true","ArrowUp","false","","","","","","revaluation","1",""
"html-keyboard-response","283","1217798","0.0-4.0-8.0-1.0","pilot_wm_v1","664cef98bb2e4a28e1fce2cb","6","null","null","false","","","","","","","null","<div style=""font-size:60px;"">+</div>","null","fixation","","","","","","","","","","","","","",""
