"trial_type","trial_index","time_elapsed","internal_node_id","task_version","subject_id","assigned_condition","age","gender","rest","success","timeout","failed_images","failed_audio","failed_video","browser_interaction","rt","stimulus","response","task_part","environment","score","rewardMap","correct","fullState","isCatch","audioStim","slider_start","answer","error","numberMissed","duration","trial_num","condition","order","bonus"
"pavlovia","0","1298","0.0-0.0","pilot_wm_v1","59a07638bfd73c00010ea394","1","null","null","true","","","","","","","","","","","","","","","","","","","","","","","","","",""
"preload","1","21032","0.0-1.0","pilot_wm_v1","59a07638bfd73c00010ea394","1","null","null","true","true","false","[]","[]","[]","[{""event"":""fullscreenenter"",""trial"":2,""time"":23013},{""event"":""blur"",""trial"":18,""time"":129391},{""event"":""focus"",""trial"":20,""time"":134228},{""event"":""blur"",""trial"":60,""time"":330611},{""event"":""focus"",""trial"":60,""time"":335263},{""event"":""blur"",""trial"":65,""time"":392209},{""event"":""focus"",""trial"":66,""time"":394691},{""event"":""blur"",""trial"":67,""time"":403792},{""event"":""focus"",""trial"":67,""time"":404320}]","","","","","","","","","","","","","","","","","","","",""
"fullscreen","2","23995","0.0-2.0","pilot_wm_v1","59a07638bfd73c00010ea394","1","null","null","true","true","","","","","","","","","","","","","","","","","","","","","","","","",""
"audio-button-response","3","30375","0.0-3.0-0.0-0.0","pilot_wm_v1","59a07638bfd73c00010ea394","1","null","null","true","","","","","","","6261","./assets/audio/audiotest/turtle.mp3","4","audio_test","","","","","","","","","","","","","","","",""
"audio-button-response","4","34039","0.0-3.0-0.1-0.1","pilot_wm_v1","59a07638bfd73c00010ea394","1","null","null","true","","","","","","","2651","./assets/audio/audiotest/turtle.mp3","4","audio_test","","","","","","","","","","","","","","","",""
"audio-button-response","5","36623","0.0-3.0-0.2-0.2","pilot_wm_v1","59a07638bfd73c00010ea394","1","null","null","true","","","","","","","1560","./assets/audio/audiotest/turtle.mp3","2","audio_test","","","","","","","","","","","","","","","",""
"learning-instructions","6","44686","0.0-3.0-1.0-0.0","pilot_wm_v1","59a07638bfd73c00010ea394","1","null","null","true","","","","","","","1092.5999999642372","<p> Welcome! Please remember to stay in fullscreen mode and don't click away from the experiment. </p>","","instructions","","","","","","","","","","","","","","","",""
"learning-instructions","7","53999","0.0-3.0-1.0-0.1","pilot_wm_v1","59a07638bfd73c00010ea394","1","null","null","true","","","","","","","915.2999999523163","<p> Today you will be playing a game to earn treasure. </p>
            <p> At the end of the experiment, you will earn a bonus based on how much treasure you find. </p>
            <img src='./assets/img/instructions/treasure.jpg' class='instructions-image'>","","instructions","","","","","","","","","","","","","","","",""
"learning-instructions","8","62807","0.0-3.0-1.0-0.2","pilot_wm_v1","59a07638bfd73c00010ea394","1","null","null","true","","","","","","","563.1000000238419","<p> Animals have hidden treasure in treasure chests. </p>
            <p> You need to first find an animal and then choose which of their treasure chests to search. </p>
            <img src='./assets/img/space/animals/cat.jpg' class='instructions-image'>","","instructions","","","","","","","","","","","","","","","",""
"learning-instructions","9","77230","0.0-3.0-1.0-0.3","pilot_wm_v1","59a07638bfd73c00010ea394","1","null","null","true","","","","","","","1296","<p> In each round, you will search for treasure in a different place. In the real game, there will be two rounds. </p>
            <p> You will begin with a separate, practice round where you will search for treasure in outer space. </p>
            <img src='./assets/img/space/0.jpg' class='instructions-image'>","","instructions","","","","","","","","","","","","","","","",""
"learning-instructions","10","89615","0.0-3.0-1.0-0.4","pilot_wm_v1","59a07638bfd73c00010ea394","1","null","null","true","","","","","","","981","<p> On every turn, you will see a picture of the place that you are in, but the specific image may be different each time. </p>
            <p> For example, both of these images mean you are in outer space. </p>
            <img src='./assets/img/instructions/outerspace.jpg' class='instructions-image'>","","instructions","","","","","","","","","","","","","","","",""
"learning-instructions","11","98599","0.0-3.0-1.0-0.5","pilot_wm_v1","59a07638bfd73c00010ea394","1","null","null","true","","","","","","","1165.1000000238419","<p> You need to decide which direction to travel in. </p>
            <p> You can choose between going <b>up or down</b> by using the arrow keys. </p>
            <img src='./assets/img/instructions/updown.jpg' class='instructions-image'>","","instructions","","","","","","","","","","","","","","","",""
"learning-instructions","12","108302","0.0-3.0-1.0-0.6","pilot_wm_v1","59a07638bfd73c00010ea394","1","null","null","true","","","","","","","898.5","<p> You will have <b>2 seconds</b> to make your choice. </p>
            <p> If you do not make a choice within 2 seconds, you will not find an animal or earn treasure. </p>
            <img src='./assets/img/instructions/2seconds.jpg' class='instructions-image'>","","instructions","","","","","","","","","","","","","","","",""
"learning-instructions","13","117023","0.0-3.0-1.0-0.7","pilot_wm_v1","59a07638bfd73c00010ea394","1","null","null","true","","","","","","","1699.7000000476837","<p> Let’s try practicing that now! </p>
            <p> When you see a picture of the place you are in, press the <b>up</b> key to travel up. </p>
            <img src='./assets/img/instructions/pressUp.jpg' class='instructions-image'>","","instructions","","","","","","","","","","","","","","","",""
"revaluation","14","121034","0.0-3.0-2.0-0.0","pilot_wm_v1","59a07638bfd73c00010ea394","1","null","null","true","","false","","","","","[451.5]","./assets/img/space/0.jpg","[""ArrowUp""]","first stage practice","space","0","null","null","ArrowUp","false","","","","","","","","","",""
"html-keyboard-response","15","121541","0.0-3.0-2.0-1.0","pilot_wm_v1","59a07638bfd73c00010ea394","1","null","null","true","","","","","","","null","<div style=""font-size:60px;"">+</div>","null","fixation","","","","","","","","","","","","","","","",""
"revaluation","16","125557","0.0-3.0-2.0-0.1","pilot_wm_v1","59a07638bfd73c00010ea394","1","null","null","true","","false","","","","","[843]","./assets/img/space/1.jpg","[""ArrowUp""]","first stage practice","space","0","null","null","ArrowUp","false","","","","","","","","","",""
"html-keyboard-response","17","126070","0.0-3.0-2.0-1.1","pilot_wm_v1","59a07638bfd73c00010ea394","1","null","null","true","","","","","","[{""event"":""fullscreenenter"",""trial"":2,""time"":23013},{""event"":""blur"",""trial"":18,""time"":129391},{""event"":""focus"",""trial"":20,""time"":134228},{""event"":""blur"",""trial"":60,""time"":330611},{""event"":""focus"",""trial"":60,""time"":335263},{""event"":""blur"",""trial"":65,""time"":392209},{""event"":""focus"",""trial"":66,""time"":394691},{""event"":""blur"",""trial"":67,""time"":403792},{""event"":""focus"",""trial"":67,""time"":404320}]","null","<div style=""font-size:60px;"">+</div>","null","fixation","","","","","","","","","","","","","","","",""
"revaluation","18","130083","0.0-3.0-2.0-0.2","pilot_wm_v1","59a07638bfd73c00010ea394","1","null","null","true","","false","","","","","[570.1999999880791]","./assets/img/space/2.jpg","[""ArrowUp""]","first stage practice","space","0","null","null","ArrowUp","false","","","","","","","","","",""
"html-keyboard-response","19","130593","0.0-3.0-2.0-1.2","pilot_wm_v1","59a07638bfd73c00010ea394","1","null","null","true","","","","","","[{""event"":""fullscreenenter"",""trial"":2,""time"":23013},{""event"":""blur"",""trial"":18,""time"":129391},{""event"":""focus"",""trial"":20,""time"":134228},{""event"":""blur"",""trial"":60,""time"":330611},{""event"":""focus"",""trial"":60,""time"":335263},{""event"":""blur"",""trial"":65,""time"":392209},{""event"":""focus"",""trial"":66,""time"":394691},{""event"":""blur"",""trial"":67,""time"":403792},{""event"":""focus"",""trial"":67,""time"":404320}]","null","<div style=""font-size:60px;"">+</div>","null","fixation","","","","","","","","","","","","","","","",""
"learning-instructions","20","140016","0.0-3.0-3.0-0.0","pilot_wm_v1","59a07638bfd73c00010ea394","1","null","null","true","","","","","","","4732.300000011921","<p> Great job! Now try pressing the <b>down</b> key to travel down. </p>
            <img src='./assets/img/instructions/pressDown.jpg' class='instructions-image'>","","instructions","","","","","","","","","","","","","","","",""
"revaluation","21","144036","0.0-3.0-4.0-0.0","pilot_wm_v1","59a07638bfd73c00010ea394","1","null","null","true","","false","","","","","[1568.4000000357628]","./assets/img/space/3.jpg","[""ArrowDown""]","first stage practice","space","0","null","null","ArrowDown","false","","","","","","","","","",""
"html-keyboard-response","22","144545","0.0-3.0-4.0-1.0","pilot_wm_v1","59a07638bfd73c00010ea394","1","null","null","true","","","","","","","null","<div style=""font-size:60px;"">+</div>","null","fixation","","","","","","","","","","","","","","","",""
"revaluation","23","148568","0.0-3.0-4.0-0.1","pilot_wm_v1","59a07638bfd73c00010ea394","1","null","null","true","","false","","","","","[1158.8999999761581]","./assets/img/space/4.jpg","[""ArrowDown""]","first stage practice","space","0","null","null","ArrowDown","false","","","","","","","","","",""
"html-keyboard-response","24","149082","0.0-3.0-4.0-1.1","pilot_wm_v1","59a07638bfd73c00010ea394","1","null","null","true","","","","","","","null","<div style=""font-size:60px;"">+</div>","null","fixation","","","","","","","","","","","","","","","",""
"revaluation","25","153109","0.0-3.0-4.0-0.2","pilot_wm_v1","59a07638bfd73c00010ea394","1","null","null","true","","false","","","","","[574.5]","./assets/img/space/5.jpg","[""ArrowDown""]","first stage practice","space","0","null","null","ArrowDown","false","","","","","","","","","",""
"html-keyboard-response","26","153616","0.0-3.0-4.0-1.2","pilot_wm_v1","59a07638bfd73c00010ea394","1","null","null","true","","","","","","","null","<div style=""font-size:60px;"">+</div>","null","fixation","","","","","","","","","","","","","","","",""
"learning-instructions","27","165383","0.0-3.0-5.0-0.0","pilot_wm_v1","59a07638bfd73c00010ea394","1","null","null","true","","","","","","","1939.5","<p> The animals don’t move, so the animal in the upper part of a place will stay in the upper part of a place, and the animal in the lower part of a place will stay in the lower part of a place. </p>","","instructions","","","","","","","","","","","","","","","",""
"learning-instructions","28","175558","0.0-3.0-5.0-0.1","pilot_wm_v1","59a07638bfd73c00010ea394","1","null","null","true","","","","","","","1065.4000000357628","<p> Each animal has two treasure chests for you to choose from. </p>
            <p> The amount of treasure in each chest can range from <b> 0 to 40 pieces.</b></p>","","instructions","","","","","","","","","","","","","","","",""
"learning-instructions","29","187503","0.0-3.0-5.0-0.2","pilot_wm_v1","59a07638bfd73c00010ea394","1","null","null","true","","","","","","","768.9000000357628","<p> You should decide which chest to search for treasure by using the <b>left</b> and <b>right</b> arrow keys. </p>
            <p><b> Pay attention to which animal is on the screen, as the animals have different treasure chests. </b></p>
            <img src='./assets/img/instructions/leftright.jpg' class='instructions-image'>","","instructions","","","","","","","","","","","","","","","",""
"learning-instructions","30","194983","0.0-3.0-5.0-0.3","pilot_wm_v1","59a07638bfd73c00010ea394","1","null","null","true","","","","","","","1129.3999999761581","<p> Let’s try practicing that now. </p>
            <p> When you see an animal, choose which chest to search for treasure. </p>
            <img src='./assets/img/instructions/chooseChest.jpg' class='instructions-image'>","","instructions","","","","","","","","","","","","","","","",""
"revaluation","31","199006","0.0-3.0-6.0-0.0","pilot_wm_v1","59a07638bfd73c00010ea394","1","null","null","true","","false","","","","","[985.8000000119209]","./assets/img/space/animals/rabbit.jpg","[""ArrowRight""]","second stage practice","space","23","{""ArrowUp,ArrowLeft"":3,""ArrowUp,ArrowRight"":36,""ArrowDown,ArrowLeft"":15,""ArrowDown,ArrowRight"":23}","true","ArrowDown,ArrowRight","","","","","","","","","","",""
"html-keyboard-response","32","199511","0.0-3.0-6.0-1.0","pilot_wm_v1","59a07638bfd73c00010ea394","1","null","null","true","","","","","","","null","<div style=""font-size:60px;"">+</div>","null","fixation","","","","","","","","","","","","","","","",""
"revaluation","33","203521","0.0-3.0-6.0-0.1","pilot_wm_v1","59a07638bfd73c00010ea394","1","null","null","true","","false","","","","","[1275.300000011921]","./assets/img/space/animals/cat.jpg","[""ArrowRight""]","second stage practice","space","36","{""ArrowUp,ArrowLeft"":3,""ArrowUp,ArrowRight"":36,""ArrowDown,ArrowLeft"":15,""ArrowDown,ArrowRight"":23}","true","ArrowUp,ArrowRight","","","","","","","","","","",""
"html-keyboard-response","34","204034","0.0-3.0-6.0-1.1","pilot_wm_v1","59a07638bfd73c00010ea394","1","null","null","true","","","","","","","null","<div style=""font-size:60px;"">+</div>","null","fixation","","","","","","","","","","","","","","","",""
"revaluation","35","208059","0.0-3.0-6.0-0.2","pilot_wm_v1","59a07638bfd73c00010ea394","1","null","null","true","","false","","","","","[1149.5999999642372]","./assets/img/space/animals/rabbit.jpg","[""ArrowLeft""]","second stage practice","space","15","{""ArrowUp,ArrowLeft"":3,""ArrowUp,ArrowRight"":36,""ArrowDown,ArrowLeft"":15,""ArrowDown,ArrowRight"":23}","false","ArrowDown,ArrowLeft","","","","","","","","","","",""
"html-keyboard-response","36","208560","0.0-3.0-6.0-1.2","pilot_wm_v1","59a07638bfd73c00010ea394","1","null","null","true","","","","","","","null","<div style=""font-size:60px;"">+</div>","null","fixation","","","","","","","","","","","","","","","",""
"revaluation","37","212570","0.0-3.0-6.0-0.3","pilot_wm_v1","59a07638bfd73c00010ea394","1","null","null","true","","false","","","","","[800.8000000119209]","./assets/img/space/animals/cat.jpg","[""ArrowRight""]","second stage practice","space","36","{""ArrowUp,ArrowLeft"":3,""ArrowUp,ArrowRight"":36,""ArrowDown,ArrowLeft"":15,""ArrowDown,ArrowRight"":23}","true","ArrowUp,ArrowRight","","","","","","","","","","",""
"html-keyboard-response","38","213085","0.0-3.0-6.0-1.3","pilot_wm_v1","59a07638bfd73c00010ea394","1","null","null","true","","","","","","","null","<div style=""font-size:60px;"">+</div>","null","fixation","","","","","","","","","","","","","","","",""
"learning-instructions","39","231286","0.0-3.0-7.0-0.0","pilot_wm_v1","59a07638bfd73c00010ea394","1","null","null","true","","","","","","","1411.7000000476837","<p> Great job. Now let’s try putting it together. </p>
            <p> On each turn, you will first see a picture to remind you of the place you are in, and you need to choose whether to go up or down. </p>
            <p> Then you will see an animal and choose which of its chests to search for treasure. </p>","","instructions","","","","","","","","","","","","","","","",""
"learning-instructions","40","241234","0.0-3.0-7.0-0.1","pilot_wm_v1","59a07638bfd73c00010ea394","1","null","null","true","","","","","","","1700.3999999761581","<p> When you choose whether to go up or down, try to go to the animal with the chest with the most treasure. </p>
            <p> Try practicing that now! </p>","","instructions","","","","","","","","","","","","","","","",""
"revaluation","41","247261","0.0-3.0-8.0-0.0","pilot_wm_v1","59a07638bfd73c00010ea394","1","null","null","true","","false","","","","","[670.1999999880791,725.3999999761581]","./assets/img/space/6.jpg","[""ArrowUp"",""ArrowRight""]","full practice","space","36","{""ArrowUp,ArrowLeft"":3,""ArrowUp,ArrowRight"":36,""ArrowDown,ArrowLeft"":15,""ArrowDown,ArrowRight"":23}","true","ArrowUp,ArrowRight","false","","","","","","","","","",""
"html-keyboard-response","42","247771","0.0-3.0-8.0-1.0","pilot_wm_v1","59a07638bfd73c00010ea394","1","null","null","true","","","","","","","null","<div style=""font-size:60px;"">+</div>","null","fixation","","","","","","","","","","","","","","","",""
"revaluation","43","253789","0.0-3.0-8.0-0.1","pilot_wm_v1","59a07638bfd73c00010ea394","1","null","null","true","","false","","","","","[685.1999999880791,722.1999999880791]","./assets/img/space/7.jpg","[""ArrowUp"",""ArrowRight""]","full practice","space","36","{""ArrowUp,ArrowLeft"":3,""ArrowUp,ArrowRight"":36,""ArrowDown,ArrowLeft"":15,""ArrowDown,ArrowRight"":23}","true","ArrowUp,ArrowRight","false","","","","","","","","","",""
"html-keyboard-response","44","254301","0.0-3.0-8.0-1.1","pilot_wm_v1","59a07638bfd73c00010ea394","1","null","null","true","","","","","","","null","<div style=""font-size:60px;"">+</div>","null","fixation","","","","","","","","","","","","","","","",""
"revaluation","45","260321","0.0-3.0-8.0-0.2","pilot_wm_v1","59a07638bfd73c00010ea394","1","null","null","true","","false","","","","","[822.8000000119209,494.30000001192093]","./assets/img/space/8.jpg","[""ArrowUp"",""ArrowRight""]","full practice","space","36","{""ArrowUp,ArrowLeft"":3,""ArrowUp,ArrowRight"":36,""ArrowDown,ArrowLeft"":15,""ArrowDown,ArrowRight"":23}","true","ArrowUp,ArrowRight","false","","","","","","","","","",""
"html-keyboard-response","46","260832","0.0-3.0-8.0-1.2","pilot_wm_v1","59a07638bfd73c00010ea394","1","null","null","true","","","","","","","null","<div style=""font-size:60px;"">+</div>","null","fixation","","","","","","","","","","","","","","","",""
"revaluation","47","266848","0.0-3.0-8.0-0.3","pilot_wm_v1","59a07638bfd73c00010ea394","1","null","null","true","","false","","","","","[616.5,421.5]","./assets/img/space/9.jpg","[""ArrowUp"",""ArrowRight""]","full practice","space","36","{""ArrowUp,ArrowLeft"":3,""ArrowUp,ArrowRight"":36,""ArrowDown,ArrowLeft"":15,""ArrowDown,ArrowRight"":23}","true","ArrowUp,ArrowRight","false","","","","","","","","","",""
"html-keyboard-response","48","267358","0.0-3.0-8.0-1.3","pilot_wm_v1","59a07638bfd73c00010ea394","1","null","null","true","","","","","","","null","<div style=""font-size:60px;"">+</div>","null","fixation","","","","","","","","","","","","","","","",""
"revaluation","49","273367","0.0-3.0-8.0-0.4","pilot_wm_v1","59a07638bfd73c00010ea394","1","null","null","true","","false","","","","","[322.4000000357628,559.8000000119209]","./assets/img/space/10.jpg","[""ArrowUp"",""ArrowRight""]","full practice","space","36","{""ArrowUp,ArrowLeft"":3,""ArrowUp,ArrowRight"":36,""ArrowDown,ArrowLeft"":15,""ArrowDown,ArrowRight"":23}","true","ArrowUp,ArrowRight","false","","","","","","","","","",""
"html-keyboard-response","50","273876","0.0-3.0-8.0-1.4","pilot_wm_v1","59a07638bfd73c00010ea394","1","null","null","true","","","","","","","null","<div style=""font-size:60px;"">+</div>","null","fixation","","","","","","","","","","","","","","","",""
"learning-instructions","51","285919","0.0-3.0-9.0-0.0","pilot_wm_v1","59a07638bfd73c00010ea394","1","null","null","true","","","","","","","1755.5","<p> One last thing: sometimes, you will see a robber. The robber can be anywhere in the picture. </p>
            <p> If you do not stop them, you will lose treasure. </p>
            <img src='./assets/img/instructions/robber.jpg' class='instructions-image'>","","instructions","","","","","","","","","","","","","","","",""
"learning-instructions","52","294751","0.0-3.0-9.0-0.1","pilot_wm_v1","59a07638bfd73c00010ea394","1","null","null","true","","","","","","","1677.5999999642372","<p> If you see the robber, you should <b>press the space bar</b> rather than using the arrow keys. </p>
            <p> Try practicing that now! </p>","","instructions","","","","","","","","","","","","","","","",""
"revaluation","53","298782","0.0-3.0-10.0-0.0","pilot_wm_v1","59a07638bfd73c00010ea394","1","null","null","true","","false","","","","","[825.3999999761581]","./assets/img/space/catch/0.jpg","[""spaceBar""]","catch practice","space","0","{""ArrowUp,ArrowLeft"":3,""ArrowUp,ArrowRight"":36,""ArrowDown,ArrowLeft"":15,""ArrowDown,ArrowRight"":23}","true","spaceBar","true","","","","","","","","","",""
"html-keyboard-response","54","299291","0.0-3.0-10.0-1.0","pilot_wm_v1","59a07638bfd73c00010ea394","1","null","null","true","","","","","","","null","<div style=""font-size:60px;"">+</div>","null","fixation","","","","","","","","","","","","","","","",""
"revaluation","55","303312","0.0-3.0-10.0-0.1","pilot_wm_v1","59a07638bfd73c00010ea394","1","null","null","true","","false","","","","","[501.60000002384186]","./assets/img/space/catch/1.jpg","[""spaceBar""]","catch practice","space","0","{""ArrowUp,ArrowLeft"":3,""ArrowUp,ArrowRight"":36,""ArrowDown,ArrowLeft"":15,""ArrowDown,ArrowRight"":23}","true","spaceBar","true","","","","","","","","","",""
"html-keyboard-response","56","303826","0.0-3.0-10.0-1.1","pilot_wm_v1","59a07638bfd73c00010ea394","1","null","null","true","","","","","","","null","<div style=""font-size:60px;"">+</div>","null","fixation","","","","","","","","","","","","","","","",""
"revaluation","57","307845","0.0-3.0-10.0-0.2","pilot_wm_v1","59a07638bfd73c00010ea394","1","null","null","true","","false","","","","","[592.3999999761581]","./assets/img/space/catch/2.jpg","[""spaceBar""]","catch practice","space","0","{""ArrowUp,ArrowLeft"":3,""ArrowUp,ArrowRight"":36,""ArrowDown,ArrowLeft"":15,""ArrowDown,ArrowRight"":23}","true","spaceBar","true","","","","","","","","","",""
"html-keyboard-response","58","308358","0.0-3.0-10.0-1.2","pilot_wm_v1","59a07638bfd73c00010ea394","1","null","null","true","","","","","","","null","<div style=""font-size:60px;"">+</div>","null","fixation","","","","","","","","","","","","","","","",""
"learning-instructions","59","316695","0.0-3.0-11.0-0.0","pilot_wm_v1","59a07638bfd73c00010ea394","1","null","null","true","","","","","","[{""event"":""fullscreenenter"",""trial"":2,""time"":23013},{""event"":""blur"",""trial"":18,""time"":129391},{""event"":""focus"",""trial"":20,""time"":134228},{""event"":""blur"",""trial"":60,""time"":330611},{""event"":""focus"",""trial"":60,""time"":335263},{""event"":""blur"",""trial"":65,""time"":392209},{""event"":""focus"",""trial"":66,""time"":394691},{""event"":""blur"",""trial"":67,""time"":403792},{""event"":""focus"",""trial"":67,""time"":404320}]","2141","<p> Sometimes, you will come across a special kind of treasure chest that requires a password. </p>
            <img src='./assets/img/instructions/beep_chest.jpg' class='instructions-image'>","","instructions","","","","","","","","","","","","","","","",""
"learning-instructions","60","342343","0.0-3.0-11.0-0.1","pilot_wm_v1","59a07638bfd73c00010ea394","1","null","null","true","","","","","","","4048.899999976158","<p> Your friend will send you the password using a series of beeps so that you can open the chest and earn treasure. </p>
            <p> You will hear two kinds of beeps, a high beep and a low beep. </p>
            <p> You should report the number of high beeps that you heard before seeing the chest. </p>
            <img src='./assets/img/instructions/listen.jpg' class='instructions-image'>","","instructions","","","","","","","","","","","","","","","",""
"learning-instructions","61","367086","0.0-3.0-11.0-0.2","pilot_wm_v1","59a07638bfd73c00010ea394","1","null","null","true","","","","","","","2462.5","<p> For example, if you hear this series of beeps, you should report 4 as the password using the slider. </p>
            <p> After reporting a password for a chest, you should count the high beeps again starting from 0. </p>
            <p> Let's try practicing that now. </p>","","instructions","","","","","","","","","","","","","","","",""
"audio-button-response","62","375104","0.0-3.0-12.0-0.0-0.0","pilot_wm_v1","59a07638bfd73c00010ea394","1","null","null","true","","","","","","","null","./assets/audio/beeps/practice_6.wav","null","","","","","","","","","","","","","","","","",""
"html-slider-response","63","379358","0.0-3.0-12.0-0.0-1.0","pilot_wm_v1","59a07638bfd73c00010ea394","1","null","null","true","","","","","","","4253","<div style=""width:500px;"">
        <p>What is the password?</p>
        <img src='./assets/img/instructions/beep_chest.jpg' class='instructions-image'>","6","beep chest","","","","false","","","","50","0","6","","","","","",""
"comp-q","64","385534","0.0-3.0-12.0-0.0-2.0","pilot_wm_v1","59a07638bfd73c00010ea394","1","null","null","true","","","","","","[{""event"":""fullscreenenter"",""trial"":2,""time"":23013},{""event"":""blur"",""trial"":18,""time"":129391},{""event"":""focus"",""trial"":20,""time"":134228},{""event"":""blur"",""trial"":60,""time"":330611},{""event"":""focus"",""trial"":60,""time"":335263},{""event"":""blur"",""trial"":65,""time"":392209},{""event"":""focus"",""trial"":66,""time"":394691},{""event"":""blur"",""trial"":67,""time"":403792},{""event"":""focus"",""trial"":67,""time"":404320}]","1399.5","<p>Correct! There were 6 high pitched beeps before you saw the chest. </p>","0","beep answer","","","","","","","","","","","","","","","",""
"audio-button-response","65","393563","0.0-3.0-12.0-0.1-0.1","pilot_wm_v1","59a07638bfd73c00010ea394","1","null","null","true","","","","","","[{""event"":""fullscreenenter"",""trial"":2,""time"":23013},{""event"":""blur"",""trial"":18,""time"":129391},{""event"":""focus"",""trial"":20,""time"":134228},{""event"":""blur"",""trial"":60,""time"":330611},{""event"":""focus"",""trial"":60,""time"":335263},{""event"":""blur"",""trial"":65,""time"":392209},{""event"":""focus"",""trial"":66,""time"":394691},{""event"":""blur"",""trial"":67,""time"":403792},{""event"":""focus"",""trial"":67,""time"":404320}]","null","./assets/audio/beeps/practice_4.wav","null","","","","","","","","","","","","","","","","",""
"html-slider-response","66","397390","0.0-3.0-12.0-0.1-1.1","pilot_wm_v1","59a07638bfd73c00010ea394","1","null","null","true","","","","","","[{""event"":""fullscreenenter"",""trial"":2,""time"":23013},{""event"":""blur"",""trial"":18,""time"":129391},{""event"":""focus"",""trial"":20,""time"":134228},{""event"":""blur"",""trial"":60,""time"":330611},{""event"":""focus"",""trial"":60,""time"":335263},{""event"":""blur"",""trial"":65,""time"":392209},{""event"":""focus"",""trial"":66,""time"":394691},{""event"":""blur"",""trial"":67,""time"":403792},{""event"":""focus"",""trial"":67,""time"":404320}]","3827","<div style=""width:500px;"">
        <p>What is the password?</p>
        <img src='./assets/img/instructions/beep_chest.jpg' class='instructions-image'>","4","beep chest","","","","false","","","","50","0","4","","","","","",""
"comp-q","67","405783","0.0-3.0-12.0-0.1-2.1","pilot_wm_v1","59a07638bfd73c00010ea394","1","null","null","true","","","","","","","3649.300000011921","<p>Correct! There were 4 high pitched beeps before you saw the chest. </p>","0","beep answer","","","","","","","","","","","","","","","",""
"learning-instructions","68","417670","0.0-3.0-13.0-0.0","pilot_wm_v1","59a07638bfd73c00010ea394","1","null","null","true","","","","","","","1577.3999999761581","<p> Good job! In the real game we will not tell you if you entered the right password. </p>
            <p> Do your best, the treasure you earn from these chests will also give you extra bonus money. </p>","","instructions","","","","","","","","","","","","","","","",""
"learning-instructions","69","433694","0.0-3.0-14.0-0.0-0.0","pilot_wm_v1","59a07638bfd73c00010ea394","1","null","null","true","","","","","","","2411.199999988079","<p> After you explore a place to find treasure, it will be time to play a different game. </p>
            <p> During this game, red dots will appear on the screen and fall down slowly. </p>
            <p><b> You must click on them before they reach the bottom. </b></p>
            <img src='./assets/img/instructions/dotGame.jpg' class='instructions-image'>","","instructions","","","","","","","","","","","","","","","",""
"learning-instructions","70","440398","0.0-3.0-14.0-0.0-0.1","pilot_wm_v1","59a07638bfd73c00010ea394","1","null","null","true","","","","","","","1045.199999988079","<p> For every dot you click, you will earn additional treasure. </p>
            <p> Let’s try practicing that now. </p>","","instructions","","","","","","","","","","","","","","","",""
"revaluation","71","455403","0.0-3.0-14.0-1.0-0.0","pilot_wm_v1","59a07638bfd73c00010ea394","1","null","null","true","","","","","","","[89,63]","","","rest practice","","20","","","","","","","","","0","15000","","","",""
"learning-instructions","72","462719","0.0-3.0-15.0-0.0-0.0","pilot_wm_v1","59a07638bfd73c00010ea394","1","null","null","true","","","","","","","2084.900000035763","<p> Now, you will practice a shortened version of the game to get a sense of how it all fits together. </p>","","instructions","","","","","","","","","","","","","","","",""
"learning-instructions","73","467567","0.0-3.0-15.0-0.0-0.1","pilot_wm_v1","59a07638bfd73c00010ea394","1","null","null","true","","","","","","","1663.3999999761581","<p>This time you are searching for treasure in outer space.</p>","","instructions","","","","","","","","","","","","","","","",""
"learning-instructions","74","483495","0.0-3.0-15.0-1.0-0.0","pilot_wm_v1","59a07638bfd73c00010ea394","1","null","null","true","","","","","","","1181.4000000357628","<p> Remember, when you see a picture of the place, use the up and down keys to <b>find an animal</b>.</p>
            <p> When you encounter an animal, you should use the left and right keys to <b>select a treasure chest</b>.</p>
            <p> Don't forget to look out for the robber! </p>","","instructions","","","","","","","","","","","","","","","",""
"revaluation","75","489517","0.0-3.0-15.0-2.0-0.0","pilot_wm_v1","59a07638bfd73c00010ea394","1","null","null","true","","false","","","","","[1376.699999988079,602.3000000119209]","./assets/img/space/11.jpg","[""ArrowUp"",""ArrowRight""]","practice block","space","36","{""ArrowUp,ArrowLeft"":3,""ArrowUp,ArrowRight"":36,""ArrowDown,ArrowLeft"":15,""ArrowDown,ArrowRight"":23}","true","ArrowUp,ArrowRight","false","","","","","","","","","",""
"html-keyboard-response","76","490026","0.0-3.0-15.0-2.0-1.0","pilot_wm_v1","59a07638bfd73c00010ea394","1","null","null","true","","","","","","","null","<div style=""font-size:60px;"">+</div>","null","fixation","","","","","","","","","","","","","","","",""
"revaluation","77","496046","0.0-3.0-15.0-2.0-0.1","pilot_wm_v1","59a07638bfd73c00010ea394","1","null","null","true","","false","","","","","[814.6999999880791,429.69999998807907]","./assets/img/space/12.jpg","[""ArrowUp"",""ArrowRight""]","practice block","space","36","{""ArrowUp,ArrowLeft"":3,""ArrowUp,ArrowRight"":36,""ArrowDown,ArrowLeft"":15,""ArrowDown,ArrowRight"":23}","true","ArrowUp,ArrowRight","false","","","","","","","","","",""
"html-keyboard-response","78","496562","0.0-3.0-15.0-2.0-1.1","pilot_wm_v1","59a07638bfd73c00010ea394","1","null","null","true","","","","","","","null","<div style=""font-size:60px;"">+</div>","null","fixation","","","","","","","","","","","","","","","",""
"revaluation","79","502591","0.0-3.0-15.0-2.0-0.2","pilot_wm_v1","59a07638bfd73c00010ea394","1","null","null","true","","false","","","","","[834.5,404.30000001192093]","./assets/img/space/13.jpg","[""ArrowUp"",""ArrowRight""]","practice block","space","36","{""ArrowUp,ArrowLeft"":3,""ArrowUp,ArrowRight"":36,""ArrowDown,ArrowLeft"":15,""ArrowDown,ArrowRight"":23}","true","ArrowUp,ArrowRight","false","","","","","","","","","",""
"html-keyboard-response","80","503093","0.0-3.0-15.0-2.0-1.2","pilot_wm_v1","59a07638bfd73c00010ea394","1","null","null","true","","","","","","","null","<div style=""font-size:60px;"">+</div>","null","fixation","","","","","","","","","","","","","","","",""
"revaluation","81","509111","0.0-3.0-15.0-2.0-0.3","pilot_wm_v1","59a07638bfd73c00010ea394","1","null","null","true","","false","","","","","[723.1999999880791,576.1999999880791]","./assets/img/space/14.jpg","[""ArrowUp"",""ArrowRight""]","practice block","space","36","{""ArrowUp,ArrowLeft"":3,""ArrowUp,ArrowRight"":36,""ArrowDown,ArrowLeft"":15,""ArrowDown,ArrowRight"":23}","true","ArrowUp,ArrowRight","false","","","","","","","","","",""
"html-keyboard-response","82","509621","0.0-3.0-15.0-2.0-1.3","pilot_wm_v1","59a07638bfd73c00010ea394","1","null","null","true","","","","","","","null","<div style=""font-size:60px;"">+</div>","null","fixation","","","","","","","","","","","","","","","",""
"revaluation","83","515629","0.0-3.0-15.0-2.0-0.4","pilot_wm_v1","59a07638bfd73c00010ea394","1","null","null","true","","false","","","","","[1067.6000000238419,550]","./assets/img/space/11.jpg","[""ArrowUp"",""ArrowRight""]","practice block","space","36","{""ArrowUp,ArrowLeft"":3,""ArrowUp,ArrowRight"":36,""ArrowDown,ArrowLeft"":15,""ArrowDown,ArrowRight"":23}","true","ArrowUp,ArrowRight","false","","","","","","","","","",""
"html-keyboard-response","84","516130","0.0-3.0-15.0-2.0-1.4","pilot_wm_v1","59a07638bfd73c00010ea394","1","null","null","true","","","","","","","null","<div style=""font-size:60px;"">+</div>","null","fixation","","","","","","","","","","","","","","","",""
"revaluation","85","522134","0.0-3.0-15.0-2.0-0.5","pilot_wm_v1","59a07638bfd73c00010ea394","1","null","null","true","","false","","","","","[790.5,293.30000001192093]","./assets/img/space/12.jpg","[""ArrowUp"",""ArrowRight""]","practice block","space","36","{""ArrowUp,ArrowLeft"":3,""ArrowUp,ArrowRight"":36,""ArrowDown,ArrowLeft"":15,""ArrowDown,ArrowRight"":23}","true","ArrowUp,ArrowRight","false","","","","","","","","","",""
"html-keyboard-response","86","522636","0.0-3.0-15.0-2.0-1.5","pilot_wm_v1","59a07638bfd73c00010ea394","1","null","null","true","","","","","","","null","<div style=""font-size:60px;"">+</div>","null","fixation","","","","","","","","","","","","","","","",""
"revaluation","87","528639","0.0-3.0-15.0-2.0-0.6","pilot_wm_v1","59a07638bfd73c00010ea394","1","null","null","true","","false","","","","","[797,340.2000000476837]","./assets/img/space/13.jpg","[""ArrowUp"",""ArrowRight""]","practice block","space","36","{""ArrowUp,ArrowLeft"":3,""ArrowUp,ArrowRight"":36,""ArrowDown,ArrowLeft"":15,""ArrowDown,ArrowRight"":23}","true","ArrowUp,ArrowRight","false","","","","","","","","","",""
"html-keyboard-response","88","529141","0.0-3.0-15.0-2.0-1.6","pilot_wm_v1","59a07638bfd73c00010ea394","1","null","null","true","","","","","","","null","<div style=""font-size:60px;"">+</div>","null","fixation","","","","","","","","","","","","","","","",""
"revaluation","89","535145","0.0-3.0-15.0-2.0-0.7","pilot_wm_v1","59a07638bfd73c00010ea394","1","null","null","true","","false","","","","","[748.1999999880791,314.30000001192093]","./assets/img/space/14.jpg","[""ArrowUp"",""ArrowRight""]","practice block","space","36","{""ArrowUp,ArrowLeft"":3,""ArrowUp,ArrowRight"":36,""ArrowDown,ArrowLeft"":15,""ArrowDown,ArrowRight"":23}","true","ArrowUp,ArrowRight","false","","","","","","","","","",""
"html-keyboard-response","90","535647","0.0-3.0-15.0-2.0-1.7","pilot_wm_v1","59a07638bfd73c00010ea394","1","null","null","true","","","","","","","null","<div style=""font-size:60px;"">+</div>","null","fixation","","","","","","","","","","","","","","","",""
"revaluation","91","539648","0.0-3.0-15.0-2.0-0.8","pilot_wm_v1","59a07638bfd73c00010ea394","1","null","null","true","","false","","","","","[553.7000000476837]","./assets/img/space/catch/3.jpg","[""spaceBar""]","practice block","space","0","{""ArrowUp,ArrowLeft"":3,""ArrowUp,ArrowRight"":36,""ArrowDown,ArrowLeft"":15,""ArrowDown,ArrowRight"":23}","true","spaceBar","true","","","","","","","","","",""
"html-keyboard-response","92","540149","0.0-3.0-15.0-2.0-1.8","pilot_wm_v1","59a07638bfd73c00010ea394","1","null","null","true","","","","","","","null","<div style=""font-size:60px;"">+</div>","null","fixation","","","","","","","","","","","","","","","",""
"learning-instructions","93","556071","0.0-3.0-15.0-3.0-0.0","pilot_wm_v1","59a07638bfd73c00010ea394","1","null","null","true","","","","","","","3017.699999988079","<p> Now, you will travel with a friend who will choose whether you go up or down first. </p>
            <p> On these turns, you will just see the animal that they found. You will still get to choose which chest to search for treasure.</p>","","instructions","","","","","","","","","","","","","","","",""
"learning-instructions","94","569436","0.0-3.0-15.0-3.0-0.1","pilot_wm_v1","59a07638bfd73c00010ea394","1","null","null","true","","","","","","","1742.2999999523163","<p> In this part, you will also hear beeps from your friend and see special treasure chests that need a password. </p>
            <p> Do your best to count the high beeps <b>and</b> choose between each animals' chests at the same time.</p>
            <img src='./assets/img/instructions/beep_chest.jpg' class='instructions-image'>","","instructions","","","","","","","","","","","","","","","",""
"revaluation","95","573461","0.0-3.0-15.0-4.0-0.0","pilot_wm_v1","59a07638bfd73c00010ea394","1","null","null","true","","false","","","","","[1220.199999988079]","./assets/img/space/animals/cat.jpg","[""ArrowRight""]","practice block","space","36","{""ArrowUp,ArrowLeft"":3,""ArrowUp,ArrowRight"":36,""ArrowDown,ArrowLeft"":15,""ArrowDown,ArrowRight"":23}","true","ArrowUp,ArrowRight","","[""20_0""]","","","","","","0","","",""
"html-keyboard-response","96","573977","0.0-3.0-15.0-4.0-1.0","pilot_wm_v1","59a07638bfd73c00010ea394","1","null","null","true","","","","","","","null","<div style=""font-size:60px;"">+</div>","null","fixation","","","","","","","","","","","","","","","",""
"revaluation","97","577992","0.0-3.0-15.0-4.0-0.1","pilot_wm_v1","59a07638bfd73c00010ea394","1","null","null","true","","true","","","","","[]","./assets/img/space/animals/cat.jpg","[]","practice block","space","-5","{""ArrowUp,ArrowLeft"":3,""ArrowUp,ArrowRight"":36,""ArrowDown,ArrowLeft"":15,""ArrowDown,ArrowRight"":23}","false","ArrowUp","","[""19_0""]","","","","","","1","","",""
"html-keyboard-response","98","578494","0.0-3.0-15.0-4.0-1.1","pilot_wm_v1","59a07638bfd73c00010ea394","1","null","null","true","","","","","","","null","<div style=""font-size:60px;"">+</div>","null","fixation","","","","","","","","","","","","","","","",""
"revaluation","99","582511","0.0-3.0-15.0-4.0-0.2","pilot_wm_v1","59a07638bfd73c00010ea394","1","null","null","true","","false","","","","","[779.1000000238419]","./assets/img/space/animals/rabbit.jpg","[""ArrowLeft""]","practice block","space","15","{""ArrowUp,ArrowLeft"":3,""ArrowUp,ArrowRight"":36,""ArrowDown,ArrowLeft"":15,""ArrowDown,ArrowRight"":23}","false","ArrowDown,ArrowLeft","","[""21_1""]","","","","","","2","","",""
"html-keyboard-response","100","583021","0.0-3.0-15.0-4.0-1.2","pilot_wm_v1","59a07638bfd73c00010ea394","1","null","null","true","","","","","","","null","<div style=""font-size:60px;"">+</div>","null","fixation","","","","","","","","","","","","","","","",""
"revaluation","101","587024","0.0-3.0-15.0-4.0-0.3","pilot_wm_v1","59a07638bfd73c00010ea394","1","null","null","true","","false","","","","","[587.3000000119209]","./assets/img/space/animals/rabbit.jpg","[""ArrowRight""]","practice block","space","23","{""ArrowUp,ArrowLeft"":3,""ArrowUp,ArrowRight"":36,""ArrowDown,ArrowLeft"":15,""ArrowDown,ArrowRight"":23}","true","ArrowDown,ArrowRight","","[""22_3""]","","","","","","3","","",""
"html-keyboard-response","102","587526","0.0-3.0-15.0-4.0-1.3","pilot_wm_v1","59a07638bfd73c00010ea394","1","null","null","true","","","","","","","null","<div style=""font-size:60px;"">+</div>","null","fixation","","","","","","","","","","","","","","","",""
"html-slider-response","103","591263","0.0-3.0-15.0-4.0-2.3-0.3","pilot_wm_v1","59a07638bfd73c00010ea394","1","null","null","true","","","","","","","3734","<div style=""width:500px;"">
        <p>What is the password?</p>
        <img src='./assets/img/instructions/beep_chest.jpg' class='instructions-image'>","3","beep chest","","","","false","","","","50","82","79","","","","","",""
"learning-instructions","104","599831","0.0-3.0-15.0-5.0-0.0-0.0","pilot_wm_v1","59a07638bfd73c00010ea394","1","null","null","true","","","","","","","1207.3999999761581","<p> Time to play the dot game! </p>
            <p> For 15 seconds, click the red dots on the following screen as they appear. </p>","","instructions","","","","","","","","","","","","","","","",""
"revaluation","105","614839","0.0-3.0-15.0-5.0-1.0-0.0","pilot_wm_v1","59a07638bfd73c00010ea394","1","null","null","true","","","","","","","[53]","","","rest practice","","10","","","","","","","","","0","15000","","","",""
"learning-instructions","106","622954","0.0-3.0-15.0-6.0-0.0","pilot_wm_v1","59a07638bfd73c00010ea394","1","null","null","true","","","","","","","null","<p> You have almost finished this part of the game! </p>
            <p> We are going to ask you to make a few more choices. </p>","","instructions","","","","","","","","","","","","","","","",""
"learning-instructions","107","638956","0.0-3.0-15.0-6.0-0.1","pilot_wm_v1","59a07638bfd73c00010ea394","1","null","null","true","","","","","","","null","<p> First, you need to decide whether to go up or down. When you see each picture, use the arrow keys to make your choice. </p>
            <p><b>You will not see which animal you found, but try to get to the one that will give you the most treasure.</b></p>","","instructions","","","","","","","","","","","","","","","",""
"html-keyboard-response","108","639966","0.0-3.0-15.0-7.0-0.0","pilot_wm_v1","59a07638bfd73c00010ea394","1","null","null","true","","","","","","","null","<div style=""font-size:100px;color:red;"">Starting in...</div>","null","","","","","","","","","","","","","","","","",""
"html-keyboard-response","109","640974","0.0-3.0-15.0-7.0-1.0","pilot_wm_v1","59a07638bfd73c00010ea394","1","null","null","true","","","","","","","null","<div style=""font-size:200px;color:red;"">3</div>","null","","","","","","","","","","","","","","","","",""
"html-keyboard-response","110","641984","0.0-3.0-15.0-7.0-2.0","pilot_wm_v1","59a07638bfd73c00010ea394","1","null","null","true","","","","","","","null","<div style=""font-size:200px;color:red;"">2</div>","null","","","","","","","","","","","","","","","","",""
"html-keyboard-response","111","642993","0.0-3.0-15.0-7.0-3.0","pilot_wm_v1","59a07638bfd73c00010ea394","1","null","null","true","","","","","","","null","<div style=""font-size:200px;color:red;"">1</div>","null","","","","","","","","","","","","","","","","",""
"revaluation","112","643538","0.0-3.0-15.0-8.0","pilot_wm_v1","59a07638bfd73c00010ea394","1","null","null","true","","false","","","","","[542.3999999761581]","./assets/img/space/15.jpg","[""ArrowUp""]","practice block","space","0","{""ArrowUp,ArrowLeft"":3,""ArrowUp,ArrowRight"":36,""ArrowDown,ArrowLeft"":15,""ArrowDown,ArrowRight"":23}","true","ArrowUp","false","","","","","","","","","",""
"html-keyboard-response","113","644052","0.0-3.0-15.0-9.0","pilot_wm_v1","59a07638bfd73c00010ea394","1","null","null","true","","","","","","","null","<div style=""font-size:60px;"">+</div>","null","fixation","","","","","","","","","","","","","","","",""
"learning-instructions","114","657405","0.0-3.0-15.0-10.0-0.0","pilot_wm_v1","59a07638bfd73c00010ea394","1","null","null","true","","","","","","","null","<p> Now you will see the animals again and can search their chests for treasure. </p>
            <p> This time, you will not see how much treasure you earned, but you will earn more bonus money for making better choices. </p>","","instructions","","","","","","","","","","","","","","","",""
"html-keyboard-response","115","658415","0.0-3.0-15.0-11.0-0.0","pilot_wm_v1","59a07638bfd73c00010ea394","1","null","null","true","","","","","","","null","<div style=""font-size:100px;color:red;"">Starting in...</div>","null","","","","","","","","","","","","","","","","",""
"html-keyboard-response","116","659424","0.0-3.0-15.0-11.0-1.0","pilot_wm_v1","59a07638bfd73c00010ea394","1","null","null","true","","","","","","","null","<div style=""font-size:200px;color:red;"">3</div>","null","","","","","","","","","","","","","","","","",""
"html-keyboard-response","117","660428","0.0-3.0-15.0-11.0-2.0","pilot_wm_v1","59a07638bfd73c00010ea394","1","null","null","true","","","","","","","null","<div style=""font-size:200px;color:red;"">2</div>","null","","","","","","","","","","","","","","","","",""
"html-keyboard-response","118","661437","0.0-3.0-15.0-11.0-3.0","pilot_wm_v1","59a07638bfd73c00010ea394","1","null","null","true","","","","","","","null","<div style=""font-size:200px;color:red;"">1</div>","null","","","","","","","","","","","","","","","","",""
"revaluation","119","662073","0.0-3.0-15.0-12.0-0.0","pilot_wm_v1","59a07638bfd73c00010ea394","1","null","null","true","","false","","","","","[635.1999999880791]","./assets/img/space/animals/cat.jpg","[""ArrowRight""]","practice block","space","0","{""ArrowUp,ArrowLeft"":3,""ArrowUp,ArrowRight"":36,""ArrowDown,ArrowLeft"":15,""ArrowDown,ArrowRight"":23}","true","ArrowUp,ArrowRight","","","","","","","","","","",""
"html-keyboard-response","120","662581","0.0-3.0-15.0-12.0-1.0","pilot_wm_v1","59a07638bfd73c00010ea394","1","null","null","true","","","","","","","null","<div style=""font-size:60px;"">+</div>","null","fixation","","","","","","","","","","","","","","","",""
"revaluation","121","663602","0.0-3.0-15.0-12.0-0.1","pilot_wm_v1","59a07638bfd73c00010ea394","1","null","null","true","","false","","","","","[1019.6999999880791]","./assets/img/space/animals/rabbit.jpg","[""ArrowRight""]","practice block","space","0","{""ArrowUp,ArrowLeft"":3,""ArrowUp,ArrowRight"":36,""ArrowDown,ArrowLeft"":15,""ArrowDown,ArrowRight"":23}","true","ArrowDown,ArrowRight","","","","","","","","","","",""
"html-keyboard-response","122","664109","0.0-3.0-15.0-12.0-1.1","pilot_wm_v1","59a07638bfd73c00010ea394","1","null","null","true","","","","","","","null","<div style=""font-size:60px;"">+</div>","null","fixation","","","","","","","","","","","","","","","",""
"learning-instructions","123","670661","0.0-3.0-16.0-0.0","pilot_wm_v1","59a07638bfd73c00010ea394","1","null","null","true","","","","","","","1988","<p> Before you start, we're going to ask you a few questions about how the game works. </p>","","instructions","","","","","","","","","","","","","","","",""
"comp-q","124","677407","0.0-3.0-17.0-0.0-0.0","pilot_wm_v1","59a07638bfd73c00010ea394","1","null","null","true","","","","","","","1181.9000000357628","<p> <b> True or False? </b> </p>
            <p> There can be 50 pieces of treasure in a given animal's chest. </p>","1","comp_question","","","","true","","","","","","","","","","","",""
"comp-q","125","685638","0.0-3.0-17.0-0.0-1.0","pilot_wm_v1","59a07638bfd73c00010ea394","1","null","null","true","","","","","","","1594.4000000357628","<p> <b> That's right! </b> The amount of treasure in each chest can range from 0 to 40 pieces. </p>","0","comp_answer","","","","","","","","","","","","","","","",""
"comp-q","126","693911","0.0-3.0-17.0-0.1-0.1","pilot_wm_v1","59a07638bfd73c00010ea394","1","null","null","true","","","","","","","1167.4000000357628","<p> <b> True or False? </b> </p><p> In this game, all animals have the same amount of treasure in their left and right chests. </p>","1","comp_question","","","","true","","","","","","","","","","","",""
"comp-q","127","702415","0.0-3.0-17.0-0.1-1.1","pilot_wm_v1","59a07638bfd73c00010ea394","1","null","null","true","","","","","","","3291.100000023842","<p> <b> That's right! </b> Animals have different amounts of treasure in their treasure chests. </p>","0","comp_answer","","","","","","","","","","","","","","","",""
"comp-q","128","708999","0.0-3.0-17.0-0.2-0.2","pilot_wm_v1","59a07638bfd73c00010ea394","1","null","null","true","","","","","","","755.8000000119209","<p> <b> True or False? </b> </p><p> The same animal will always be there if you go up in the same place. </p>","0","comp_question","","","","true","","","","","","","","","","","",""
"comp-q","129","716439","0.0-3.0-17.0-0.2-1.2","pilot_wm_v1","59a07638bfd73c00010ea394","1","null","null","true","","","","","","","1005.6000000238419","<p> <b> That's right! </b> One animal lives in the upper part and one lives in the lower part of every place. </p>","0","comp_answer","","","","","","","","","","","","","","","",""
"comp-q","130","723271","0.0-3.0-17.0-0.3-0.3","pilot_wm_v1","59a07638bfd73c00010ea394","1","null","null","true","","","","","","","1317.300000011921","<p> <b> True or False? </b> </p><p> If you see a different picture, it means you are in a new place. </p>","0","comp_question","","","","false","","","","","","","","","","","",""
"comp-q","131","735095","0.0-3.0-17.0-0.3-1.3","pilot_wm_v1","59a07638bfd73c00010ea394","1","null","null","true","","","","","","","741.1000000238419","<p> <b>Incorrect.</b> Lots of different images may show the same place. For example,  you may see three different images that all remind you that you are in outer space. </p>","0","comp_answer","","","","","","","","","","","","","","","",""
"comp-q","132","741270","0.0-3.0-17.0-0.4-0.4","pilot_wm_v1","59a07638bfd73c00010ea394","1","null","null","true","","","","","","","676.5999999642372","<p> <b> True or False? </b> </p><p> If you see a different picture, it means you are in a new place. </p>","1","comp_question","","","","true","","","","","","","","","","","",""
"comp-q","133","753294","0.0-3.0-17.0-0.4-1.4","pilot_wm_v1","59a07638bfd73c00010ea394","1","null","null","true","","","","","","","811.8000000119209","<p> <b> That's right! </b> Lots of different images may show the same place. For example,  you may see three different images that all remind you that you are in outer space. </p>","0","comp_answer","","","","","","","","","","","","","","","",""
"learning-instructions","134","764998","0.0-3.0-18.0-0.0","pilot_wm_v1","59a07638bfd73c00010ea394","1","null","null","true","","","","","","","1875.5","<p> Good job. Remember to do your best because the amount of treasure you earn will be converted into bonus money. </p>
            <p> It’s time to start the real game! </p>","","instructions","","","","","","","","","","","","","","","",""
"learning-instructions","135","769222","0.0-4.0-0.0-0.0","pilot_wm_v1","59a07638bfd73c00010ea394","1","null","null","true","","","","","","","1519.3999999761581","<p> This time you are searching for treasure in the <b>ocean</b>.</p>","","instructions","","","","","","","","","","","","","","","",""
"learning-instructions","136","787662","0.0-4.0-0.0-0.1","pilot_wm_v1","59a07638bfd73c00010ea394","1","null","null","true","","","","","","","1159.800000011921","<p><b>New</b> animals with <b>new</b> treasure chests live here. You need to explore to discover where the animal with the best treasure chest is.</p>
                    <p> Like before, once you figure out which animal has the chest with the most treasure, you should try to get to that animal and select that chest! </p>","","instructions","","","","","","","","","","","","","","","",""
"learning-instructions","137","803318","0.0-4.0-1.0-0.0","pilot_wm_v1","59a07638bfd73c00010ea394","1","null","null","true","","","","","","","924.6999999880791","<p> Remember, when you see a picture of the place, use the up and down keys to <b>find an animal</b>.</p>
            <p> When you encounter an animal, you should use the left and right keys to <b>select a treasure chest</b>.</p>
            <p> Don't forget to look out for the robber! </p>","","instructions","","","","","","","","","","","","","","","",""
"revaluation","138","807338","0.0-4.0-2.0-0.0","pilot_wm_v1","59a07638bfd73c00010ea394","1","null","null","true","","false","","","","","[983.8000000119209]","./assets/img/ocean/catch/3.jpg","[""ArrowUp""]","value training","ocean","-10","{""ArrowUp,ArrowLeft"":26,""ArrowUp,ArrowRight"":10,""ArrowDown,ArrowLeft"":5,""ArrowDown,ArrowRight"":17}","false","ArrowUp","true","","","","","","","0","original","1",""
"html-keyboard-response","139","807852","0.0-4.0-2.0-1.0","pilot_wm_v1","59a07638bfd73c00010ea394","1","null","null","true","","","","","","","null","<div style=""font-size:60px;"">+</div>","null","fixation","","","","","","","","","","","","","1","","",""
"revaluation","140","813876","0.0-4.0-2.0-0.1","pilot_wm_v1","59a07638bfd73c00010ea394","1","null","null","true","","false","","","","","[595.1000000238419,762]","./assets/img/ocean/memory/3.jpg","[""ArrowUp"",""ArrowRight""]","value training","ocean","10","{""ArrowUp,ArrowLeft"":26,""ArrowUp,ArrowRight"":10,""ArrowDown,ArrowLeft"":5,""ArrowDown,ArrowRight"":17}","false","ArrowUp,ArrowRight","false","","","","","","","2","original","1",""
"html-keyboard-response","141","814380","0.0-4.0-2.0-1.1","pilot_wm_v1","59a07638bfd73c00010ea394","1","null","null","true","","","","","","","null","<div style=""font-size:60px;"">+</div>","null","fixation","","","","","","","","","","","","","3","","",""
"revaluation","142","820411","0.0-4.0-2.0-0.2","pilot_wm_v1","59a07638bfd73c00010ea394","1","null","null","true","","false","","","","","[755.3999999761581,453.89999997615814]","./assets/img/ocean/memory/6.jpg","[""ArrowUp"",""ArrowLeft""]","value training","ocean","26","{""ArrowUp,ArrowLeft"":26,""ArrowUp,ArrowRight"":10,""ArrowDown,ArrowLeft"":5,""ArrowDown,ArrowRight"":17}","true","ArrowUp,ArrowLeft","false","","","","","","","4","original","1",""
"html-keyboard-response","143","820925","0.0-4.0-2.0-1.2","pilot_wm_v1","59a07638bfd73c00010ea394","1","null","null","true","","","","","","","null","<div style=""font-size:60px;"">+</div>","null","fixation","","","","","","","","","","","","","5","","",""
"revaluation","144","826950","0.0-4.0-2.0-0.3","pilot_wm_v1","59a07638bfd73c00010ea394","1","null","null","true","","false","","","","","[594.0999999642372,721.8000000119209]","./assets/img/ocean/memory/27.jpg","[""ArrowDown"",""ArrowLeft""]","value training","ocean","5","{""ArrowUp,ArrowLeft"":26,""ArrowUp,ArrowRight"":10,""ArrowDown,ArrowLeft"":5,""ArrowDown,ArrowRight"":17}","false","ArrowDown,ArrowLeft","false","","","","","","","6","original","1",""
"html-keyboard-response","145","827460","0.0-4.0-2.0-1.3","pilot_wm_v1","59a07638bfd73c00010ea394","1","null","null","true","","","","","","","null","<div style=""font-size:60px;"">+</div>","null","fixation","","","","","","","","","","","","","7","","",""
"revaluation","146","831482","0.0-4.0-2.0-0.4","pilot_wm_v1","59a07638bfd73c00010ea394","1","null","null","true","","false","","","","","[885.1000000238419]","./assets/img/ocean/catch/5.jpg","[""spaceBar""]","value training","ocean","0","{""ArrowUp,ArrowLeft"":26,""ArrowUp,ArrowRight"":10,""ArrowDown,ArrowLeft"":5,""ArrowDown,ArrowRight"":17}","true","spaceBar","true","","","","","","","8","original","1",""
"html-keyboard-response","147","831987","0.0-4.0-2.0-1.4","pilot_wm_v1","59a07638bfd73c00010ea394","1","null","null","true","","","","","","","null","<div style=""font-size:60px;"">+</div>","null","fixation","","","","","","","","","","","","","9","","",""
"revaluation","148","837990","0.0-4.0-2.0-0.5","pilot_wm_v1","59a07638bfd73c00010ea394","1","null","null","true","","false","","","","","[478.7000000476837,365.80000001192093]","./assets/img/ocean/memory/2.jpg","[""ArrowDown"",""ArrowRight""]","value training","ocean","17","{""ArrowUp,ArrowLeft"":26,""ArrowUp,ArrowRight"":10,""ArrowDown,ArrowLeft"":5,""ArrowDown,ArrowRight"":17}","false","ArrowDown,ArrowRight","false","","","","","","","10","original","1",""
"html-keyboard-response","149","838490","0.0-4.0-2.0-1.5","pilot_wm_v1","59a07638bfd73c00010ea394","1","null","null","true","","","","","","","null","<div style=""font-size:60px;"">+</div>","null","fixation","","","","","","","","","","","","","11","","",""
"revaluation","150","844495","0.0-4.0-2.0-0.6","pilot_wm_v1","59a07638bfd73c00010ea394","1","null","null","true","","false","","","","","[573.0999999642372,318.5999999642372]","./assets/img/ocean/memory/6.jpg","[""ArrowUp"",""ArrowRight""]","value training","ocean","10","{""ArrowUp,ArrowLeft"":26,""ArrowUp,ArrowRight"":10,""ArrowDown,ArrowLeft"":5,""ArrowDown,ArrowRight"":17}","false","ArrowUp,ArrowRight","false","","","","","","","12","original","1",""
"html-keyboard-response","151","844996","0.0-4.0-2.0-1.6","pilot_wm_v1","59a07638bfd73c00010ea394","1","null","null","true","","","","","","","null","<div style=""font-size:60px;"">+</div>","null","fixation","","","","","","","","","","","","","13","","",""
"revaluation","152","851001","0.0-4.0-2.0-0.7","pilot_wm_v1","59a07638bfd73c00010ea394","1","null","null","true","","false","","","","","[1075.300000011921,378.89999997615814]","./assets/img/ocean/memory/33.jpg","[""ArrowDown"",""ArrowRight""]","value training","ocean","17","{""ArrowUp,ArrowLeft"":26,""ArrowUp,ArrowRight"":10,""ArrowDown,ArrowLeft"":5,""ArrowDown,ArrowRight"":17}","false","ArrowDown,ArrowRight","false","","","","","","","14","original","1",""
"html-keyboard-response","153","851502","0.0-4.0-2.0-1.7","pilot_wm_v1","59a07638bfd73c00010ea394","1","null","null","true","","","","","","","null","<div style=""font-size:60px;"">+</div>","null","fixation","","","","","","","","","","","","","15","","",""
"revaluation","154","857505","0.0-4.0-2.0-0.8","pilot_wm_v1","59a07638bfd73c00010ea394","1","null","null","true","","false","","","","","[921.8000000119209,416.5]","./assets/img/ocean/memory/35.jpg","[""ArrowDown"",""ArrowRight""]","value training","ocean","17","{""ArrowUp,ArrowLeft"":26,""ArrowUp,ArrowRight"":10,""ArrowDown,ArrowLeft"":5,""ArrowDown,ArrowRight"":17}","false","ArrowDown,ArrowRight","false","","","","","","","16","original","1",""
"html-keyboard-response","155","858006","0.0-4.0-2.0-1.8","pilot_wm_v1","59a07638bfd73c00010ea394","1","null","null","true","","","","","","","null","<div style=""font-size:60px;"">+</div>","null","fixation","","","","","","","","","","","","","17","","",""
"revaluation","156","864012","0.0-4.0-2.0-0.9","pilot_wm_v1","59a07638bfd73c00010ea394","1","null","null","true","","false","","","","","[834.6999999880791,408.30000001192093]","./assets/img/ocean/memory/4.jpg","[""ArrowDown"",""ArrowRight""]","value training","ocean","17","{""ArrowUp,ArrowLeft"":26,""ArrowUp,ArrowRight"":10,""ArrowDown,ArrowLeft"":5,""ArrowDown,ArrowRight"":17}","false","ArrowDown,ArrowRight","false","","","","","","","18","original","1",""
"html-keyboard-response","157","864513","0.0-4.0-2.0-1.9","pilot_wm_v1","59a07638bfd73c00010ea394","1","null","null","true","","","","","","","null","<div style=""font-size:60px;"">+</div>","null","fixation","","","","","","","","","","","","","19","","",""
"revaluation","158","870517","0.0-4.0-2.0-0.10","pilot_wm_v1","59a07638bfd73c00010ea394","1","null","null","true","","false","","","","","[742.3999999761581,223.69999998807907]","./assets/img/ocean/memory/24.jpg","[""ArrowDown"",""ArrowRight""]","value training","ocean","17","{""ArrowUp,ArrowLeft"":26,""ArrowUp,ArrowRight"":10,""ArrowDown,ArrowLeft"":5,""ArrowDown,ArrowRight"":17}","false","ArrowDown,ArrowRight","false","","","","","","","20","original","1",""
"html-keyboard-response","159","871018","0.0-4.0-2.0-1.10","pilot_wm_v1","59a07638bfd73c00010ea394","1","null","null","true","","","","","","","null","<div style=""font-size:60px;"">+</div>","null","fixation","","","","","","","","","","","","","21","","",""
"revaluation","160","877023","0.0-4.0-2.0-0.11","pilot_wm_v1","59a07638bfd73c00010ea394","1","null","null","true","","false","","","","","[517.6000000238419,329]","./assets/img/ocean/memory/41.jpg","[""ArrowDown"",""ArrowRight""]","value training","ocean","17","{""ArrowUp,ArrowLeft"":26,""ArrowUp,ArrowRight"":10,""ArrowDown,ArrowLeft"":5,""ArrowDown,ArrowRight"":17}","false","ArrowDown,ArrowRight","false","","","","","","","22","original","1",""
"html-keyboard-response","161","877523","0.0-4.0-2.0-1.11","pilot_wm_v1","59a07638bfd73c00010ea394","1","null","null","true","","","","","","","null","<div style=""font-size:60px;"">+</div>","null","fixation","","","","","","","","","","","","","23","","",""
"revaluation","162","883527","0.0-4.0-2.0-0.12","pilot_wm_v1","59a07638bfd73c00010ea394","1","null","null","true","","false","","","","","[588.7000000476837,358]","./assets/img/ocean/memory/32.jpg","[""ArrowDown"",""ArrowRight""]","value training","ocean","17","{""ArrowUp,ArrowLeft"":26,""ArrowUp,ArrowRight"":10,""ArrowDown,ArrowLeft"":5,""ArrowDown,ArrowRight"":17}","false","ArrowDown,ArrowRight","false","","","","","","","24","original","1",""
"html-keyboard-response","163","884044","0.0-4.0-2.0-1.12","pilot_wm_v1","59a07638bfd73c00010ea394","1","null","null","true","","","","","","","null","<div style=""font-size:60px;"">+</div>","null","fixation","","","","","","","","","","","","","25","","",""
"revaluation","164","890049","0.0-4.0-2.0-0.13","pilot_wm_v1","59a07638bfd73c00010ea394","1","null","null","true","","false","","","","","[508.30000001192093,389.60000002384186]","./assets/img/ocean/memory/37.jpg","[""ArrowDown"",""ArrowRight""]","value training","ocean","17","{""ArrowUp,ArrowLeft"":26,""ArrowUp,ArrowRight"":10,""ArrowDown,ArrowLeft"":5,""ArrowDown,ArrowRight"":17}","false","ArrowDown,ArrowRight","false","","","","","","","26","original","1",""
"html-keyboard-response","165","890550","0.0-4.0-2.0-1.13","pilot_wm_v1","59a07638bfd73c00010ea394","1","null","null","true","","","","","","","null","<div style=""font-size:60px;"">+</div>","null","fixation","","","","","","","","","","","","","27","","",""
"revaluation","166","896555","0.0-4.0-2.0-0.14","pilot_wm_v1","59a07638bfd73c00010ea394","1","null","null","true","","false","","","","","[537.8999999761581,328.69999998807907]","./assets/img/ocean/memory/4.jpg","[""ArrowDown"",""ArrowRight""]","value training","ocean","17","{""ArrowUp,ArrowLeft"":26,""ArrowUp,ArrowRight"":10,""ArrowDown,ArrowLeft"":5,""ArrowDown,ArrowRight"":17}","false","ArrowDown,ArrowRight","false","","","","","","","28","original","1",""
"html-keyboard-response","167","897057","0.0-4.0-2.0-1.14","pilot_wm_v1","59a07638bfd73c00010ea394","1","null","null","true","","","","","","","null","<div style=""font-size:60px;"">+</div>","null","fixation","","","","","","","","","","","","","29","","",""
"revaluation","168","903060","0.0-4.0-2.0-0.15","pilot_wm_v1","59a07638bfd73c00010ea394","1","null","null","true","","false","","","","","[968.1000000238419,418.69999998807907]","./assets/img/ocean/memory/2.jpg","[""ArrowDown"",""ArrowRight""]","value training","ocean","17","{""ArrowUp,ArrowLeft"":26,""ArrowUp,ArrowRight"":10,""ArrowDown,ArrowLeft"":5,""ArrowDown,ArrowRight"":17}","false","ArrowDown,ArrowRight","false","","","","","","","30","original","1",""
"html-keyboard-response","169","903561","0.0-4.0-2.0-1.15","pilot_wm_v1","59a07638bfd73c00010ea394","1","null","null","true","","","","","","","null","<div style=""font-size:60px;"">+</div>","null","fixation","","","","","","","","","","","","","31","","",""
"revaluation","170","909566","0.0-4.0-2.0-0.16","pilot_wm_v1","59a07638bfd73c00010ea394","1","null","null","true","","false","","","","","[678.8000000119209,303]","./assets/img/ocean/memory/27.jpg","[""ArrowDown"",""ArrowRight""]","value training","ocean","17","{""ArrowUp,ArrowLeft"":26,""ArrowUp,ArrowRight"":10,""ArrowDown,ArrowLeft"":5,""ArrowDown,ArrowRight"":17}","false","ArrowDown,ArrowRight","false","","","","","","","32","original","1",""
"html-keyboard-response","171","910067","0.0-4.0-2.0-1.16","pilot_wm_v1","59a07638bfd73c00010ea394","1","null","null","true","","","","","","","null","<div style=""font-size:60px;"">+</div>","null","fixation","","","","","","","","","","","","","33","","",""
"revaluation","172","916071","0.0-4.0-2.0-0.17","pilot_wm_v1","59a07638bfd73c00010ea394","1","null","null","true","","false","","","","","[829.5,317.30000001192093]","./assets/img/ocean/memory/21.jpg","[""ArrowDown"",""ArrowRight""]","value training","ocean","17","{""ArrowUp,ArrowLeft"":26,""ArrowUp,ArrowRight"":10,""ArrowDown,ArrowLeft"":5,""ArrowDown,ArrowRight"":17}","false","ArrowDown,ArrowRight","false","","","","","","","34","original","1",""
"html-keyboard-response","173","916572","0.0-4.0-2.0-1.17","pilot_wm_v1","59a07638bfd73c00010ea394","1","null","null","true","","","","","","","null","<div style=""font-size:60px;"">+</div>","null","fixation","","","","","","","","","","","","","35","","",""
"revaluation","174","922576","0.0-4.0-2.0-0.18","pilot_wm_v1","59a07638bfd73c00010ea394","1","null","null","true","","false","","","","","[803.6000000238419,474.39999997615814]","./assets/img/ocean/memory/31.jpg","[""ArrowDown"",""ArrowRight""]","value training","ocean","17","{""ArrowUp,ArrowLeft"":26,""ArrowUp,ArrowRight"":10,""ArrowDown,ArrowLeft"":5,""ArrowDown,ArrowRight"":17}","false","ArrowDown,ArrowRight","false","","","","","","","36","original","1",""
"html-keyboard-response","175","923078","0.0-4.0-2.0-1.18","pilot_wm_v1","59a07638bfd73c00010ea394","1","null","null","true","","","","","","","null","<div style=""font-size:60px;"">+</div>","null","fixation","","","","","","","","","","","","","37","","",""
"revaluation","176","927080","0.0-4.0-2.0-0.19","pilot_wm_v1","59a07638bfd73c00010ea394","1","null","null","true","","false","","","","","[641.8000000119209]","./assets/img/ocean/catch/0.jpg","[""spaceBar""]","value training","ocean","0","{""ArrowUp,ArrowLeft"":26,""ArrowUp,ArrowRight"":10,""ArrowDown,ArrowLeft"":5,""ArrowDown,ArrowRight"":17}","true","spaceBar","true","","","","","","","38","original","1",""
"html-keyboard-response","177","927581","0.0-4.0-2.0-1.19","pilot_wm_v1","59a07638bfd73c00010ea394","1","null","null","true","","","","","","","null","<div style=""font-size:60px;"">+</div>","null","fixation","","","","","","","","","","","","","39","","",""
"revaluation","178","933586","0.0-4.0-2.0-0.20","pilot_wm_v1","59a07638bfd73c00010ea394","1","null","null","true","","false","","","","","[634.9000000357628,275.0999999642372]","./assets/img/ocean/memory/32.jpg","[""ArrowDown"",""ArrowRight""]","value training","ocean","17","{""ArrowUp,ArrowLeft"":26,""ArrowUp,ArrowRight"":10,""ArrowDown,ArrowLeft"":5,""ArrowDown,ArrowRight"":17}","false","ArrowDown,ArrowRight","false","","","","","","","40","original","1",""
"html-keyboard-response","179","934087","0.0-4.0-2.0-1.20","pilot_wm_v1","59a07638bfd73c00010ea394","1","null","null","true","","","","","","","null","<div style=""font-size:60px;"">+</div>","null","fixation","","","","","","","","","","","","","41","","",""
"revaluation","180","938091","0.0-4.0-2.0-0.21","pilot_wm_v1","59a07638bfd73c00010ea394","1","null","null","true","","false","","","","","[479.7999999523163]","./assets/img/ocean/catch/6.jpg","[""spaceBar""]","value training","ocean","0","{""ArrowUp,ArrowLeft"":26,""ArrowUp,ArrowRight"":10,""ArrowDown,ArrowLeft"":5,""ArrowDown,ArrowRight"":17}","true","spaceBar","true","","","","","","","42","original","1",""
"html-keyboard-response","181","938593","0.0-4.0-2.0-1.21","pilot_wm_v1","59a07638bfd73c00010ea394","1","null","null","true","","","","","","","null","<div style=""font-size:60px;"">+</div>","null","fixation","","","","","","","","","","","","","43","","",""
"revaluation","182","944598","0.0-4.0-2.0-0.22","pilot_wm_v1","59a07638bfd73c00010ea394","1","null","null","true","","false","","","","","[566.3000000119209,335]","./assets/img/ocean/memory/41.jpg","[""ArrowDown"",""ArrowRight""]","value training","ocean","17","{""ArrowUp,ArrowLeft"":26,""ArrowUp,ArrowRight"":10,""ArrowDown,ArrowLeft"":5,""ArrowDown,ArrowRight"":17}","false","ArrowDown,ArrowRight","false","","","","","","","44","original","1",""
"html-keyboard-response","183","945099","0.0-4.0-2.0-1.22","pilot_wm_v1","59a07638bfd73c00010ea394","1","null","null","true","","","","","","","null","<div style=""font-size:60px;"">+</div>","null","fixation","","","","","","","","","","","","","45","","",""
"revaluation","184","951102","0.0-4.0-2.0-0.23","pilot_wm_v1","59a07638bfd73c00010ea394","1","null","null","true","","false","","","","","[612.3999999761581,235.69999998807907]","./assets/img/ocean/memory/23.jpg","[""ArrowDown"",""ArrowRight""]","value training","ocean","17","{""ArrowUp,ArrowLeft"":26,""ArrowUp,ArrowRight"":10,""ArrowDown,ArrowLeft"":5,""ArrowDown,ArrowRight"":17}","false","ArrowDown,ArrowRight","false","","","","","","","46","original","1",""
"html-keyboard-response","185","951603","0.0-4.0-2.0-1.23","pilot_wm_v1","59a07638bfd73c00010ea394","1","null","null","true","","","","","","","null","<div style=""font-size:60px;"">+</div>","null","fixation","","","","","","","","","","","","","47","","",""
"revaluation","186","957607","0.0-4.0-2.0-0.24","pilot_wm_v1","59a07638bfd73c00010ea394","1","null","null","true","","false","","","","","[676.3999999761581,275.7999999523163]","./assets/img/ocean/memory/37.jpg","[""ArrowDown"",""ArrowRight""]","value training","ocean","17","{""ArrowUp,ArrowLeft"":26,""ArrowUp,ArrowRight"":10,""ArrowDown,ArrowLeft"":5,""ArrowDown,ArrowRight"":17}","false","ArrowDown,ArrowRight","false","","","","","","","48","original","1",""
"html-keyboard-response","187","958108","0.0-4.0-2.0-1.24","pilot_wm_v1","59a07638bfd73c00010ea394","1","null","null","true","","","","","","","null","<div style=""font-size:60px;"">+</div>","null","fixation","","","","","","","","","","","","","49","","",""
"revaluation","188","964112","0.0-4.0-2.0-0.25","pilot_wm_v1","59a07638bfd73c00010ea394","1","null","null","true","","false","","","","","[651.2000000476837,364]","./assets/img/ocean/memory/29.jpg","[""ArrowDown"",""ArrowRight""]","value training","ocean","17","{""ArrowUp,ArrowLeft"":26,""ArrowUp,ArrowRight"":10,""ArrowDown,ArrowLeft"":5,""ArrowDown,ArrowRight"":17}","false","ArrowDown,ArrowRight","false","","","","","","","50","original","1",""
"html-keyboard-response","189","964613","0.0-4.0-2.0-1.25","pilot_wm_v1","59a07638bfd73c00010ea394","1","null","null","true","","","","","","","null","<div style=""font-size:60px;"">+</div>","null","fixation","","","","","","","","","","","","","51","","",""
"revaluation","190","970618","0.0-4.0-2.0-0.26","pilot_wm_v1","59a07638bfd73c00010ea394","1","null","null","true","","false","","","","","[722.1999999880791,264.89999997615814]","./assets/img/ocean/memory/3.jpg","[""ArrowDown"",""ArrowRight""]","value training","ocean","17","{""ArrowUp,ArrowLeft"":26,""ArrowUp,ArrowRight"":10,""ArrowDown,ArrowLeft"":5,""ArrowDown,ArrowRight"":17}","false","ArrowDown,ArrowRight","false","","","","","","","52","original","1",""
"html-keyboard-response","191","971119","0.0-4.0-2.0-1.26","pilot_wm_v1","59a07638bfd73c00010ea394","1","null","null","true","","","","","","","null","<div style=""font-size:60px;"">+</div>","null","fixation","","","","","","","","","","","","","53","","",""
"revaluation","192","977122","0.0-4.0-2.0-0.27","pilot_wm_v1","59a07638bfd73c00010ea394","1","null","null","true","","false","","","","","[617.8000000119209,359.10000002384186]","./assets/img/ocean/memory/17.jpg","[""ArrowDown"",""ArrowRight""]","value training","ocean","17","{""ArrowUp,ArrowLeft"":26,""ArrowUp,ArrowRight"":10,""ArrowDown,ArrowLeft"":5,""ArrowDown,ArrowRight"":17}","false","ArrowDown,ArrowRight","false","","","","","","","54","original","1",""
"html-keyboard-response","193","977624","0.0-4.0-2.0-1.27","pilot_wm_v1","59a07638bfd73c00010ea394","1","null","null","true","","","","","","","null","<div style=""font-size:60px;"">+</div>","null","fixation","","","","","","","","","","","","","55","","",""
"revaluation","194","983628","0.0-4.0-2.0-0.28","pilot_wm_v1","59a07638bfd73c00010ea394","1","null","null","true","","false","","","","","[519.1000000238419,310.7999999523163]","./assets/img/ocean/memory/23.jpg","[""ArrowDown"",""ArrowRight""]","value training","ocean","17","{""ArrowUp,ArrowLeft"":26,""ArrowUp,ArrowRight"":10,""ArrowDown,ArrowLeft"":5,""ArrowDown,ArrowRight"":17}","false","ArrowDown,ArrowRight","false","","","","","","","56","original","1",""
"html-keyboard-response","195","984129","0.0-4.0-2.0-1.28","pilot_wm_v1","59a07638bfd73c00010ea394","1","null","null","true","","","","","","","null","<div style=""font-size:60px;"">+</div>","null","fixation","","","","","","","","","","","","","57","","",""
"revaluation","196","990134","0.0-4.0-2.0-0.29","pilot_wm_v1","59a07638bfd73c00010ea394","1","null","null","true","","false","","","","","[574.1000000238419,285.80000001192093]","./assets/img/ocean/memory/35.jpg","[""ArrowDown"",""ArrowRight""]","value training","ocean","17","{""ArrowUp,ArrowLeft"":26,""ArrowUp,ArrowRight"":10,""ArrowDown,ArrowLeft"":5,""ArrowDown,ArrowRight"":17}","false","ArrowDown,ArrowRight","false","","","","","","","58","original","1",""
"html-keyboard-response","197","990635","0.0-4.0-2.0-1.29","pilot_wm_v1","59a07638bfd73c00010ea394","1","null","null","true","","","","","","","null","<div style=""font-size:60px;"">+</div>","null","fixation","","","","","","","","","","","","","59","","",""
"revaluation","198","994639","0.0-4.0-2.0-0.30","pilot_wm_v1","59a07638bfd73c00010ea394","1","null","null","true","","false","","","","","[429.4000000357628]","./assets/img/ocean/catch/2.jpg","[""spaceBar""]","value training","ocean","0","{""ArrowUp,ArrowLeft"":26,""ArrowUp,ArrowRight"":10,""ArrowDown,ArrowLeft"":5,""ArrowDown,ArrowRight"":17}","true","spaceBar","true","","","","","","","60","original","1",""
"html-keyboard-response","199","995139","0.0-4.0-2.0-1.30","pilot_wm_v1","59a07638bfd73c00010ea394","1","null","null","true","","","","","","","null","<div style=""font-size:60px;"">+</div>","null","fixation","","","","","","","","","","","","","61","","",""
"revaluation","200","1001145","0.0-4.0-2.0-0.31","pilot_wm_v1","59a07638bfd73c00010ea394","1","null","null","true","","false","","","","","[612.4000000357628,282.5]","./assets/img/ocean/memory/10.jpg","[""ArrowDown"",""ArrowRight""]","value training","ocean","17","{""ArrowUp,ArrowLeft"":26,""ArrowUp,ArrowRight"":10,""ArrowDown,ArrowLeft"":5,""ArrowDown,ArrowRight"":17}","false","ArrowDown,ArrowRight","false","","","","","","","62","original","1",""
"html-keyboard-response","201","1001655","0.0-4.0-2.0-1.31","pilot_wm_v1","59a07638bfd73c00010ea394","1","null","null","true","","","","","","","null","<div style=""font-size:60px;"">+</div>","null","fixation","","","","","","","","","","","","","63","","",""
"revaluation","202","1007658","0.0-4.0-2.0-0.32","pilot_wm_v1","59a07638bfd73c00010ea394","1","null","null","true","","false","","","","","[587.5,304.0999999642372]","./assets/img/ocean/memory/10.jpg","[""ArrowDown"",""ArrowRight""]","value training","ocean","17","{""ArrowUp,ArrowLeft"":26,""ArrowUp,ArrowRight"":10,""ArrowDown,ArrowLeft"":5,""ArrowDown,ArrowRight"":17}","false","ArrowDown,ArrowRight","false","","","","","","","64","original","1",""
"html-keyboard-response","203","1008160","0.0-4.0-2.0-1.32","pilot_wm_v1","59a07638bfd73c00010ea394","1","null","null","true","","","","","","","null","<div style=""font-size:60px;"">+</div>","null","fixation","","","","","","","","","","","","","65","","",""
"revaluation","204","1014173","0.0-4.0-2.0-0.33","pilot_wm_v1","59a07638bfd73c00010ea394","1","null","null","true","","false","","","","","[472.10000002384186,255.19999998807907]","./assets/img/ocean/memory/12.jpg","[""ArrowDown"",""ArrowRight""]","value training","ocean","17","{""ArrowUp,ArrowLeft"":26,""ArrowUp,ArrowRight"":10,""ArrowDown,ArrowLeft"":5,""ArrowDown,ArrowRight"":17}","false","ArrowDown,ArrowRight","false","","","","","","","66","original","1",""
"html-keyboard-response","205","1014674","0.0-4.0-2.0-1.33","pilot_wm_v1","59a07638bfd73c00010ea394","1","null","null","true","","","","","","","null","<div style=""font-size:60px;"">+</div>","null","fixation","","","","","","","","","","","","","67","","",""
"revaluation","206","1020679","0.0-4.0-2.0-0.34","pilot_wm_v1","59a07638bfd73c00010ea394","1","null","null","true","","false","","","","","[568.9000000357628,262.30000001192093]","./assets/img/ocean/memory/15.jpg","[""ArrowDown"",""ArrowRight""]","value training","ocean","17","{""ArrowUp,ArrowLeft"":26,""ArrowUp,ArrowRight"":10,""ArrowDown,ArrowLeft"":5,""ArrowDown,ArrowRight"":17}","false","ArrowDown,ArrowRight","false","","","","","","","68","original","1",""
"html-keyboard-response","207","1021180","0.0-4.0-2.0-1.34","pilot_wm_v1","59a07638bfd73c00010ea394","1","null","null","true","","","","","","","null","<div style=""font-size:60px;"">+</div>","null","fixation","","","","","","","","","","","","","69","","",""
"revaluation","208","1027184","0.0-4.0-2.0-0.35","pilot_wm_v1","59a07638bfd73c00010ea394","1","null","null","true","","false","","","","","[540.5,252.19999998807907]","./assets/img/ocean/memory/12.jpg","[""ArrowDown"",""ArrowRight""]","value training","ocean","17","{""ArrowUp,ArrowLeft"":26,""ArrowUp,ArrowRight"":10,""ArrowDown,ArrowLeft"":5,""ArrowDown,ArrowRight"":17}","false","ArrowDown,ArrowRight","false","","","","","","","70","original","1",""
"html-keyboard-response","209","1027685","0.0-4.0-2.0-1.35","pilot_wm_v1","59a07638bfd73c00010ea394","1","null","null","true","","","","","","","null","<div style=""font-size:60px;"">+</div>","null","fixation","","","","","","","","","","","","","71","","",""
"revaluation","210","1033689","0.0-4.0-2.0-0.36","pilot_wm_v1","59a07638bfd73c00010ea394","1","null","null","true","","false","","","","","[603.1000000238419,337.39999997615814]","./assets/img/ocean/memory/31.jpg","[""ArrowDown"",""ArrowRight""]","value training","ocean","17","{""ArrowUp,ArrowLeft"":26,""ArrowUp,ArrowRight"":10,""ArrowDown,ArrowLeft"":5,""ArrowDown,ArrowRight"":17}","false","ArrowDown,ArrowRight","false","","","","","","","72","original","1",""
"html-keyboard-response","211","1034196","0.0-4.0-2.0-1.36","pilot_wm_v1","59a07638bfd73c00010ea394","1","null","null","true","","","","","","","null","<div style=""font-size:60px;"">+</div>","null","fixation","","","","","","","","","","","","","73","","",""
"revaluation","212","1040200","0.0-4.0-2.0-0.37","pilot_wm_v1","59a07638bfd73c00010ea394","1","null","null","true","","false","","","","","[1084.5,386.69999998807907]","./assets/img/ocean/memory/15.jpg","[""ArrowDown"",""ArrowRight""]","value training","ocean","17","{""ArrowUp,ArrowLeft"":26,""ArrowUp,ArrowRight"":10,""ArrowDown,ArrowLeft"":5,""ArrowDown,ArrowRight"":17}","false","ArrowDown,ArrowRight","false","","","","","","","74","original","1",""
"html-keyboard-response","213","1040701","0.0-4.0-2.0-1.37","pilot_wm_v1","59a07638bfd73c00010ea394","1","null","null","true","","","","","","","null","<div style=""font-size:60px;"">+</div>","null","fixation","","","","","","","","","","","","","75","","",""
"revaluation","214","1046705","0.0-4.0-2.0-0.38","pilot_wm_v1","59a07638bfd73c00010ea394","1","null","null","true","","false","","","","","[707,322.60000002384186]","./assets/img/ocean/memory/29.jpg","[""ArrowDown"",""ArrowRight""]","value training","ocean","17","{""ArrowUp,ArrowLeft"":26,""ArrowUp,ArrowRight"":10,""ArrowDown,ArrowLeft"":5,""ArrowDown,ArrowRight"":17}","false","ArrowDown,ArrowRight","false","","","","","","","76","original","1",""
"html-keyboard-response","215","1047205","0.0-4.0-2.0-1.38","pilot_wm_v1","59a07638bfd73c00010ea394","1","null","null","true","","","","","","","null","<div style=""font-size:60px;"">+</div>","null","fixation","","","","","","","","","","","","","77","","",""
"revaluation","216","1053210","0.0-4.0-2.0-0.39","pilot_wm_v1","59a07638bfd73c00010ea394","1","null","null","true","","false","","","","","[618.5,257]","./assets/img/ocean/memory/40.jpg","[""ArrowDown"",""ArrowRight""]","value training","ocean","17","{""ArrowUp,ArrowLeft"":26,""ArrowUp,ArrowRight"":10,""ArrowDown,ArrowLeft"":5,""ArrowDown,ArrowRight"":17}","false","ArrowDown,ArrowRight","false","","","","","","","78","original","1",""
"html-keyboard-response","217","1053711","0.0-4.0-2.0-1.39","pilot_wm_v1","59a07638bfd73c00010ea394","1","null","null","true","","","","","","","null","<div style=""font-size:60px;"">+</div>","null","fixation","","","","","","","","","","","","","79","","",""
"revaluation","218","1059716","0.0-4.0-2.0-0.40","pilot_wm_v1","59a07638bfd73c00010ea394","1","null","null","true","","false","","","","","[441,327.60000002384186]","./assets/img/ocean/memory/21.jpg","[""ArrowDown"",""ArrowRight""]","value training","ocean","17","{""ArrowUp,ArrowLeft"":26,""ArrowUp,ArrowRight"":10,""ArrowDown,ArrowLeft"":5,""ArrowDown,ArrowRight"":17}","false","ArrowDown,ArrowRight","false","","","","","","","80","original","1",""
"html-keyboard-response","219","1060217","0.0-4.0-2.0-1.40","pilot_wm_v1","59a07638bfd73c00010ea394","1","null","null","true","","","","","","","null","<div style=""font-size:60px;"">+</div>","null","fixation","","","","","","","","","","","","","81","","",""
"revaluation","220","1066221","0.0-4.0-2.0-0.41","pilot_wm_v1","59a07638bfd73c00010ea394","1","null","null","true","","false","","","","","[470.69999998807907,302.9000000357628]","./assets/img/ocean/memory/33.jpg","[""ArrowDown"",""ArrowRight""]","value training","ocean","17","{""ArrowUp,ArrowLeft"":26,""ArrowUp,ArrowRight"":10,""ArrowDown,ArrowLeft"":5,""ArrowDown,ArrowRight"":17}","false","ArrowDown,ArrowRight","false","","","","","","","82","original","1",""
"html-keyboard-response","221","1066722","0.0-4.0-2.0-1.41","pilot_wm_v1","59a07638bfd73c00010ea394","1","null","null","true","","","","","","","null","<div style=""font-size:60px;"">+</div>","null","fixation","","","","","","","","","","","","","83","","",""
"revaluation","222","1070725","0.0-4.0-2.0-0.42","pilot_wm_v1","59a07638bfd73c00010ea394","1","null","null","true","","false","","","","","[766]","./assets/img/ocean/catch/1.jpg","[""spaceBar""]","value training","ocean","0","{""ArrowUp,ArrowLeft"":26,""ArrowUp,ArrowRight"":10,""ArrowDown,ArrowLeft"":5,""ArrowDown,ArrowRight"":17}","true","spaceBar","true","","","","","","","84","original","1",""
"html-keyboard-response","223","1071226","0.0-4.0-2.0-1.42","pilot_wm_v1","59a07638bfd73c00010ea394","1","null","null","true","","","","","","","null","<div style=""font-size:60px;"">+</div>","null","fixation","","","","","","","","","","","","","85","","",""
"revaluation","224","1075228","0.0-4.0-2.0-0.43","pilot_wm_v1","59a07638bfd73c00010ea394","1","null","null","true","","false","","","","","[590.1000000238419]","./assets/img/ocean/catch/7.jpg","[""spaceBar""]","value training","ocean","0","{""ArrowUp,ArrowLeft"":26,""ArrowUp,ArrowRight"":10,""ArrowDown,ArrowLeft"":5,""ArrowDown,ArrowRight"":17}","true","spaceBar","true","","","","","","","86","original","1",""
"html-keyboard-response","225","1075735","0.0-4.0-2.0-1.43","pilot_wm_v1","59a07638bfd73c00010ea394","1","null","null","true","","","","","","","null","<div style=""font-size:60px;"">+</div>","null","fixation","","","","","","","","","","","","","87","","",""
"revaluation","226","1081739","0.0-4.0-2.0-0.44","pilot_wm_v1","59a07638bfd73c00010ea394","1","null","null","true","","false","","","","","[617,346.69999998807907]","./assets/img/ocean/memory/16.jpg","[""ArrowDown"",""ArrowRight""]","value training","ocean","17","{""ArrowUp,ArrowLeft"":26,""ArrowUp,ArrowRight"":10,""ArrowDown,ArrowLeft"":5,""ArrowDown,ArrowRight"":17}","false","ArrowDown,ArrowRight","false","","","","","","","88","original","1",""
"html-keyboard-response","227","1082240","0.0-4.0-2.0-1.44","pilot_wm_v1","59a07638bfd73c00010ea394","1","null","null","true","","","","","","","null","<div style=""font-size:60px;"">+</div>","null","fixation","","","","","","","","","","","","","89","","",""
"revaluation","228","1088243","0.0-4.0-2.0-0.45","pilot_wm_v1","59a07638bfd73c00010ea394","1","null","null","true","","false","","","","","[480.19999998807907,400.69999998807907]","./assets/img/ocean/memory/16.jpg","[""ArrowDown"",""ArrowRight""]","value training","ocean","17","{""ArrowUp,ArrowLeft"":26,""ArrowUp,ArrowRight"":10,""ArrowDown,ArrowLeft"":5,""ArrowDown,ArrowRight"":17}","false","ArrowDown,ArrowRight","false","","","","","","","90","original","1",""
"html-keyboard-response","229","1088744","0.0-4.0-2.0-1.45","pilot_wm_v1","59a07638bfd73c00010ea394","1","null","null","true","","","","","","","null","<div style=""font-size:60px;"">+</div>","null","fixation","","","","","","","","","","","","","91","","",""
"revaluation","230","1094748","0.0-4.0-2.0-0.46","pilot_wm_v1","59a07638bfd73c00010ea394","1","null","null","true","","false","","","","","[528.4000000357628,416.5]","./assets/img/ocean/memory/40.jpg","[""ArrowDown"",""ArrowRight""]","value training","ocean","17","{""ArrowUp,ArrowLeft"":26,""ArrowUp,ArrowRight"":10,""ArrowDown,ArrowLeft"":5,""ArrowDown,ArrowRight"":17}","false","ArrowDown,ArrowRight","false","","","","","","","92","original","1",""
"html-keyboard-response","231","1095249","0.0-4.0-2.0-1.46","pilot_wm_v1","59a07638bfd73c00010ea394","1","null","null","true","","","","","","","null","<div style=""font-size:60px;"">+</div>","null","fixation","","","","","","","","","","","","","93","","",""
"revaluation","232","1101252","0.0-4.0-2.0-0.47","pilot_wm_v1","59a07638bfd73c00010ea394","1","null","null","true","","false","","","","","[502.69999998807907,326.5999999642372]","./assets/img/ocean/memory/17.jpg","[""ArrowDown"",""ArrowRight""]","value training","ocean","17","{""ArrowUp,ArrowLeft"":26,""ArrowUp,ArrowRight"":10,""ArrowDown,ArrowLeft"":5,""ArrowDown,ArrowRight"":17}","false","ArrowDown,ArrowRight","false","","","","","","","94","original","1",""
"html-keyboard-response","233","1101753","0.0-4.0-2.0-1.47","pilot_wm_v1","59a07638bfd73c00010ea394","1","null","null","true","","","","","","","null","<div style=""font-size:60px;"">+</div>","null","fixation","","","","","","","","","","","","","95","","",""
"revaluation","234","1105755","0.0-4.0-2.0-0.48","pilot_wm_v1","59a07638bfd73c00010ea394","1","null","null","true","","false","","","","","[543.5]","./assets/img/ocean/catch/4.jpg","[""spaceBar""]","value training","ocean","0","{""ArrowUp,ArrowLeft"":26,""ArrowUp,ArrowRight"":10,""ArrowDown,ArrowLeft"":5,""ArrowDown,ArrowRight"":17}","true","spaceBar","true","","","","","","","96","original","1",""
"html-keyboard-response","235","1106256","0.0-4.0-2.0-1.48","pilot_wm_v1","59a07638bfd73c00010ea394","1","null","null","true","","","","","","","null","<div style=""font-size:60px;"">+</div>","null","fixation","","","","","","","","","","","","","97","","",""
"revaluation","236","1112272","0.0-4.0-2.0-0.49","pilot_wm_v1","59a07638bfd73c00010ea394","1","null","null","true","","false","","","","","[744.3000000119209,285.89999997615814]","./assets/img/ocean/memory/24.jpg","[""ArrowDown"",""ArrowRight""]","value training","ocean","17","{""ArrowUp,ArrowLeft"":26,""ArrowUp,ArrowRight"":10,""ArrowDown,ArrowLeft"":5,""ArrowDown,ArrowRight"":17}","false","ArrowDown,ArrowRight","false","","","","","","","98","original","1",""
"html-keyboard-response","237","1112774","0.0-4.0-2.0-1.49","pilot_wm_v1","59a07638bfd73c00010ea394","1","null","null","true","","","","","","","null","<div style=""font-size:60px;"">+</div>","null","fixation","","","","","","","","","","","","","99","","",""
"learning-instructions","238","1127270","0.0-4.0-3.0-0.0","pilot_wm_v1","59a07638bfd73c00010ea394","1","null","null","true","","","","","","","1596.9000000357628","<p> Now, you will travel with a friend who will choose whether you go up or down first. </p>
            <p> On these turns, you will just see the animal that they found. You will still get to choose which chest to search for treasure.</p>","","instructions","","","","","","","","","","","","","","","",""
"learning-instructions","239","1140638","0.0-4.0-3.0-0.1","pilot_wm_v1","59a07638bfd73c00010ea394","1","null","null","true","","","","","","","1764.3999999761581","<p> In this part, you will also hear beeps from your friend and see special treasure chests that need a password. </p>
            <p> Do your best to count the high beeps <b>and</b> choose between each animals' chests at the same time.</p>
            <img src='./assets/img/instructions/beep_chest.jpg' class='instructions-image'>","","instructions","","","","","","","","","","","","","","","",""
"revaluation","240","1144659","0.0-4.0-4.0-0.0","pilot_wm_v1","59a07638bfd73c00010ea394","1","null","null","true","","false","","","","","[785.1999999880791]","./assets/img/ocean/animals/octopus.jpg","[""ArrowRight""]","revaluation","ocean","17","{""ArrowUp,ArrowLeft"":26,""ArrowUp,ArrowRight"":10,""ArrowDown,ArrowLeft"":5,""ArrowDown,ArrowRight"":17}","true","ArrowDown,ArrowRight","","14_4","","","","","","0","original","1",""
"html-keyboard-response","241","1145161","0.0-4.0-4.0-1.0","pilot_wm_v1","59a07638bfd73c00010ea394","1","null","null","true","","","","","","","null","<div style=""font-size:60px;"">+</div>","null","fixation","","","","","","","","","","","","","","","",""
"revaluation","242","1149178","0.0-4.0-4.0-0.1","pilot_wm_v1","59a07638bfd73c00010ea394","1","null","null","true","","false","","","","","[878.1000000238419]","./assets/img/ocean/animals/seahorse.jpg","[""ArrowRight""]","revaluation","ocean","10","{""ArrowUp,ArrowLeft"":26,""ArrowUp,ArrowRight"":10,""ArrowDown,ArrowLeft"":5,""ArrowDown,ArrowRight"":17}","false","ArrowUp,ArrowRight","","9_2","","","","","","1","original","1",""
"html-keyboard-response","243","1149688","0.0-4.0-4.0-1.1","pilot_wm_v1","59a07638bfd73c00010ea394","1","null","null","true","","","","","","","null","<div style=""font-size:60px;"">+</div>","null","fixation","","","","","","","","","","","","","","","",""
"revaluation","244","1153709","0.0-4.0-4.0-0.2","pilot_wm_v1","59a07638bfd73c00010ea394","1","null","null","true","","false","","","","","[831.6999999880791]","./assets/img/ocean/animals/seahorse.jpg","[""ArrowLeft""]","revaluation","ocean","26","{""ArrowUp,ArrowLeft"":26,""ArrowUp,ArrowRight"":10,""ArrowDown,ArrowLeft"":5,""ArrowDown,ArrowRight"":17}","true","ArrowUp,ArrowLeft","","2_1","","","","","","2","original","1",""
"html-keyboard-response","245","1154225","0.0-4.0-4.0-1.2","pilot_wm_v1","59a07638bfd73c00010ea394","1","null","null","true","","","","","","","null","<div style=""font-size:60px;"">+</div>","null","fixation","","","","","","","","","","","","","","","",""
"revaluation","246","1158244","0.0-4.0-4.0-0.3","pilot_wm_v1","59a07638bfd73c00010ea394","1","null","null","true","","false","","","","","[958]","./assets/img/ocean/animals/octopus.jpg","[""ArrowRight""]","revaluation","ocean","17","{""ArrowUp,ArrowLeft"":26,""ArrowUp,ArrowRight"":10,""ArrowDown,ArrowLeft"":5,""ArrowDown,ArrowRight"":17}","true","ArrowDown,ArrowRight","","11_4","","","","","","3","original","1",""
"html-keyboard-response","247","1158759","0.0-4.0-4.0-1.3","pilot_wm_v1","59a07638bfd73c00010ea394","1","null","null","true","","","","","","","null","<div style=""font-size:60px;"">+</div>","null","fixation","","","","","","","","","","","","","","","",""
"html-slider-response","248","1162951","0.0-4.0-4.0-2.3-0.3","pilot_wm_v1","59a07638bfd73c00010ea394","1","null","null","true","","","","","","","4190","<div style=""width:500px;"">
        <p>What is the password?</p>
        <img src='./assets/img/instructions/beep_chest.jpg' class='instructions-image'>","8","beep chest","","","","false","","","","50","11","3","","","","","",""
"revaluation","249","1166964","0.0-4.0-4.0-0.4","pilot_wm_v1","59a07638bfd73c00010ea394","1","null","null","true","","false","","","","","[1921]","./assets/img/ocean/animals/seahorse.jpg","[""ArrowRight""]","revaluation","ocean","10","{""ArrowUp,ArrowLeft"":26,""ArrowUp,ArrowRight"":10,""ArrowDown,ArrowLeft"":5,""ArrowDown,ArrowRight"":17}","false","ArrowUp,ArrowRight","","1_4","","","","","","4","original","1",""
"html-keyboard-response","250","1167481","0.0-4.0-4.0-1.4","pilot_wm_v1","59a07638bfd73c00010ea394","1","null","null","true","","","","","","","null","<div style=""font-size:60px;"">+</div>","null","fixation","","","","","","","","","","","","","","","",""
"revaluation","251","1171498","0.0-4.0-4.0-0.5","pilot_wm_v1","59a07638bfd73c00010ea394","1","null","null","true","","false","","","","","[886.6999999880791]","./assets/img/ocean/animals/seahorse.jpg","[""ArrowLeft""]","revaluation","ocean","26","{""ArrowUp,ArrowLeft"":26,""ArrowUp,ArrowRight"":10,""ArrowDown,ArrowLeft"":5,""ArrowDown,ArrowRight"":17}","true","ArrowUp,ArrowLeft","","3_0","","","","","","5","original","1",""
"html-keyboard-response","252","1171998","0.0-4.0-4.0-1.5","pilot_wm_v1","59a07638bfd73c00010ea394","1","null","null","true","","","","","","","null","<div style=""font-size:60px;"">+</div>","null","fixation","","","","","","","","","","","","","","","",""
"revaluation","253","1176001","0.0-4.0-4.0-0.6","pilot_wm_v1","59a07638bfd73c00010ea394","1","null","null","true","","false","","","","","[777.2999999523163]","./assets/img/ocean/animals/seahorse.jpg","[""ArrowLeft""]","revaluation","ocean","26","{""ArrowUp,ArrowLeft"":26,""ArrowUp,ArrowRight"":10,""ArrowDown,ArrowLeft"":5,""ArrowDown,ArrowRight"":17}","true","ArrowUp,ArrowLeft","","8_2","","","","","","6","original","1",""
"html-keyboard-response","254","1176503","0.0-4.0-4.0-1.6","pilot_wm_v1","59a07638bfd73c00010ea394","1","null","null","true","","","","","","","null","<div style=""font-size:60px;"">+</div>","null","fixation","","","","","","","","","","","","","","","",""
"revaluation","255","1180505","0.0-4.0-4.0-0.7","pilot_wm_v1","59a07638bfd73c00010ea394","1","null","null","true","","false","","","","","[562.8000000119209]","./assets/img/ocean/animals/seahorse.jpg","[""ArrowLeft""]","revaluation","ocean","26","{""ArrowUp,ArrowLeft"":26,""ArrowUp,ArrowRight"":10,""ArrowDown,ArrowLeft"":5,""ArrowDown,ArrowRight"":17}","true","ArrowUp,ArrowLeft","","5_4","","","","","","7","original","1",""
"html-keyboard-response","256","1181017","0.0-4.0-4.0-1.7","pilot_wm_v1","59a07638bfd73c00010ea394","1","null","null","true","","","","","","","null","<div style=""font-size:60px;"">+</div>","null","fixation","","","","","","","","","","","","","","","",""
"html-slider-response","257","1184766","0.0-4.0-4.0-2.7-0.7","pilot_wm_v1","59a07638bfd73c00010ea394","1","null","null","true","","","","","","","3749","<div style=""width:500px;"">
        <p>What is the password?</p>
        <img src='./assets/img/instructions/beep_chest.jpg' class='instructions-image'>","7","beep chest","","","","false","","","","50","10","3","","","","","",""
"revaluation","258","1188769","0.0-4.0-4.0-0.8","pilot_wm_v1","59a07638bfd73c00010ea394","1","null","null","true","","false","","","","","[1097.2999999523163]","./assets/img/ocean/animals/octopus.jpg","[""ArrowRight""]","revaluation","ocean","17","{""ArrowUp,ArrowLeft"":26,""ArrowUp,ArrowRight"":10,""ArrowDown,ArrowLeft"":5,""ArrowDown,ArrowRight"":17}","true","ArrowDown,ArrowRight","","12_2","","","","","","8","original","1",""
"html-keyboard-response","259","1189270","0.0-4.0-4.0-1.8","pilot_wm_v1","59a07638bfd73c00010ea394","1","null","null","true","","","","","","","null","<div style=""font-size:60px;"">+</div>","null","fixation","","","","","","","","","","","","","","","",""
"revaluation","260","1193272","0.0-4.0-4.0-0.9","pilot_wm_v1","59a07638bfd73c00010ea394","1","null","null","true","","false","","","","","[803.5]","./assets/img/ocean/animals/octopus.jpg","[""ArrowRight""]","revaluation","ocean","17","{""ArrowUp,ArrowLeft"":26,""ArrowUp,ArrowRight"":10,""ArrowDown,ArrowLeft"":5,""ArrowDown,ArrowRight"":17}","true","ArrowDown,ArrowRight","","10_3","","","","","","9","original","1",""
"html-keyboard-response","261","1193773","0.0-4.0-4.0-1.9","pilot_wm_v1","59a07638bfd73c00010ea394","1","null","null","true","","","","","","","null","<div style=""font-size:60px;"">+</div>","null","fixation","","","","","","","","","","","","","","","",""
"revaluation","262","1197779","0.0-4.0-4.0-0.10","pilot_wm_v1","59a07638bfd73c00010ea394","1","null","null","true","","false","","","","","[610.8999999761581]","./assets/img/ocean/animals/octopus.jpg","[""ArrowRight""]","revaluation","ocean","17","{""ArrowUp,ArrowLeft"":26,""ArrowUp,ArrowRight"":10,""ArrowDown,ArrowLeft"":5,""ArrowDown,ArrowRight"":17}","true","ArrowDown,ArrowRight","","18_0","","","","","","10","original","1",""
"html-keyboard-response","263","1198280","0.0-4.0-4.0-1.10","pilot_wm_v1","59a07638bfd73c00010ea394","1","null","null","true","","","","","","","null","<div style=""font-size:60px;"">+</div>","null","fixation","","","","","","","","","","","","","","","",""
"revaluation","264","1202284","0.0-4.0-4.0-0.11","pilot_wm_v1","59a07638bfd73c00010ea394","1","null","null","true","","false","","","","","[1039.4000000357628]","./assets/img/ocean/animals/octopus.jpg","[""ArrowRight""]","revaluation","ocean","17","{""ArrowUp,ArrowLeft"":26,""ArrowUp,ArrowRight"":10,""ArrowDown,ArrowLeft"":5,""ArrowDown,ArrowRight"":17}","true","ArrowDown,ArrowRight","","13_2","","","","","","11","original","1",""
"html-keyboard-response","265","1202784","0.0-4.0-4.0-1.11","pilot_wm_v1","59a07638bfd73c00010ea394","1","null","null","true","","","","","","","null","<div style=""font-size:60px;"">+</div>","null","fixation","","","","","","","","","","","","","","","",""
"html-slider-response","266","1206710","0.0-4.0-4.0-2.11-0.11","pilot_wm_v1","59a07638bfd73c00010ea394","1","null","null","true","","","","","","","3925","<div style=""width:500px;"">
        <p>What is the password?</p>
        <img src='./assets/img/instructions/beep_chest.jpg' class='instructions-image'>","6","beep chest","","","","false","","","","50","7","1","","","","","",""
"revaluation","267","1210716","0.0-4.0-4.0-0.12","pilot_wm_v1","59a07638bfd73c00010ea394","1","null","null","true","","false","","","","","[953]","./assets/img/ocean/animals/octopus.jpg","[""ArrowRight""]","revaluation","ocean","17","{""ArrowUp,ArrowLeft"":26,""ArrowUp,ArrowRight"":10,""ArrowDown,ArrowLeft"":5,""ArrowDown,ArrowRight"":17}","true","ArrowDown,ArrowRight","","15_0","","","","","","12","original","1",""
"html-keyboard-response","268","1211217","0.0-4.0-4.0-1.12","pilot_wm_v1","59a07638bfd73c00010ea394","1","null","null","true","","","","","","","null","<div style=""font-size:60px;"">+</div>","null","fixation","","","","","","","","","","","","","","","",""
"revaluation","269","1215225","0.0-4.0-4.0-0.13","pilot_wm_v1","59a07638bfd73c00010ea394","1","null","null","true","","false","","","","","[1063.1000000238419]","./assets/img/ocean/animals/seahorse.jpg","[""ArrowLeft""]","revaluation","ocean","26","{""ArrowUp,ArrowLeft"":26,""ArrowUp,ArrowRight"":10,""ArrowDown,ArrowLeft"":5,""ArrowDown,ArrowRight"":17}","true","ArrowUp,ArrowLeft","","7_4","","","","","","13","original","1",""
"html-keyboard-response","270","1215726","0.0-4.0-4.0-1.13","pilot_wm_v1","59a07638bfd73c00010ea394","1","null","null","true","","","","","","","null","<div style=""font-size:60px;"">+</div>","null","fixation","","","","","","","","","","","","","","","",""
