"trial_type","trial_index","time_elapsed","internal_node_id","task_version","subject_id","assigned_condition","age","gender","rest","success","timeout","failed_images","failed_audio","failed_video","browser_interaction","rt","stimulus","response","task_part","environment","score","rewardMap","correct","fullState","isCatch","audioStim","slider_start","answer","error","numberMissed","duration","trial_num","condition","order","bonus"
"pavlovia","0","4646","0.0-0.0","pilot_wm_v1","6664215e9a4fc14231f523c6","3","null","null","true","","","","","","","","","","","","","","","","","","","","","","","","","",""
"preload","1","52993","0.0-1.0","pilot_wm_v1","6664215e9a4fc14231f523c6","3","null","null","true","true","false","[]","[]","[]","[{""event"":""fullscreenenter"",""trial"":2,""time"":60889}]","","","","","","","","","","","","","","","","","","","",""
"fullscreen","2","61871","0.0-2.0","pilot_wm_v1","6664215e9a4fc14231f523c6","3","null","null","true","true","","","","","","","","","","","","","","","","","","","","","","","","",""
"audio-button-response","3","67487","0.0-3.0-0.0-0.0","pilot_wm_v1","6664215e9a4fc14231f523c6","3","null","null","true","","","","","","","5579","./assets/audio/audiotest/turtle.mp3","4","audio_test","","","","","","","","","","","","","","","",""
"audio-button-response","4","70774","0.0-3.0-0.1-0.1","pilot_wm_v1","6664215e9a4fc14231f523c6","3","null","null","true","","","","","","","2283","./assets/audio/audiotest/turtle.mp3","2","audio_test","","","","","","","","","","","","","","","",""
"learning-instructions","5","81814","0.0-3.0-1.0-0.0","pilot_wm_v1","6664215e9a4fc14231f523c6","3","null","null","true","","","","","","","4068.9000000003725","<p> Welcome! Please remember to stay in fullscreen mode and don't click away from the experiment. </p>","","instructions","","","","","","","","","","","","","","","",""
"learning-instructions","6","94393","0.0-3.0-1.0-0.1","pilot_wm_v1","6664215e9a4fc14231f523c6","3","null","null","true","","","","","","","4184.199999999255","<p> Today you will be playing a game to earn treasure. </p>
            <p> At the end of the experiment, you will earn a bonus based on how much treasure you find. </p>
            <img src='./assets/img/instructions/treasure.jpg' class='instructions-image'>","","instructions","","","","","","","","","","","","","","","",""
"learning-instructions","7","103165","0.0-3.0-1.0-0.2","pilot_wm_v1","6664215e9a4fc14231f523c6","3","null","null","true","","","","","","","525.2000000011176","<p> Animals have hidden treasure in treasure chests. </p>
            <p> You need to first find an animal and then choose which of their treasure chests to search. </p>
            <img src='./assets/img/space/animals/cat.jpg' class='instructions-image'>","","instructions","","","","","","","","","","","","","","","",""
"learning-instructions","8","120597","0.0-3.0-1.0-0.3","pilot_wm_v1","6664215e9a4fc14231f523c6","3","null","null","true","","","","","","","4296.199999999255","<p> In each round, you will search for treasure in a different place. In the real game, there will be two rounds. </p>
            <p> You will begin with a separate, practice round where you will search for treasure in outer space. </p>
            <img src='./assets/img/space/0.jpg' class='instructions-image'>","","instructions","","","","","","","","","","","","","","","",""
"learning-instructions","9","136056","0.0-3.0-1.0-0.4","pilot_wm_v1","6664215e9a4fc14231f523c6","3","null","null","true","","","","","","","4062","<p> On every turn, you will see a picture of the place that you are in, but the specific image may be different each time. </p>
            <p> For example, both of these images mean you are in outer space. </p>
            <img src='./assets/img/instructions/outerspace.jpg' class='instructions-image'>","","instructions","","","","","","","","","","","","","","","",""
"learning-instructions","10","149403","0.0-3.0-1.0-0.5","pilot_wm_v1","6664215e9a4fc14231f523c6","3","null","null","true","","","","","","","5530.0999999996275","<p> You need to decide which direction to travel in. </p>
            <p> You can choose between going <b>up or down</b> by using the arrow keys. </p>
            <img src='./assets/img/instructions/updown.jpg' class='instructions-image'>","","instructions","","","","","","","","","","","","","","","",""
"learning-instructions","11","159812","0.0-3.0-1.0-0.6","pilot_wm_v1","6664215e9a4fc14231f523c6","3","null","null","true","","","","","","","1615.0999999996275","<p> You will have <b>2 seconds</b> to make your choice. </p>
            <p> If you do not make a choice within 2 seconds, you will not find an animal or earn treasure. </p>
            <img src='./assets/img/instructions/2seconds.jpg' class='instructions-image'>","","instructions","","","","","","","","","","","","","","","",""
"learning-instructions","12","167493","0.0-3.0-1.0-0.7","pilot_wm_v1","6664215e9a4fc14231f523c6","3","null","null","true","","","","","","","654.0999999996275","<p> Let’s try practicing that now! </p>
            <p> When you see a picture of the place you are in, press the <b>up</b> key to travel up. </p>
            <img src='./assets/img/instructions/pressUp.jpg' class='instructions-image'>","","instructions","","","","","","","","","","","","","","","",""
"revaluation","13","171510","0.0-3.0-2.0-0.0","pilot_wm_v1","6664215e9a4fc14231f523c6","3","null","null","true","","false","","","","","[1672.5999999996275]","./assets/img/space/0.jpg","[""ArrowUp""]","first stage practice","space","0","null","null","ArrowUp","false","","","","","","","","","",""
"html-keyboard-response","14","172012","0.0-3.0-2.0-1.0","pilot_wm_v1","6664215e9a4fc14231f523c6","3","null","null","true","","","","","","","null","<div style=""font-size:60px;"">+</div>","null","fixation","","","","","","","","","","","","","","","",""
"revaluation","15","176022","0.0-3.0-2.0-0.1","pilot_wm_v1","6664215e9a4fc14231f523c6","3","null","null","true","","false","","","","","[1742.199999999255]","./assets/img/space/1.jpg","[""ArrowUp""]","first stage practice","space","0","null","null","ArrowUp","false","","","","","","","","","",""
"html-keyboard-response","16","176525","0.0-3.0-2.0-1.1","pilot_wm_v1","6664215e9a4fc14231f523c6","3","null","null","true","","","","","","","null","<div style=""font-size:60px;"">+</div>","null","fixation","","","","","","","","","","","","","","","",""
"revaluation","17","180534","0.0-3.0-2.0-0.2","pilot_wm_v1","6664215e9a4fc14231f523c6","3","null","null","true","","false","","","","","[1549.9000000003725]","./assets/img/space/2.jpg","[""ArrowUp""]","first stage practice","space","0","null","null","ArrowUp","false","","","","","","","","","",""
"html-keyboard-response","18","181038","0.0-3.0-2.0-1.2","pilot_wm_v1","6664215e9a4fc14231f523c6","3","null","null","true","","","","","","","null","<div style=""font-size:60px;"">+</div>","null","fixation","","","","","","","","","","","","","","","",""
"learning-instructions","19","186272","0.0-3.0-3.0-0.0","pilot_wm_v1","6664215e9a4fc14231f523c6","3","null","null","true","","","","","","","537.9000000003725","<p> Great job! Now try pressing the <b>down</b> key to travel down. </p>
            <img src='./assets/img/instructions/pressDown.jpg' class='instructions-image'>","","instructions","","","","","","","","","","","","","","","",""
"revaluation","20","190278","0.0-3.0-4.0-0.0","pilot_wm_v1","6664215e9a4fc14231f523c6","3","null","null","true","","false","","","","","[961.8999999985099]","./assets/img/space/3.jpg","[""ArrowDown""]","first stage practice","space","0","null","null","ArrowDown","false","","","","","","","","","",""
"html-keyboard-response","21","190781","0.0-3.0-4.0-1.0","pilot_wm_v1","6664215e9a4fc14231f523c6","3","null","null","true","","","","","","","null","<div style=""font-size:60px;"">+</div>","null","fixation","","","","","","","","","","","","","","","",""
"revaluation","22","194790","0.0-3.0-4.0-0.1","pilot_wm_v1","6664215e9a4fc14231f523c6","3","null","null","true","","false","","","","","[646.7999999988824]","./assets/img/space/4.jpg","[""ArrowDown""]","first stage practice","space","0","null","null","ArrowDown","false","","","","","","","","","",""
"html-keyboard-response","23","195294","0.0-3.0-4.0-1.1","pilot_wm_v1","6664215e9a4fc14231f523c6","3","null","null","true","","","","","","","null","<div style=""font-size:60px;"">+</div>","null","fixation","","","","","","","","","","","","","","","",""
"revaluation","24","199303","0.0-3.0-4.0-0.2","pilot_wm_v1","6664215e9a4fc14231f523c6","3","null","null","true","","false","","","","","[510.3999999985099]","./assets/img/space/5.jpg","[""ArrowDown""]","first stage practice","space","0","null","null","ArrowDown","false","","","","","","","","","",""
"html-keyboard-response","25","199806","0.0-3.0-4.0-1.2","pilot_wm_v1","6664215e9a4fc14231f523c6","3","null","null","true","","","","","","","null","<div style=""font-size:60px;"">+</div>","null","fixation","","","","","","","","","","","","","","","",""
"learning-instructions","26","212480","0.0-3.0-5.0-0.0","pilot_wm_v1","6664215e9a4fc14231f523c6","3","null","null","true","","","","","","","2832.5999999996275","<p> The animals don’t move, so the animal in the upper part of a place will stay in the upper part of a place, and the animal in the lower part of a place will stay in the lower part of a place. </p>","","instructions","","","","","","","","","","","","","","","",""
"learning-instructions","27","225404","0.0-3.0-5.0-0.1","pilot_wm_v1","6664215e9a4fc14231f523c6","3","null","null","true","","","","","","","3803.7999999988824","<p> Each animal has two treasure chests for you to choose from. </p>
            <p> The amount of treasure in each chest can range from <b> 0 to 40 pieces.</b></p>","","instructions","","","","","","","","","","","","","","","",""
"learning-instructions","28","237659","0.0-3.0-5.0-0.2","pilot_wm_v1","6664215e9a4fc14231f523c6","3","null","null","true","","","","","","","1087.5999999996275","<p> You should decide which chest to search for treasure by using the <b>left</b> and <b>right</b> arrow keys. </p>
            <p><b> Pay attention to which animal is on the screen, as the animals have different treasure chests. </b></p>
            <img src='./assets/img/instructions/leftright.jpg' class='instructions-image'>","","instructions","","","","","","","","","","","","","","","",""
"learning-instructions","29","244859","0.0-3.0-5.0-0.3","pilot_wm_v1","6664215e9a4fc14231f523c6","3","null","null","true","","","","","","","847.5","<p> Let’s try practicing that now. </p>
            <p> When you see an animal, choose which chest to search for treasure. </p>
            <img src='./assets/img/instructions/chooseChest.jpg' class='instructions-image'>","","instructions","","","","","","","","","","","","","","","",""
"revaluation","30","248866","0.0-3.0-6.0-0.0","pilot_wm_v1","6664215e9a4fc14231f523c6","3","null","null","true","","false","","","","","[887.1999999992549]","./assets/img/space/animals/cat.jpg","[""ArrowRight""]","second stage practice","space","36","{""ArrowUp,ArrowLeft"":3,""ArrowUp,ArrowRight"":36,""ArrowDown,ArrowLeft"":15,""ArrowDown,ArrowRight"":23}","true","ArrowUp,ArrowRight","","","","","","","","","","",""
"html-keyboard-response","31","249369","0.0-3.0-6.0-1.0","pilot_wm_v1","6664215e9a4fc14231f523c6","3","null","null","true","","","","","","","null","<div style=""font-size:60px;"">+</div>","null","fixation","","","","","","","","","","","","","","","",""
"revaluation","32","253379","0.0-3.0-6.0-0.1","pilot_wm_v1","6664215e9a4fc14231f523c6","3","null","null","true","","false","","","","","[707.2000000011176]","./assets/img/space/animals/rabbit.jpg","[""ArrowLeft""]","second stage practice","space","15","{""ArrowUp,ArrowLeft"":3,""ArrowUp,ArrowRight"":36,""ArrowDown,ArrowLeft"":15,""ArrowDown,ArrowRight"":23}","false","ArrowDown,ArrowLeft","","","","","","","","","","",""
"html-keyboard-response","33","253882","0.0-3.0-6.0-1.1","pilot_wm_v1","6664215e9a4fc14231f523c6","3","null","null","true","","","","","","","null","<div style=""font-size:60px;"">+</div>","null","fixation","","","","","","","","","","","","","","","",""
"revaluation","34","257891","0.0-3.0-6.0-0.2","pilot_wm_v1","6664215e9a4fc14231f523c6","3","null","null","true","","false","","","","","[716.5]","./assets/img/space/animals/cat.jpg","[""ArrowLeft""]","second stage practice","space","3","{""ArrowUp,ArrowLeft"":3,""ArrowUp,ArrowRight"":36,""ArrowDown,ArrowLeft"":15,""ArrowDown,ArrowRight"":23}","false","ArrowUp,ArrowLeft","","","","","","","","","","",""
"html-keyboard-response","35","258394","0.0-3.0-6.0-1.2","pilot_wm_v1","6664215e9a4fc14231f523c6","3","null","null","true","","","","","","","null","<div style=""font-size:60px;"">+</div>","null","fixation","","","","","","","","","","","","","","","",""
"revaluation","36","262403","0.0-3.0-6.0-0.3","pilot_wm_v1","6664215e9a4fc14231f523c6","3","null","null","true","","false","","","","","[373.80000000074506]","./assets/img/space/animals/rabbit.jpg","[""ArrowLeft""]","second stage practice","space","15","{""ArrowUp,ArrowLeft"":3,""ArrowUp,ArrowRight"":36,""ArrowDown,ArrowLeft"":15,""ArrowDown,ArrowRight"":23}","false","ArrowDown,ArrowLeft","","","","","","","","","","",""
"html-keyboard-response","37","262906","0.0-3.0-6.0-1.3","pilot_wm_v1","6664215e9a4fc14231f523c6","3","null","null","true","","","","","","","null","<div style=""font-size:60px;"">+</div>","null","fixation","","","","","","","","","","","","","","","",""
"learning-instructions","38","282833","0.0-3.0-7.0-0.0","pilot_wm_v1","6664215e9a4fc14231f523c6","3","null","null","true","","","","","","","3132","<p> Great job. Now let’s try putting it together. </p>
            <p> On each turn, you will first see a picture to remind you of the place you are in, and you need to choose whether to go up or down. </p>
            <p> Then you will see an animal and choose which of its chests to search for treasure. </p>","","instructions","","","","","","","","","","","","","","","",""
"learning-instructions","39","292082","0.0-3.0-7.0-0.1","pilot_wm_v1","6664215e9a4fc14231f523c6","3","null","null","true","","","","","","","1000.7000000011176","<p> When you choose whether to go up or down, try to go to the animal with the chest with the most treasure. </p>
            <p> Try practicing that now! </p>","","instructions","","","","","","","","","","","","","","","",""
"revaluation","40","298089","0.0-3.0-8.0-0.0","pilot_wm_v1","6664215e9a4fc14231f523c6","3","null","null","true","","false","","","","","[1272.699999999255,472.19999999925494]","./assets/img/space/6.jpg","[""ArrowUp"",""ArrowRight""]","full practice","space","36","{""ArrowUp,ArrowLeft"":3,""ArrowUp,ArrowRight"":36,""ArrowDown,ArrowLeft"":15,""ArrowDown,ArrowRight"":23}","true","ArrowUp,ArrowRight","false","","","","","","","","","",""
"html-keyboard-response","41","298592","0.0-3.0-8.0-1.0","pilot_wm_v1","6664215e9a4fc14231f523c6","3","null","null","true","","","","","","","null","<div style=""font-size:60px;"">+</div>","null","fixation","","","","","","","","","","","","","","","",""
"revaluation","42","304603","0.0-3.0-8.0-0.1","pilot_wm_v1","6664215e9a4fc14231f523c6","3","null","null","true","","false","","","","","[635.6999999992549,621.5]","./assets/img/space/7.jpg","[""ArrowDown"",""ArrowLeft""]","full practice","space","15","{""ArrowUp,ArrowLeft"":3,""ArrowUp,ArrowRight"":36,""ArrowDown,ArrowLeft"":15,""ArrowDown,ArrowRight"":23}","false","ArrowDown,ArrowLeft","false","","","","","","","","","",""
"html-keyboard-response","43","305106","0.0-3.0-8.0-1.1","pilot_wm_v1","6664215e9a4fc14231f523c6","3","null","null","true","","","","","","","null","<div style=""font-size:60px;"">+</div>","null","fixation","","","","","","","","","","","","","","","",""
"revaluation","44","311114","0.0-3.0-8.0-0.2","pilot_wm_v1","6664215e9a4fc14231f523c6","3","null","null","true","","false","","","","","[1015.6999999992549,625.2999999988824]","./assets/img/space/8.jpg","[""ArrowDown"",""ArrowRight""]","full practice","space","23","{""ArrowUp,ArrowLeft"":3,""ArrowUp,ArrowRight"":36,""ArrowDown,ArrowLeft"":15,""ArrowDown,ArrowRight"":23}","false","ArrowDown,ArrowRight","false","","","","","","","","","",""
"html-keyboard-response","45","311617","0.0-3.0-8.0-1.2","pilot_wm_v1","6664215e9a4fc14231f523c6","3","null","null","true","","","","","","","null","<div style=""font-size:60px;"">+</div>","null","fixation","","","","","","","","","","","","","","","",""
"revaluation","46","317629","0.0-3.0-8.0-0.3","pilot_wm_v1","6664215e9a4fc14231f523c6","3","null","null","true","","false","","","","","[603.8000000007451,985.6000000014901]","./assets/img/space/9.jpg","[""ArrowDown"",""ArrowRight""]","full practice","space","23","{""ArrowUp,ArrowLeft"":3,""ArrowUp,ArrowRight"":36,""ArrowDown,ArrowLeft"":15,""ArrowDown,ArrowRight"":23}","false","ArrowDown,ArrowRight","false","","","","","","","","","",""
"html-keyboard-response","47","318132","0.0-3.0-8.0-1.3","pilot_wm_v1","6664215e9a4fc14231f523c6","3","null","null","true","","","","","","","null","<div style=""font-size:60px;"">+</div>","null","fixation","","","","","","","","","","","","","","","",""
"revaluation","48","324142","0.0-3.0-8.0-0.4","pilot_wm_v1","6664215e9a4fc14231f523c6","3","null","null","true","","false","","","","","[574.9000000003725,612.1999999992549]","./assets/img/space/10.jpg","[""ArrowUp"",""ArrowRight""]","full practice","space","36","{""ArrowUp,ArrowLeft"":3,""ArrowUp,ArrowRight"":36,""ArrowDown,ArrowLeft"":15,""ArrowDown,ArrowRight"":23}","true","ArrowUp,ArrowRight","false","","","","","","","","","",""
"html-keyboard-response","49","324645","0.0-3.0-8.0-1.4","pilot_wm_v1","6664215e9a4fc14231f523c6","3","null","null","true","","","","","","","null","<div style=""font-size:60px;"">+</div>","null","fixation","","","","","","","","","","","","","","","",""
"learning-instructions","50","336584","0.0-3.0-9.0-0.0","pilot_wm_v1","6664215e9a4fc14231f523c6","3","null","null","true","","","","","","","1611.4000000003725","<p> One last thing: sometimes, you will see a robber. The robber can be anywhere in the picture. </p>
            <p> If you do not stop them, you will lose treasure. </p>
            <img src='./assets/img/instructions/robber.jpg' class='instructions-image'>","","instructions","","","","","","","","","","","","","","","",""
"learning-instructions","51","344354","0.0-3.0-9.0-0.1","pilot_wm_v1","6664215e9a4fc14231f523c6","3","null","null","true","","","","","","","614.7999999988824","<p> If you see the robber, you should <b>press the space bar</b> rather than using the arrow keys. </p>
            <p> Try practicing that now! </p>","","instructions","","","","","","","","","","","","","","","",""
"revaluation","52","348361","0.0-3.0-10.0-0.0","pilot_wm_v1","6664215e9a4fc14231f523c6","3","null","null","true","","false","","","","","[1132]","./assets/img/space/catch/0.jpg","[""spaceBar""]","catch practice","space","0","{""ArrowUp,ArrowLeft"":3,""ArrowUp,ArrowRight"":36,""ArrowDown,ArrowLeft"":15,""ArrowDown,ArrowRight"":23}","true","spaceBar","true","","","","","","","","","",""
"html-keyboard-response","53","348865","0.0-3.0-10.0-1.0","pilot_wm_v1","6664215e9a4fc14231f523c6","3","null","null","true","","","","","","","null","<div style=""font-size:60px;"">+</div>","null","fixation","","","","","","","","","","","","","","","",""
"revaluation","54","352873","0.0-3.0-10.0-0.1","pilot_wm_v1","6664215e9a4fc14231f523c6","3","null","null","true","","false","","","","","[1132]","./assets/img/space/catch/1.jpg","[""spaceBar""]","catch practice","space","0","{""ArrowUp,ArrowLeft"":3,""ArrowUp,ArrowRight"":36,""ArrowDown,ArrowLeft"":15,""ArrowDown,ArrowRight"":23}","true","spaceBar","true","","","","","","","","","",""
"html-keyboard-response","55","353376","0.0-3.0-10.0-1.1","pilot_wm_v1","6664215e9a4fc14231f523c6","3","null","null","true","","","","","","","null","<div style=""font-size:60px;"">+</div>","null","fixation","","","","","","","","","","","","","","","",""
"revaluation","56","357382","0.0-3.0-10.0-0.2","pilot_wm_v1","6664215e9a4fc14231f523c6","3","null","null","true","","false","","","","","[1395.4000000003725]","./assets/img/space/catch/2.jpg","[""spaceBar""]","catch practice","space","0","{""ArrowUp,ArrowLeft"":3,""ArrowUp,ArrowRight"":36,""ArrowDown,ArrowLeft"":15,""ArrowDown,ArrowRight"":23}","true","spaceBar","true","","","","","","","","","",""
"html-keyboard-response","57","357886","0.0-3.0-10.0-1.2","pilot_wm_v1","6664215e9a4fc14231f523c6","3","null","null","true","","","","","","","null","<div style=""font-size:60px;"">+</div>","null","fixation","","","","","","","","","","","","","","","",""
"learning-instructions","58","364221","0.0-3.0-11.0-0.0","pilot_wm_v1","6664215e9a4fc14231f523c6","3","null","null","true","","","","","","","816.5999999996275","<p> Sometimes, you will come across a special kind of treasure chest that requires a password. </p>
            <img src='./assets/img/instructions/beep_chest.jpg' class='instructions-image'>","","instructions","","","","","","","","","","","","","","","",""
"learning-instructions","59","389684","0.0-3.0-11.0-0.1","pilot_wm_v1","6664215e9a4fc14231f523c6","3","null","null","true","","","","","","","3857.4000000003725","<p> Your friend will send you the password using a series of beeps so that you can open the chest and earn treasure. </p>
            <p> You will hear two kinds of beeps, a high beep and a low beep. </p>
            <p> You should report the number of high beeps that you heard before seeing the chest. </p>
            <img src='./assets/img/instructions/listen.jpg' class='instructions-image'>","","instructions","","","","","","","","","","","","","","","",""
"learning-instructions","60","412542","0.0-3.0-11.0-0.2","pilot_wm_v1","6664215e9a4fc14231f523c6","3","null","null","true","","","","","","","567.9000000003725","<p> For example, if you hear this series of beeps, you should report 4 as the password using the slider. </p>
            <p> After reporting a password for a chest, you should count the high beeps again starting from 0. </p>
            <p> Let's try practicing that now. </p>","","instructions","","","","","","","","","","","","","","","",""
"audio-button-response","61","420582","0.0-3.0-12.0-0.0-0.0","pilot_wm_v1","6664215e9a4fc14231f523c6","3","null","null","true","","","","","","","null","./assets/audio/beeps/practice_6.wav","null","","","","","","","","","","","","","","","","",""
"html-slider-response","62","424722","0.0-3.0-12.0-0.0-1.0","pilot_wm_v1","6664215e9a4fc14231f523c6","3","null","null","true","","","","","","","4133","<div style=""width:500px;"">
        <p>What is the password?</p>
        <img src='./assets/img/instructions/beep_chest.jpg' class='instructions-image'>","6","beep chest","","","","false","","","","50","0","6","","","","","",""
"comp-q","63","430769","0.0-3.0-12.0-0.0-2.0","pilot_wm_v1","6664215e9a4fc14231f523c6","3","null","null","true","","","","","","","1834.5999999996275","<p>Correct! There were 6 high pitched beeps before you saw the chest. </p>","0","beep answer","","","","","","","","","","","","","","","",""
"audio-button-response","64","438811","0.0-3.0-12.0-0.1-0.1","pilot_wm_v1","6664215e9a4fc14231f523c6","3","null","null","true","","","","","","","null","./assets/audio/beeps/practice_4.wav","null","","","","","","","","","","","","","","","","",""
"html-slider-response","65","441551","0.0-3.0-12.0-0.1-1.1","pilot_wm_v1","6664215e9a4fc14231f523c6","3","null","null","true","","","","","","","2737","<div style=""width:500px;"">
        <p>What is the password?</p>
        <img src='./assets/img/instructions/beep_chest.jpg' class='instructions-image'>","4","beep chest","","","","false","","","","50","0","4","","","","","",""
"comp-q","66","447618","0.0-3.0-12.0-0.1-2.1","pilot_wm_v1","6664215e9a4fc14231f523c6","3","null","null","true","","","","","","","1883.5999999996275","<p>Correct! There were 4 high pitched beeps before you saw the chest. </p>","0","beep answer","","","","","","","","","","","","","","","",""
"learning-instructions","67","459067","0.0-3.0-13.0-0.0","pilot_wm_v1","6664215e9a4fc14231f523c6","3","null","null","true","","","","","","","1140.3999999985099","<p> Good job! In the real game we will not tell you if you entered the right password. </p>
            <p> Do your best, the treasure you earn from these chests will also give you extra bonus money. </p>","","instructions","","","","","","","","","","","","","","","",""
"learning-instructions","68","473221","0.0-3.0-14.0-0.0-0.0","pilot_wm_v1","6664215e9a4fc14231f523c6","3","null","null","true","","","","","","","578.6000000014901","<p> After you explore a place to find treasure, it will be time to play a different game. </p>
            <p> During this game, red dots will appear on the screen and fall down slowly. </p>
            <p><b> You must click on them before they reach the bottom. </b></p>
            <img src='./assets/img/instructions/dotGame.jpg' class='instructions-image'>","","instructions","","","","","","","","","","","","","","","",""
"learning-instructions","69","480094","0.0-3.0-14.0-0.0-0.1","pilot_wm_v1","6664215e9a4fc14231f523c6","3","null","null","true","","","","","","","1207.9000000003725","<p> For every dot you click, you will earn additional treasure. </p>
            <p> Let’s try practicing that now. </p>","","instructions","","","","","","","","","","","","","","","",""
"revaluation","70","495104","0.0-3.0-14.0-1.0-0.0","pilot_wm_v1","6664215e9a4fc14231f523c6","3","null","null","true","","","","","","","[90]","","","rest practice","","10","","","","","","","","","0","15000","","","",""
"learning-instructions","71","501796","0.0-3.0-15.0-0.0-0.0","pilot_wm_v1","6664215e9a4fc14231f523c6","3","null","null","true","","","","","","","1437.4000000003725","<p> Now, you will practice a shortened version of the game to get a sense of how it all fits together. </p>","","instructions","","","","","","","","","","","","","","","",""
"learning-instructions","72","506085","0.0-3.0-15.0-0.0-0.1","pilot_wm_v1","6664215e9a4fc14231f523c6","3","null","null","true","","","","","","","1108.300000000745","<p>This time you are searching for treasure in outer space.</p>","","instructions","","","","","","","","","","","","","","","",""
"learning-instructions","73","522099","0.0-3.0-15.0-1.0-0.0","pilot_wm_v1","6664215e9a4fc14231f523c6","3","null","null","true","","","","","","","1265.699999999255","<p> Remember, when you see a picture of the place, use the up and down keys to <b>find an animal</b>.</p>
            <p> When you encounter an animal, you should use the left and right keys to <b>select a treasure chest</b>.</p>
            <p> Don't forget to look out for the robber! </p>","","instructions","","","","","","","","","","","","","","","",""
"revaluation","74","528107","0.0-3.0-15.0-2.0-0.0","pilot_wm_v1","6664215e9a4fc14231f523c6","3","null","null","true","","false","","","","","[1363.199999999255,721.8999999985099]","./assets/img/space/11.jpg","[""ArrowDown"",""ArrowRight""]","practice block","space","23","{""ArrowUp,ArrowLeft"":3,""ArrowUp,ArrowRight"":36,""ArrowDown,ArrowLeft"":15,""ArrowDown,ArrowRight"":23}","false","ArrowDown,ArrowRight","false","","","","","","","","","",""
"html-keyboard-response","75","528611","0.0-3.0-15.0-2.0-1.0","pilot_wm_v1","6664215e9a4fc14231f523c6","3","null","null","true","","","","","","","null","<div style=""font-size:60px;"">+</div>","null","fixation","","","","","","","","","","","","","","","",""
"revaluation","76","534622","0.0-3.0-15.0-2.0-0.1","pilot_wm_v1","6664215e9a4fc14231f523c6","3","null","null","true","","false","","","","","[480.5,622.2999999988824]","./assets/img/space/12.jpg","[""ArrowUp"",""ArrowRight""]","practice block","space","36","{""ArrowUp,ArrowLeft"":3,""ArrowUp,ArrowRight"":36,""ArrowDown,ArrowLeft"":15,""ArrowDown,ArrowRight"":23}","true","ArrowUp,ArrowRight","false","","","","","","","","","",""
"html-keyboard-response","77","535126","0.0-3.0-15.0-2.0-1.1","pilot_wm_v1","6664215e9a4fc14231f523c6","3","null","null","true","","","","","","","null","<div style=""font-size:60px;"">+</div>","null","fixation","","","","","","","","","","","","","","","",""
"revaluation","78","541135","0.0-3.0-15.0-2.0-0.2","pilot_wm_v1","6664215e9a4fc14231f523c6","3","null","null","true","","true","","","","","[913.1999999992549]","./assets/img/space/13.jpg","[""ArrowUp""]","practice block","space","-5","{""ArrowUp,ArrowLeft"":3,""ArrowUp,ArrowRight"":36,""ArrowDown,ArrowLeft"":15,""ArrowDown,ArrowRight"":23}","false","ArrowUp","false","","","","","","","","","",""
"html-keyboard-response","79","541638","0.0-3.0-15.0-2.0-1.2","pilot_wm_v1","6664215e9a4fc14231f523c6","3","null","null","true","","","","","","","null","<div style=""font-size:60px;"">+</div>","null","fixation","","","","","","","","","","","","","","","",""
"revaluation","80","547650","0.0-3.0-15.0-2.0-0.3","pilot_wm_v1","6664215e9a4fc14231f523c6","3","null","null","true","","false","","","","","[943.5,759.3000000007451]","./assets/img/space/14.jpg","[""ArrowUp"",""ArrowLeft""]","practice block","space","3","{""ArrowUp,ArrowLeft"":3,""ArrowUp,ArrowRight"":36,""ArrowDown,ArrowLeft"":15,""ArrowDown,ArrowRight"":23}","false","ArrowUp,ArrowLeft","false","","","","","","","","","",""
"html-keyboard-response","81","548153","0.0-3.0-15.0-2.0-1.3","pilot_wm_v1","6664215e9a4fc14231f523c6","3","null","null","true","","","","","","","null","<div style=""font-size:60px;"">+</div>","null","fixation","","","","","","","","","","","","","","","",""
"revaluation","82","554164","0.0-3.0-15.0-2.0-0.4","pilot_wm_v1","6664215e9a4fc14231f523c6","3","null","null","true","","false","","","","","[614.0999999996275,637]","./assets/img/space/11.jpg","[""ArrowUp"",""ArrowLeft""]","practice block","space","3","{""ArrowUp,ArrowLeft"":3,""ArrowUp,ArrowRight"":36,""ArrowDown,ArrowLeft"":15,""ArrowDown,ArrowRight"":23}","false","ArrowUp,ArrowLeft","false","","","","","","","","","",""
"html-keyboard-response","83","554667","0.0-3.0-15.0-2.0-1.4","pilot_wm_v1","6664215e9a4fc14231f523c6","3","null","null","true","","","","","","","null","<div style=""font-size:60px;"">+</div>","null","fixation","","","","","","","","","","","","","","","",""
"revaluation","84","560677","0.0-3.0-15.0-2.0-0.5","pilot_wm_v1","6664215e9a4fc14231f523c6","3","null","null","true","","false","","","","","[1067.699999999255,1026.199999999255]","./assets/img/space/12.jpg","[""ArrowUp"",""ArrowRight""]","practice block","space","36","{""ArrowUp,ArrowLeft"":3,""ArrowUp,ArrowRight"":36,""ArrowDown,ArrowLeft"":15,""ArrowDown,ArrowRight"":23}","true","ArrowUp,ArrowRight","false","","","","","","","","","",""
"html-keyboard-response","85","561180","0.0-3.0-15.0-2.0-1.5","pilot_wm_v1","6664215e9a4fc14231f523c6","3","null","null","true","","","","","","","null","<div style=""font-size:60px;"">+</div>","null","fixation","","","","","","","","","","","","","","","",""
"revaluation","86","567192","0.0-3.0-15.0-2.0-0.6","pilot_wm_v1","6664215e9a4fc14231f523c6","3","null","null","true","","false","","","","","[958.0999999996275,318.09999999962747]","./assets/img/space/13.jpg","[""ArrowUp"",""ArrowRight""]","practice block","space","36","{""ArrowUp,ArrowLeft"":3,""ArrowUp,ArrowRight"":36,""ArrowDown,ArrowLeft"":15,""ArrowDown,ArrowRight"":23}","true","ArrowUp,ArrowRight","false","","","","","","","","","",""
"html-keyboard-response","87","567695","0.0-3.0-15.0-2.0-1.6","pilot_wm_v1","6664215e9a4fc14231f523c6","3","null","null","true","","","","","","","null","<div style=""font-size:60px;"">+</div>","null","fixation","","","","","","","","","","","","","","","",""
"revaluation","88","573706","0.0-3.0-15.0-2.0-0.7","pilot_wm_v1","6664215e9a4fc14231f523c6","3","null","null","true","","false","","","","","[529.6999999992549,465.2999999988824]","./assets/img/space/14.jpg","[""ArrowDown"",""ArrowRight""]","practice block","space","23","{""ArrowUp,ArrowLeft"":3,""ArrowUp,ArrowRight"":36,""ArrowDown,ArrowLeft"":15,""ArrowDown,ArrowRight"":23}","false","ArrowDown,ArrowRight","false","","","","","","","","","",""
"html-keyboard-response","89","574210","0.0-3.0-15.0-2.0-1.7","pilot_wm_v1","6664215e9a4fc14231f523c6","3","null","null","true","","","","","","","null","<div style=""font-size:60px;"">+</div>","null","fixation","","","","","","","","","","","","","","","",""
"revaluation","90","578218","0.0-3.0-15.0-2.0-0.8","pilot_wm_v1","6664215e9a4fc14231f523c6","3","null","null","true","","false","","","","","[459]","./assets/img/space/catch/3.jpg","[""ArrowUp""]","practice block","space","-10","{""ArrowUp,ArrowLeft"":3,""ArrowUp,ArrowRight"":36,""ArrowDown,ArrowLeft"":15,""ArrowDown,ArrowRight"":23}","false","ArrowUp","true","","","","","","","","","",""
"html-keyboard-response","91","578721","0.0-3.0-15.0-2.0-1.8","pilot_wm_v1","6664215e9a4fc14231f523c6","3","null","null","true","","","","","","","null","<div style=""font-size:60px;"">+</div>","null","fixation","","","","","","","","","","","","","","","",""
"learning-instructions","92","592668","0.0-3.0-15.0-3.0-0.0","pilot_wm_v1","6664215e9a4fc14231f523c6","3","null","null","true","","","","","","","1018.1999999992549","<p> Now, you will travel with a friend who will choose whether you go up or down first. </p>
            <p> On these turns, you will just see the animal that they found. You will still get to choose which chest to search for treasure.</p>","","instructions","","","","","","","","","","","","","","","",""
"learning-instructions","93","605487","0.0-3.0-15.0-3.0-0.1","pilot_wm_v1","6664215e9a4fc14231f523c6","3","null","null","true","","","","","","","1203.300000000745","<p> In this part, you will also hear beeps from your friend and see special treasure chests that need a password. </p>
            <p> Do your best to count the high beeps <b>and</b> choose between each animals' chests at the same time.</p>
            <img src='./assets/img/instructions/beep_chest.jpg' class='instructions-image'>","","instructions","","","","","","","","","","","","","","","",""
"revaluation","94","609494","0.0-3.0-15.0-4.0-0.0","pilot_wm_v1","6664215e9a4fc14231f523c6","3","null","null","true","","false","","","","","[1504.7000000011176]","./assets/img/space/animals/rabbit.jpg","[""ArrowRight""]","practice block","space","23","{""ArrowUp,ArrowLeft"":3,""ArrowUp,ArrowRight"":36,""ArrowDown,ArrowLeft"":15,""ArrowDown,ArrowRight"":23}","true","ArrowDown,ArrowRight","","[""22_3""]","","","","","","0","","",""
"html-keyboard-response","95","610000","0.0-3.0-15.0-4.0-1.0","pilot_wm_v1","6664215e9a4fc14231f523c6","3","null","null","true","","","","","","","null","<div style=""font-size:60px;"">+</div>","null","fixation","","","","","","","","","","","","","","","",""
"revaluation","96","614009","0.0-3.0-15.0-4.0-0.1","pilot_wm_v1","6664215e9a4fc14231f523c6","3","null","null","true","","false","","","","","[786.5]","./assets/img/space/animals/cat.jpg","[""ArrowRight""]","practice block","space","36","{""ArrowUp,ArrowLeft"":3,""ArrowUp,ArrowRight"":36,""ArrowDown,ArrowLeft"":15,""ArrowDown,ArrowRight"":23}","true","ArrowUp,ArrowRight","","[""19_0""]","","","","","","1","","",""
"html-keyboard-response","97","614514","0.0-3.0-15.0-4.0-1.1","pilot_wm_v1","6664215e9a4fc14231f523c6","3","null","null","true","","","","","","","null","<div style=""font-size:60px;"">+</div>","null","fixation","","","","","","","","","","","","","","","",""
"revaluation","98","618521","0.0-3.0-15.0-4.0-0.2","pilot_wm_v1","6664215e9a4fc14231f523c6","3","null","null","true","","false","","","","","[457.5]","./assets/img/space/animals/cat.jpg","[""ArrowRight""]","practice block","space","36","{""ArrowUp,ArrowLeft"":3,""ArrowUp,ArrowRight"":36,""ArrowDown,ArrowLeft"":15,""ArrowDown,ArrowRight"":23}","true","ArrowUp,ArrowRight","","[""20_0""]","","","","","","2","","",""
"html-keyboard-response","99","619025","0.0-3.0-15.0-4.0-1.2","pilot_wm_v1","6664215e9a4fc14231f523c6","3","null","null","true","","","","","","","null","<div style=""font-size:60px;"">+</div>","null","fixation","","","","","","","","","","","","","","","",""
"revaluation","100","623035","0.0-3.0-15.0-4.0-0.3","pilot_wm_v1","6664215e9a4fc14231f523c6","3","null","null","true","","false","","","","","[1627.4000000003725]","./assets/img/space/animals/rabbit.jpg","[""ArrowRight""]","practice block","space","23","{""ArrowUp,ArrowLeft"":3,""ArrowUp,ArrowRight"":36,""ArrowDown,ArrowLeft"":15,""ArrowDown,ArrowRight"":23}","true","ArrowDown,ArrowRight","","[""21_1""]","","","","","","3","","",""
"html-keyboard-response","101","623539","0.0-3.0-15.0-4.0-1.3","pilot_wm_v1","6664215e9a4fc14231f523c6","3","null","null","true","","","","","","","null","<div style=""font-size:60px;"">+</div>","null","fixation","","","","","","","","","","","","","","","",""
"html-slider-response","102","626098","0.0-3.0-15.0-4.0-2.3-0.3","pilot_wm_v1","6664215e9a4fc14231f523c6","3","null","null","true","","","","","","","2556","<div style=""width:500px;"">
        <p>What is the password?</p>
        <img src='./assets/img/instructions/beep_chest.jpg' class='instructions-image'>","4","beep chest","","","","false","","","","50","82","78","","","","","",""
"learning-instructions","103","635601","0.0-3.0-15.0-5.0-0.0-0.0","pilot_wm_v1","6664215e9a4fc14231f523c6","3","null","null","true","","","","","","","2143.7000000011176","<p> Time to play the dot game! </p>
            <p> For 15 seconds, click the red dots on the following screen as they appear. </p>","","instructions","","","","","","","","","","","","","","","",""
"revaluation","104","650604","0.0-3.0-15.0-5.0-1.0-0.0","pilot_wm_v1","6664215e9a4fc14231f523c6","3","null","null","true","","","","","","","[105]","","","rest practice","","10","","","","","","","","","0","15000","","","",""
"learning-instructions","105","658721","0.0-3.0-15.0-6.0-0.0","pilot_wm_v1","6664215e9a4fc14231f523c6","3","null","null","true","","","","","","","null","<p> You have almost finished this part of the game! </p>
            <p> We are going to ask you to make a few more choices. </p>","","instructions","","","","","","","","","","","","","","","",""
"learning-instructions","106","674715","0.0-3.0-15.0-6.0-0.1","pilot_wm_v1","6664215e9a4fc14231f523c6","3","null","null","true","","","","","","","null","<p> First, you need to decide whether to go up or down. When you see each picture, use the arrow keys to make your choice. </p>
            <p><b>You will not see which animal you found, but try to get to the one that will give you the most treasure.</b></p>","","instructions","","","","","","","","","","","","","","","",""
"html-keyboard-response","107","675719","0.0-3.0-15.0-7.0-0.0","pilot_wm_v1","6664215e9a4fc14231f523c6","3","null","null","true","","","","","","","null","<div style=""font-size:100px;color:red;"">Starting in...</div>","null","","","","","","","","","","","","","","","","",""
"html-keyboard-response","108","676722","0.0-3.0-15.0-7.0-1.0","pilot_wm_v1","6664215e9a4fc14231f523c6","3","null","null","true","","","","","","","null","<div style=""font-size:200px;color:red;"">3</div>","null","","","","","","","","","","","","","","","","",""
"html-keyboard-response","109","677724","0.0-3.0-15.0-7.0-2.0","pilot_wm_v1","6664215e9a4fc14231f523c6","3","null","null","true","","","","","","","null","<div style=""font-size:200px;color:red;"">2</div>","null","","","","","","","","","","","","","","","","",""
"html-keyboard-response","110","678728","0.0-3.0-15.0-7.0-3.0","pilot_wm_v1","6664215e9a4fc14231f523c6","3","null","null","true","","","","","","","null","<div style=""font-size:200px;color:red;"">1</div>","null","","","","","","","","","","","","","","","","",""
"revaluation","111","679282","0.0-3.0-15.0-8.0","pilot_wm_v1","6664215e9a4fc14231f523c6","3","null","null","true","","false","","","","","[550]","./assets/img/space/15.jpg","[""ArrowUp""]","practice block","space","0","{""ArrowUp,ArrowLeft"":3,""ArrowUp,ArrowRight"":36,""ArrowDown,ArrowLeft"":15,""ArrowDown,ArrowRight"":23}","true","ArrowUp","false","","","","","","","","","",""
"html-keyboard-response","112","679785","0.0-3.0-15.0-9.0","pilot_wm_v1","6664215e9a4fc14231f523c6","3","null","null","true","","","","","","","null","<div style=""font-size:60px;"">+</div>","null","fixation","","","","","","","","","","","","","","","",""
"learning-instructions","113","693148","0.0-3.0-15.0-10.0-0.0","pilot_wm_v1","6664215e9a4fc14231f523c6","3","null","null","true","","","","","","","null","<p> Now you will see the animals again and can search their chests for treasure. </p>
            <p> This time, you will not see how much treasure you earned, but you will earn more bonus money for making better choices. </p>","","instructions","","","","","","","","","","","","","","","",""
"html-keyboard-response","114","694152","0.0-3.0-15.0-11.0-0.0","pilot_wm_v1","6664215e9a4fc14231f523c6","3","null","null","true","","","","","","","null","<div style=""font-size:100px;color:red;"">Starting in...</div>","null","","","","","","","","","","","","","","","","",""
"html-keyboard-response","115","695156","0.0-3.0-15.0-11.0-1.0","pilot_wm_v1","6664215e9a4fc14231f523c6","3","null","null","true","","","","","","","null","<div style=""font-size:200px;color:red;"">3</div>","null","","","","","","","","","","","","","","","","",""
"html-keyboard-response","116","696159","0.0-3.0-15.0-11.0-2.0","pilot_wm_v1","6664215e9a4fc14231f523c6","3","null","null","true","","","","","","","null","<div style=""font-size:200px;color:red;"">2</div>","null","","","","","","","","","","","","","","","","",""
"html-keyboard-response","117","697162","0.0-3.0-15.0-11.0-3.0","pilot_wm_v1","6664215e9a4fc14231f523c6","3","null","null","true","","","","","","","null","<div style=""font-size:200px;color:red;"">1</div>","null","","","","","","","","","","","","","","","","",""
"revaluation","118","697508","0.0-3.0-15.0-12.0-0.0","pilot_wm_v1","6664215e9a4fc14231f523c6","3","null","null","true","","false","","","","","[340.90000000037253]","./assets/img/space/animals/cat.jpg","[""ArrowLeft""]","practice block","space","0","{""ArrowUp,ArrowLeft"":3,""ArrowUp,ArrowRight"":36,""ArrowDown,ArrowLeft"":15,""ArrowDown,ArrowRight"":23}","false","ArrowUp,ArrowLeft","","","","","","","","","","",""
"html-keyboard-response","119","698010","0.0-3.0-15.0-12.0-1.0","pilot_wm_v1","6664215e9a4fc14231f523c6","3","null","null","true","","","","","","","null","<div style=""font-size:60px;"">+</div>","null","fixation","","","","","","","","","","","","","","","",""
"revaluation","120","698319","0.0-3.0-15.0-12.0-0.1","pilot_wm_v1","6664215e9a4fc14231f523c6","3","null","null","true","","false","","","","","[304.40000000037253]","./assets/img/space/animals/rabbit.jpg","[""ArrowRight""]","practice block","space","0","{""ArrowUp,ArrowLeft"":3,""ArrowUp,ArrowRight"":36,""ArrowDown,ArrowLeft"":15,""ArrowDown,ArrowRight"":23}","true","ArrowDown,ArrowRight","","","","","","","","","","",""
"html-keyboard-response","121","698820","0.0-3.0-15.0-12.0-1.1","pilot_wm_v1","6664215e9a4fc14231f523c6","3","null","null","true","","","","","","","null","<div style=""font-size:60px;"">+</div>","null","fixation","","","","","","","","","","","","","","","",""
"learning-instructions","122","705049","0.0-3.0-16.0-0.0","pilot_wm_v1","6664215e9a4fc14231f523c6","3","null","null","true","","","","","","","1656.7000000011176","<p> Before you start, we're going to ask you a few questions about how the game works. </p>","","instructions","","","","","","","","","","","","","","","",""
"comp-q","123","712325","0.0-3.0-17.0-0.0-0.0","pilot_wm_v1","6664215e9a4fc14231f523c6","3","null","null","true","","","","","","","1700.199999999255","<p> <b> True or False? </b> </p>
            <p> There can be 50 pieces of treasure in a given animal's chest. </p>","1","comp_question","","","","true","","","","","","","","","","","",""
"comp-q","124","720534","0.0-3.0-17.0-0.0-1.0","pilot_wm_v1","6664215e9a4fc14231f523c6","3","null","null","true","","","","","","","1557.0999999996275","<p> <b> That's right! </b> The amount of treasure in each chest can range from 0 to 40 pieces. </p>","0","comp_answer","","","","","","","","","","","","","","","",""
"comp-q","125","728660","0.0-3.0-17.0-0.1-0.1","pilot_wm_v1","6664215e9a4fc14231f523c6","3","null","null","true","","","","","","","1016.9000000003725","<p> <b> True or False? </b> </p><p> In this game, all animals have the same amount of treasure in their left and right chests. </p>","0","comp_question","","","","false","","","","","","","","","","","",""
"comp-q","126","735083","0.0-3.0-17.0-0.1-1.1","pilot_wm_v1","6664215e9a4fc14231f523c6","3","null","null","true","","","","","","","1328.2000000011176","<p> <b>Incorrect.</b> Animals have different amounts of treasure in their treasure chests. </p>","0","comp_answer","","","","","","","","","","","","","","","",""
"comp-q","127","742900","0.0-3.0-17.0-0.2-0.2","pilot_wm_v1","6664215e9a4fc14231f523c6","3","null","null","true","","","","","","","723.6999999992549","<p> <b> True or False? </b> </p><p> In this game, all animals have the same amount of treasure in their left and right chests. </p>","1","comp_question","","","","true","","","","","","","","","","","",""
"comp-q","128","749473","0.0-3.0-17.0-0.2-1.2","pilot_wm_v1","6664215e9a4fc14231f523c6","3","null","null","true","","","","","","","1349.4000000003725","<p> <b> That's right! </b> Animals have different amounts of treasure in their treasure chests. </p>","0","comp_answer","","","","","","","","","","","","","","","",""
"comp-q","129","755949","0.0-3.0-17.0-0.3-0.3","pilot_wm_v1","6664215e9a4fc14231f523c6","3","null","null","true","","","","","","","642","<p> <b> True or False? </b> </p><p> The same animal will always be there if you go up in the same place. </p>","0","comp_question","","","","true","","","","","","","","","","","",""
"comp-q","130","764433","0.0-3.0-17.0-0.3-1.3","pilot_wm_v1","6664215e9a4fc14231f523c6","3","null","null","true","","","","","","","2048.5999999996275","<p> <b> That's right! </b> One animal lives in the upper part and one lives in the lower part of every place. </p>","0","comp_answer","","","","","","","","","","","","","","","",""
"comp-q","131","770333","0.0-3.0-17.0-0.4-0.4","pilot_wm_v1","6664215e9a4fc14231f523c6","3","null","null","true","","","","","","","380.59999999962747","<p> <b> True or False? </b> </p><p> If you see a different picture, it means you are in a new place. </p>","0","comp_question","","","","false","","","","","","","","","","","",""
"comp-q","132","782854","0.0-3.0-17.0-0.4-1.4","pilot_wm_v1","6664215e9a4fc14231f523c6","3","null","null","true","","","","","","","1444.9000000003725","<p> <b>Incorrect.</b> Lots of different images may show the same place. For example,  you may see three different images that all remind you that you are in outer space. </p>","0","comp_answer","","","","","","","","","","","","","","","",""
"comp-q","133","788921","0.0-3.0-17.0-0.5-0.5","pilot_wm_v1","6664215e9a4fc14231f523c6","3","null","null","true","","","","","","","562.6999999992549","<p> <b> True or False? </b> </p><p> If you see a different picture, it means you are in a new place. </p>","1","comp_question","","","","true","","","","","","","","","","","",""
"comp-q","134","803369","0.0-3.0-17.0-0.5-1.5","pilot_wm_v1","6664215e9a4fc14231f523c6","3","null","null","true","","","","","","","3233.699999999255","<p> <b> That's right! </b> Lots of different images may show the same place. For example,  you may see three different images that all remind you that you are in outer space. </p>","0","comp_answer","","","","","","","","","","","","","","","",""
"learning-instructions","135","817417","0.0-3.0-18.0-0.0","pilot_wm_v1","6664215e9a4fc14231f523c6","3","null","null","true","","","","","","","4210.9000000003725","<p> Good job. Remember to do your best because the amount of treasure you earn will be converted into bonus money. </p>
            <p> It’s time to start the real game! </p>","","instructions","","","","","","","","","","","","","","","",""
"learning-instructions","136","821447","0.0-4.0-0.0-0.0","pilot_wm_v1","6664215e9a4fc14231f523c6","3","null","null","true","","","","","","","1270.9000000003725","<p> This time you are searching for treasure in the <b>canyon</b>.</p>","","instructions","","","","","","","","","","","","","","","",""
"learning-instructions","137","839624","0.0-4.0-0.0-0.1","pilot_wm_v1","6664215e9a4fc14231f523c6","3","null","null","true","","","","","","","903.2000000011176","<p><b>New</b> animals with <b>new</b> treasure chests live here. You need to explore to discover where the animal with the best treasure chest is.</p>
                    <p> Like before, once you figure out which animal has the chest with the most treasure, you should try to get to that animal and select that chest! </p>","","instructions","","","","","","","","","","","","","","","",""
"learning-instructions","138","854931","0.0-4.0-1.0-0.0","pilot_wm_v1","6664215e9a4fc14231f523c6","3","null","null","true","","","","","","","577.9000000003725","<p> Remember, when you see a picture of the place, use the up and down keys to <b>find an animal</b>.</p>
            <p> When you encounter an animal, you should use the left and right keys to <b>select a treasure chest</b>.</p>
            <p> Don't forget to look out for the robber! </p>","","instructions","","","","","","","","","","","","","","","",""
"revaluation","139","860940","0.0-4.0-2.0-0.0","pilot_wm_v1","6664215e9a4fc14231f523c6","3","null","null","true","","false","","","","","[732.5999999996275,371.3999999985099]","./assets/img/canyon/memory/11.jpg","[""ArrowUp"",""ArrowRight""]","value training","canyon","10","{""ArrowUp,ArrowLeft"":23,""ArrowUp,ArrowRight"":10,""ArrowDown,ArrowLeft"":8,""ArrowDown,ArrowRight"":30}","false","ArrowUp,ArrowRight","false","","","","","","","0","original","1",""
"html-keyboard-response","140","861446","0.0-4.0-2.0-1.0","pilot_wm_v1","6664215e9a4fc14231f523c6","3","null","null","true","","","","","","","null","<div style=""font-size:60px;"">+</div>","null","fixation","","","","","","","","","","","","","1","","",""
"revaluation","141","867456","0.0-4.0-2.0-0.1","pilot_wm_v1","6664215e9a4fc14231f523c6","3","null","null","true","","false","","","","","[816.4000000003725,833.5999999996275]","./assets/img/canyon/memory/39.jpg","[""ArrowUp"",""ArrowLeft""]","value training","canyon","23","{""ArrowUp,ArrowLeft"":23,""ArrowUp,ArrowRight"":10,""ArrowDown,ArrowLeft"":8,""ArrowDown,ArrowRight"":30}","false","ArrowUp,ArrowLeft","false","","","","","","","2","original","1",""
"html-keyboard-response","142","867959","0.0-4.0-2.0-1.1","pilot_wm_v1","6664215e9a4fc14231f523c6","3","null","null","true","","","","","","","null","<div style=""font-size:60px;"">+</div>","null","fixation","","","","","","","","","","","","","3","","",""
"revaluation","143","871969","0.0-4.0-2.0-0.2","pilot_wm_v1","6664215e9a4fc14231f523c6","3","null","null","true","","false","","","","","[1104.5999999996275]","./assets/img/canyon/catch/5.jpg","[""spaceBar""]","value training","canyon","0","{""ArrowUp,ArrowLeft"":23,""ArrowUp,ArrowRight"":10,""ArrowDown,ArrowLeft"":8,""ArrowDown,ArrowRight"":30}","true","spaceBar","true","","","","","","","4","original","1",""
"html-keyboard-response","144","872473","0.0-4.0-2.0-1.2","pilot_wm_v1","6664215e9a4fc14231f523c6","3","null","null","true","","","","","","","null","<div style=""font-size:60px;"">+</div>","null","fixation","","","","","","","","","","","","","5","","",""
"revaluation","145","876480","0.0-4.0-2.0-0.3","pilot_wm_v1","6664215e9a4fc14231f523c6","3","null","null","true","","false","","","","","[943.1999999992549]","./assets/img/canyon/catch/2.jpg","[""spaceBar""]","value training","canyon","0","{""ArrowUp,ArrowLeft"":23,""ArrowUp,ArrowRight"":10,""ArrowDown,ArrowLeft"":8,""ArrowDown,ArrowRight"":30}","true","spaceBar","true","","","","","","","6","original","1",""
"html-keyboard-response","146","876984","0.0-4.0-2.0-1.3","pilot_wm_v1","6664215e9a4fc14231f523c6","3","null","null","true","","","","","","","null","<div style=""font-size:60px;"">+</div>","null","fixation","","","","","","","","","","","","","7","","",""
"revaluation","147","882996","0.0-4.0-2.0-0.4","pilot_wm_v1","6664215e9a4fc14231f523c6","3","null","null","true","","false","","","","","[782.1999999992549,411.7999999988824]","./assets/img/canyon/memory/23.jpg","[""ArrowUp"",""ArrowRight""]","value training","canyon","10","{""ArrowUp,ArrowLeft"":23,""ArrowUp,ArrowRight"":10,""ArrowDown,ArrowLeft"":8,""ArrowDown,ArrowRight"":30}","false","ArrowUp,ArrowRight","false","","","","","","","8","original","1",""
"html-keyboard-response","148","883499","0.0-4.0-2.0-1.4","pilot_wm_v1","6664215e9a4fc14231f523c6","3","null","null","true","","","","","","","null","<div style=""font-size:60px;"">+</div>","null","fixation","","","","","","","","","","","","","9","","",""
"revaluation","149","889512","0.0-4.0-2.0-0.5","pilot_wm_v1","6664215e9a4fc14231f523c6","3","null","null","true","","false","","","","","[1034.9000000003725,670.5]","./assets/img/canyon/memory/30.jpg","[""ArrowUp"",""ArrowLeft""]","value training","canyon","23","{""ArrowUp,ArrowLeft"":23,""ArrowUp,ArrowRight"":10,""ArrowDown,ArrowLeft"":8,""ArrowDown,ArrowRight"":30}","false","ArrowUp,ArrowLeft","false","","","","","","","10","original","1",""
"html-keyboard-response","150","890015","0.0-4.0-2.0-1.5","pilot_wm_v1","6664215e9a4fc14231f523c6","3","null","null","true","","","","","","","null","<div style=""font-size:60px;"">+</div>","null","fixation","","","","","","","","","","","","","11","","",""
"revaluation","151","894025","0.0-4.0-2.0-0.6","pilot_wm_v1","6664215e9a4fc14231f523c6","3","null","null","true","","false","","","","","[744.8999999985099]","./assets/img/canyon/catch/3.jpg","[""spaceBar""]","value training","canyon","0","{""ArrowUp,ArrowLeft"":23,""ArrowUp,ArrowRight"":10,""ArrowDown,ArrowLeft"":8,""ArrowDown,ArrowRight"":30}","true","spaceBar","true","","","","","","","12","original","1",""
"html-keyboard-response","152","894529","0.0-4.0-2.0-1.6","pilot_wm_v1","6664215e9a4fc14231f523c6","3","null","null","true","","","","","","","null","<div style=""font-size:60px;"">+</div>","null","fixation","","","","","","","","","","","","","13","","",""
"revaluation","153","900542","0.0-4.0-2.0-0.7","pilot_wm_v1","6664215e9a4fc14231f523c6","3","null","null","true","","false","","","","","[1779.699999999255,1459]","./assets/img/canyon/memory/3.jpg","[""ArrowUp"",""ArrowRight""]","value training","canyon","10","{""ArrowUp,ArrowLeft"":23,""ArrowUp,ArrowRight"":10,""ArrowDown,ArrowLeft"":8,""ArrowDown,ArrowRight"":30}","false","ArrowUp,ArrowRight","false","","","","","","","14","original","1",""
"html-keyboard-response","154","901045","0.0-4.0-2.0-1.7","pilot_wm_v1","6664215e9a4fc14231f523c6","3","null","null","true","","","","","","","null","<div style=""font-size:60px;"">+</div>","null","fixation","","","","","","","","","","","","","15","","",""
"revaluation","155","907055","0.0-4.0-2.0-0.8","pilot_wm_v1","6664215e9a4fc14231f523c6","3","null","null","true","","false","","","","","[642.8999999985099,452.5]","./assets/img/canyon/memory/13.jpg","[""ArrowDown"",""ArrowLeft""]","value training","canyon","8","{""ArrowUp,ArrowLeft"":23,""ArrowUp,ArrowRight"":10,""ArrowDown,ArrowLeft"":8,""ArrowDown,ArrowRight"":30}","false","ArrowDown,ArrowLeft","false","","","","","","","16","original","1",""
"html-keyboard-response","156","907558","0.0-4.0-2.0-1.8","pilot_wm_v1","6664215e9a4fc14231f523c6","3","null","null","true","","","","","","","null","<div style=""font-size:60px;"">+</div>","null","fixation","","","","","","","","","","","","","17","","",""
"revaluation","157","913569","0.0-4.0-2.0-0.9","pilot_wm_v1","6664215e9a4fc14231f523c6","3","null","null","true","","false","","","","","[1655.800000000745,767.5]","./assets/img/canyon/memory/25.jpg","[""ArrowUp"",""ArrowRight""]","value training","canyon","10","{""ArrowUp,ArrowLeft"":23,""ArrowUp,ArrowRight"":10,""ArrowDown,ArrowLeft"":8,""ArrowDown,ArrowRight"":30}","false","ArrowUp,ArrowRight","false","","","","","","","18","original","1",""
"html-keyboard-response","158","914073","0.0-4.0-2.0-1.9","pilot_wm_v1","6664215e9a4fc14231f523c6","3","null","null","true","","","","","","","null","<div style=""font-size:60px;"">+</div>","null","fixation","","","","","","","","","","","","","19","","",""
"revaluation","159","920083","0.0-4.0-2.0-0.10","pilot_wm_v1","6664215e9a4fc14231f523c6","3","null","null","true","","false","","","","","[1263.2999999988824,439.09999999962747]","./assets/img/canyon/memory/7.jpg","[""ArrowUp"",""ArrowLeft""]","value training","canyon","23","{""ArrowUp,ArrowLeft"":23,""ArrowUp,ArrowRight"":10,""ArrowDown,ArrowLeft"":8,""ArrowDown,ArrowRight"":30}","false","ArrowUp,ArrowLeft","false","","","","","","","20","original","1",""
"html-keyboard-response","160","920586","0.0-4.0-2.0-1.10","pilot_wm_v1","6664215e9a4fc14231f523c6","3","null","null","true","","","","","","","null","<div style=""font-size:60px;"">+</div>","null","fixation","","","","","","","","","","","","","21","","",""
"revaluation","161","926596","0.0-4.0-2.0-0.11","pilot_wm_v1","6664215e9a4fc14231f523c6","3","null","null","true","","false","","","","","[1053.4000000003725,652.9000000003725]","./assets/img/canyon/memory/39.jpg","[""ArrowUp"",""ArrowRight""]","value training","canyon","10","{""ArrowUp,ArrowLeft"":23,""ArrowUp,ArrowRight"":10,""ArrowDown,ArrowLeft"":8,""ArrowDown,ArrowRight"":30}","false","ArrowUp,ArrowRight","false","","","","","","","22","original","1",""
"html-keyboard-response","162","927099","0.0-4.0-2.0-1.11","pilot_wm_v1","6664215e9a4fc14231f523c6","3","null","null","true","","","","","","","null","<div style=""font-size:60px;"">+</div>","null","fixation","","","","","","","","","","","","","23","","",""
"revaluation","163","933109","0.0-4.0-2.0-0.12","pilot_wm_v1","6664215e9a4fc14231f523c6","3","null","null","true","","false","","","","","[721.1000000014901,794.0999999996275]","./assets/img/canyon/memory/41.jpg","[""ArrowUp"",""ArrowLeft""]","value training","canyon","23","{""ArrowUp,ArrowLeft"":23,""ArrowUp,ArrowRight"":10,""ArrowDown,ArrowLeft"":8,""ArrowDown,ArrowRight"":30}","false","ArrowUp,ArrowLeft","false","","","","","","","24","original","1",""
"html-keyboard-response","164","933613","0.0-4.0-2.0-1.12","pilot_wm_v1","6664215e9a4fc14231f523c6","3","null","null","true","","","","","","","null","<div style=""font-size:60px;"">+</div>","null","fixation","","","","","","","","","","","","","25","","",""
"revaluation","165","939624","0.0-4.0-2.0-0.13","pilot_wm_v1","6664215e9a4fc14231f523c6","3","null","null","true","","false","","","","","[932.5999999996275,724.5]","./assets/img/canyon/memory/22.jpg","[""ArrowUp"",""ArrowRight""]","value training","canyon","10","{""ArrowUp,ArrowLeft"":23,""ArrowUp,ArrowRight"":10,""ArrowDown,ArrowLeft"":8,""ArrowDown,ArrowRight"":30}","false","ArrowUp,ArrowRight","false","","","","","","","26","original","1",""
"html-keyboard-response","166","940128","0.0-4.0-2.0-1.13","pilot_wm_v1","6664215e9a4fc14231f523c6","3","null","null","true","","","","","","","null","<div style=""font-size:60px;"">+</div>","null","fixation","","","","","","","","","","","","","27","","",""
"revaluation","167","946138","0.0-4.0-2.0-0.14","pilot_wm_v1","6664215e9a4fc14231f523c6","3","null","null","true","","false","","","","","[655,616.4000000003725]","./assets/img/canyon/memory/25.jpg","[""ArrowUp"",""ArrowRight""]","value training","canyon","10","{""ArrowUp,ArrowLeft"":23,""ArrowUp,ArrowRight"":10,""ArrowDown,ArrowLeft"":8,""ArrowDown,ArrowRight"":30}","false","ArrowUp,ArrowRight","false","","","","","","","28","original","1",""
"html-keyboard-response","168","946641","0.0-4.0-2.0-1.14","pilot_wm_v1","6664215e9a4fc14231f523c6","3","null","null","true","","","","","","","null","<div style=""font-size:60px;"">+</div>","null","fixation","","","","","","","","","","","","","29","","",""
"revaluation","169","952651","0.0-4.0-2.0-0.15","pilot_wm_v1","6664215e9a4fc14231f523c6","3","null","null","true","","false","","","","","[1498.5,581]","./assets/img/canyon/memory/21.jpg","[""ArrowUp"",""ArrowRight""]","value training","canyon","10","{""ArrowUp,ArrowLeft"":23,""ArrowUp,ArrowRight"":10,""ArrowDown,ArrowLeft"":8,""ArrowDown,ArrowRight"":30}","false","ArrowUp,ArrowRight","false","","","","","","","30","original","1",""
"html-keyboard-response","170","953153","0.0-4.0-2.0-1.15","pilot_wm_v1","6664215e9a4fc14231f523c6","3","null","null","true","","","","","","","null","<div style=""font-size:60px;"">+</div>","null","fixation","","","","","","","","","","","","","31","","",""
"revaluation","171","959164","0.0-4.0-2.0-0.16","pilot_wm_v1","6664215e9a4fc14231f523c6","3","null","null","true","","false","","","","","[564.0999999996275,1033.0999999996275]","./assets/img/canyon/memory/41.jpg","[""ArrowUp"",""ArrowRight""]","value training","canyon","10","{""ArrowUp,ArrowLeft"":23,""ArrowUp,ArrowRight"":10,""ArrowDown,ArrowLeft"":8,""ArrowDown,ArrowRight"":30}","false","ArrowUp,ArrowRight","false","","","","","","","32","original","1",""
"html-keyboard-response","172","959668","0.0-4.0-2.0-1.16","pilot_wm_v1","6664215e9a4fc14231f523c6","3","null","null","true","","","","","","","null","<div style=""font-size:60px;"">+</div>","null","fixation","","","","","","","","","","","","","33","","",""
"revaluation","173","963676","0.0-4.0-2.0-0.17","pilot_wm_v1","6664215e9a4fc14231f523c6","3","null","null","true","","false","","","","","[744.6000000014901]","./assets/img/canyon/catch/7.jpg","[""spaceBar""]","value training","canyon","0","{""ArrowUp,ArrowLeft"":23,""ArrowUp,ArrowRight"":10,""ArrowDown,ArrowLeft"":8,""ArrowDown,ArrowRight"":30}","true","spaceBar","true","","","","","","","34","original","1",""
"html-keyboard-response","174","964180","0.0-4.0-2.0-1.17","pilot_wm_v1","6664215e9a4fc14231f523c6","3","null","null","true","","","","","","","null","<div style=""font-size:60px;"">+</div>","null","fixation","","","","","","","","","","","","","35","","",""
"revaluation","175","970190","0.0-4.0-2.0-0.18","pilot_wm_v1","6664215e9a4fc14231f523c6","3","null","null","true","","false","","","","","[720.5999999996275,411.59999999962747]","./assets/img/canyon/memory/3.jpg","[""ArrowUp"",""ArrowLeft""]","value training","canyon","23","{""ArrowUp,ArrowLeft"":23,""ArrowUp,ArrowRight"":10,""ArrowDown,ArrowLeft"":8,""ArrowDown,ArrowRight"":30}","false","ArrowUp,ArrowLeft","false","","","","","","","36","original","1",""
"html-keyboard-response","176","970694","0.0-4.0-2.0-1.18","pilot_wm_v1","6664215e9a4fc14231f523c6","3","null","null","true","","","","","","","null","<div style=""font-size:60px;"">+</div>","null","fixation","","","","","","","","","","","","","37","","",""
"revaluation","177","976705","0.0-4.0-2.0-0.19","pilot_wm_v1","6664215e9a4fc14231f523c6","3","null","null","true","","false","","","","","[676,524.5999999996275]","./assets/img/canyon/memory/6.jpg","[""ArrowUp"",""ArrowRight""]","value training","canyon","10","{""ArrowUp,ArrowLeft"":23,""ArrowUp,ArrowRight"":10,""ArrowDown,ArrowLeft"":8,""ArrowDown,ArrowRight"":30}","false","ArrowUp,ArrowRight","false","","","","","","","38","original","1",""
"html-keyboard-response","178","977209","0.0-4.0-2.0-1.19","pilot_wm_v1","6664215e9a4fc14231f523c6","3","null","null","true","","","","","","","null","<div style=""font-size:60px;"">+</div>","null","fixation","","","","","","","","","","","","","39","","",""
"revaluation","179","983220","0.0-4.0-2.0-0.20","pilot_wm_v1","6664215e9a4fc14231f523c6","3","null","null","true","","false","","","","","[983.9000000003725,420.69999999925494]","./assets/img/canyon/memory/21.jpg","[""ArrowUp"",""ArrowRight""]","value training","canyon","10","{""ArrowUp,ArrowLeft"":23,""ArrowUp,ArrowRight"":10,""ArrowDown,ArrowLeft"":8,""ArrowDown,ArrowRight"":30}","false","ArrowUp,ArrowRight","false","","","","","","","40","original","1",""
"html-keyboard-response","180","983724","0.0-4.0-2.0-1.20","pilot_wm_v1","6664215e9a4fc14231f523c6","3","null","null","true","","","","","","","null","<div style=""font-size:60px;"">+</div>","null","fixation","","","","","","","","","","","","","41","","",""
"revaluation","181","989735","0.0-4.0-2.0-0.21","pilot_wm_v1","6664215e9a4fc14231f523c6","3","null","null","true","","false","","","","","[365.7999999988824,1043.7000000011176]","./assets/img/canyon/memory/17.jpg","[""ArrowDown"",""ArrowRight""]","value training","canyon","30","{""ArrowUp,ArrowLeft"":23,""ArrowUp,ArrowRight"":10,""ArrowDown,ArrowLeft"":8,""ArrowDown,ArrowRight"":30}","true","ArrowDown,ArrowRight","false","","","","","","","42","original","1",""
"html-keyboard-response","182","990239","0.0-4.0-2.0-1.21","pilot_wm_v1","6664215e9a4fc14231f523c6","3","null","null","true","","","","","","","null","<div style=""font-size:60px;"">+</div>","null","fixation","","","","","","","","","","","","","43","","",""
"revaluation","183","996248","0.0-4.0-2.0-0.22","pilot_wm_v1","6664215e9a4fc14231f523c6","3","null","null","true","","true","","","","","[1626.800000000745]","./assets/img/canyon/memory/30.jpg","[""ArrowUp""]","value training","canyon","-5","{""ArrowUp,ArrowLeft"":23,""ArrowUp,ArrowRight"":10,""ArrowDown,ArrowLeft"":8,""ArrowDown,ArrowRight"":30}","false","ArrowUp","false","","","","","","","44","original","1",""
"html-keyboard-response","184","996751","0.0-4.0-2.0-1.22","pilot_wm_v1","6664215e9a4fc14231f523c6","3","null","null","true","","","","","","","null","<div style=""font-size:60px;"">+</div>","null","fixation","","","","","","","","","","","","","45","","",""
"revaluation","185","1002761","0.0-4.0-2.0-0.23","pilot_wm_v1","6664215e9a4fc14231f523c6","3","null","null","true","","false","","","","","[1766.300000000745,1244.699999999255]","./assets/img/canyon/memory/28.jpg","[""ArrowUp"",""ArrowLeft""]","value training","canyon","23","{""ArrowUp,ArrowLeft"":23,""ArrowUp,ArrowRight"":10,""ArrowDown,ArrowLeft"":8,""ArrowDown,ArrowRight"":30}","false","ArrowUp,ArrowLeft","false","","","","","","","46","original","1",""
"html-keyboard-response","186","1003265","0.0-4.0-2.0-1.23","pilot_wm_v1","6664215e9a4fc14231f523c6","3","null","null","true","","","","","","","null","<div style=""font-size:60px;"">+</div>","null","fixation","","","","","","","","","","","","","47","","",""
"revaluation","187","1009275","0.0-4.0-2.0-0.24","pilot_wm_v1","6664215e9a4fc14231f523c6","3","null","null","true","","false","","","","","[570.9000000003725,1237.800000000745]","./assets/img/canyon/memory/35.jpg","[""ArrowUp"",""ArrowRight""]","value training","canyon","10","{""ArrowUp,ArrowLeft"":23,""ArrowUp,ArrowRight"":10,""ArrowDown,ArrowLeft"":8,""ArrowDown,ArrowRight"":30}","false","ArrowUp,ArrowRight","false","","","","","","","48","original","1",""
"html-keyboard-response","188","1009779","0.0-4.0-2.0-1.24","pilot_wm_v1","6664215e9a4fc14231f523c6","3","null","null","true","","","","","","","null","<div style=""font-size:60px;"">+</div>","null","fixation","","","","","","","","","","","","","49","","",""
"revaluation","189","1015790","0.0-4.0-2.0-0.25","pilot_wm_v1","6664215e9a4fc14231f523c6","3","null","null","true","","false","","","","","[366.7999999988824,413.2999999988824]","./assets/img/canyon/memory/8.jpg","[""ArrowDown"",""ArrowRight""]","value training","canyon","30","{""ArrowUp,ArrowLeft"":23,""ArrowUp,ArrowRight"":10,""ArrowDown,ArrowLeft"":8,""ArrowDown,ArrowRight"":30}","true","ArrowDown,ArrowRight","false","","","","","","","50","original","1",""
"html-keyboard-response","190","1016294","0.0-4.0-2.0-1.25","pilot_wm_v1","6664215e9a4fc14231f523c6","3","null","null","true","","","","","","","null","<div style=""font-size:60px;"">+</div>","null","fixation","","","","","","","","","","","","","51","","",""
"revaluation","191","1022304","0.0-4.0-2.0-0.26","pilot_wm_v1","6664215e9a4fc14231f523c6","3","null","null","true","","false","","","","","[379.09999999962747,533.5999999996275]","./assets/img/canyon/memory/1.jpg","[""ArrowUp"",""ArrowRight""]","value training","canyon","10","{""ArrowUp,ArrowLeft"":23,""ArrowUp,ArrowRight"":10,""ArrowDown,ArrowLeft"":8,""ArrowDown,ArrowRight"":30}","false","ArrowUp,ArrowRight","false","","","","","","","52","original","1",""
"html-keyboard-response","192","1022808","0.0-4.0-2.0-1.26","pilot_wm_v1","6664215e9a4fc14231f523c6","3","null","null","true","","","","","","","null","<div style=""font-size:60px;"">+</div>","null","fixation","","","","","","","","","","","","","53","","",""
"revaluation","193","1028818","0.0-4.0-2.0-0.27","pilot_wm_v1","6664215e9a4fc14231f523c6","3","null","null","true","","false","","","","","[653.6999999992549,848.9000000003725]","./assets/img/canyon/memory/13.jpg","[""ArrowUp"",""ArrowRight""]","value training","canyon","10","{""ArrowUp,ArrowLeft"":23,""ArrowUp,ArrowRight"":10,""ArrowDown,ArrowLeft"":8,""ArrowDown,ArrowRight"":30}","false","ArrowUp,ArrowRight","false","","","","","","","54","original","1",""
"html-keyboard-response","194","1029322","0.0-4.0-2.0-1.27","pilot_wm_v1","6664215e9a4fc14231f523c6","3","null","null","true","","","","","","","null","<div style=""font-size:60px;"">+</div>","null","fixation","","","","","","","","","","","","","55","","",""
"revaluation","195","1035333","0.0-4.0-2.0-0.28","pilot_wm_v1","6664215e9a4fc14231f523c6","3","null","null","true","","false","","","","","[393.40000000037253,491.90000000037253]","./assets/img/canyon/memory/0.jpg","[""ArrowDown"",""ArrowRight""]","value training","canyon","30","{""ArrowUp,ArrowLeft"":23,""ArrowUp,ArrowRight"":10,""ArrowDown,ArrowLeft"":8,""ArrowDown,ArrowRight"":30}","true","ArrowDown,ArrowRight","false","","","","","","","56","original","1",""
"html-keyboard-response","196","1035836","0.0-4.0-2.0-1.28","pilot_wm_v1","6664215e9a4fc14231f523c6","3","null","null","true","","","","","","","null","<div style=""font-size:60px;"">+</div>","null","fixation","","","","","","","","","","","","","57","","",""
"revaluation","197","1041847","0.0-4.0-2.0-0.29","pilot_wm_v1","6664215e9a4fc14231f523c6","3","null","null","true","","false","","","","","[503.40000000037253,336.5]","./assets/img/canyon/memory/24.jpg","[""ArrowUp"",""ArrowRight""]","value training","canyon","10","{""ArrowUp,ArrowLeft"":23,""ArrowUp,ArrowRight"":10,""ArrowDown,ArrowLeft"":8,""ArrowDown,ArrowRight"":30}","false","ArrowUp,ArrowRight","false","","","","","","","58","original","1",""
"html-keyboard-response","198","1042350","0.0-4.0-2.0-1.29","pilot_wm_v1","6664215e9a4fc14231f523c6","3","null","null","true","","","","","","","null","<div style=""font-size:60px;"">+</div>","null","fixation","","","","","","","","","","","","","59","","",""
"revaluation","199","1048361","0.0-4.0-2.0-0.30","pilot_wm_v1","6664215e9a4fc14231f523c6","3","null","null","true","","false","","","","","[399.59999999962747,1030.5]","./assets/img/canyon/memory/2.jpg","[""ArrowUp"",""ArrowRight""]","value training","canyon","10","{""ArrowUp,ArrowLeft"":23,""ArrowUp,ArrowRight"":10,""ArrowDown,ArrowLeft"":8,""ArrowDown,ArrowRight"":30}","false","ArrowUp,ArrowRight","false","","","","","","","60","original","1",""
"html-keyboard-response","200","1048865","0.0-4.0-2.0-1.30","pilot_wm_v1","6664215e9a4fc14231f523c6","3","null","null","true","","","","","","","null","<div style=""font-size:60px;"">+</div>","null","fixation","","","","","","","","","","","","","61","","",""
"revaluation","201","1054876","0.0-4.0-2.0-0.31","pilot_wm_v1","6664215e9a4fc14231f523c6","3","null","null","true","","false","","","","","[438.09999999962747,481.40000000037253]","./assets/img/canyon/memory/8.jpg","[""ArrowUp"",""ArrowRight""]","value training","canyon","10","{""ArrowUp,ArrowLeft"":23,""ArrowUp,ArrowRight"":10,""ArrowDown,ArrowLeft"":8,""ArrowDown,ArrowRight"":30}","false","ArrowUp,ArrowRight","false","","","","","","","62","original","1",""
"html-keyboard-response","202","1055380","0.0-4.0-2.0-1.31","pilot_wm_v1","6664215e9a4fc14231f523c6","3","null","null","true","","","","","","","null","<div style=""font-size:60px;"">+</div>","null","fixation","","","","","","","","","","","","","63","","",""
"revaluation","203","1059389","0.0-4.0-2.0-0.32","pilot_wm_v1","6664215e9a4fc14231f523c6","3","null","null","true","","false","","","","","[574.4000000003725]","./assets/img/canyon/catch/0.jpg","[""ArrowUp""]","value training","canyon","-10","{""ArrowUp,ArrowLeft"":23,""ArrowUp,ArrowRight"":10,""ArrowDown,ArrowLeft"":8,""ArrowDown,ArrowRight"":30}","false","ArrowUp","true","","","","","","","64","original","1",""
"html-keyboard-response","204","1059892","0.0-4.0-2.0-1.32","pilot_wm_v1","6664215e9a4fc14231f523c6","3","null","null","true","","","","","","","null","<div style=""font-size:60px;"">+</div>","null","fixation","","","","","","","","","","","","","65","","",""
"revaluation","205","1065903","0.0-4.0-2.0-0.33","pilot_wm_v1","6664215e9a4fc14231f523c6","3","null","null","true","","false","","","","","[446.80000000074506,1387.199999999255]","./assets/img/canyon/memory/19.jpg","[""ArrowDown"",""ArrowRight""]","value training","canyon","30","{""ArrowUp,ArrowLeft"":23,""ArrowUp,ArrowRight"":10,""ArrowDown,ArrowLeft"":8,""ArrowDown,ArrowRight"":30}","true","ArrowDown,ArrowRight","false","","","","","","","66","original","1",""
"html-keyboard-response","206","1066406","0.0-4.0-2.0-1.33","pilot_wm_v1","6664215e9a4fc14231f523c6","3","null","null","true","","","","","","","null","<div style=""font-size:60px;"">+</div>","null","fixation","","","","","","","","","","","","","67","","",""
"revaluation","207","1072417","0.0-4.0-2.0-0.34","pilot_wm_v1","6664215e9a4fc14231f523c6","3","null","null","true","","false","","","","","[1097.9000000003725,410.5]","./assets/img/canyon/memory/22.jpg","[""ArrowUp"",""ArrowLeft""]","value training","canyon","23","{""ArrowUp,ArrowLeft"":23,""ArrowUp,ArrowRight"":10,""ArrowDown,ArrowLeft"":8,""ArrowDown,ArrowRight"":30}","false","ArrowUp,ArrowLeft","false","","","","","","","68","original","1",""
"html-keyboard-response","208","1072921","0.0-4.0-2.0-1.34","pilot_wm_v1","6664215e9a4fc14231f523c6","3","null","null","true","","","","","","","null","<div style=""font-size:60px;"">+</div>","null","fixation","","","","","","","","","","","","","69","","",""
"revaluation","209","1078931","0.0-4.0-2.0-0.35","pilot_wm_v1","6664215e9a4fc14231f523c6","3","null","null","true","","false","","","","","[739.4000000003725,592.2999999988824]","./assets/img/canyon/memory/11.jpg","[""ArrowDown"",""ArrowRight""]","value training","canyon","30","{""ArrowUp,ArrowLeft"":23,""ArrowUp,ArrowRight"":10,""ArrowDown,ArrowLeft"":8,""ArrowDown,ArrowRight"":30}","true","ArrowDown,ArrowRight","false","","","","","","","70","original","1",""
"html-keyboard-response","210","1079434","0.0-4.0-2.0-1.35","pilot_wm_v1","6664215e9a4fc14231f523c6","3","null","null","true","","","","","","","null","<div style=""font-size:60px;"">+</div>","null","fixation","","","","","","","","","","","","","71","","",""
"revaluation","211","1085446","0.0-4.0-2.0-0.36","pilot_wm_v1","6664215e9a4fc14231f523c6","3","null","null","true","","false","","","","","[792.2000000011176,604]","./assets/img/canyon/memory/28.jpg","[""ArrowUp"",""ArrowRight""]","value training","canyon","10","{""ArrowUp,ArrowLeft"":23,""ArrowUp,ArrowRight"":10,""ArrowDown,ArrowLeft"":8,""ArrowDown,ArrowRight"":30}","false","ArrowUp,ArrowRight","false","","","","","","","72","original","1",""
"html-keyboard-response","212","1085949","0.0-4.0-2.0-1.36","pilot_wm_v1","6664215e9a4fc14231f523c6","3","null","null","true","","","","","","","null","<div style=""font-size:60px;"">+</div>","null","fixation","","","","","","","","","","","","","73","","",""
"revaluation","213","1091960","0.0-4.0-2.0-0.37","pilot_wm_v1","6664215e9a4fc14231f523c6","3","null","null","true","","false","","","","","[448,672.3000000007451]","./assets/img/canyon/memory/2.jpg","[""ArrowUp"",""ArrowRight""]","value training","canyon","10","{""ArrowUp,ArrowLeft"":23,""ArrowUp,ArrowRight"":10,""ArrowDown,ArrowLeft"":8,""ArrowDown,ArrowRight"":30}","false","ArrowUp,ArrowRight","false","","","","","","","74","original","1",""
"html-keyboard-response","214","1092464","0.0-4.0-2.0-1.37","pilot_wm_v1","6664215e9a4fc14231f523c6","3","null","null","true","","","","","","","null","<div style=""font-size:60px;"">+</div>","null","fixation","","","","","","","","","","","","","75","","",""
"revaluation","215","1098474","0.0-4.0-2.0-0.38","pilot_wm_v1","6664215e9a4fc14231f523c6","3","null","null","true","","false","","","","","[1361.9000000003725,840.3000000007451]","./assets/img/canyon/memory/7.jpg","[""ArrowDown"",""ArrowRight""]","value training","canyon","30","{""ArrowUp,ArrowLeft"":23,""ArrowUp,ArrowRight"":10,""ArrowDown,ArrowLeft"":8,""ArrowDown,ArrowRight"":30}","true","ArrowDown,ArrowRight","false","","","","","","","76","original","1",""
"html-keyboard-response","216","1098978","0.0-4.0-2.0-1.38","pilot_wm_v1","6664215e9a4fc14231f523c6","3","null","null","true","","","","","","","null","<div style=""font-size:60px;"">+</div>","null","fixation","","","","","","","","","","","","","77","","",""
"revaluation","217","1104988","0.0-4.0-2.0-0.39","pilot_wm_v1","6664215e9a4fc14231f523c6","3","null","null","true","","false","","","","","[436.40000000037253,1557.9000000003725]","./assets/img/canyon/memory/24.jpg","[""ArrowUp"",""ArrowRight""]","value training","canyon","10","{""ArrowUp,ArrowLeft"":23,""ArrowUp,ArrowRight"":10,""ArrowDown,ArrowLeft"":8,""ArrowDown,ArrowRight"":30}","false","ArrowUp,ArrowRight","false","","","","","","","78","original","1",""
"html-keyboard-response","218","1105492","0.0-4.0-2.0-1.39","pilot_wm_v1","6664215e9a4fc14231f523c6","3","null","null","true","","","","","","","null","<div style=""font-size:60px;"">+</div>","null","fixation","","","","","","","","","","","","","79","","",""
"revaluation","219","1109500","0.0-4.0-2.0-0.40","pilot_wm_v1","6664215e9a4fc14231f523c6","3","null","null","true","","true","","","","","[]","./assets/img/canyon/memory/17.jpg","[]","value training","canyon","-5","{""ArrowUp,ArrowLeft"":23,""ArrowUp,ArrowRight"":10,""ArrowDown,ArrowLeft"":8,""ArrowDown,ArrowRight"":30}","false","","false","","","","","","","80","original","1",""
"html-keyboard-response","220","1110004","0.0-4.0-2.0-1.40","pilot_wm_v1","6664215e9a4fc14231f523c6","3","null","null","true","","","","","","","null","<div style=""font-size:60px;"">+</div>","null","fixation","","","","","","","","","","","","","81","","",""
"revaluation","221","1116014","0.0-4.0-2.0-0.41","pilot_wm_v1","6664215e9a4fc14231f523c6","3","null","null","true","","false","","","","","[175.69999999925494,595.7999999988824]","./assets/img/canyon/memory/1.jpg","[""ArrowDown"",""ArrowRight""]","value training","canyon","30","{""ArrowUp,ArrowLeft"":23,""ArrowUp,ArrowRight"":10,""ArrowDown,ArrowLeft"":8,""ArrowDown,ArrowRight"":30}","true","ArrowDown,ArrowRight","false","","","","","","","82","original","1",""
"html-keyboard-response","222","1116518","0.0-4.0-2.0-1.41","pilot_wm_v1","6664215e9a4fc14231f523c6","3","null","null","true","","","","","","","null","<div style=""font-size:60px;"">+</div>","null","fixation","","","","","","","","","","","","","83","","",""
"revaluation","223","1122529","0.0-4.0-2.0-0.42","pilot_wm_v1","6664215e9a4fc14231f523c6","3","null","null","true","","false","","","","","[801.4000000003725,764.8000000007451]","./assets/img/canyon/memory/23.jpg","[""ArrowDown"",""ArrowRight""]","value training","canyon","30","{""ArrowUp,ArrowLeft"":23,""ArrowUp,ArrowRight"":10,""ArrowDown,ArrowLeft"":8,""ArrowDown,ArrowRight"":30}","true","ArrowDown,ArrowRight","false","","","","","","","84","original","1",""
"html-keyboard-response","224","1123032","0.0-4.0-2.0-1.42","pilot_wm_v1","6664215e9a4fc14231f523c6","3","null","null","true","","","","","","","null","<div style=""font-size:60px;"">+</div>","null","fixation","","","","","","","","","","","","","85","","",""
"revaluation","225","1129043","0.0-4.0-2.0-0.43","pilot_wm_v1","6664215e9a4fc14231f523c6","3","null","null","true","","false","","","","","[492.7000000011176,723.4000000003725]","./assets/img/canyon/memory/35.jpg","[""ArrowDown"",""ArrowRight""]","value training","canyon","30","{""ArrowUp,ArrowLeft"":23,""ArrowUp,ArrowRight"":10,""ArrowDown,ArrowLeft"":8,""ArrowDown,ArrowRight"":30}","true","ArrowDown,ArrowRight","false","","","","","","","86","original","1",""
"html-keyboard-response","226","1129547","0.0-4.0-2.0-1.43","pilot_wm_v1","6664215e9a4fc14231f523c6","3","null","null","true","","","","","","","null","<div style=""font-size:60px;"">+</div>","null","fixation","","","","","","","","","","","","","87","","",""
"revaluation","227","1135557","0.0-4.0-2.0-0.44","pilot_wm_v1","6664215e9a4fc14231f523c6","3","null","null","true","","true","","","","","[74.5]","./assets/img/canyon/memory/6.jpg","[""ArrowUp""]","value training","canyon","-5","{""ArrowUp,ArrowLeft"":23,""ArrowUp,ArrowRight"":10,""ArrowDown,ArrowLeft"":8,""ArrowDown,ArrowRight"":30}","false","ArrowUp","false","","","","","","","88","original","1",""
"html-keyboard-response","228","1136061","0.0-4.0-2.0-1.44","pilot_wm_v1","6664215e9a4fc14231f523c6","3","null","null","true","","","","","","","null","<div style=""font-size:60px;"">+</div>","null","fixation","","","","","","","","","","","","","89","","",""
"revaluation","229","1142070","0.0-4.0-2.0-0.45","pilot_wm_v1","6664215e9a4fc14231f523c6","3","null","null","true","","false","","","","","[54.79999999888241,586.5999999996275]","./assets/img/canyon/memory/19.jpg","[""ArrowUp"",""ArrowRight""]","value training","canyon","10","{""ArrowUp,ArrowLeft"":23,""ArrowUp,ArrowRight"":10,""ArrowDown,ArrowLeft"":8,""ArrowDown,ArrowRight"":30}","false","ArrowUp,ArrowRight","false","","","","","","","90","original","1",""
"html-keyboard-response","230","1142573","0.0-4.0-2.0-1.45","pilot_wm_v1","6664215e9a4fc14231f523c6","3","null","null","true","","","","","","","null","<div style=""font-size:60px;"">+</div>","null","fixation","","","","","","","","","","","","","91","","",""
"revaluation","231","1148584","0.0-4.0-2.0-0.46","pilot_wm_v1","6664215e9a4fc14231f523c6","3","null","null","true","","false","","","","","[402.40000000037253,519]","./assets/img/canyon/memory/0.jpg","[""ArrowUp"",""ArrowRight""]","value training","canyon","10","{""ArrowUp,ArrowLeft"":23,""ArrowUp,ArrowRight"":10,""ArrowDown,ArrowLeft"":8,""ArrowDown,ArrowRight"":30}","false","ArrowUp,ArrowRight","false","","","","","","","92","original","1",""
"html-keyboard-response","232","1149087","0.0-4.0-2.0-1.46","pilot_wm_v1","6664215e9a4fc14231f523c6","3","null","null","true","","","","","","","null","<div style=""font-size:60px;"">+</div>","null","fixation","","","","","","","","","","","","","93","","",""
"revaluation","233","1153092","0.0-4.0-2.0-0.47","pilot_wm_v1","6664215e9a4fc14231f523c6","3","null","null","true","","false","","","","","[1180.0999999996275]","./assets/img/canyon/catch/4.jpg","[""spaceBar""]","value training","canyon","0","{""ArrowUp,ArrowLeft"":23,""ArrowUp,ArrowRight"":10,""ArrowDown,ArrowLeft"":8,""ArrowDown,ArrowRight"":30}","true","spaceBar","true","","","","","","","94","original","1",""
"html-keyboard-response","234","1153595","0.0-4.0-2.0-1.47","pilot_wm_v1","6664215e9a4fc14231f523c6","3","null","null","true","","","","","","","null","<div style=""font-size:60px;"">+</div>","null","fixation","","","","","","","","","","","","","95","","",""
"revaluation","235","1157603","0.0-4.0-2.0-0.48","pilot_wm_v1","6664215e9a4fc14231f523c6","3","null","null","true","","false","","","","","[666.3999999985099]","./assets/img/canyon/catch/1.jpg","[""ArrowDown""]","value training","canyon","-10","{""ArrowUp,ArrowLeft"":23,""ArrowUp,ArrowRight"":10,""ArrowDown,ArrowLeft"":8,""ArrowDown,ArrowRight"":30}","false","ArrowDown","true","","","","","","","96","original","1",""
"html-keyboard-response","236","1158106","0.0-4.0-2.0-1.48","pilot_wm_v1","6664215e9a4fc14231f523c6","3","null","null","true","","","","","","","null","<div style=""font-size:60px;"">+</div>","null","fixation","","","","","","","","","","","","","97","","",""
"revaluation","237","1162115","0.0-4.0-2.0-0.49","pilot_wm_v1","6664215e9a4fc14231f523c6","3","null","null","true","","false","","","","","[1120.4000000003725]","./assets/img/canyon/catch/6.jpg","[""spaceBar""]","value training","canyon","0","{""ArrowUp,ArrowLeft"":23,""ArrowUp,ArrowRight"":10,""ArrowDown,ArrowLeft"":8,""ArrowDown,ArrowRight"":30}","true","spaceBar","true","","","","","","","98","original","1",""
"html-keyboard-response","238","1162618","0.0-4.0-2.0-1.49","pilot_wm_v1","6664215e9a4fc14231f523c6","3","null","null","true","","","","","","","null","<div style=""font-size:60px;"">+</div>","null","fixation","","","","","","","","","","","","","99","","",""
"learning-instructions","239","1176571","0.0-4.0-3.0-0.0","pilot_wm_v1","6664215e9a4fc14231f523c6","3","null","null","true","","","","","","","1039.0999999996275","<p> Now, you will travel with a friend who will choose whether you go up or down first. </p>
            <p> On these turns, you will just see the animal that they found. You will still get to choose which chest to search for treasure.</p>","","instructions","","","","","","","","","","","","","","","",""
"learning-instructions","240","1189417","0.0-4.0-3.0-0.1","pilot_wm_v1","6664215e9a4fc14231f523c6","3","null","null","true","","","","","","","1238.5","<p> In this part, you will also hear beeps from your friend and see special treasure chests that need a password. </p>
            <p> Do your best to count the high beeps <b>and</b> choose between each animals' chests at the same time.</p>
            <img src='./assets/img/instructions/beep_chest.jpg' class='instructions-image'>","","instructions","","","","","","","","","","","","","","","",""
"revaluation","241","1193424","0.0-4.0-4.0-0.0","pilot_wm_v1","6664215e9a4fc14231f523c6","3","null","null","true","","false","","","","","[1169.800000000745]","./assets/img/canyon/animals/lion.jpg","[""ArrowRight""]","revaluation","canyon","10","{""ArrowUp,ArrowLeft"":23,""ArrowUp,ArrowRight"":10,""ArrowDown,ArrowLeft"":8,""ArrowDown,ArrowRight"":30}","false","ArrowUp,ArrowRight","","4_0","","","","","","0","original","1",""
"html-keyboard-response","242","1193931","0.0-4.0-4.0-1.0","pilot_wm_v1","6664215e9a4fc14231f523c6","3","null","null","true","","","","","","","null","<div style=""font-size:60px;"">+</div>","null","fixation","","","","","","","","","","","","","","","",""
"revaluation","243","1197940","0.0-4.0-4.0-0.1","pilot_wm_v1","6664215e9a4fc14231f523c6","3","null","null","true","","true","","","","","[]","./assets/img/canyon/animals/giraffe.jpg","[]","revaluation","canyon","-5","{""ArrowUp,ArrowLeft"":23,""ArrowUp,ArrowRight"":10,""ArrowDown,ArrowLeft"":8,""ArrowDown,ArrowRight"":30}","false","ArrowDown","","17_1","","","","","","1","original","1",""
"html-keyboard-response","244","1198444","0.0-4.0-4.0-1.1","pilot_wm_v1","6664215e9a4fc14231f523c6","3","null","null","true","","","","","","","null","<div style=""font-size:60px;"">+</div>","null","fixation","","","","","","","","","","","","","","","",""
"revaluation","245","1202453","0.0-4.0-4.0-0.2","pilot_wm_v1","6664215e9a4fc14231f523c6","3","null","null","true","","false","","","","","[348.40000000037253]","./assets/img/canyon/animals/giraffe.jpg","[""ArrowRight""]","revaluation","canyon","30","{""ArrowUp,ArrowLeft"":23,""ArrowUp,ArrowRight"":10,""ArrowDown,ArrowLeft"":8,""ArrowDown,ArrowRight"":30}","true","ArrowDown,ArrowRight","","15_0","","","","","","2","original","1",""
"html-keyboard-response","246","1202957","0.0-4.0-4.0-1.2","pilot_wm_v1","6664215e9a4fc14231f523c6","3","null","null","true","","","","","","","null","<div style=""font-size:60px;"">+</div>","null","fixation","","","","","","","","","","","","","","","",""
"revaluation","247","1206967","0.0-4.0-4.0-0.3","pilot_wm_v1","6664215e9a4fc14231f523c6","3","null","null","true","","false","","","","","[409.40000000037253]","./assets/img/canyon/animals/giraffe.jpg","[""ArrowRight""]","revaluation","canyon","30","{""ArrowUp,ArrowLeft"":23,""ArrowUp,ArrowRight"":10,""ArrowDown,ArrowLeft"":8,""ArrowDown,ArrowRight"":30}","true","ArrowDown,ArrowRight","","12_2","","","","","","3","original","1",""
"html-keyboard-response","248","1207471","0.0-4.0-4.0-1.3","pilot_wm_v1","6664215e9a4fc14231f523c6","3","null","null","true","","","","","","","null","<div style=""font-size:60px;"">+</div>","null","fixation","","","","","","","","","","","","","","","",""
"html-slider-response","249","1210766","0.0-4.0-4.0-2.3-0.3","pilot_wm_v1","6664215e9a4fc14231f523c6","3","null","null","true","","","","","","","3291","<div style=""width:500px;"">
        <p>What is the password?</p>
        <img src='./assets/img/instructions/beep_chest.jpg' class='instructions-image'>","4","beep chest","","","","false","","","","50","3","1","","","","","",""
"revaluation","250","1214774","0.0-4.0-4.0-0.4","pilot_wm_v1","6664215e9a4fc14231f523c6","3","null","null","true","","false","","","","","[1159.5]","./assets/img/canyon/animals/giraffe.jpg","[""ArrowRight""]","revaluation","canyon","30","{""ArrowUp,ArrowLeft"":23,""ArrowUp,ArrowRight"":10,""ArrowDown,ArrowLeft"":8,""ArrowDown,ArrowRight"":30}","true","ArrowDown,ArrowRight","","18_0","","","","","","4","original","1",""
"html-keyboard-response","251","1215277","0.0-4.0-4.0-1.4","pilot_wm_v1","6664215e9a4fc14231f523c6","3","null","null","true","","","","","","","null","<div style=""font-size:60px;"">+</div>","null","fixation","","","","","","","","","","","","","","","",""
"revaluation","252","1219287","0.0-4.0-4.0-0.5","pilot_wm_v1","6664215e9a4fc14231f523c6","3","null","null","true","","false","","","","","[478.30000000074506]","./assets/img/canyon/animals/lion.jpg","[""ArrowLeft""]","revaluation","canyon","23","{""ArrowUp,ArrowLeft"":23,""ArrowUp,ArrowRight"":10,""ArrowDown,ArrowLeft"":8,""ArrowDown,ArrowRight"":30}","true","ArrowUp,ArrowLeft","","1_4","","","","","","5","original","1",""
"html-keyboard-response","253","1219791","0.0-4.0-4.0-1.5","pilot_wm_v1","6664215e9a4fc14231f523c6","3","null","null","true","","","","","","","null","<div style=""font-size:60px;"">+</div>","null","fixation","","","","","","","","","","","","","","","",""
"revaluation","254","1223801","0.0-4.0-4.0-0.6","pilot_wm_v1","6664215e9a4fc14231f523c6","3","null","null","true","","false","","","","","[524.7000000011176]","./assets/img/canyon/animals/lion.jpg","[""ArrowRight""]","revaluation","canyon","10","{""ArrowUp,ArrowLeft"":23,""ArrowUp,ArrowRight"":10,""ArrowDown,ArrowLeft"":8,""ArrowDown,ArrowRight"":30}","false","ArrowUp,ArrowRight","","7_4","","","","","","6","original","1",""
"html-keyboard-response","255","1224305","0.0-4.0-4.0-1.6","pilot_wm_v1","6664215e9a4fc14231f523c6","3","null","null","true","","","","","","","null","<div style=""font-size:60px;"">+</div>","null","fixation","","","","","","","","","","","","","","","",""
"revaluation","256","1228315","0.0-4.0-4.0-0.7","pilot_wm_v1","6664215e9a4fc14231f523c6","3","null","null","true","","false","","","","","[393.40000000037253]","./assets/img/canyon/animals/lion.jpg","[""ArrowLeft""]","revaluation","canyon","23","{""ArrowUp,ArrowLeft"":23,""ArrowUp,ArrowRight"":10,""ArrowDown,ArrowLeft"":8,""ArrowDown,ArrowRight"":30}","true","ArrowUp,ArrowLeft","","2_1","","","","","","7","original","1",""
"html-keyboard-response","257","1228818","0.0-4.0-4.0-1.7","pilot_wm_v1","6664215e9a4fc14231f523c6","3","null","null","true","","","","","","","null","<div style=""font-size:60px;"">+</div>","null","fixation","","","","","","","","","","","","","","","",""
"html-slider-response","258","1232093","0.0-4.0-4.0-2.7-0.7","pilot_wm_v1","6664215e9a4fc14231f523c6","3","null","null","true","","","","","","","3272","<div style=""width:500px;"">
        <p>What is the password?</p>
        <img src='./assets/img/instructions/beep_chest.jpg' class='instructions-image'>","7","beep chest","","","","false","","","","50","9","2","","","","","",""
"revaluation","259","1236099","0.0-4.0-4.0-0.8","pilot_wm_v1","6664215e9a4fc14231f523c6","3","null","null","true","","false","","","","","[910.9000000003725]","./assets/img/canyon/animals/giraffe.jpg","[""ArrowRight""]","revaluation","canyon","30","{""ArrowUp,ArrowLeft"":23,""ArrowUp,ArrowRight"":10,""ArrowDown,ArrowLeft"":8,""ArrowDown,ArrowRight"":30}","true","ArrowDown,ArrowRight","","10_3","","","","","","8","original","1",""
"html-keyboard-response","260","1236601","0.0-4.0-4.0-1.8","pilot_wm_v1","6664215e9a4fc14231f523c6","3","null","null","true","","","","","","","null","<div style=""font-size:60px;"">+</div>","null","fixation","","","","","","","","","","","","","","","",""
"revaluation","261","1240610","0.0-4.0-4.0-0.9","pilot_wm_v1","6664215e9a4fc14231f523c6","3","null","null","true","","false","","","","","[474.69999999925494]","./assets/img/canyon/animals/lion.jpg","[""ArrowRight""]","revaluation","canyon","10","{""ArrowUp,ArrowLeft"":23,""ArrowUp,ArrowRight"":10,""ArrowDown,ArrowLeft"":8,""ArrowDown,ArrowRight"":30}","false","ArrowUp,ArrowRight","","3_0","","","","","","9","original","1",""
"html-keyboard-response","262","1241114","0.0-4.0-4.0-1.9","pilot_wm_v1","6664215e9a4fc14231f523c6","3","null","null","true","","","","","","","null","<div style=""font-size:60px;"">+</div>","null","fixation","","","","","","","","","","","","","","","",""
"revaluation","263","1245123","0.0-4.0-4.0-0.10","pilot_wm_v1","6664215e9a4fc14231f523c6","3","null","null","true","","false","","","","","[516.3000000007451]","./assets/img/canyon/animals/giraffe.jpg","[""ArrowLeft""]","revaluation","canyon","8","{""ArrowUp,ArrowLeft"":23,""ArrowUp,ArrowRight"":10,""ArrowDown,ArrowLeft"":8,""ArrowDown,ArrowRight"":30}","false","ArrowDown,ArrowLeft","","11_4","","","","","","10","original","1",""
"html-keyboard-response","264","1245626","0.0-4.0-4.0-1.10","pilot_wm_v1","6664215e9a4fc14231f523c6","3","null","null","true","","","","","","","null","<div style=""font-size:60px;"">+</div>","null","fixation","","","","","","","","","","","","","","","",""
"revaluation","265","1249636","0.0-4.0-4.0-0.11","pilot_wm_v1","6664215e9a4fc14231f523c6","3","null","null","true","","false","","","","","[391.59999999962747]","./assets/img/canyon/animals/lion.jpg","[""ArrowRight""]","revaluation","canyon","10","{""ArrowUp,ArrowLeft"":23,""ArrowUp,ArrowRight"":10,""ArrowDown,ArrowLeft"":8,""ArrowDown,ArrowRight"":30}","false","ArrowUp,ArrowRight","","6_3","","","","","","11","original","1",""
"html-keyboard-response","266","1250140","0.0-4.0-4.0-1.11","pilot_wm_v1","6664215e9a4fc14231f523c6","3","null","null","true","","","","","","","null","<div style=""font-size:60px;"">+</div>","null","fixation","","","","","","","","","","","","","","","",""
"html-slider-response","267","1253529","0.0-4.0-4.0-2.11-0.11","pilot_wm_v1","6664215e9a4fc14231f523c6","3","null","null","true","","","","","","","3386","<div style=""width:500px;"">
        <p>What is the password?</p>
        <img src='./assets/img/instructions/beep_chest.jpg' class='instructions-image'>","6","beep chest","","","","false","","","","50","10","4","","","","","",""
"revaluation","268","1257535","0.0-4.0-4.0-0.12","pilot_wm_v1","6664215e9a4fc14231f523c6","3","null","null","true","","false","","","","","[917.4000000003725]","./assets/img/canyon/animals/lion.jpg","[""ArrowRight""]","revaluation","canyon","10","{""ArrowUp,ArrowLeft"":23,""ArrowUp,ArrowRight"":10,""ArrowDown,ArrowLeft"":8,""ArrowDown,ArrowRight"":30}","false","ArrowUp,ArrowRight","","8_2","","","","","","12","original","1",""
"html-keyboard-response","269","1258039","0.0-4.0-4.0-1.12","pilot_wm_v1","6664215e9a4fc14231f523c6","3","null","null","true","","","","","","","null","<div style=""font-size:60px;"">+</div>","null","fixation","","","","","","","","","","","","","","","",""
"revaluation","270","1262049","0.0-4.0-4.0-0.13","pilot_wm_v1","6664215e9a4fc14231f523c6","3","null","null","true","","false","","","","","[624.2000000011176]","./assets/img/canyon/animals/giraffe.jpg","[""ArrowRight""]","revaluation","canyon","30","{""ArrowUp,ArrowLeft"":23,""ArrowUp,ArrowRight"":10,""ArrowDown,ArrowLeft"":8,""ArrowDown,ArrowRight"":30}","true","ArrowDown,ArrowRight","","14_4","","","","","","13","original","1",""
"html-keyboard-response","271","1262553","0.0-4.0-4.0-1.13","pilot_wm_v1","6664215e9a4fc14231f523c6","3","null","null","true","","","","","","","null","<div style=""font-size:60px;"">+</div>","null","fixation","","","","","","","","","","","","","","","",""
"revaluation","272","1266562","0.0-4.0-4.0-0.14","pilot_wm_v1","6664215e9a4fc14231f523c6","3","null","null","true","","false","","","","","[447.69999999925494]","./assets/img/canyon/animals/giraffe.jpg","[""ArrowRight""]","revaluation","canyon","30","{""ArrowUp,ArrowLeft"":23,""ArrowUp,ArrowRight"":10,""ArrowDown,ArrowLeft"":8,""ArrowDown,ArrowRight"":30}","true","ArrowDown,ArrowRight","","16_0","","","","","","14","original","1",""
"html-keyboard-response","273","1267066","0.0-4.0-4.0-1.14","pilot_wm_v1","6664215e9a4fc14231f523c6","3","null","null","true","","","","","","","null","<div style=""font-size:60px;"">+</div>","null","fixation","","","","","","","","","","","","","","","",""
"revaluation","274","1271076","0.0-4.0-4.0-0.15","pilot_wm_v1","6664215e9a4fc14231f523c6","3","null","null","true","","false","","","","","[287.09999999962747]","./assets/img/canyon/animals/lion.jpg","[""ArrowRight""]","revaluation","canyon","10","{""ArrowUp,ArrowLeft"":23,""ArrowUp,ArrowRight"":10,""ArrowDown,ArrowLeft"":8,""ArrowDown,ArrowRight"":30}","false","ArrowUp,ArrowRight","","5_4","","","","","","15","original","1",""
"html-keyboard-response","275","1271580","0.0-4.0-4.0-1.15","pilot_wm_v1","6664215e9a4fc14231f523c6","3","null","null","true","","","","","","","null","<div style=""font-size:60px;"">+</div>","null","fixation","","","","","","","","","","","","","","","",""
"html-slider-response","276","1274233","0.0-4.0-4.0-2.15-0.15","pilot_wm_v1","6664215e9a4fc14231f523c6","3","null","null","true","","","","","","","2649","<div style=""width:500px;"">
        <p>What is the password?</p>
        <img src='./assets/img/instructions/beep_chest.jpg' class='instructions-image'>","10","beep chest","","","","true","","","","50","10","0","","","","","",""
"revaluation","277","1278240","0.0-4.0-4.0-0.16","pilot_wm_v1","6664215e9a4fc14231f523c6","3","null","null","true","","false","","","","","[946.6999999992549]","./assets/img/canyon/animals/giraffe.jpg","[""ArrowRight""]","revaluation","canyon","30","{""ArrowUp,ArrowLeft"":23,""ArrowUp,ArrowRight"":10,""ArrowDown,ArrowLeft"":8,""ArrowDown,ArrowRight"":30}","true","ArrowDown,ArrowRight","","13_2","","","","","","16","original","1",""
"html-keyboard-response","278","1278744","0.0-4.0-4.0-1.16","pilot_wm_v1","6664215e9a4fc14231f523c6","3","null","null","true","","","","","","","null","<div style=""font-size:60px;"">+</div>","null","fixation","","","","","","","","","","","","","","","",""
"revaluation","279","1282753","0.0-4.0-4.0-0.17","pilot_wm_v1","6664215e9a4fc14231f523c6","3","null","null","true","","false","","","","","[698.6999999992549]","./assets/img/canyon/animals/lion.jpg","[""ArrowRight""]","revaluation","canyon","10","{""ArrowUp,ArrowLeft"":23,""ArrowUp,ArrowRight"":10,""ArrowDown,ArrowLeft"":8,""ArrowDown,ArrowRight"":30}","false","ArrowUp,ArrowRight","","9_2","","","","","","17","original","1",""
