"trial_type","trial_index","time_elapsed","internal_node_id","task_version","subject_id","assigned_condition","age","gender","rest","success","timeout","failed_images","failed_audio","failed_video","browser_interaction","rt","stimulus","response","task_part","environment","score","rewardMap","correct","fullState","isCatch","audioStim","slider_start","answer","error","numberMissed","duration","trial_num","condition","order","bonus"
"pavlovia","0","1504","0.0-0.0","pilot_wm_v1","62b1e957d10fa7c323e0df84","2","null","null","true","","","","","","","","","","","","","","","","","","","","","","","","","",""
"preload","1","12447","0.0-1.0","pilot_wm_v1","62b1e957d10fa7c323e0df84","2","null","null","true","true","false","[]","[]","[]","[{""event"":""fullscreenenter"",""trial"":2,""time"":18267}]","","","","","","","","","","","","","","","","","","","",""
"fullscreen","2","19241","0.0-2.0","pilot_wm_v1","62b1e957d10fa7c323e0df84","2","null","null","true","true","","","","","","","","","","","","","","","","","","","","","","","","",""
"audio-button-response","3","20921","0.0-3.0-0.0-0.0","pilot_wm_v1","62b1e957d10fa7c323e0df84","2","null","null","true","","","","","","","1605","./assets/audio/audiotest/turtle.mp3","2","audio_test","","","","","","","","","","","","","","","",""
"learning-instructions","4","29908","0.0-3.0-1.0-0.0","pilot_wm_v1","62b1e957d10fa7c323e0df84","2","null","null","true","","","","","","","2009.2999999970198","<p> Welcome! Please remember to stay in fullscreen mode and don't click away from the experiment. </p>","","instructions","","","","","","","","","","","","","","","",""
"learning-instructions","5","39082","0.0-3.0-1.0-0.1","pilot_wm_v1","62b1e957d10fa7c323e0df84","2","null","null","true","","","","","","","767.9000000059605","<p> Today you will be playing a game to earn treasure. </p>
            <p> At the end of the experiment, you will earn a bonus based on how much treasure you find. </p>
            <img src='./assets/img/instructions/treasure.jpg' class='instructions-image'>","","instructions","","","","","","","","","","","","","","","",""
"learning-instructions","6","48274","0.0-3.0-1.0-0.2","pilot_wm_v1","62b1e957d10fa7c323e0df84","2","null","null","true","","","","","","","935.7999999970198","<p> Animals have hidden treasure in treasure chests. </p>
            <p> You need to first find an animal and then choose which of their treasure chests to search. </p>
            <img src='./assets/img/space/animals/cat.jpg' class='instructions-image'>","","instructions","","","","","","","","","","","","","","","",""
"learning-instructions","7","62345","0.0-3.0-1.0-0.3","pilot_wm_v1","62b1e957d10fa7c323e0df84","2","null","null","true","","","","","","","927.7999999970198","<p> In each round, you will search for treasure in a different place. In the real game, there will be two rounds. </p>
            <p> You will begin with a separate, practice round where you will search for treasure in outer space. </p>
            <img src='./assets/img/space/0.jpg' class='instructions-image'>","","instructions","","","","","","","","","","","","","","","",""
"learning-instructions","8","74717","0.0-3.0-1.0-0.4","pilot_wm_v1","62b1e957d10fa7c323e0df84","2","null","null","true","","","","","","","968.8999999910593","<p> On every turn, you will see a picture of the place that you are in, but the specific image may be different each time. </p>
            <p> For example, both of these images mean you are in outer space. </p>
            <img src='./assets/img/instructions/outerspace.jpg' class='instructions-image'>","","instructions","","","","","","","","","","","","","","","",""
"learning-instructions","9","83560","0.0-3.0-1.0-0.5","pilot_wm_v1","62b1e957d10fa7c323e0df84","2","null","null","true","","","","","","","1017.5","<p> You need to decide which direction to travel in. </p>
            <p> You can choose between going <b>up or down</b> by using the arrow keys. </p>
            <img src='./assets/img/instructions/updown.jpg' class='instructions-image'>","","instructions","","","","","","","","","","","","","","","",""
"learning-instructions","10","93108","0.0-3.0-1.0-0.6","pilot_wm_v1","62b1e957d10fa7c323e0df84","2","null","null","true","","","","","","","742","<p> You will have <b>2 seconds</b> to make your choice. </p>
            <p> If you do not make a choice within 2 seconds, you will not find an animal or earn treasure. </p>
            <img src='./assets/img/instructions/2seconds.jpg' class='instructions-image'>","","instructions","","","","","","","","","","","","","","","",""
"learning-instructions","11","101311","0.0-3.0-1.0-0.7","pilot_wm_v1","62b1e957d10fa7c323e0df84","2","null","null","true","","","","","","","1168.5","<p> Let’s try practicing that now! </p>
            <p> When you see a picture of the place you are in, press the <b>up</b> key to travel up. </p>
            <img src='./assets/img/instructions/pressUp.jpg' class='instructions-image'>","","instructions","","","","","","","","","","","","","","","",""
"revaluation","12","105332","0.0-3.0-2.0-0.0","pilot_wm_v1","62b1e957d10fa7c323e0df84","2","null","null","true","","false","","","","","[808.8999999910593]","./assets/img/space/0.jpg","[""ArrowUp""]","first stage practice","space","0","null","null","ArrowUp","false","","","","","","","","","",""
"html-keyboard-response","13","105833","0.0-3.0-2.0-1.0","pilot_wm_v1","62b1e957d10fa7c323e0df84","2","null","null","true","","","","","","","null","<div style=""font-size:60px;"">+</div>","null","fixation","","","","","","","","","","","","","","","",""
"revaluation","14","109841","0.0-3.0-2.0-0.1","pilot_wm_v1","62b1e957d10fa7c323e0df84","2","null","null","true","","false","","","","","[1540.2000000029802]","./assets/img/space/1.jpg","[""ArrowUp""]","first stage practice","space","0","null","null","ArrowUp","false","","","","","","","","","",""
"html-keyboard-response","15","110343","0.0-3.0-2.0-1.1","pilot_wm_v1","62b1e957d10fa7c323e0df84","2","null","null","true","","","","","","","null","<div style=""font-size:60px;"">+</div>","null","fixation","","","","","","","","","","","","","","","",""
"revaluation","16","114349","0.0-3.0-2.0-0.2","pilot_wm_v1","62b1e957d10fa7c323e0df84","2","null","null","true","","false","","","","","[745.2000000029802]","./assets/img/space/2.jpg","[""ArrowUp""]","first stage practice","space","0","null","null","ArrowUp","false","","","","","","","","","",""
"html-keyboard-response","17","114851","0.0-3.0-2.0-1.2","pilot_wm_v1","62b1e957d10fa7c323e0df84","2","null","null","true","","","","","","","null","<div style=""font-size:60px;"">+</div>","null","fixation","","","","","","","","","","","","","","","",""
"learning-instructions","18","122719","0.0-3.0-3.0-0.0","pilot_wm_v1","62b1e957d10fa7c323e0df84","2","null","null","true","","","","","","","3168.7999999970198","<p> Great job! Now try pressing the <b>down</b> key to travel down. </p>
            <img src='./assets/img/instructions/pressDown.jpg' class='instructions-image'>","","instructions","","","","","","","","","","","","","","","",""
"revaluation","19","126725","0.0-3.0-4.0-0.0","pilot_wm_v1","62b1e957d10fa7c323e0df84","2","null","null","true","","false","","","","","[716.5999999940395]","./assets/img/space/3.jpg","[""ArrowDown""]","first stage practice","space","0","null","null","ArrowDown","false","","","","","","","","","",""
"html-keyboard-response","20","127228","0.0-3.0-4.0-1.0","pilot_wm_v1","62b1e957d10fa7c323e0df84","2","null","null","true","","","","","","","null","<div style=""font-size:60px;"">+</div>","null","fixation","","","","","","","","","","","","","","","",""
"revaluation","21","131235","0.0-3.0-4.0-0.1","pilot_wm_v1","62b1e957d10fa7c323e0df84","2","null","null","true","","false","","","","","[656.8999999910593]","./assets/img/space/4.jpg","[""ArrowDown""]","first stage practice","space","0","null","null","ArrowDown","false","","","","","","","","","",""
"html-keyboard-response","22","131737","0.0-3.0-4.0-1.1","pilot_wm_v1","62b1e957d10fa7c323e0df84","2","null","null","true","","","","","","","null","<div style=""font-size:60px;"">+</div>","null","fixation","","","","","","","","","","","","","","","",""
"revaluation","23","135744","0.0-3.0-4.0-0.2","pilot_wm_v1","62b1e957d10fa7c323e0df84","2","null","null","true","","false","","","","","[694.7999999970198]","./assets/img/space/5.jpg","[""ArrowDown""]","first stage practice","space","0","null","null","ArrowDown","false","","","","","","","","","",""
"html-keyboard-response","24","136247","0.0-3.0-4.0-1.2","pilot_wm_v1","62b1e957d10fa7c323e0df84","2","null","null","true","","","","","","","null","<div style=""font-size:60px;"">+</div>","null","fixation","","","","","","","","","","","","","","","",""
"learning-instructions","25","147123","0.0-3.0-5.0-0.0","pilot_wm_v1","62b1e957d10fa7c323e0df84","2","null","null","true","","","","","","","1025.0999999940395","<p> The animals don’t move, so the animal in the upper part of a place will stay in the upper part of a place, and the animal in the lower part of a place will stay in the lower part of a place. </p>","","instructions","","","","","","","","","","","","","","","",""
"learning-instructions","26","157199","0.0-3.0-5.0-0.1","pilot_wm_v1","62b1e957d10fa7c323e0df84","2","null","null","true","","","","","","","947.2000000029802","<p> Each animal has two treasure chests for you to choose from. </p>
            <p> The amount of treasure in each chest can range from <b> 0 to 40 pieces.</b></p>","","instructions","","","","","","","","","","","","","","","",""
"learning-instructions","27","169089","0.0-3.0-5.0-0.2","pilot_wm_v1","62b1e957d10fa7c323e0df84","2","null","null","true","","","","","","","713.7999999970198","<p> You should decide which chest to search for treasure by using the <b>left</b> and <b>right</b> arrow keys. </p>
            <p><b> Pay attention to which animal is on the screen, as the animals have different treasure chests. </b></p>
            <img src='./assets/img/instructions/leftright.jpg' class='instructions-image'>","","instructions","","","","","","","","","","","","","","","",""
"learning-instructions","28","175940","0.0-3.0-5.0-0.3","pilot_wm_v1","62b1e957d10fa7c323e0df84","2","null","null","true","","","","","","","492.3999999910593","<p> Let’s try practicing that now. </p>
            <p> When you see an animal, choose which chest to search for treasure. </p>
            <img src='./assets/img/instructions/chooseChest.jpg' class='instructions-image'>","","instructions","","","","","","","","","","","","","","","",""
"revaluation","29","179946","0.0-3.0-6.0-0.0","pilot_wm_v1","62b1e957d10fa7c323e0df84","2","null","null","true","","false","","","","","[665.2999999970198]","./assets/img/space/animals/rabbit.jpg","[""ArrowRight""]","second stage practice","space","23","{""ArrowUp,ArrowLeft"":3,""ArrowUp,ArrowRight"":36,""ArrowDown,ArrowLeft"":15,""ArrowDown,ArrowRight"":23}","true","ArrowDown,ArrowRight","","","","","","","","","","",""
"html-keyboard-response","30","180448","0.0-3.0-6.0-1.0","pilot_wm_v1","62b1e957d10fa7c323e0df84","2","null","null","true","","","","","","","null","<div style=""font-size:60px;"">+</div>","null","fixation","","","","","","","","","","","","","","","",""
"revaluation","31","184456","0.0-3.0-6.0-0.1","pilot_wm_v1","62b1e957d10fa7c323e0df84","2","null","null","true","","false","","","","","[937.9000000059605]","./assets/img/space/animals/cat.jpg","[""ArrowRight""]","second stage practice","space","36","{""ArrowUp,ArrowLeft"":3,""ArrowUp,ArrowRight"":36,""ArrowDown,ArrowLeft"":15,""ArrowDown,ArrowRight"":23}","true","ArrowUp,ArrowRight","","","","","","","","","","",""
"html-keyboard-response","32","184958","0.0-3.0-6.0-1.1","pilot_wm_v1","62b1e957d10fa7c323e0df84","2","null","null","true","","","","","","","null","<div style=""font-size:60px;"">+</div>","null","fixation","","","","","","","","","","","","","","","",""
"revaluation","33","188965","0.0-3.0-6.0-0.2","pilot_wm_v1","62b1e957d10fa7c323e0df84","2","null","null","true","","false","","","","","[578.2000000029802]","./assets/img/space/animals/rabbit.jpg","[""ArrowLeft""]","second stage practice","space","15","{""ArrowUp,ArrowLeft"":3,""ArrowUp,ArrowRight"":36,""ArrowDown,ArrowLeft"":15,""ArrowDown,ArrowRight"":23}","false","ArrowDown,ArrowLeft","","","","","","","","","","",""
"html-keyboard-response","34","189468","0.0-3.0-6.0-1.2","pilot_wm_v1","62b1e957d10fa7c323e0df84","2","null","null","true","","","","","","","null","<div style=""font-size:60px;"">+</div>","null","fixation","","","","","","","","","","","","","","","",""
"revaluation","35","193475","0.0-3.0-6.0-0.3","pilot_wm_v1","62b1e957d10fa7c323e0df84","2","null","null","true","","false","","","","","[650.2999999970198]","./assets/img/space/animals/cat.jpg","[""ArrowLeft""]","second stage practice","space","3","{""ArrowUp,ArrowLeft"":3,""ArrowUp,ArrowRight"":36,""ArrowDown,ArrowLeft"":15,""ArrowDown,ArrowRight"":23}","false","ArrowUp,ArrowLeft","","","","","","","","","","",""
"html-keyboard-response","36","193978","0.0-3.0-6.0-1.3","pilot_wm_v1","62b1e957d10fa7c323e0df84","2","null","null","true","","","","","","","null","<div style=""font-size:60px;"">+</div>","null","fixation","","","","","","","","","","","","","","","",""
"learning-instructions","37","211513","0.0-3.0-7.0-0.0","pilot_wm_v1","62b1e957d10fa7c323e0df84","2","null","null","true","","","","","","","728.5999999940395","<p> Great job. Now let’s try putting it together. </p>
            <p> On each turn, you will first see a picture to remind you of the place you are in, and you need to choose whether to go up or down. </p>
            <p> Then you will see an animal and choose which of its chests to search for treasure. </p>","","instructions","","","","","","","","","","","","","","","",""
"learning-instructions","38","220650","0.0-3.0-7.0-0.1","pilot_wm_v1","62b1e957d10fa7c323e0df84","2","null","null","true","","","","","","","884.1000000089407","<p> When you choose whether to go up or down, try to go to the animal with the chest with the most treasure. </p>
            <p> Try practicing that now! </p>","","instructions","","","","","","","","","","","","","","","",""
"revaluation","39","226658","0.0-3.0-8.0-0.0","pilot_wm_v1","62b1e957d10fa7c323e0df84","2","null","null","true","","false","","","","","[611.2999999970198,817.4000000059605]","./assets/img/space/6.jpg","[""ArrowUp"",""ArrowRight""]","full practice","space","36","{""ArrowUp,ArrowLeft"":3,""ArrowUp,ArrowRight"":36,""ArrowDown,ArrowLeft"":15,""ArrowDown,ArrowRight"":23}","true","ArrowUp,ArrowRight","false","","","","","","","","","",""
"html-keyboard-response","40","227161","0.0-3.0-8.0-1.0","pilot_wm_v1","62b1e957d10fa7c323e0df84","2","null","null","true","","","","","","","null","<div style=""font-size:60px;"">+</div>","null","fixation","","","","","","","","","","","","","","","",""
"revaluation","41","233169","0.0-3.0-8.0-0.1","pilot_wm_v1","62b1e957d10fa7c323e0df84","2","null","null","true","","false","","","","","[744.2999999970198,475.70000000298023]","./assets/img/space/7.jpg","[""ArrowDown"",""ArrowRight""]","full practice","space","23","{""ArrowUp,ArrowLeft"":3,""ArrowUp,ArrowRight"":36,""ArrowDown,ArrowLeft"":15,""ArrowDown,ArrowRight"":23}","false","ArrowDown,ArrowRight","false","","","","","","","","","",""
"html-keyboard-response","42","233672","0.0-3.0-8.0-1.1","pilot_wm_v1","62b1e957d10fa7c323e0df84","2","null","null","true","","","","","","","null","<div style=""font-size:60px;"">+</div>","null","fixation","","","","","","","","","","","","","","","",""
"revaluation","43","239681","0.0-3.0-8.0-0.2","pilot_wm_v1","62b1e957d10fa7c323e0df84","2","null","null","true","","false","","","","","[578.5,444.20000000298023]","./assets/img/space/8.jpg","[""ArrowUp"",""ArrowLeft""]","full practice","space","3","{""ArrowUp,ArrowLeft"":3,""ArrowUp,ArrowRight"":36,""ArrowDown,ArrowLeft"":15,""ArrowDown,ArrowRight"":23}","false","ArrowUp,ArrowLeft","false","","","","","","","","","",""
"html-keyboard-response","44","240183","0.0-3.0-8.0-1.2","pilot_wm_v1","62b1e957d10fa7c323e0df84","2","null","null","true","","","","","","","null","<div style=""font-size:60px;"">+</div>","null","fixation","","","","","","","","","","","","","","","",""
"revaluation","45","246192","0.0-3.0-8.0-0.3","pilot_wm_v1","62b1e957d10fa7c323e0df84","2","null","null","true","","false","","","","","[761,404.5]","./assets/img/space/9.jpg","[""ArrowDown"",""ArrowRight""]","full practice","space","23","{""ArrowUp,ArrowLeft"":3,""ArrowUp,ArrowRight"":36,""ArrowDown,ArrowLeft"":15,""ArrowDown,ArrowRight"":23}","false","ArrowDown,ArrowRight","false","","","","","","","","","",""
"html-keyboard-response","46","246693","0.0-3.0-8.0-1.3","pilot_wm_v1","62b1e957d10fa7c323e0df84","2","null","null","true","","","","","","","null","<div style=""font-size:60px;"">+</div>","null","fixation","","","","","","","","","","","","","","","",""
"revaluation","47","252701","0.0-3.0-8.0-0.4","pilot_wm_v1","62b1e957d10fa7c323e0df84","2","null","null","true","","false","","","","","[656.2999999970198,406.3999999910593]","./assets/img/space/10.jpg","[""ArrowUp"",""ArrowRight""]","full practice","space","36","{""ArrowUp,ArrowLeft"":3,""ArrowUp,ArrowRight"":36,""ArrowDown,ArrowLeft"":15,""ArrowDown,ArrowRight"":23}","true","ArrowUp,ArrowRight","false","","","","","","","","","",""
"html-keyboard-response","48","253203","0.0-3.0-8.0-1.4","pilot_wm_v1","62b1e957d10fa7c323e0df84","2","null","null","true","","","","","","","null","<div style=""font-size:60px;"">+</div>","null","fixation","","","","","","","","","","","","","","","",""
"learning-instructions","49","264323","0.0-3.0-9.0-0.0","pilot_wm_v1","62b1e957d10fa7c323e0df84","2","null","null","true","","","","","","","770","<p> One last thing: sometimes, you will see a robber. The robber can be anywhere in the picture. </p>
            <p> If you do not stop them, you will lose treasure. </p>
            <img src='./assets/img/instructions/robber.jpg' class='instructions-image'>","","instructions","","","","","","","","","","","","","","","",""
"learning-instructions","50","271965","0.0-3.0-9.0-0.1","pilot_wm_v1","62b1e957d10fa7c323e0df84","2","null","null","true","","","","","","","481.90000000596046","<p> If you see the robber, you should <b>press the space bar</b> rather than using the arrow keys. </p>
            <p> Try practicing that now! </p>","","instructions","","","","","","","","","","","","","","","",""
"revaluation","51","275970","0.0-3.0-10.0-0.0","pilot_wm_v1","62b1e957d10fa7c323e0df84","2","null","null","true","","false","","","","","[1001.2000000029802]","./assets/img/space/catch/0.jpg","[""spaceBar""]","catch practice","space","0","{""ArrowUp,ArrowLeft"":3,""ArrowUp,ArrowRight"":36,""ArrowDown,ArrowLeft"":15,""ArrowDown,ArrowRight"":23}","true","spaceBar","true","","","","","","","","","",""
"html-keyboard-response","52","276473","0.0-3.0-10.0-1.0","pilot_wm_v1","62b1e957d10fa7c323e0df84","2","null","null","true","","","","","","","null","<div style=""font-size:60px;"">+</div>","null","fixation","","","","","","","","","","","","","","","",""
"revaluation","53","280480","0.0-3.0-10.0-0.1","pilot_wm_v1","62b1e957d10fa7c323e0df84","2","null","null","true","","false","","","","","[639.8999999910593]","./assets/img/space/catch/1.jpg","[""spaceBar""]","catch practice","space","0","{""ArrowUp,ArrowLeft"":3,""ArrowUp,ArrowRight"":36,""ArrowDown,ArrowLeft"":15,""ArrowDown,ArrowRight"":23}","true","spaceBar","true","","","","","","","","","",""
"html-keyboard-response","54","280982","0.0-3.0-10.0-1.1","pilot_wm_v1","62b1e957d10fa7c323e0df84","2","null","null","true","","","","","","","null","<div style=""font-size:60px;"">+</div>","null","fixation","","","","","","","","","","","","","","","",""
"revaluation","55","284989","0.0-3.0-10.0-0.2","pilot_wm_v1","62b1e957d10fa7c323e0df84","2","null","null","true","","false","","","","","[660.0999999940395]","./assets/img/space/catch/2.jpg","[""spaceBar""]","catch practice","space","0","{""ArrowUp,ArrowLeft"":3,""ArrowUp,ArrowRight"":36,""ArrowDown,ArrowLeft"":15,""ArrowDown,ArrowRight"":23}","true","spaceBar","true","","","","","","","","","",""
"html-keyboard-response","56","285491","0.0-3.0-10.0-1.2","pilot_wm_v1","62b1e957d10fa7c323e0df84","2","null","null","true","","","","","","","null","<div style=""font-size:60px;"">+</div>","null","fixation","","","","","","","","","","","","","","","",""
"learning-instructions","57","292717","0.0-3.0-11.0-0.0","pilot_wm_v1","62b1e957d10fa7c323e0df84","2","null","null","true","","","","","","","1708.2999999970198","<p> Sometimes, you will come across a special kind of treasure chest that requires a password. </p>
            <img src='./assets/img/instructions/beep_chest.jpg' class='instructions-image'>","","instructions","","","","","","","","","","","","","","","",""
"learning-instructions","58","317213","0.0-3.0-11.0-0.1","pilot_wm_v1","62b1e957d10fa7c323e0df84","2","null","null","true","","","","","","","2882.5","<p> Your friend will send you the password using a series of beeps so that you can open the chest and earn treasure. </p>
            <p> You will hear two kinds of beeps, a high beep and a low beep. </p>
            <p> You should report the number of high beeps that you heard before seeing the chest. </p>
            <img src='./assets/img/instructions/listen.jpg' class='instructions-image'>","","instructions","","","","","","","","","","","","","","","",""
"learning-instructions","59","349922","0.0-3.0-11.0-0.2","pilot_wm_v1","62b1e957d10fa7c323e0df84","2","null","null","true","","","","","","","10413.60000000894","<p> For example, if you hear this series of beeps, you should report 4 as the password using the slider. </p>
            <p> After reporting a password for a chest, you should count the high beeps again starting from 0. </p>
            <p> Let's try practicing that now. </p>","","instructions","","","","","","","","","","","","","","","",""
"audio-button-response","60","357961","0.0-3.0-12.0-0.0-0.0","pilot_wm_v1","62b1e957d10fa7c323e0df84","2","null","null","true","","","","","","","null","./assets/audio/beeps/practice_6.wav","null","","","","","","","","","","","","","","","","",""
"html-slider-response","61","364883","0.0-3.0-12.0-0.0-1.0","pilot_wm_v1","62b1e957d10fa7c323e0df84","2","null","null","true","","","","","","","6916","<div style=""width:500px;"">
        <p>What is the password?</p>
        <img src='./assets/img/instructions/beep_chest.jpg' class='instructions-image'>","6","beep chest","","","","false","","","","50","0","6","","","","","",""
"comp-q","62","370694","0.0-3.0-12.0-0.0-2.0","pilot_wm_v1","62b1e957d10fa7c323e0df84","2","null","null","true","","","","","","","1598.3999999910593","<p>Correct! There were 6 high pitched beeps before you saw the chest. </p>","0","beep answer","","","","","","","","","","","","","","","",""
"audio-button-response","63","378733","0.0-3.0-12.0-0.1-0.1","pilot_wm_v1","62b1e957d10fa7c323e0df84","2","null","null","true","","","","","","","null","./assets/audio/beeps/practice_4.wav","null","","","","","","","","","","","","","","","","",""
"html-slider-response","64","382746","0.0-3.0-12.0-0.1-1.1","pilot_wm_v1","62b1e957d10fa7c323e0df84","2","null","null","true","","","","","","","4010","<div style=""width:500px;"">
        <p>What is the password?</p>
        <img src='./assets/img/instructions/beep_chest.jpg' class='instructions-image'>","4","beep chest","","","","false","","","","50","0","4","","","","","",""
"comp-q","65","388024","0.0-3.0-12.0-0.1-2.1","pilot_wm_v1","62b1e957d10fa7c323e0df84","2","null","null","true","","","","","","","1092.9000000059605","<p>Correct! There were 4 high pitched beeps before you saw the chest. </p>","0","beep answer","","","","","","","","","","","","","","","",""
"learning-instructions","66","400325","0.0-3.0-13.0-0.0","pilot_wm_v1","62b1e957d10fa7c323e0df84","2","null","null","true","","","","","","","1975.5","<p> Good job! In the real game we will not tell you if you entered the right password. </p>
            <p> Do your best, the treasure you earn from these chests will also give you extra bonus money. </p>","","instructions","","","","","","","","","","","","","","","",""
"learning-instructions","67","414675","0.0-3.0-14.0-0.0-0.0","pilot_wm_v1","62b1e957d10fa7c323e0df84","2","null","null","true","","","","","","","768.5","<p> After you explore a place to find treasure, it will be time to play a different game. </p>
            <p> During this game, red dots will appear on the screen and fall down slowly. </p>
            <p><b> You must click on them before they reach the bottom. </b></p>
            <img src='./assets/img/instructions/dotGame.jpg' class='instructions-image'>","","instructions","","","","","","","","","","","","","","","",""
"learning-instructions","68","420981","0.0-3.0-14.0-0.0-0.1","pilot_wm_v1","62b1e957d10fa7c323e0df84","2","null","null","true","","","","","","","637.0999999940395","<p> For every dot you click, you will earn additional treasure. </p>
            <p> Let’s try practicing that now. </p>","","instructions","","","","","","","","","","","","","","","",""
"revaluation","69","435990","0.0-3.0-14.0-1.0-0.0","pilot_wm_v1","62b1e957d10fa7c323e0df84","2","null","null","true","","","","","","","[137]","","","rest practice","","10","","","","","","","","","0","15000","","","",""
"learning-instructions","70","442499","0.0-3.0-15.0-0.0-0.0","pilot_wm_v1","62b1e957d10fa7c323e0df84","2","null","null","true","","","","","","","1259.9000000059605","<p> Now, you will practice a shortened version of the game to get a sense of how it all fits together. </p>","","instructions","","","","","","","","","","","","","","","",""
"learning-instructions","71","446866","0.0-3.0-15.0-0.0-0.1","pilot_wm_v1","62b1e957d10fa7c323e0df84","2","null","null","true","","","","","","","1184.2000000029802","<p>This time you are searching for treasure in outer space.</p>","","instructions","","","","","","","","","","","","","","","",""
"learning-instructions","72","462521","0.0-3.0-15.0-1.0-0.0","pilot_wm_v1","62b1e957d10fa7c323e0df84","2","null","null","true","","","","","","","892.7999999970198","<p> Remember, when you see a picture of the place, use the up and down keys to <b>find an animal</b>.</p>
            <p> When you encounter an animal, you should use the left and right keys to <b>select a treasure chest</b>.</p>
            <p> Don't forget to look out for the robber! </p>","","instructions","","","","","","","","","","","","","","","",""
"revaluation","73","468527","0.0-3.0-15.0-2.0-0.0","pilot_wm_v1","62b1e957d10fa7c323e0df84","2","null","null","true","","false","","","","","[1165.699999988079,546.2999999970198]","./assets/img/space/11.jpg","[""ArrowUp"",""ArrowRight""]","practice block","space","36","{""ArrowUp,ArrowLeft"":3,""ArrowUp,ArrowRight"":36,""ArrowDown,ArrowLeft"":15,""ArrowDown,ArrowRight"":23}","true","ArrowUp,ArrowRight","false","","","","","","","","","",""
"html-keyboard-response","74","469030","0.0-3.0-15.0-2.0-1.0","pilot_wm_v1","62b1e957d10fa7c323e0df84","2","null","null","true","","","","","","","null","<div style=""font-size:60px;"">+</div>","null","fixation","","","","","","","","","","","","","","","",""
"revaluation","75","475038","0.0-3.0-15.0-2.0-0.1","pilot_wm_v1","62b1e957d10fa7c323e0df84","2","null","null","true","","false","","","","","[947.4000000059605,523.4000000059605]","./assets/img/space/12.jpg","[""ArrowDown"",""ArrowRight""]","practice block","space","23","{""ArrowUp,ArrowLeft"":3,""ArrowUp,ArrowRight"":36,""ArrowDown,ArrowLeft"":15,""ArrowDown,ArrowRight"":23}","false","ArrowDown,ArrowRight","false","","","","","","","","","",""
"html-keyboard-response","76","475541","0.0-3.0-15.0-2.0-1.1","pilot_wm_v1","62b1e957d10fa7c323e0df84","2","null","null","true","","","","","","","null","<div style=""font-size:60px;"">+</div>","null","fixation","","","","","","","","","","","","","","","",""
"revaluation","77","481549","0.0-3.0-15.0-2.0-0.2","pilot_wm_v1","62b1e957d10fa7c323e0df84","2","null","null","true","","false","","","","","[910.6999999880791,373]","./assets/img/space/13.jpg","[""ArrowUp"",""ArrowRight""]","practice block","space","36","{""ArrowUp,ArrowLeft"":3,""ArrowUp,ArrowRight"":36,""ArrowDown,ArrowLeft"":15,""ArrowDown,ArrowRight"":23}","true","ArrowUp,ArrowRight","false","","","","","","","","","",""
"html-keyboard-response","78","482052","0.0-3.0-15.0-2.0-1.2","pilot_wm_v1","62b1e957d10fa7c323e0df84","2","null","null","true","","","","","","","null","<div style=""font-size:60px;"">+</div>","null","fixation","","","","","","","","","","","","","","","",""
"revaluation","79","488061","0.0-3.0-15.0-2.0-0.3","pilot_wm_v1","62b1e957d10fa7c323e0df84","2","null","null","true","","false","","","","","[682.7000000029802,491.3999999910593]","./assets/img/space/14.jpg","[""ArrowUp"",""ArrowRight""]","practice block","space","36","{""ArrowUp,ArrowLeft"":3,""ArrowUp,ArrowRight"":36,""ArrowDown,ArrowLeft"":15,""ArrowDown,ArrowRight"":23}","true","ArrowUp,ArrowRight","false","","","","","","","","","",""
"html-keyboard-response","80","488563","0.0-3.0-15.0-2.0-1.3","pilot_wm_v1","62b1e957d10fa7c323e0df84","2","null","null","true","","","","","","","null","<div style=""font-size:60px;"">+</div>","null","fixation","","","","","","","","","","","","","","","",""
"revaluation","81","494571","0.0-3.0-15.0-2.0-0.4","pilot_wm_v1","62b1e957d10fa7c323e0df84","2","null","null","true","","false","","","","","[950.2000000029802,460.40000000596046]","./assets/img/space/11.jpg","[""ArrowUp"",""ArrowRight""]","practice block","space","36","{""ArrowUp,ArrowLeft"":3,""ArrowUp,ArrowRight"":36,""ArrowDown,ArrowLeft"":15,""ArrowDown,ArrowRight"":23}","true","ArrowUp,ArrowRight","false","","","","","","","","","",""
"html-keyboard-response","82","495073","0.0-3.0-15.0-2.0-1.4","pilot_wm_v1","62b1e957d10fa7c323e0df84","2","null","null","true","","","","","","","null","<div style=""font-size:60px;"">+</div>","null","fixation","","","","","","","","","","","","","","","",""
"revaluation","83","501083","0.0-3.0-15.0-2.0-0.5","pilot_wm_v1","62b1e957d10fa7c323e0df84","2","null","null","true","","false","","","","","[866.5999999940395,622.2000000029802]","./assets/img/space/12.jpg","[""ArrowUp"",""ArrowRight""]","practice block","space","36","{""ArrowUp,ArrowLeft"":3,""ArrowUp,ArrowRight"":36,""ArrowDown,ArrowLeft"":15,""ArrowDown,ArrowRight"":23}","true","ArrowUp,ArrowRight","false","","","","","","","","","",""
"html-keyboard-response","84","501585","0.0-3.0-15.0-2.0-1.5","pilot_wm_v1","62b1e957d10fa7c323e0df84","2","null","null","true","","","","","","","null","<div style=""font-size:60px;"">+</div>","null","fixation","","","","","","","","","","","","","","","",""
"revaluation","85","507592","0.0-3.0-15.0-2.0-0.6","pilot_wm_v1","62b1e957d10fa7c323e0df84","2","null","null","true","","false","","","","","[786.8999999910593,425.69999998807907]","./assets/img/space/13.jpg","[""ArrowDown"",""ArrowRight""]","practice block","space","23","{""ArrowUp,ArrowLeft"":3,""ArrowUp,ArrowRight"":36,""ArrowDown,ArrowLeft"":15,""ArrowDown,ArrowRight"":23}","false","ArrowDown,ArrowRight","false","","","","","","","","","",""
"html-keyboard-response","86","508094","0.0-3.0-15.0-2.0-1.6","pilot_wm_v1","62b1e957d10fa7c323e0df84","2","null","null","true","","","","","","","null","<div style=""font-size:60px;"">+</div>","null","fixation","","","","","","","","","","","","","","","",""
"revaluation","87","514103","0.0-3.0-15.0-2.0-0.7","pilot_wm_v1","62b1e957d10fa7c323e0df84","2","null","null","true","","false","","","","","[745.7999999970198,461.70000000298023]","./assets/img/space/14.jpg","[""ArrowUp"",""ArrowRight""]","practice block","space","36","{""ArrowUp,ArrowLeft"":3,""ArrowUp,ArrowRight"":36,""ArrowDown,ArrowLeft"":15,""ArrowDown,ArrowRight"":23}","true","ArrowUp,ArrowRight","false","","","","","","","","","",""
"html-keyboard-response","88","514605","0.0-3.0-15.0-2.0-1.7","pilot_wm_v1","62b1e957d10fa7c323e0df84","2","null","null","true","","","","","","","null","<div style=""font-size:60px;"">+</div>","null","fixation","","","","","","","","","","","","","","","",""
"revaluation","89","518612","0.0-3.0-15.0-2.0-0.8","pilot_wm_v1","62b1e957d10fa7c323e0df84","2","null","null","true","","false","","","","","[614.5]","./assets/img/space/catch/3.jpg","[""spaceBar""]","practice block","space","0","{""ArrowUp,ArrowLeft"":3,""ArrowUp,ArrowRight"":36,""ArrowDown,ArrowLeft"":15,""ArrowDown,ArrowRight"":23}","true","spaceBar","true","","","","","","","","","",""
"html-keyboard-response","90","519115","0.0-3.0-15.0-2.0-1.8","pilot_wm_v1","62b1e957d10fa7c323e0df84","2","null","null","true","","","","","","","null","<div style=""font-size:60px;"">+</div>","null","fixation","","","","","","","","","","","","","","","",""
"learning-instructions","91","532669","0.0-3.0-15.0-3.0-0.0","pilot_wm_v1","62b1e957d10fa7c323e0df84","2","null","null","true","","","","","","","595.9000000059605","<p> Now, you will travel with a friend who will choose whether you go up or down first. </p>
            <p> On these turns, you will just see the animal that they found. You will still get to choose which chest to search for treasure.</p>","","instructions","","","","","","","","","","","","","","","",""
"learning-instructions","92","545288","0.0-3.0-15.0-3.0-0.1","pilot_wm_v1","62b1e957d10fa7c323e0df84","2","null","null","true","","","","","","","984.7000000029802","<p> In this part, you will also hear beeps from your friend and see special treasure chests that need a password. </p>
            <p> Do your best to count the high beeps <b>and</b> choose between each animals' chests at the same time.</p>
            <img src='./assets/img/instructions/beep_chest.jpg' class='instructions-image'>","","instructions","","","","","","","","","","","","","","","",""
"revaluation","93","549294","0.0-3.0-15.0-4.0-0.0","pilot_wm_v1","62b1e957d10fa7c323e0df84","2","null","null","true","","false","","","","","[1664.7999999970198]","./assets/img/space/animals/cat.jpg","[""ArrowRight""]","practice block","space","36","{""ArrowUp,ArrowLeft"":3,""ArrowUp,ArrowRight"":36,""ArrowDown,ArrowLeft"":15,""ArrowDown,ArrowRight"":23}","true","ArrowUp,ArrowRight","","[""19_0""]","","","","","","0","","",""
"html-keyboard-response","94","549800","0.0-3.0-15.0-4.0-1.0","pilot_wm_v1","62b1e957d10fa7c323e0df84","2","null","null","true","","","","","","","null","<div style=""font-size:60px;"">+</div>","null","fixation","","","","","","","","","","","","","","","",""
"revaluation","95","553807","0.0-3.0-15.0-4.0-0.1","pilot_wm_v1","62b1e957d10fa7c323e0df84","2","null","null","true","","true","","","","","[]","./assets/img/space/animals/rabbit.jpg","[]","practice block","space","-5","{""ArrowUp,ArrowLeft"":3,""ArrowUp,ArrowRight"":36,""ArrowDown,ArrowLeft"":15,""ArrowDown,ArrowRight"":23}","false","ArrowDown","","[""22_3""]","","","","","","1","","",""
"html-keyboard-response","96","554310","0.0-3.0-15.0-4.0-1.1","pilot_wm_v1","62b1e957d10fa7c323e0df84","2","null","null","true","","","","","","","null","<div style=""font-size:60px;"">+</div>","null","fixation","","","","","","","","","","","","","","","",""
"revaluation","97","558318","0.0-3.0-15.0-4.0-0.2","pilot_wm_v1","62b1e957d10fa7c323e0df84","2","null","null","true","","false","","","","","[542.0999999940395]","./assets/img/space/animals/cat.jpg","[""ArrowRight""]","practice block","space","36","{""ArrowUp,ArrowLeft"":3,""ArrowUp,ArrowRight"":36,""ArrowDown,ArrowLeft"":15,""ArrowDown,ArrowRight"":23}","true","ArrowUp,ArrowRight","","[""20_0""]","","","","","","2","","",""
"html-keyboard-response","98","558819","0.0-3.0-15.0-4.0-1.2","pilot_wm_v1","62b1e957d10fa7c323e0df84","2","null","null","true","","","","","","","null","<div style=""font-size:60px;"">+</div>","null","fixation","","","","","","","","","","","","","","","",""
"revaluation","99","562826","0.0-3.0-15.0-4.0-0.3","pilot_wm_v1","62b1e957d10fa7c323e0df84","2","null","null","true","","false","","","","","[885]","./assets/img/space/animals/rabbit.jpg","[""ArrowRight""]","practice block","space","23","{""ArrowUp,ArrowLeft"":3,""ArrowUp,ArrowRight"":36,""ArrowDown,ArrowLeft"":15,""ArrowDown,ArrowRight"":23}","true","ArrowDown,ArrowRight","","[""21_1""]","","","","","","3","","",""
"html-keyboard-response","100","563329","0.0-3.0-15.0-4.0-1.3","pilot_wm_v1","62b1e957d10fa7c323e0df84","2","null","null","true","","","","","","","null","<div style=""font-size:60px;"">+</div>","null","fixation","","","","","","","","","","","","","","","",""
"html-slider-response","101","567465","0.0-3.0-15.0-4.0-2.3-0.3","pilot_wm_v1","62b1e957d10fa7c323e0df84","2","null","null","true","","","","","","","4134","<div style=""width:500px;"">
        <p>What is the password?</p>
        <img src='./assets/img/instructions/beep_chest.jpg' class='instructions-image'>","3","beep chest","","","","false","","","","50","82","79","","","","","",""
"learning-instructions","102","575972","0.0-3.0-15.0-5.0-0.0-0.0","pilot_wm_v1","62b1e957d10fa7c323e0df84","2","null","null","true","","","","","","","1142.6000000089407","<p> Time to play the dot game! </p>
            <p> For 15 seconds, click the red dots on the following screen as they appear. </p>","","instructions","","","","","","","","","","","","","","","",""
"revaluation","103","590975","0.0-3.0-15.0-5.0-1.0-0.0","pilot_wm_v1","62b1e957d10fa7c323e0df84","2","null","null","true","","","","","","","[67]","","","rest practice","","10","","","","","","","","","0","15000","","","",""
"learning-instructions","104","599097","0.0-3.0-15.0-6.0-0.0","pilot_wm_v1","62b1e957d10fa7c323e0df84","2","null","null","true","","","","","","","null","<p> You have almost finished this part of the game! </p>
            <p> We are going to ask you to make a few more choices. </p>","","instructions","","","","","","","","","","","","","","","",""
"learning-instructions","105","615102","0.0-3.0-15.0-6.0-0.1","pilot_wm_v1","62b1e957d10fa7c323e0df84","2","null","null","true","","","","","","","null","<p> First, you need to decide whether to go up or down. When you see each picture, use the arrow keys to make your choice. </p>
            <p><b>You will not see which animal you found, but try to get to the one that will give you the most treasure.</b></p>","","instructions","","","","","","","","","","","","","","","",""
"html-keyboard-response","106","616103","0.0-3.0-15.0-7.0-0.0","pilot_wm_v1","62b1e957d10fa7c323e0df84","2","null","null","true","","","","","","","null","<div style=""font-size:100px;color:red;"">Starting in...</div>","null","","","","","","","","","","","","","","","","",""
"html-keyboard-response","107","617106","0.0-3.0-15.0-7.0-1.0","pilot_wm_v1","62b1e957d10fa7c323e0df84","2","null","null","true","","","","","","","null","<div style=""font-size:200px;color:red;"">3</div>","null","","","","","","","","","","","","","","","","",""
"html-keyboard-response","108","618108","0.0-3.0-15.0-7.0-2.0","pilot_wm_v1","62b1e957d10fa7c323e0df84","2","null","null","true","","","","","","","null","<div style=""font-size:200px;color:red;"">2</div>","null","","","","","","","","","","","","","","","","",""
"html-keyboard-response","109","619110","0.0-3.0-15.0-7.0-3.0","pilot_wm_v1","62b1e957d10fa7c323e0df84","2","null","null","true","","","","","","","null","<div style=""font-size:200px;color:red;"">1</div>","null","","","","","","","","","","","","","","","","",""
"revaluation","110","619815","0.0-3.0-15.0-8.0","pilot_wm_v1","62b1e957d10fa7c323e0df84","2","null","null","true","","false","","","","","[701]","./assets/img/space/15.jpg","[""ArrowUp""]","practice block","space","0","{""ArrowUp,ArrowLeft"":3,""ArrowUp,ArrowRight"":36,""ArrowDown,ArrowLeft"":15,""ArrowDown,ArrowRight"":23}","true","ArrowUp","false","","","","","","","","","",""
"html-keyboard-response","111","620316","0.0-3.0-15.0-9.0","pilot_wm_v1","62b1e957d10fa7c323e0df84","2","null","null","true","","","","","","","null","<div style=""font-size:60px;"">+</div>","null","fixation","","","","","","","","","","","","","","","",""
"learning-instructions","112","633689","0.0-3.0-15.0-10.0-0.0","pilot_wm_v1","62b1e957d10fa7c323e0df84","2","null","null","true","","","","","","","null","<p> Now you will see the animals again and can search their chests for treasure. </p>
            <p> This time, you will not see how much treasure you earned, but you will earn more bonus money for making better choices. </p>","","instructions","","","","","","","","","","","","","","","",""
"html-keyboard-response","113","634691","0.0-3.0-15.0-11.0-0.0","pilot_wm_v1","62b1e957d10fa7c323e0df84","2","null","null","true","","","","","","","null","<div style=""font-size:100px;color:red;"">Starting in...</div>","null","","","","","","","","","","","","","","","","",""
"html-keyboard-response","114","635693","0.0-3.0-15.0-11.0-1.0","pilot_wm_v1","62b1e957d10fa7c323e0df84","2","null","null","true","","","","","","","null","<div style=""font-size:200px;color:red;"">3</div>","null","","","","","","","","","","","","","","","","",""
"html-keyboard-response","115","636695","0.0-3.0-15.0-11.0-2.0","pilot_wm_v1","62b1e957d10fa7c323e0df84","2","null","null","true","","","","","","","null","<div style=""font-size:200px;color:red;"">2</div>","null","","","","","","","","","","","","","","","","",""
"html-keyboard-response","116","637698","0.0-3.0-15.0-11.0-3.0","pilot_wm_v1","62b1e957d10fa7c323e0df84","2","null","null","true","","","","","","","null","<div style=""font-size:200px;color:red;"">1</div>","null","","","","","","","","","","","","","","","","",""
"revaluation","117","638661","0.0-3.0-15.0-12.0-0.0","pilot_wm_v1","62b1e957d10fa7c323e0df84","2","null","null","true","","false","","","","","[959]","./assets/img/space/animals/cat.jpg","[""ArrowRight""]","practice block","space","0","{""ArrowUp,ArrowLeft"":3,""ArrowUp,ArrowRight"":36,""ArrowDown,ArrowLeft"":15,""ArrowDown,ArrowRight"":23}","true","ArrowUp,ArrowRight","","","","","","","","","","",""
"html-keyboard-response","118","639163","0.0-3.0-15.0-12.0-1.0","pilot_wm_v1","62b1e957d10fa7c323e0df84","2","null","null","true","","","","","","","null","<div style=""font-size:60px;"">+</div>","null","fixation","","","","","","","","","","","","","","","",""
"revaluation","119","639911","0.0-3.0-15.0-12.0-0.1","pilot_wm_v1","62b1e957d10fa7c323e0df84","2","null","null","true","","false","","","","","[743.6000000089407]","./assets/img/space/animals/rabbit.jpg","[""ArrowRight""]","practice block","space","0","{""ArrowUp,ArrowLeft"":3,""ArrowUp,ArrowRight"":36,""ArrowDown,ArrowLeft"":15,""ArrowDown,ArrowRight"":23}","true","ArrowDown,ArrowRight","","","","","","","","","","",""
"html-keyboard-response","120","640413","0.0-3.0-15.0-12.0-1.1","pilot_wm_v1","62b1e957d10fa7c323e0df84","2","null","null","true","","","","","","","null","<div style=""font-size:60px;"">+</div>","null","fixation","","","","","","","","","","","","","","","",""
"learning-instructions","121","646695","0.0-3.0-16.0-0.0","pilot_wm_v1","62b1e957d10fa7c323e0df84","2","null","null","true","","","","","","","1706.8999999910593","<p> Before you start, we're going to ask you a few questions about how the game works. </p>","","instructions","","","","","","","","","","","","","","","",""
"comp-q","122","655077","0.0-3.0-17.0-0.0-0.0","pilot_wm_v1","62b1e957d10fa7c323e0df84","2","null","null","true","","","","","","","2803.5","<p> <b> True or False? </b> </p>
            <p> There can be 50 pieces of treasure in a given animal's chest. </p>","0","comp_question","","","","false","","","","","","","","","","","",""
"comp-q","123","663091","0.0-3.0-17.0-0.0-1.0","pilot_wm_v1","62b1e957d10fa7c323e0df84","2","null","null","true","","","","","","","1495.4000000059605","<p> <b>Incorrect.</b> The amount of treasure in each chest can range from 0 to 40 pieces. </p>","0","comp_answer","","","","","","","","","","","","","","","",""
"comp-q","124","669410","0.0-3.0-17.0-0.1-0.1","pilot_wm_v1","62b1e957d10fa7c323e0df84","2","null","null","true","","","","","","","752.5999999940395","<p> <b> True or False? </b> </p>
            <p> There can be 50 pieces of treasure in a given animal's chest. </p>","1","comp_question","","","","true","","","","","","","","","","","",""
"comp-q","125","677063","0.0-3.0-17.0-0.1-1.1","pilot_wm_v1","62b1e957d10fa7c323e0df84","2","null","null","true","","","","","","","1003.7999999970198","<p> <b> That's right! </b> The amount of treasure in each chest can range from 0 to 40 pieces. </p>","0","comp_answer","","","","","","","","","","","","","","","",""
"comp-q","126","685008","0.0-3.0-17.0-0.2-0.2","pilot_wm_v1","62b1e957d10fa7c323e0df84","2","null","null","true","","","","","","","831","<p> <b> True or False? </b> </p><p> In this game, all animals have the same amount of treasure in their left and right chests. </p>","1","comp_question","","","","true","","","","","","","","","","","",""
"comp-q","127","691322","0.0-3.0-17.0-0.2-1.2","pilot_wm_v1","62b1e957d10fa7c323e0df84","2","null","null","true","","","","","","","1087.6000000089407","<p> <b> That's right! </b> Animals have different amounts of treasure in their treasure chests. </p>","0","comp_answer","","","","","","","","","","","","","","","",""
"comp-q","128","698056","0.0-3.0-17.0-0.3-0.3","pilot_wm_v1","62b1e957d10fa7c323e0df84","2","null","null","true","","","","","","","892.7000000029802","<p> <b> True or False? </b> </p><p> The same animal will always be there if you go up in the same place. </p>","0","comp_question","","","","true","","","","","","","","","","","",""
"comp-q","129","705425","0.0-3.0-17.0-0.3-1.3","pilot_wm_v1","62b1e957d10fa7c323e0df84","2","null","null","true","","","","","","","928.5999999940395","<p> <b> That's right! </b> One animal lives in the upper part and one lives in the lower part of every place. </p>","0","comp_answer","","","","","","","","","","","","","","","",""
"comp-q","130","711635","0.0-3.0-17.0-0.4-0.4","pilot_wm_v1","62b1e957d10fa7c323e0df84","2","null","null","true","","","","","","","691.4000000059605","<p> <b> True or False? </b> </p><p> If you see a different picture, it means you are in a new place. </p>","1","comp_question","","","","true","","","","","","","","","","","",""
"comp-q","131","723845","0.0-3.0-17.0-0.4-1.4","pilot_wm_v1","62b1e957d10fa7c323e0df84","2","null","null","true","","","","","","","992.0999999940395","<p> <b> That's right! </b> Lots of different images may show the same place. For example,  you may see three different images that all remind you that you are in outer space. </p>","0","comp_answer","","","","","","","","","","","","","","","",""
"learning-instructions","132","736194","0.0-3.0-18.0-0.0","pilot_wm_v1","62b1e957d10fa7c323e0df84","2","null","null","true","","","","","","","2498.9000000059605","<p> Good job. Remember to do your best because the amount of treasure you earn will be converted into bonus money. </p>
            <p> It’s time to start the real game! </p>","","instructions","","","","","","","","","","","","","","","",""
"learning-instructions","133","739985","0.0-4.0-0.0-0.0","pilot_wm_v1","62b1e957d10fa7c323e0df84","2","null","null","true","","","","","","","1090.3999999910593","<p> This time you are searching for treasure in the <b>ocean</b>.</p>","","instructions","","","","","","","","","","","","","","","",""
"learning-instructions","134","758267","0.0-4.0-0.0-0.1","pilot_wm_v1","62b1e957d10fa7c323e0df84","2","null","null","true","","","","","","","993.7000000029802","<p><b>New</b> animals with <b>new</b> treasure chests live here. You need to explore to discover where the animal with the best treasure chest is.</p>
                    <p> Like before, once you figure out which animal has the chest with the most treasure, you should try to get to that animal and select that chest! </p>","","instructions","","","","","","","","","","","","","","","",""
"learning-instructions","135","773542","0.0-4.0-1.0-0.0","pilot_wm_v1","62b1e957d10fa7c323e0df84","2","null","null","true","","","","","","","546","<p> Remember, when you see a picture of the place, use the up and down keys to <b>find an animal</b>.</p>
            <p> When you encounter an animal, you should use the left and right keys to <b>select a treasure chest</b>.</p>
            <p> Don't forget to look out for the robber! </p>","","instructions","","","","","","","","","","","","","","","",""
"revaluation","136","779548","0.0-4.0-2.0-0.0","pilot_wm_v1","62b1e957d10fa7c323e0df84","2","null","null","true","","false","","","","","[994.5999999940395,523.6999999880791]","./assets/img/ocean/memory/27.jpg","[""ArrowDown"",""ArrowLeft""]","value training","ocean","8","{""ArrowUp,ArrowLeft"":23,""ArrowUp,ArrowRight"":10,""ArrowDown,ArrowLeft"":8,""ArrowDown,ArrowRight"":30}","false","ArrowDown,ArrowLeft","false","","","","","","","0","revaluation","1",""
"html-keyboard-response","137","780055","0.0-4.0-2.0-1.0","pilot_wm_v1","62b1e957d10fa7c323e0df84","2","null","null","true","","","","","","","null","<div style=""font-size:60px;"">+</div>","null","fixation","","","","","","","","","","","","","1","","",""
"revaluation","138","786062","0.0-4.0-2.0-0.1","pilot_wm_v1","62b1e957d10fa7c323e0df84","2","null","null","true","","false","","","","","[646,339.20000000298023]","./assets/img/ocean/memory/15.jpg","[""ArrowDown"",""ArrowRight""]","value training","ocean","30","{""ArrowUp,ArrowLeft"":23,""ArrowUp,ArrowRight"":10,""ArrowDown,ArrowLeft"":8,""ArrowDown,ArrowRight"":30}","true","ArrowDown,ArrowRight","false","","","","","","","2","revaluation","1",""
"html-keyboard-response","139","786565","0.0-4.0-2.0-1.1","pilot_wm_v1","62b1e957d10fa7c323e0df84","2","null","null","true","","","","","","","null","<div style=""font-size:60px;"">+</div>","null","fixation","","","","","","","","","","","","","3","","",""
"revaluation","140","792573","0.0-4.0-2.0-0.2","pilot_wm_v1","62b1e957d10fa7c323e0df84","2","null","null","true","","false","","","","","[602.2999999970198,416.6000000089407]","./assets/img/ocean/memory/3.jpg","[""ArrowUp"",""ArrowLeft""]","value training","ocean","23","{""ArrowUp,ArrowLeft"":23,""ArrowUp,ArrowRight"":10,""ArrowDown,ArrowLeft"":8,""ArrowDown,ArrowRight"":30}","false","ArrowUp,ArrowLeft","false","","","","","","","4","revaluation","1",""
"html-keyboard-response","141","793076","0.0-4.0-2.0-1.2","pilot_wm_v1","62b1e957d10fa7c323e0df84","2","null","null","true","","","","","","","null","<div style=""font-size:60px;"">+</div>","null","fixation","","","","","","","","","","","","","5","","",""
"revaluation","142","799084","0.0-4.0-2.0-0.3","pilot_wm_v1","62b1e957d10fa7c323e0df84","2","null","null","true","","false","","","","","[517.3999999910593,342.79999999701977]","./assets/img/ocean/memory/7.jpg","[""ArrowUp"",""ArrowRight""]","value training","ocean","10","{""ArrowUp,ArrowLeft"":23,""ArrowUp,ArrowRight"":10,""ArrowDown,ArrowLeft"":8,""ArrowDown,ArrowRight"":30}","false","ArrowUp,ArrowRight","false","","","","","","","6","revaluation","1",""
"html-keyboard-response","143","799586","0.0-4.0-2.0-1.3","pilot_wm_v1","62b1e957d10fa7c323e0df84","2","null","null","true","","","","","","","null","<div style=""font-size:60px;"">+</div>","null","fixation","","","","","","","","","","","","","7","","",""
"revaluation","144","805593","0.0-4.0-2.0-0.4","pilot_wm_v1","62b1e957d10fa7c323e0df84","2","null","null","true","","false","","","","","[522.3999999910593,343.29999999701977]","./assets/img/ocean/memory/41.jpg","[""ArrowDown"",""ArrowRight""]","value training","ocean","30","{""ArrowUp,ArrowLeft"":23,""ArrowUp,ArrowRight"":10,""ArrowDown,ArrowLeft"":8,""ArrowDown,ArrowRight"":30}","true","ArrowDown,ArrowRight","false","","","","","","","8","revaluation","1",""
"html-keyboard-response","145","806095","0.0-4.0-2.0-1.4","pilot_wm_v1","62b1e957d10fa7c323e0df84","2","null","null","true","","","","","","","null","<div style=""font-size:60px;"">+</div>","null","fixation","","","","","","","","","","","","","9","","",""
"revaluation","146","812103","0.0-4.0-2.0-0.5","pilot_wm_v1","62b1e957d10fa7c323e0df84","2","null","null","true","","false","","","","","[426,403.5]","./assets/img/ocean/memory/9.jpg","[""ArrowDown"",""ArrowRight""]","value training","ocean","30","{""ArrowUp,ArrowLeft"":23,""ArrowUp,ArrowRight"":10,""ArrowDown,ArrowLeft"":8,""ArrowDown,ArrowRight"":30}","true","ArrowDown,ArrowRight","false","","","","","","","10","revaluation","1",""
"html-keyboard-response","147","812606","0.0-4.0-2.0-1.5","pilot_wm_v1","62b1e957d10fa7c323e0df84","2","null","null","true","","","","","","","null","<div style=""font-size:60px;"">+</div>","null","fixation","","","","","","","","","","","","","11","","",""
"revaluation","148","818614","0.0-4.0-2.0-0.6","pilot_wm_v1","62b1e957d10fa7c323e0df84","2","null","null","true","","false","","","","","[464.5,429.1000000089407]","./assets/img/ocean/memory/34.jpg","[""ArrowDown"",""ArrowRight""]","value training","ocean","30","{""ArrowUp,ArrowLeft"":23,""ArrowUp,ArrowRight"":10,""ArrowDown,ArrowLeft"":8,""ArrowDown,ArrowRight"":30}","true","ArrowDown,ArrowRight","false","","","","","","","12","revaluation","1",""
"html-keyboard-response","149","819116","0.0-4.0-2.0-1.6","pilot_wm_v1","62b1e957d10fa7c323e0df84","2","null","null","true","","","","","","","null","<div style=""font-size:60px;"">+</div>","null","fixation","","","","","","","","","","","","","13","","",""
"revaluation","150","823123","0.0-4.0-2.0-0.7","pilot_wm_v1","62b1e957d10fa7c323e0df84","2","null","null","true","","false","","","","","[642.2000000029802]","./assets/img/ocean/catch/1.jpg","[""ArrowDown""]","value training","ocean","-10","{""ArrowUp,ArrowLeft"":23,""ArrowUp,ArrowRight"":10,""ArrowDown,ArrowLeft"":8,""ArrowDown,ArrowRight"":30}","false","ArrowDown","true","","","","","","","14","revaluation","1",""
"html-keyboard-response","151","823625","0.0-4.0-2.0-1.7","pilot_wm_v1","62b1e957d10fa7c323e0df84","2","null","null","true","","","","","","","null","<div style=""font-size:60px;"">+</div>","null","fixation","","","","","","","","","","","","","15","","",""
"revaluation","152","829632","0.0-4.0-2.0-0.8","pilot_wm_v1","62b1e957d10fa7c323e0df84","2","null","null","true","","false","","","","","[595.3999999910593,338.20000000298023]","./assets/img/ocean/memory/34.jpg","[""ArrowDown"",""ArrowRight""]","value training","ocean","30","{""ArrowUp,ArrowLeft"":23,""ArrowUp,ArrowRight"":10,""ArrowDown,ArrowLeft"":8,""ArrowDown,ArrowRight"":30}","true","ArrowDown,ArrowRight","false","","","","","","","16","revaluation","1",""
"html-keyboard-response","153","830135","0.0-4.0-2.0-1.8","pilot_wm_v1","62b1e957d10fa7c323e0df84","2","null","null","true","","","","","","","null","<div style=""font-size:60px;"">+</div>","null","fixation","","","","","","","","","","","","","17","","",""
"revaluation","154","836142","0.0-4.0-2.0-0.9","pilot_wm_v1","62b1e957d10fa7c323e0df84","2","null","null","true","","false","","","","","[839.3999999910593,404.59999999403954]","./assets/img/ocean/memory/26.jpg","[""ArrowDown"",""ArrowRight""]","value training","ocean","30","{""ArrowUp,ArrowLeft"":23,""ArrowUp,ArrowRight"":10,""ArrowDown,ArrowLeft"":8,""ArrowDown,ArrowRight"":30}","true","ArrowDown,ArrowRight","false","","","","","","","18","revaluation","1",""
"html-keyboard-response","155","836643","0.0-4.0-2.0-1.9","pilot_wm_v1","62b1e957d10fa7c323e0df84","2","null","null","true","","","","","","","null","<div style=""font-size:60px;"">+</div>","null","fixation","","","","","","","","","","","","","19","","",""
"revaluation","156","842653","0.0-4.0-2.0-0.10","pilot_wm_v1","62b1e957d10fa7c323e0df84","2","null","null","true","","false","","","","","[608,376.90000000596046]","./assets/img/ocean/memory/1.jpg","[""ArrowDown"",""ArrowRight""]","value training","ocean","30","{""ArrowUp,ArrowLeft"":23,""ArrowUp,ArrowRight"":10,""ArrowDown,ArrowLeft"":8,""ArrowDown,ArrowRight"":30}","true","ArrowDown,ArrowRight","false","","","","","","","20","revaluation","1",""
"html-keyboard-response","157","843155","0.0-4.0-2.0-1.10","pilot_wm_v1","62b1e957d10fa7c323e0df84","2","null","null","true","","","","","","","null","<div style=""font-size:60px;"">+</div>","null","fixation","","","","","","","","","","","","","21","","",""
"revaluation","158","847162","0.0-4.0-2.0-0.11","pilot_wm_v1","62b1e957d10fa7c323e0df84","2","null","null","true","","false","","","","","[643.3000000119209]","./assets/img/ocean/catch/6.jpg","[""spaceBar""]","value training","ocean","0","{""ArrowUp,ArrowLeft"":23,""ArrowUp,ArrowRight"":10,""ArrowDown,ArrowLeft"":8,""ArrowDown,ArrowRight"":30}","true","spaceBar","true","","","","","","","22","revaluation","1",""
"html-keyboard-response","159","847665","0.0-4.0-2.0-1.11","pilot_wm_v1","62b1e957d10fa7c323e0df84","2","null","null","true","","","","","","","null","<div style=""font-size:60px;"">+</div>","null","fixation","","","","","","","","","","","","","23","","",""
"revaluation","160","853673","0.0-4.0-2.0-0.12","pilot_wm_v1","62b1e957d10fa7c323e0df84","2","null","null","true","","false","","","","","[744.7000000029802,313.79999999701977]","./assets/img/ocean/memory/36.jpg","[""ArrowDown"",""ArrowRight""]","value training","ocean","30","{""ArrowUp,ArrowLeft"":23,""ArrowUp,ArrowRight"":10,""ArrowDown,ArrowLeft"":8,""ArrowDown,ArrowRight"":30}","true","ArrowDown,ArrowRight","false","","","","","","","24","revaluation","1",""
"html-keyboard-response","161","854176","0.0-4.0-2.0-1.12","pilot_wm_v1","62b1e957d10fa7c323e0df84","2","null","null","true","","","","","","","null","<div style=""font-size:60px;"">+</div>","null","fixation","","","","","","","","","","","","","25","","",""
"revaluation","162","858181","0.0-4.0-2.0-0.13","pilot_wm_v1","62b1e957d10fa7c323e0df84","2","null","null","true","","false","","","","","[712.7000000029802]","./assets/img/ocean/catch/4.jpg","[""spaceBar""]","value training","ocean","0","{""ArrowUp,ArrowLeft"":23,""ArrowUp,ArrowRight"":10,""ArrowDown,ArrowLeft"":8,""ArrowDown,ArrowRight"":30}","true","spaceBar","true","","","","","","","26","revaluation","1",""
"html-keyboard-response","163","858683","0.0-4.0-2.0-1.13","pilot_wm_v1","62b1e957d10fa7c323e0df84","2","null","null","true","","","","","","","null","<div style=""font-size:60px;"">+</div>","null","fixation","","","","","","","","","","","","","27","","",""
"revaluation","164","864691","0.0-4.0-2.0-0.14","pilot_wm_v1","62b1e957d10fa7c323e0df84","2","null","null","true","","false","","","","","[669.5,378.8999999910593]","./assets/img/ocean/memory/2.jpg","[""ArrowDown"",""ArrowRight""]","value training","ocean","30","{""ArrowUp,ArrowLeft"":23,""ArrowUp,ArrowRight"":10,""ArrowDown,ArrowLeft"":8,""ArrowDown,ArrowRight"":30}","true","ArrowDown,ArrowRight","false","","","","","","","28","revaluation","1",""
"html-keyboard-response","165","865194","0.0-4.0-2.0-1.14","pilot_wm_v1","62b1e957d10fa7c323e0df84","2","null","null","true","","","","","","","null","<div style=""font-size:60px;"">+</div>","null","fixation","","","","","","","","","","","","","29","","",""
"revaluation","166","871203","0.0-4.0-2.0-0.15","pilot_wm_v1","62b1e957d10fa7c323e0df84","2","null","null","true","","false","","","","","[841.2000000029802,369.79999999701977]","./assets/img/ocean/memory/27.jpg","[""ArrowDown"",""ArrowRight""]","value training","ocean","30","{""ArrowUp,ArrowLeft"":23,""ArrowUp,ArrowRight"":10,""ArrowDown,ArrowLeft"":8,""ArrowDown,ArrowRight"":30}","true","ArrowDown,ArrowRight","false","","","","","","","30","revaluation","1",""
"html-keyboard-response","167","871706","0.0-4.0-2.0-1.15","pilot_wm_v1","62b1e957d10fa7c323e0df84","2","null","null","true","","","","","","","null","<div style=""font-size:60px;"">+</div>","null","fixation","","","","","","","","","","","","","31","","",""
"revaluation","168","877714","0.0-4.0-2.0-0.16","pilot_wm_v1","62b1e957d10fa7c323e0df84","2","null","null","true","","false","","","","","[923.0999999940395,393.29999999701977]","./assets/img/ocean/memory/28.jpg","[""ArrowDown"",""ArrowRight""]","value training","ocean","30","{""ArrowUp,ArrowLeft"":23,""ArrowUp,ArrowRight"":10,""ArrowDown,ArrowLeft"":8,""ArrowDown,ArrowRight"":30}","true","ArrowDown,ArrowRight","false","","","","","","","32","revaluation","1",""
"html-keyboard-response","169","878217","0.0-4.0-2.0-1.16","pilot_wm_v1","62b1e957d10fa7c323e0df84","2","null","null","true","","","","","","","null","<div style=""font-size:60px;"">+</div>","null","fixation","","","","","","","","","","","","","33","","",""
"revaluation","170","884225","0.0-4.0-2.0-0.17","pilot_wm_v1","62b1e957d10fa7c323e0df84","2","null","null","true","","false","","","","","[826.1999999880791,430.70000000298023]","./assets/img/ocean/memory/23.jpg","[""ArrowDown"",""ArrowRight""]","value training","ocean","30","{""ArrowUp,ArrowLeft"":23,""ArrowUp,ArrowRight"":10,""ArrowDown,ArrowLeft"":8,""ArrowDown,ArrowRight"":30}","true","ArrowDown,ArrowRight","false","","","","","","","34","revaluation","1",""
"html-keyboard-response","171","884728","0.0-4.0-2.0-1.17","pilot_wm_v1","62b1e957d10fa7c323e0df84","2","null","null","true","","","","","","","null","<div style=""font-size:60px;"">+</div>","null","fixation","","","","","","","","","","","","","35","","",""
"revaluation","172","890736","0.0-4.0-2.0-0.18","pilot_wm_v1","62b1e957d10fa7c323e0df84","2","null","null","true","","false","","","","","[879.1000000089407,387]","./assets/img/ocean/memory/13.jpg","[""ArrowDown"",""ArrowRight""]","value training","ocean","30","{""ArrowUp,ArrowLeft"":23,""ArrowUp,ArrowRight"":10,""ArrowDown,ArrowLeft"":8,""ArrowDown,ArrowRight"":30}","true","ArrowDown,ArrowRight","false","","","","","","","36","revaluation","1",""
"html-keyboard-response","173","891239","0.0-4.0-2.0-1.18","pilot_wm_v1","62b1e957d10fa7c323e0df84","2","null","null","true","","","","","","","null","<div style=""font-size:60px;"">+</div>","null","fixation","","","","","","","","","","","","","37","","",""
"revaluation","174","897246","0.0-4.0-2.0-0.19","pilot_wm_v1","62b1e957d10fa7c323e0df84","2","null","null","true","","false","","","","","[972.5,425.20000000298023]","./assets/img/ocean/memory/30.jpg","[""ArrowDown"",""ArrowRight""]","value training","ocean","30","{""ArrowUp,ArrowLeft"":23,""ArrowUp,ArrowRight"":10,""ArrowDown,ArrowLeft"":8,""ArrowDown,ArrowRight"":30}","true","ArrowDown,ArrowRight","false","","","","","","","38","revaluation","1",""
"html-keyboard-response","175","897749","0.0-4.0-2.0-1.19","pilot_wm_v1","62b1e957d10fa7c323e0df84","2","null","null","true","","","","","","","null","<div style=""font-size:60px;"">+</div>","null","fixation","","","","","","","","","","","","","39","","",""
"revaluation","176","903757","0.0-4.0-2.0-0.20","pilot_wm_v1","62b1e957d10fa7c323e0df84","2","null","null","true","","false","","","","","[853.2000000029802,444.20000000298023]","./assets/img/ocean/memory/6.jpg","[""ArrowDown"",""ArrowRight""]","value training","ocean","30","{""ArrowUp,ArrowLeft"":23,""ArrowUp,ArrowRight"":10,""ArrowDown,ArrowLeft"":8,""ArrowDown,ArrowRight"":30}","true","ArrowDown,ArrowRight","false","","","","","","","40","revaluation","1",""
"html-keyboard-response","177","904259","0.0-4.0-2.0-1.20","pilot_wm_v1","62b1e957d10fa7c323e0df84","2","null","null","true","","","","","","","null","<div style=""font-size:60px;"">+</div>","null","fixation","","","","","","","","","","","","","41","","",""
"revaluation","178","910266","0.0-4.0-2.0-0.21","pilot_wm_v1","62b1e957d10fa7c323e0df84","2","null","null","true","","false","","","","","[1008.3000000119209,532.0999999940395]","./assets/img/ocean/memory/22.jpg","[""ArrowDown"",""ArrowRight""]","value training","ocean","30","{""ArrowUp,ArrowLeft"":23,""ArrowUp,ArrowRight"":10,""ArrowDown,ArrowLeft"":8,""ArrowDown,ArrowRight"":30}","true","ArrowDown,ArrowRight","false","","","","","","","42","revaluation","1",""
"html-keyboard-response","179","910769","0.0-4.0-2.0-1.21","pilot_wm_v1","62b1e957d10fa7c323e0df84","2","null","null","true","","","","","","","null","<div style=""font-size:60px;"">+</div>","null","fixation","","","","","","","","","","","","","43","","",""
"revaluation","180","914776","0.0-4.0-2.0-0.22","pilot_wm_v1","62b1e957d10fa7c323e0df84","2","null","null","true","","false","","","","","[576.6000000089407]","./assets/img/ocean/catch/0.jpg","[""spaceBar""]","value training","ocean","0","{""ArrowUp,ArrowLeft"":23,""ArrowUp,ArrowRight"":10,""ArrowDown,ArrowLeft"":8,""ArrowDown,ArrowRight"":30}","true","spaceBar","true","","","","","","","44","revaluation","1",""
"html-keyboard-response","181","915278","0.0-4.0-2.0-1.22","pilot_wm_v1","62b1e957d10fa7c323e0df84","2","null","null","true","","","","","","","null","<div style=""font-size:60px;"">+</div>","null","fixation","","","","","","","","","","","","","45","","",""
"revaluation","182","921285","0.0-4.0-2.0-0.23","pilot_wm_v1","62b1e957d10fa7c323e0df84","2","null","null","true","","false","","","","","[791.2999999970198,455.20000000298023]","./assets/img/ocean/memory/28.jpg","[""ArrowDown"",""ArrowRight""]","value training","ocean","30","{""ArrowUp,ArrowLeft"":23,""ArrowUp,ArrowRight"":10,""ArrowDown,ArrowLeft"":8,""ArrowDown,ArrowRight"":30}","true","ArrowDown,ArrowRight","false","","","","","","","46","revaluation","1",""
"html-keyboard-response","183","921788","0.0-4.0-2.0-1.23","pilot_wm_v1","62b1e957d10fa7c323e0df84","2","null","null","true","","","","","","","null","<div style=""font-size:60px;"">+</div>","null","fixation","","","","","","","","","","","","","47","","",""
"revaluation","184","927795","0.0-4.0-2.0-0.24","pilot_wm_v1","62b1e957d10fa7c323e0df84","2","null","null","true","","false","","","","","[925.6000000089407,359.40000000596046]","./assets/img/ocean/memory/40.jpg","[""ArrowDown"",""ArrowRight""]","value training","ocean","30","{""ArrowUp,ArrowLeft"":23,""ArrowUp,ArrowRight"":10,""ArrowDown,ArrowLeft"":8,""ArrowDown,ArrowRight"":30}","true","ArrowDown,ArrowRight","false","","","","","","","48","revaluation","1",""
"html-keyboard-response","185","928298","0.0-4.0-2.0-1.24","pilot_wm_v1","62b1e957d10fa7c323e0df84","2","null","null","true","","","","","","","null","<div style=""font-size:60px;"">+</div>","null","fixation","","","","","","","","","","","","","49","","",""
"revaluation","186","934306","0.0-4.0-2.0-0.25","pilot_wm_v1","62b1e957d10fa7c323e0df84","2","null","null","true","","false","","","","","[836.5,398.70000000298023]","./assets/img/ocean/memory/2.jpg","[""ArrowDown"",""ArrowRight""]","value training","ocean","30","{""ArrowUp,ArrowLeft"":23,""ArrowUp,ArrowRight"":10,""ArrowDown,ArrowLeft"":8,""ArrowDown,ArrowRight"":30}","true","ArrowDown,ArrowRight","false","","","","","","","50","revaluation","1",""
"html-keyboard-response","187","934808","0.0-4.0-2.0-1.25","pilot_wm_v1","62b1e957d10fa7c323e0df84","2","null","null","true","","","","","","","null","<div style=""font-size:60px;"">+</div>","null","fixation","","","","","","","","","","","","","51","","",""
"revaluation","188","940816","0.0-4.0-2.0-0.26","pilot_wm_v1","62b1e957d10fa7c323e0df84","2","null","null","true","","false","","","","","[908,441.09999999403954]","./assets/img/ocean/memory/25.jpg","[""ArrowDown"",""ArrowRight""]","value training","ocean","30","{""ArrowUp,ArrowLeft"":23,""ArrowUp,ArrowRight"":10,""ArrowDown,ArrowLeft"":8,""ArrowDown,ArrowRight"":30}","true","ArrowDown,ArrowRight","false","","","","","","","52","revaluation","1",""
"html-keyboard-response","189","941319","0.0-4.0-2.0-1.26","pilot_wm_v1","62b1e957d10fa7c323e0df84","2","null","null","true","","","","","","","null","<div style=""font-size:60px;"">+</div>","null","fixation","","","","","","","","","","","","","53","","",""
"revaluation","190","945325","0.0-4.0-2.0-0.27","pilot_wm_v1","62b1e957d10fa7c323e0df84","2","null","null","true","","false","","","","","[684]","./assets/img/ocean/catch/5.jpg","[""spaceBar""]","value training","ocean","0","{""ArrowUp,ArrowLeft"":23,""ArrowUp,ArrowRight"":10,""ArrowDown,ArrowLeft"":8,""ArrowDown,ArrowRight"":30}","true","spaceBar","true","","","","","","","54","revaluation","1",""
"html-keyboard-response","191","945827","0.0-4.0-2.0-1.27","pilot_wm_v1","62b1e957d10fa7c323e0df84","2","null","null","true","","","","","","","null","<div style=""font-size:60px;"">+</div>","null","fixation","","","","","","","","","","","","","55","","",""
"revaluation","192","951834","0.0-4.0-2.0-0.28","pilot_wm_v1","62b1e957d10fa7c323e0df84","2","null","null","true","","false","","","","","[1176.7999999970198,525.4000000059605]","./assets/img/ocean/memory/14.jpg","[""ArrowDown"",""ArrowRight""]","value training","ocean","30","{""ArrowUp,ArrowLeft"":23,""ArrowUp,ArrowRight"":10,""ArrowDown,ArrowLeft"":8,""ArrowDown,ArrowRight"":30}","true","ArrowDown,ArrowRight","false","","","","","","","56","revaluation","1",""
"html-keyboard-response","193","952336","0.0-4.0-2.0-1.28","pilot_wm_v1","62b1e957d10fa7c323e0df84","2","null","null","true","","","","","","","null","<div style=""font-size:60px;"">+</div>","null","fixation","","","","","","","","","","","","","57","","",""
"revaluation","194","956342","0.0-4.0-2.0-0.29","pilot_wm_v1","62b1e957d10fa7c323e0df84","2","null","null","true","","false","","","","","[577.1000000089407]","./assets/img/ocean/catch/3.jpg","[""spaceBar""]","value training","ocean","0","{""ArrowUp,ArrowLeft"":23,""ArrowUp,ArrowRight"":10,""ArrowDown,ArrowLeft"":8,""ArrowDown,ArrowRight"":30}","true","spaceBar","true","","","","","","","58","revaluation","1",""
"html-keyboard-response","195","956844","0.0-4.0-2.0-1.29","pilot_wm_v1","62b1e957d10fa7c323e0df84","2","null","null","true","","","","","","","null","<div style=""font-size:60px;"">+</div>","null","fixation","","","","","","","","","","","","","59","","",""
"revaluation","196","962853","0.0-4.0-2.0-0.30","pilot_wm_v1","62b1e957d10fa7c323e0df84","2","null","null","true","","false","","","","","[607.5999999940395,421.5]","./assets/img/ocean/memory/40.jpg","[""ArrowDown"",""ArrowRight""]","value training","ocean","30","{""ArrowUp,ArrowLeft"":23,""ArrowUp,ArrowRight"":10,""ArrowDown,ArrowLeft"":8,""ArrowDown,ArrowRight"":30}","true","ArrowDown,ArrowRight","false","","","","","","","60","revaluation","1",""
"html-keyboard-response","197","963356","0.0-4.0-2.0-1.30","pilot_wm_v1","62b1e957d10fa7c323e0df84","2","null","null","true","","","","","","","null","<div style=""font-size:60px;"">+</div>","null","fixation","","","","","","","","","","","","","61","","",""
"revaluation","198","969364","0.0-4.0-2.0-0.31","pilot_wm_v1","62b1e957d10fa7c323e0df84","2","null","null","true","","false","","","","","[784.1000000089407,384.5]","./assets/img/ocean/memory/9.jpg","[""ArrowDown"",""ArrowRight""]","value training","ocean","30","{""ArrowUp,ArrowLeft"":23,""ArrowUp,ArrowRight"":10,""ArrowDown,ArrowLeft"":8,""ArrowDown,ArrowRight"":30}","true","ArrowDown,ArrowRight","false","","","","","","","62","revaluation","1",""
"html-keyboard-response","199","969867","0.0-4.0-2.0-1.31","pilot_wm_v1","62b1e957d10fa7c323e0df84","2","null","null","true","","","","","","","null","<div style=""font-size:60px;"">+</div>","null","fixation","","","","","","","","","","","","","63","","",""
"revaluation","200","975875","0.0-4.0-2.0-0.32","pilot_wm_v1","62b1e957d10fa7c323e0df84","2","null","null","true","","false","","","","","[905.7999999970198,344.6000000089407]","./assets/img/ocean/memory/3.jpg","[""ArrowDown"",""ArrowRight""]","value training","ocean","30","{""ArrowUp,ArrowLeft"":23,""ArrowUp,ArrowRight"":10,""ArrowDown,ArrowLeft"":8,""ArrowDown,ArrowRight"":30}","true","ArrowDown,ArrowRight","false","","","","","","","64","revaluation","1",""
"html-keyboard-response","201","976378","0.0-4.0-2.0-1.32","pilot_wm_v1","62b1e957d10fa7c323e0df84","2","null","null","true","","","","","","","null","<div style=""font-size:60px;"">+</div>","null","fixation","","","","","","","","","","","","","65","","",""
"revaluation","202","982385","0.0-4.0-2.0-0.33","pilot_wm_v1","62b1e957d10fa7c323e0df84","2","null","null","true","","false","","","","","[684.9000000059605,372.90000000596046]","./assets/img/ocean/memory/41.jpg","[""ArrowDown"",""ArrowRight""]","value training","ocean","30","{""ArrowUp,ArrowLeft"":23,""ArrowUp,ArrowRight"":10,""ArrowDown,ArrowLeft"":8,""ArrowDown,ArrowRight"":30}","true","ArrowDown,ArrowRight","false","","","","","","","66","revaluation","1",""
"html-keyboard-response","203","982888","0.0-4.0-2.0-1.33","pilot_wm_v1","62b1e957d10fa7c323e0df84","2","null","null","true","","","","","","","null","<div style=""font-size:60px;"">+</div>","null","fixation","","","","","","","","","","","","","67","","",""
"revaluation","204","988897","0.0-4.0-2.0-0.34","pilot_wm_v1","62b1e957d10fa7c323e0df84","2","null","null","true","","false","","","","","[666.2000000029802,427.8999999910593]","./assets/img/ocean/memory/1.jpg","[""ArrowDown"",""ArrowRight""]","value training","ocean","30","{""ArrowUp,ArrowLeft"":23,""ArrowUp,ArrowRight"":10,""ArrowDown,ArrowLeft"":8,""ArrowDown,ArrowRight"":30}","true","ArrowDown,ArrowRight","false","","","","","","","68","revaluation","1",""
"html-keyboard-response","205","989400","0.0-4.0-2.0-1.34","pilot_wm_v1","62b1e957d10fa7c323e0df84","2","null","null","true","","","","","","","null","<div style=""font-size:60px;"">+</div>","null","fixation","","","","","","","","","","","","","69","","",""
"revaluation","206","995407","0.0-4.0-2.0-0.35","pilot_wm_v1","62b1e957d10fa7c323e0df84","2","null","null","true","","false","","","","","[561.7000000029802,338]","./assets/img/ocean/memory/36.jpg","[""ArrowDown"",""ArrowRight""]","value training","ocean","30","{""ArrowUp,ArrowLeft"":23,""ArrowUp,ArrowRight"":10,""ArrowDown,ArrowLeft"":8,""ArrowDown,ArrowRight"":30}","true","ArrowDown,ArrowRight","false","","","","","","","70","revaluation","1",""
"html-keyboard-response","207","995910","0.0-4.0-2.0-1.35","pilot_wm_v1","62b1e957d10fa7c323e0df84","2","null","null","true","","","","","","","null","<div style=""font-size:60px;"">+</div>","null","fixation","","","","","","","","","","","","","71","","",""
"revaluation","208","999918","0.0-4.0-2.0-0.36","pilot_wm_v1","62b1e957d10fa7c323e0df84","2","null","null","true","","false","","","","","[561]","./assets/img/ocean/catch/2.jpg","[""spaceBar""]","value training","ocean","0","{""ArrowUp,ArrowLeft"":23,""ArrowUp,ArrowRight"":10,""ArrowDown,ArrowLeft"":8,""ArrowDown,ArrowRight"":30}","true","spaceBar","true","","","","","","","72","revaluation","1",""
"html-keyboard-response","209","1000420","0.0-4.0-2.0-1.36","pilot_wm_v1","62b1e957d10fa7c323e0df84","2","null","null","true","","","","","","","null","<div style=""font-size:60px;"">+</div>","null","fixation","","","","","","","","","","","","","73","","",""
"revaluation","210","1006427","0.0-4.0-2.0-0.37","pilot_wm_v1","62b1e957d10fa7c323e0df84","2","null","null","true","","false","","","","","[617.7999999970198,474.59999999403954]","./assets/img/ocean/memory/22.jpg","[""ArrowDown"",""ArrowRight""]","value training","ocean","30","{""ArrowUp,ArrowLeft"":23,""ArrowUp,ArrowRight"":10,""ArrowDown,ArrowLeft"":8,""ArrowDown,ArrowRight"":30}","true","ArrowDown,ArrowRight","false","","","","","","","74","revaluation","1",""
"html-keyboard-response","211","1006930","0.0-4.0-2.0-1.37","pilot_wm_v1","62b1e957d10fa7c323e0df84","2","null","null","true","","","","","","","null","<div style=""font-size:60px;"">+</div>","null","fixation","","","","","","","","","","","","","75","","",""
"revaluation","212","1012938","0.0-4.0-2.0-0.38","pilot_wm_v1","62b1e957d10fa7c323e0df84","2","null","null","true","","false","","","","","[610.0999999940395,345.79999999701977]","./assets/img/ocean/memory/23.jpg","[""ArrowDown"",""ArrowRight""]","value training","ocean","30","{""ArrowUp,ArrowLeft"":23,""ArrowUp,ArrowRight"":10,""ArrowDown,ArrowLeft"":8,""ArrowDown,ArrowRight"":30}","true","ArrowDown,ArrowRight","false","","","","","","","76","revaluation","1",""
"html-keyboard-response","213","1013441","0.0-4.0-2.0-1.38","pilot_wm_v1","62b1e957d10fa7c323e0df84","2","null","null","true","","","","","","","null","<div style=""font-size:60px;"">+</div>","null","fixation","","","","","","","","","","","","","77","","",""
"revaluation","214","1019450","0.0-4.0-2.0-0.39","pilot_wm_v1","62b1e957d10fa7c323e0df84","2","null","null","true","","false","","","","","[768.9000000059605,347]","./assets/img/ocean/memory/30.jpg","[""ArrowDown"",""ArrowRight""]","value training","ocean","30","{""ArrowUp,ArrowLeft"":23,""ArrowUp,ArrowRight"":10,""ArrowDown,ArrowLeft"":8,""ArrowDown,ArrowRight"":30}","true","ArrowDown,ArrowRight","false","","","","","","","78","revaluation","1",""
"html-keyboard-response","215","1019953","0.0-4.0-2.0-1.39","pilot_wm_v1","62b1e957d10fa7c323e0df84","2","null","null","true","","","","","","","null","<div style=""font-size:60px;"">+</div>","null","fixation","","","","","","","","","","","","","79","","",""
"revaluation","216","1025960","0.0-4.0-2.0-0.40","pilot_wm_v1","62b1e957d10fa7c323e0df84","2","null","null","true","","false","","","","","[896,339.70000000298023]","./assets/img/ocean/memory/16.jpg","[""ArrowDown"",""ArrowRight""]","value training","ocean","30","{""ArrowUp,ArrowLeft"":23,""ArrowUp,ArrowRight"":10,""ArrowDown,ArrowLeft"":8,""ArrowDown,ArrowRight"":30}","true","ArrowDown,ArrowRight","false","","","","","","","80","revaluation","1",""
"html-keyboard-response","217","1026463","0.0-4.0-2.0-1.40","pilot_wm_v1","62b1e957d10fa7c323e0df84","2","null","null","true","","","","","","","null","<div style=""font-size:60px;"">+</div>","null","fixation","","","","","","","","","","","","","81","","",""
"revaluation","218","1032470","0.0-4.0-2.0-0.41","pilot_wm_v1","62b1e957d10fa7c323e0df84","2","null","null","true","","false","","","","","[683.6000000089407,444.20000000298023]","./assets/img/ocean/memory/16.jpg","[""ArrowDown"",""ArrowRight""]","value training","ocean","30","{""ArrowUp,ArrowLeft"":23,""ArrowUp,ArrowRight"":10,""ArrowDown,ArrowLeft"":8,""ArrowDown,ArrowRight"":30}","true","ArrowDown,ArrowRight","false","","","","","","","82","revaluation","1",""
"html-keyboard-response","219","1032972","0.0-4.0-2.0-1.41","pilot_wm_v1","62b1e957d10fa7c323e0df84","2","null","null","true","","","","","","","null","<div style=""font-size:60px;"">+</div>","null","fixation","","","","","","","","","","","","","83","","",""
"revaluation","220","1038981","0.0-4.0-2.0-0.42","pilot_wm_v1","62b1e957d10fa7c323e0df84","2","null","null","true","","false","","","","","[659.5,352.5]","./assets/img/ocean/memory/25.jpg","[""ArrowDown"",""ArrowRight""]","value training","ocean","30","{""ArrowUp,ArrowLeft"":23,""ArrowUp,ArrowRight"":10,""ArrowDown,ArrowLeft"":8,""ArrowDown,ArrowRight"":30}","true","ArrowDown,ArrowRight","false","","","","","","","84","revaluation","1",""
"html-keyboard-response","221","1039483","0.0-4.0-2.0-1.42","pilot_wm_v1","62b1e957d10fa7c323e0df84","2","null","null","true","","","","","","","null","<div style=""font-size:60px;"">+</div>","null","fixation","","","","","","","","","","","","","85","","",""
"revaluation","222","1045491","0.0-4.0-2.0-0.43","pilot_wm_v1","62b1e957d10fa7c323e0df84","2","null","null","true","","false","","","","","[799.2999999970198,373.69999998807907]","./assets/img/ocean/memory/14.jpg","[""ArrowDown"",""ArrowRight""]","value training","ocean","30","{""ArrowUp,ArrowLeft"":23,""ArrowUp,ArrowRight"":10,""ArrowDown,ArrowLeft"":8,""ArrowDown,ArrowRight"":30}","true","ArrowDown,ArrowRight","false","","","","","","","86","revaluation","1",""
"html-keyboard-response","223","1045993","0.0-4.0-2.0-1.43","pilot_wm_v1","62b1e957d10fa7c323e0df84","2","null","null","true","","","","","","","null","<div style=""font-size:60px;"">+</div>","null","fixation","","","","","","","","","","","","","87","","",""
"revaluation","224","1052001","0.0-4.0-2.0-0.44","pilot_wm_v1","62b1e957d10fa7c323e0df84","2","null","null","true","","false","","","","","[698,358.5]","./assets/img/ocean/memory/6.jpg","[""ArrowDown"",""ArrowRight""]","value training","ocean","30","{""ArrowUp,ArrowLeft"":23,""ArrowUp,ArrowRight"":10,""ArrowDown,ArrowLeft"":8,""ArrowDown,ArrowRight"":30}","true","ArrowDown,ArrowRight","false","","","","","","","88","revaluation","1",""
"html-keyboard-response","225","1052504","0.0-4.0-2.0-1.44","pilot_wm_v1","62b1e957d10fa7c323e0df84","2","null","null","true","","","","","","","null","<div style=""font-size:60px;"">+</div>","null","fixation","","","","","","","","","","","","","89","","",""
"revaluation","226","1058511","0.0-4.0-2.0-0.45","pilot_wm_v1","62b1e957d10fa7c323e0df84","2","null","null","true","","false","","","","","[1012.7999999970198,414.40000000596046]","./assets/img/ocean/memory/15.jpg","[""ArrowDown"",""ArrowRight""]","value training","ocean","30","{""ArrowUp,ArrowLeft"":23,""ArrowUp,ArrowRight"":10,""ArrowDown,ArrowLeft"":8,""ArrowDown,ArrowRight"":30}","true","ArrowDown,ArrowRight","false","","","","","","","90","revaluation","1",""
"html-keyboard-response","227","1059014","0.0-4.0-2.0-1.45","pilot_wm_v1","62b1e957d10fa7c323e0df84","2","null","null","true","","","","","","","null","<div style=""font-size:60px;"">+</div>","null","fixation","","","","","","","","","","","","","91","","",""
"revaluation","228","1065021","0.0-4.0-2.0-0.46","pilot_wm_v1","62b1e957d10fa7c323e0df84","2","null","null","true","","false","","","","","[574.8999999910593,389]","./assets/img/ocean/memory/13.jpg","[""ArrowDown"",""ArrowRight""]","value training","ocean","30","{""ArrowUp,ArrowLeft"":23,""ArrowUp,ArrowRight"":10,""ArrowDown,ArrowLeft"":8,""ArrowDown,ArrowRight"":30}","true","ArrowDown,ArrowRight","false","","","","","","","92","revaluation","1",""
"html-keyboard-response","229","1065524","0.0-4.0-2.0-1.46","pilot_wm_v1","62b1e957d10fa7c323e0df84","2","null","null","true","","","","","","","null","<div style=""font-size:60px;"">+</div>","null","fixation","","","","","","","","","","","","","93","","",""
"revaluation","230","1071532","0.0-4.0-2.0-0.47","pilot_wm_v1","62b1e957d10fa7c323e0df84","2","null","null","true","","false","","","","","[586.0999999940395,441.59999999403954]","./assets/img/ocean/memory/7.jpg","[""ArrowDown"",""ArrowRight""]","value training","ocean","30","{""ArrowUp,ArrowLeft"":23,""ArrowUp,ArrowRight"":10,""ArrowDown,ArrowLeft"":8,""ArrowDown,ArrowRight"":30}","true","ArrowDown,ArrowRight","false","","","","","","","94","revaluation","1",""
"html-keyboard-response","231","1072034","0.0-4.0-2.0-1.47","pilot_wm_v1","62b1e957d10fa7c323e0df84","2","null","null","true","","","","","","","null","<div style=""font-size:60px;"">+</div>","null","fixation","","","","","","","","","","","","","95","","",""
"revaluation","232","1076041","0.0-4.0-2.0-0.48","pilot_wm_v1","62b1e957d10fa7c323e0df84","2","null","null","true","","false","","","","","[706.5]","./assets/img/ocean/catch/7.jpg","[""spaceBar""]","value training","ocean","0","{""ArrowUp,ArrowLeft"":23,""ArrowUp,ArrowRight"":10,""ArrowDown,ArrowLeft"":8,""ArrowDown,ArrowRight"":30}","true","spaceBar","true","","","","","","","96","revaluation","1",""
"html-keyboard-response","233","1076543","0.0-4.0-2.0-1.48","pilot_wm_v1","62b1e957d10fa7c323e0df84","2","null","null","true","","","","","","","null","<div style=""font-size:60px;"">+</div>","null","fixation","","","","","","","","","","","","","97","","",""
"revaluation","234","1082551","0.0-4.0-2.0-0.49","pilot_wm_v1","62b1e957d10fa7c323e0df84","2","null","null","true","","false","","","","","[697.7999999970198,349.29999999701977]","./assets/img/ocean/memory/26.jpg","[""ArrowDown"",""ArrowRight""]","value training","ocean","30","{""ArrowUp,ArrowLeft"":23,""ArrowUp,ArrowRight"":10,""ArrowDown,ArrowLeft"":8,""ArrowDown,ArrowRight"":30}","true","ArrowDown,ArrowRight","false","","","","","","","98","revaluation","1",""
"html-keyboard-response","235","1083053","0.0-4.0-2.0-1.49","pilot_wm_v1","62b1e957d10fa7c323e0df84","2","null","null","true","","","","","","","null","<div style=""font-size:60px;"">+</div>","null","fixation","","","","","","","","","","","","","99","","",""
"learning-instructions","236","1097314","0.0-4.0-3.0-0.0","pilot_wm_v1","62b1e957d10fa7c323e0df84","2","null","null","true","","","","","","","1331.9000000059605","<p> Now, you will travel with a friend who will choose whether you go up or down first. </p>
            <p> On these turns, you will just see the animal that they found. You will still get to choose which chest to search for treasure.</p>","","instructions","","","","","","","","","","","","","","","",""
"learning-instructions","237","1111317","0.0-4.0-3.0-0.1","pilot_wm_v1","62b1e957d10fa7c323e0df84","2","null","null","true","","","","","","","2396","<p> In this part, you will also hear beeps from your friend and see special treasure chests that need a password. </p>
            <p> Do your best to count the high beeps <b>and</b> choose between each animals' chests at the same time.</p>
            <img src='./assets/img/instructions/beep_chest.jpg' class='instructions-image'>","","instructions","","","","","","","","","","","","","","","",""
"revaluation","238","1115323","0.0-4.0-4.0-0.0","pilot_wm_v1","62b1e957d10fa7c323e0df84","2","null","null","true","","false","","","","","[782.8999999910593]","./assets/img/ocean/animals/seahorse.jpg","[""ArrowRight""]","revaluation","ocean","7","{""ArrowUp,ArrowLeft"":27,""ArrowUp,ArrowRight"":15,""ArrowDown,ArrowLeft"":21,""ArrowDown,ArrowRight"":7}","false","ArrowDown,ArrowRight","","14_4","","","","","","0","revaluation","1",""
"html-keyboard-response","239","1115829","0.0-4.0-4.0-1.0","pilot_wm_v1","62b1e957d10fa7c323e0df84","2","null","null","true","","","","","","","null","<div style=""font-size:60px;"">+</div>","null","fixation","","","","","","","","","","","","","","","",""
"revaluation","240","1119837","0.0-4.0-4.0-0.1","pilot_wm_v1","62b1e957d10fa7c323e0df84","2","null","null","true","","false","","","","","[881.3999999910593]","./assets/img/ocean/animals/octopus.jpg","[""ArrowLeft""]","revaluation","ocean","27","{""ArrowUp,ArrowLeft"":27,""ArrowUp,ArrowRight"":15,""ArrowDown,ArrowLeft"":21,""ArrowDown,ArrowRight"":7}","true","ArrowUp,ArrowLeft","","1_4","","","","","","1","revaluation","1",""
"html-keyboard-response","241","1120339","0.0-4.0-4.0-1.1","pilot_wm_v1","62b1e957d10fa7c323e0df84","2","null","null","true","","","","","","","null","<div style=""font-size:60px;"">+</div>","null","fixation","","","","","","","","","","","","","","","",""
"revaluation","242","1124345","0.0-4.0-4.0-0.2","pilot_wm_v1","62b1e957d10fa7c323e0df84","2","null","null","true","","false","","","","","[502.59999999403954]","./assets/img/ocean/animals/seahorse.jpg","[""ArrowRight""]","revaluation","ocean","7","{""ArrowUp,ArrowLeft"":27,""ArrowUp,ArrowRight"":15,""ArrowDown,ArrowLeft"":21,""ArrowDown,ArrowRight"":7}","false","ArrowDown,ArrowRight","","13_2","","","","","","2","revaluation","1",""
"html-keyboard-response","243","1124848","0.0-4.0-4.0-1.2","pilot_wm_v1","62b1e957d10fa7c323e0df84","2","null","null","true","","","","","","","null","<div style=""font-size:60px;"">+</div>","null","fixation","","","","","","","","","","","","","","","",""
"revaluation","244","1128856","0.0-4.0-4.0-0.3","pilot_wm_v1","62b1e957d10fa7c323e0df84","2","null","null","true","","false","","","","","[501.1000000089407]","./assets/img/ocean/animals/octopus.jpg","[""ArrowLeft""]","revaluation","ocean","27","{""ArrowUp,ArrowLeft"":27,""ArrowUp,ArrowRight"":15,""ArrowDown,ArrowLeft"":21,""ArrowDown,ArrowRight"":7}","true","ArrowUp,ArrowLeft","","6_3","","","","","","3","revaluation","1",""
"html-keyboard-response","245","1129358","0.0-4.0-4.0-1.3","pilot_wm_v1","62b1e957d10fa7c323e0df84","2","null","null","true","","","","","","","null","<div style=""font-size:60px;"">+</div>","null","fixation","","","","","","","","","","","","","","","",""
"html-slider-response","246","1137100","0.0-4.0-4.0-2.3-0.3","pilot_wm_v1","62b1e957d10fa7c323e0df84","2","null","null","true","","","","","","","7740","<div style=""width:500px;"">
        <p>What is the password?</p>
        <img src='./assets/img/instructions/beep_chest.jpg' class='instructions-image'>","12","beep chest","","","","false","","","","50","13","1","","","","","",""
"revaluation","247","1141106","0.0-4.0-4.0-0.4","pilot_wm_v1","62b1e957d10fa7c323e0df84","2","null","null","true","","false","","","","","[1428.7000000029802]","./assets/img/ocean/animals/seahorse.jpg","[""ArrowRight""]","revaluation","ocean","7","{""ArrowUp,ArrowLeft"":27,""ArrowUp,ArrowRight"":15,""ArrowDown,ArrowLeft"":21,""ArrowDown,ArrowRight"":7}","false","ArrowDown,ArrowRight","","10_3","","","","","","4","revaluation","1",""
"html-keyboard-response","248","1141608","0.0-4.0-4.0-1.4","pilot_wm_v1","62b1e957d10fa7c323e0df84","2","null","null","true","","","","","","","null","<div style=""font-size:60px;"">+</div>","null","fixation","","","","","","","","","","","","","","","",""
"revaluation","249","1145614","0.0-4.0-4.0-0.5","pilot_wm_v1","62b1e957d10fa7c323e0df84","2","null","null","true","","false","","","","","[503.29999999701977]","./assets/img/ocean/animals/seahorse.jpg","[""ArrowLeft""]","revaluation","ocean","21","{""ArrowUp,ArrowLeft"":27,""ArrowUp,ArrowRight"":15,""ArrowDown,ArrowLeft"":21,""ArrowDown,ArrowRight"":7}","true","ArrowDown,ArrowLeft","","12_2","","","","","","5","revaluation","1",""
"html-keyboard-response","250","1146116","0.0-4.0-4.0-1.5","pilot_wm_v1","62b1e957d10fa7c323e0df84","2","null","null","true","","","","","","","null","<div style=""font-size:60px;"">+</div>","null","fixation","","","","","","","","","","","","","","","",""
"revaluation","251","1150122","0.0-4.0-4.0-0.6","pilot_wm_v1","62b1e957d10fa7c323e0df84","2","null","null","true","","false","","","","","[770.8999999910593]","./assets/img/ocean/animals/octopus.jpg","[""ArrowLeft""]","revaluation","ocean","27","{""ArrowUp,ArrowLeft"":27,""ArrowUp,ArrowRight"":15,""ArrowDown,ArrowLeft"":21,""ArrowDown,ArrowRight"":7}","true","ArrowUp,ArrowLeft","","5_4","","","","","","6","revaluation","1",""
"html-keyboard-response","252","1150625","0.0-4.0-4.0-1.6","pilot_wm_v1","62b1e957d10fa7c323e0df84","2","null","null","true","","","","","","","null","<div style=""font-size:60px;"">+</div>","null","fixation","","","","","","","","","","","","","","","",""
"revaluation","253","1154631","0.0-4.0-4.0-0.7","pilot_wm_v1","62b1e957d10fa7c323e0df84","2","null","null","true","","false","","","","","[509.70000000298023]","./assets/img/ocean/animals/octopus.jpg","[""ArrowLeft""]","revaluation","ocean","27","{""ArrowUp,ArrowLeft"":27,""ArrowUp,ArrowRight"":15,""ArrowDown,ArrowLeft"":21,""ArrowDown,ArrowRight"":7}","true","ArrowUp,ArrowLeft","","9_2","","","","","","7","revaluation","1",""
"html-keyboard-response","254","1155133","0.0-4.0-4.0-1.7","pilot_wm_v1","62b1e957d10fa7c323e0df84","2","null","null","true","","","","","","","null","<div style=""font-size:60px;"">+</div>","null","fixation","","","","","","","","","","","","","","","",""
"html-slider-response","255","1160049","0.0-4.0-4.0-2.7-0.7","pilot_wm_v1","62b1e957d10fa7c323e0df84","2","null","null","true","","","","","","","4914","<div style=""width:500px;"">
        <p>What is the password?</p>
        <img src='./assets/img/instructions/beep_chest.jpg' class='instructions-image'>","10","beep chest","","","","false","","","","50","11","1","","","","","",""
"revaluation","256","1164055","0.0-4.0-4.0-0.8","pilot_wm_v1","62b1e957d10fa7c323e0df84","2","null","null","true","","false","","","","","[1166.4000000059605]","./assets/img/ocean/animals/seahorse.jpg","[""ArrowLeft""]","revaluation","ocean","21","{""ArrowUp,ArrowLeft"":27,""ArrowUp,ArrowRight"":15,""ArrowDown,ArrowLeft"":21,""ArrowDown,ArrowRight"":7}","true","ArrowDown,ArrowLeft","","17_1","","","","","","8","revaluation","1",""
"html-keyboard-response","257","1164557","0.0-4.0-4.0-1.8","pilot_wm_v1","62b1e957d10fa7c323e0df84","2","null","null","true","","","","","","","null","<div style=""font-size:60px;"">+</div>","null","fixation","","","","","","","","","","","","","","","",""
"revaluation","258","1168563","0.0-4.0-4.0-0.9","pilot_wm_v1","62b1e957d10fa7c323e0df84","2","null","null","true","","false","","","","","[631.8999999910593]","./assets/img/ocean/animals/octopus.jpg","[""ArrowLeft""]","revaluation","ocean","27","{""ArrowUp,ArrowLeft"":27,""ArrowUp,ArrowRight"":15,""ArrowDown,ArrowLeft"":21,""ArrowDown,ArrowRight"":7}","true","ArrowUp,ArrowLeft","","4_0","","","","","","9","revaluation","1",""
"html-keyboard-response","259","1169066","0.0-4.0-4.0-1.9","pilot_wm_v1","62b1e957d10fa7c323e0df84","2","null","null","true","","","","","","","null","<div style=""font-size:60px;"">+</div>","null","fixation","","","","","","","","","","","","","","","",""
"revaluation","260","1173073","0.0-4.0-4.0-0.10","pilot_wm_v1","62b1e957d10fa7c323e0df84","2","null","null","true","","false","","","","","[721.4000000059605]","./assets/img/ocean/animals/seahorse.jpg","[""ArrowLeft""]","revaluation","ocean","21","{""ArrowUp,ArrowLeft"":27,""ArrowUp,ArrowRight"":15,""ArrowDown,ArrowLeft"":21,""ArrowDown,ArrowRight"":7}","true","ArrowDown,ArrowLeft","","16_0","","","","","","10","revaluation","1",""
"html-keyboard-response","261","1173575","0.0-4.0-4.0-1.10","pilot_wm_v1","62b1e957d10fa7c323e0df84","2","null","null","true","","","","","","","null","<div style=""font-size:60px;"">+</div>","null","fixation","","","","","","","","","","","","","","","",""
"revaluation","262","1177581","0.0-4.0-4.0-0.11","pilot_wm_v1","62b1e957d10fa7c323e0df84","2","null","null","true","","false","","","","","[610.9000000059605]","./assets/img/ocean/animals/octopus.jpg","[""ArrowLeft""]","revaluation","ocean","27","{""ArrowUp,ArrowLeft"":27,""ArrowUp,ArrowRight"":15,""ArrowDown,ArrowLeft"":21,""ArrowDown,ArrowRight"":7}","true","ArrowUp,ArrowLeft","","8_2","","","","","","11","revaluation","1",""
"html-keyboard-response","263","1178083","0.0-4.0-4.0-1.11","pilot_wm_v1","62b1e957d10fa7c323e0df84","2","null","null","true","","","","","","","null","<div style=""font-size:60px;"">+</div>","null","fixation","","","","","","","","","","","","","","","",""
"html-slider-response","264","1183332","0.0-4.0-4.0-2.11-0.11","pilot_wm_v1","62b1e957d10fa7c323e0df84","2","null","null","true","","","","","","","5247","<div style=""width:500px;"">
        <p>What is the password?</p>
        <img src='./assets/img/instructions/beep_chest.jpg' class='instructions-image'>","3","beep chest","","","","true","","","","50","3","0","","","","","",""
"revaluation","265","1187338","0.0-4.0-4.0-0.12","pilot_wm_v1","62b1e957d10fa7c323e0df84","2","null","null","true","","false","","","","","[947.1999999880791]","./assets/img/ocean/animals/seahorse.jpg","[""ArrowLeft""]","revaluation","ocean","21","{""ArrowUp,ArrowLeft"":27,""ArrowUp,ArrowRight"":15,""ArrowDown,ArrowLeft"":21,""ArrowDown,ArrowRight"":7}","true","ArrowDown,ArrowLeft","","18_0","","","","","","12","revaluation","1",""
"html-keyboard-response","266","1187840","0.0-4.0-4.0-1.12","pilot_wm_v1","62b1e957d10fa7c323e0df84","2","null","null","true","","","","","","","null","<div style=""font-size:60px;"">+</div>","null","fixation","","","","","","","","","","","","","","","",""
"revaluation","267","1191848","0.0-4.0-4.0-0.13","pilot_wm_v1","62b1e957d10fa7c323e0df84","2","null","null","true","","false","","","","","[427.5]","./assets/img/ocean/animals/octopus.jpg","[""ArrowLeft""]","revaluation","ocean","27","{""ArrowUp,ArrowLeft"":27,""ArrowUp,ArrowRight"":15,""ArrowDown,ArrowLeft"":21,""ArrowDown,ArrowRight"":7}","true","ArrowUp,ArrowLeft","","3_0","","","","","","13","revaluation","1",""
"html-keyboard-response","268","1192349","0.0-4.0-4.0-1.13","pilot_wm_v1","62b1e957d10fa7c323e0df84","2","null","null","true","","","","","","","null","<div style=""font-size:60px;"">+</div>","null","fixation","","","","","","","","","","","","","","","",""
"revaluation","269","1196359","0.0-4.0-4.0-0.14","pilot_wm_v1","62b1e957d10fa7c323e0df84","2","null","null","true","","false","","","","","[826.5999999940395]","./assets/img/ocean/animals/seahorse.jpg","[""ArrowLeft""]","revaluation","ocean","21","{""ArrowUp,ArrowLeft"":27,""ArrowUp,ArrowRight"":15,""ArrowDown,ArrowLeft"":21,""ArrowDown,ArrowRight"":7}","true","ArrowDown,ArrowLeft","","15_0","","","","","","14","revaluation","1",""
"html-keyboard-response","270","1196861","0.0-4.0-4.0-1.14","pilot_wm_v1","62b1e957d10fa7c323e0df84","2","null","null","true","","","","","","","null","<div style=""font-size:60px;"">+</div>","null","fixation","","","","","","","","","","","","","","","",""
"revaluation","271","1200868","0.0-4.0-4.0-0.15","pilot_wm_v1","62b1e957d10fa7c323e0df84","2","null","null","true","","false","","","","","[387.20000000298023]","./assets/img/ocean/animals/octopus.jpg","[""ArrowLeft""]","revaluation","ocean","27","{""ArrowUp,ArrowLeft"":27,""ArrowUp,ArrowRight"":15,""ArrowDown,ArrowLeft"":21,""ArrowDown,ArrowRight"":7}","true","ArrowUp,ArrowLeft","","2_1","","","","","","15","revaluation","1",""
"html-keyboard-response","272","1201371","0.0-4.0-4.0-1.15","pilot_wm_v1","62b1e957d10fa7c323e0df84","2","null","null","true","","","","","","","null","<div style=""font-size:60px;"">+</div>","null","fixation","","","","","","","","","","","","","","","",""
"html-slider-response","273","1203886","0.0-4.0-4.0-2.15-0.15","pilot_wm_v1","62b1e957d10fa7c323e0df84","2","null","null","true","","","","","","","2513","<div style=""width:500px;"">
        <p>What is the password?</p>
        <img src='./assets/img/instructions/beep_chest.jpg' class='instructions-image'>","1","beep chest","","","","true","","","","50","1","0","","","","","",""
"revaluation","274","1207891","0.0-4.0-4.0-0.16","pilot_wm_v1","62b1e957d10fa7c323e0df84","2","null","null","true","","false","","","","","[1110.2000000029802]","./assets/img/ocean/animals/seahorse.jpg","[""ArrowLeft""]","revaluation","ocean","21","{""ArrowUp,ArrowLeft"":27,""ArrowUp,ArrowRight"":15,""ArrowDown,ArrowLeft"":21,""ArrowDown,ArrowRight"":7}","true","ArrowDown,ArrowLeft","","11_4","","","","","","16","revaluation","1",""
"html-keyboard-response","275","1208394","0.0-4.0-4.0-1.16","pilot_wm_v1","62b1e957d10fa7c323e0df84","2","null","null","true","","","","","","","null","<div style=""font-size:60px;"">+</div>","null","fixation","","","","","","","","","","","","","","","",""
"revaluation","276","1212400","0.0-4.0-4.0-0.17","pilot_wm_v1","62b1e957d10fa7c323e0df84","2","null","null","true","","false","","","","","[566.2000000029802]","./assets/img/ocean/animals/octopus.jpg","[""ArrowLeft""]","revaluation","ocean","27","{""ArrowUp,ArrowLeft"":27,""ArrowUp,ArrowRight"":15,""ArrowDown,ArrowLeft"":21,""ArrowDown,ArrowRight"":7}","true","ArrowUp,ArrowLeft","","7_4","","","","","","17","revaluation","1",""
"html-keyboard-response","277","1212903","0.0-4.0-4.0-1.17","pilot_wm_v1","62b1e957d10fa7c323e0df84","2","null","null","true","","","","","","","null","<div style=""font-size:60px;"">+</div>","null","fixation","","","","","","","","","","","","","","","",""
"learning-instructions","278","1225305","0.0-4.0-5.0-0.0-0.0","pilot_wm_v1","62b1e957d10fa7c323e0df84","2","null","null","true","","","","","","","1103.0999999940395","<p> Time to play the dot game! </p>
            <p> For one minute, click the red dots on the following screen as they appear. </p>
            <p><b> Don't look away, as you will earn bonus for clicking dots</b>. </p>","","instructions","","","","","","","","","","","","","","","",""
