"trial_type","trial_index","time_elapsed","internal_node_id","task_version","subject_id","assigned_condition","age","gender","rest","success","timeout","failed_images","failed_audio","failed_video","browser_interaction","value","rt","stimulus","response","task_part","environment","score","rewardMap","correct","fullState","isCatch","audioStim","slider_start","answer","error","trial_num","condition","order","bonus"
"pavlovia","0","1236","0.0-0.0","pilot_wm_v1","61592ea07347e286bca1955f","7","null","null","false","","","","","","","","","","","","","","","","","","","","","","","","",""
"preload","1","13572","0.0-1.0","pilot_wm_v1","61592ea07347e286bca1955f","7","null","null","false","true","false","[]","[]","[]","[{""event"":""fullscreenenter"",""trial"":2,""time"":19071}]","","","","","","","","","","","","","","","","","","",""
"fullscreen","2","20041","0.0-2.0","pilot_wm_v1","61592ea07347e286bca1955f","7","null","null","false","true","","","","","","","","","","","","","","","","","","","","","","","",""
"call-function","3","31773","0.0-3.0","pilot_wm_v1","61592ea07347e286bca1955f","7","null","null","false","","","","","","","","","","","","","","","","","","","","","","","","",""
"audio-button-response","4","34998","0.0-4.0-0.0-0.0","pilot_wm_v1","61592ea07347e286bca1955f","7","null","null","false","","","","","","","","2920","./assets/audio/audiotest/turtle.mp3","2","audio_test","","","","","","","","","","","","","",""
"learning-instructions","5","43519","0.0-4.0-1.0-0.0","pilot_wm_v1","61592ea07347e286bca1955f","7","null","null","false","","","","","","","","1554","<p> Welcome! Please remember to stay in fullscreen mode and don't click away from the experiment. </p>","","instructions","","","","","","","","","","","","","",""
"learning-instructions","6","53491","0.0-4.0-1.0-0.1","pilot_wm_v1","61592ea07347e286bca1955f","7","null","null","false","","","","","","","","1570","<p> Today you will be playing a game to earn treasure. </p>
            <p> At the end of the experiment, you will earn a bonus based on how much treasure you find. </p>
            <img src='./assets/img/instructions/treasure.jpg' class='instructions-image'>","","instructions","","","","","","","","","","","","","",""
"learning-instructions","7","62878","0.0-4.0-1.0-0.2","pilot_wm_v1","61592ea07347e286bca1955f","7","null","null","false","","","","","","","","1126.0000000000073","<p> Animals have hidden treasure in treasure chests. </p>
            <p> You need to first find an animal and then choose which of their treasure chests to search. </p>
            <img src='./assets/img/space/animals/cat.jpg' class='instructions-image'>","","instructions","","","","","","","","","","","","","",""
"learning-instructions","8","77664","0.0-4.0-1.0-0.3","pilot_wm_v1","61592ea07347e286bca1955f","7","null","null","false","","","","","","","","1643","<p> In each round, you will search for treasure in a different place. In the real game, there will be two rounds. </p>
            <p> You will begin with a separate, practice round where you will search for treasure in outer space. </p>
            <img src='./assets/img/space/0.jpg' class='instructions-image'>","","instructions","","","","","","","","","","","","","",""
"learning-instructions","9","89586","0.0-4.0-1.0-0.4","pilot_wm_v1","61592ea07347e286bca1955f","7","null","null","false","","","","","","","","507","<p> On every turn, you will see a picture of the place that you are in, but the specific image may be different each time. </p>
            <p> For example, both of these images mean you are in outer space. </p>
            <img src='./assets/img/instructions/outerspace.jpg' class='instructions-image'>","","instructions","","","","","","","","","","","","","",""
"learning-instructions","10","98078","0.0-4.0-1.0-0.5","pilot_wm_v1","61592ea07347e286bca1955f","7","null","null","false","","","","","","","","668","<p> You need to decide which direction to travel in. </p>
            <p> You can choose between going <b>up or down</b> by using the arrow keys. </p>
            <img src='./assets/img/instructions/updown.jpg' class='instructions-image'>","","instructions","","","","","","","","","","","","","",""
"learning-instructions","11","107786","0.0-4.0-1.0-0.6","pilot_wm_v1","61592ea07347e286bca1955f","7","null","null","false","","","","","","","","903.9999999999854","<p> You will have <b>2 seconds</b> to make your choice. </p>
            <p> If you do not make a choice within 2 seconds, you will not find an animal or earn treasure. </p>
            <img src='./assets/img/instructions/2seconds.jpg' class='instructions-image'>","","instructions","","","","","","","","","","","","","",""
"learning-instructions","12","116264","0.0-4.0-1.0-0.7","pilot_wm_v1","61592ea07347e286bca1955f","7","null","null","false","","","","","","","","1440","<p> Let’s try practicing that now! </p>
            <p> When you see a picture of the place you are in, press the <b>up</b> key to travel up. </p>
            <img src='./assets/img/instructions/pressUp.jpg' class='instructions-image'>","","instructions","","","","","","","","","","","","","",""
"revaluation","13","120296","0.0-4.0-2.0-0.0","pilot_wm_v1","61592ea07347e286bca1955f","7","null","null","false","","false","","","","","","[957]","./assets/img/space/0.jpg","[""ArrowUp""]","first stage practice","space","0","null","null","ArrowUp","false","","","","","","","",""
"html-keyboard-response","14","120799","0.0-4.0-2.0-1.0","pilot_wm_v1","61592ea07347e286bca1955f","7","null","null","false","","","","","","","","null","<div style=""font-size:60px;"">+</div>","null","fixation","","","","","","","","","","","","","",""
"revaluation","15","124839","0.0-4.0-2.0-0.1","pilot_wm_v1","61592ea07347e286bca1955f","7","null","null","false","","false","","","","","","[1261]","./assets/img/space/1.jpg","[""ArrowUp""]","first stage practice","space","0","null","null","ArrowUp","false","","","","","","","",""
"html-keyboard-response","16","125341","0.0-4.0-2.0-1.1","pilot_wm_v1","61592ea07347e286bca1955f","7","null","null","false","","","","","","","","null","<div style=""font-size:60px;"">+</div>","null","fixation","","","","","","","","","","","","","",""
"revaluation","17","129376","0.0-4.0-2.0-0.2","pilot_wm_v1","61592ea07347e286bca1955f","7","null","null","false","","false","","","","","","[612.9999999999854]","./assets/img/space/2.jpg","[""ArrowUp""]","first stage practice","space","0","null","null","ArrowUp","false","","","","","","","",""
"html-keyboard-response","18","129878","0.0-4.0-2.0-1.2","pilot_wm_v1","61592ea07347e286bca1955f","7","null","null","false","","","","","","","","null","<div style=""font-size:60px;"">+</div>","null","fixation","","","","","","","","","","","","","",""
"learning-instructions","19","134945","0.0-4.0-3.0-0.0","pilot_wm_v1","61592ea07347e286bca1955f","7","null","null","false","","","","","","","","360","<p> Great job! Now try pressing the <b>down</b> key to travel down. </p>
            <img src='./assets/img/instructions/pressDown.jpg' class='instructions-image'>","","instructions","","","","","","","","","","","","","",""
"revaluation","20","138964","0.0-4.0-4.0-0.0","pilot_wm_v1","61592ea07347e286bca1955f","7","null","null","false","","false","","","","","","[317]","./assets/img/space/3.jpg","[""ArrowDown""]","first stage practice","space","0","null","null","ArrowDown","false","","","","","","","",""
"html-keyboard-response","21","139465","0.0-4.0-4.0-1.0","pilot_wm_v1","61592ea07347e286bca1955f","7","null","null","false","","","","","","","","null","<div style=""font-size:60px;"">+</div>","null","fixation","","","","","","","","","","","","","",""
"revaluation","22","143487","0.0-4.0-4.0-0.1","pilot_wm_v1","61592ea07347e286bca1955f","7","null","null","false","","false","","","","","","[339]","./assets/img/space/4.jpg","[""ArrowDown""]","first stage practice","space","0","null","null","ArrowDown","false","","","","","","","",""
"html-keyboard-response","23","143988","0.0-4.0-4.0-1.1","pilot_wm_v1","61592ea07347e286bca1955f","7","null","null","false","","","","","","","","null","<div style=""font-size:60px;"">+</div>","null","fixation","","","","","","","","","","","","","",""
"revaluation","24","148009","0.0-4.0-4.0-0.2","pilot_wm_v1","61592ea07347e286bca1955f","7","null","null","false","","false","","","","","","[182]","./assets/img/space/5.jpg","[""ArrowDown""]","first stage practice","space","0","null","null","ArrowDown","false","","","","","","","",""
"html-keyboard-response","25","148510","0.0-4.0-4.0-1.2","pilot_wm_v1","61592ea07347e286bca1955f","7","null","null","false","","","","","","","","null","<div style=""font-size:60px;"">+</div>","null","fixation","","","","","","","","","","","","","",""
"learning-instructions","26","159451","0.0-4.0-5.0-0.0","pilot_wm_v1","61592ea07347e286bca1955f","7","null","null","false","","","","","","","","1104","<p> The animals don’t move, so the animal in the upper part of a place will stay in the upper part of a place, and the animal in the lower part of a place will stay in the lower part of a place. </p>","","instructions","","","","","","","","","","","","","",""
"learning-instructions","27","169290","0.0-4.0-5.0-0.1","pilot_wm_v1","61592ea07347e286bca1955f","7","null","null","false","","","","","","","","721","<p> Each animal has two treasure chests for you to choose from. </p>
            <p> The amount of treasure in each chest can range from <b> 0 to 40 pieces.</b></p>","","instructions","","","","","","","","","","","","","",""
"learning-instructions","28","182385","0.0-4.0-5.0-0.2","pilot_wm_v1","61592ea07347e286bca1955f","7","null","null","false","","","","","","","","1906","<p> You should decide which chest to search for treasure by using the <b>left</b> and <b>right</b> arrow keys. </p>
            <p><b> Pay attention to which animal is on the screen, as the animals have different treasure chests. </b></p>
            <img src='./assets/img/instructions/leftright.jpg' class='instructions-image'>","","instructions","","","","","","","","","","","","","",""
"learning-instructions","29","189423","0.0-4.0-5.0-0.3","pilot_wm_v1","61592ea07347e286bca1955f","7","null","null","false","","","","","","","","667.0000000000291","<p> Let’s try practicing that now. </p>
            <p> When you see an animal, choose which chest to search for treasure. </p>
            <img src='./assets/img/instructions/chooseChest.jpg' class='instructions-image'>","","instructions","","","","","","","","","","","","","",""
"revaluation","30","193447","0.0-4.0-6.0-0.0","pilot_wm_v1","61592ea07347e286bca1955f","7","null","null","false","","false","","","","","","[689]","./assets/img/space/animals/cat.jpg","[""ArrowRight""]","second stage practice","space","36","{""ArrowUp,ArrowLeft"":3,""ArrowUp,ArrowRight"":36,""ArrowDown,ArrowLeft"":15,""ArrowDown,ArrowRight"":23}","true","ArrowUp,ArrowRight","","","","","","","","",""
"html-keyboard-response","31","193948","0.0-4.0-6.0-1.0","pilot_wm_v1","61592ea07347e286bca1955f","7","null","null","false","","","","","","","","null","<div style=""font-size:60px;"">+</div>","null","fixation","","","","","","","","","","","","","",""
"revaluation","32","197965","0.0-4.0-6.0-0.1","pilot_wm_v1","61592ea07347e286bca1955f","7","null","null","false","","false","","","","","","[605]","./assets/img/space/animals/rabbit.jpg","[""ArrowLeft""]","second stage practice","space","15","{""ArrowUp,ArrowLeft"":3,""ArrowUp,ArrowRight"":36,""ArrowDown,ArrowLeft"":15,""ArrowDown,ArrowRight"":23}","false","ArrowDown,ArrowLeft","","","","","","","","",""
"html-keyboard-response","33","198466","0.0-4.0-6.0-1.1","pilot_wm_v1","61592ea07347e286bca1955f","7","null","null","false","","","","","","","","null","<div style=""font-size:60px;"">+</div>","null","fixation","","","","","","","","","","","","","",""
"revaluation","34","202490","0.0-4.0-6.0-0.2","pilot_wm_v1","61592ea07347e286bca1955f","7","null","null","false","","false","","","","","","[1100]","./assets/img/space/animals/cat.jpg","[""ArrowRight""]","second stage practice","space","36","{""ArrowUp,ArrowLeft"":3,""ArrowUp,ArrowRight"":36,""ArrowDown,ArrowLeft"":15,""ArrowDown,ArrowRight"":23}","true","ArrowUp,ArrowRight","","","","","","","","",""
"html-keyboard-response","35","202992","0.0-4.0-6.0-1.2","pilot_wm_v1","61592ea07347e286bca1955f","7","null","null","false","","","","","","","","null","<div style=""font-size:60px;"">+</div>","null","fixation","","","","","","","","","","","","","",""
"revaluation","36","207015","0.0-4.0-6.0-0.3","pilot_wm_v1","61592ea07347e286bca1955f","7","null","null","false","","false","","","","","","[1164]","./assets/img/space/animals/rabbit.jpg","[""ArrowRight""]","second stage practice","space","23","{""ArrowUp,ArrowLeft"":3,""ArrowUp,ArrowRight"":36,""ArrowDown,ArrowLeft"":15,""ArrowDown,ArrowRight"":23}","true","ArrowDown,ArrowRight","","","","","","","","",""
"html-keyboard-response","37","207517","0.0-4.0-6.0-1.3","pilot_wm_v1","61592ea07347e286bca1955f","7","null","null","false","","","","","","","","null","<div style=""font-size:60px;"">+</div>","null","fixation","","","","","","","","","","","","","",""
"learning-instructions","38","225796","0.0-4.0-7.0-0.0","pilot_wm_v1","61592ea07347e286bca1955f","7","null","null","false","","","","","","","","1485","<p> Great job. Now let’s try putting it together. </p>
            <p> On each turn, you will first see a picture to remind you of the place you are in, and you need to choose whether to go up or down. </p>
            <p> Then you will see an animal and choose which of its chests to search for treasure. </p>","","instructions","","","","","","","","","","","","","",""
"learning-instructions","39","234610","0.0-4.0-7.0-0.1","pilot_wm_v1","61592ea07347e286bca1955f","7","null","null","false","","","","","","","","563","<p> When you choose whether to go up or down, try to go to the animal with the chest with the most treasure. </p>
            <p> Try practicing that now! </p>","","instructions","","","","","","","","","","","","","",""
"revaluation","40","240632","0.0-4.0-8.0-0.0","pilot_wm_v1","61592ea07347e286bca1955f","7","null","null","false","","false","","","","","","[868,1072]","./assets/img/space/6.jpg","[""ArrowUp"",""ArrowRight""]","full practice","space","36","{""ArrowUp,ArrowLeft"":3,""ArrowUp,ArrowRight"":36,""ArrowDown,ArrowLeft"":15,""ArrowDown,ArrowRight"":23}","true","ArrowUp,ArrowRight","false","","","","","","","",""
"html-keyboard-response","41","241135","0.0-4.0-8.0-1.0","pilot_wm_v1","61592ea07347e286bca1955f","7","null","null","false","","","","","","","","null","<div style=""font-size:60px;"">+</div>","null","fixation","","","","","","","","","","","","","",""
"revaluation","42","247157","0.0-4.0-8.0-0.1","pilot_wm_v1","61592ea07347e286bca1955f","7","null","null","false","","false","","","","","","[1004,509]","./assets/img/space/7.jpg","[""ArrowUp"",""ArrowLeft""]","full practice","space","3","{""ArrowUp,ArrowLeft"":3,""ArrowUp,ArrowRight"":36,""ArrowDown,ArrowLeft"":15,""ArrowDown,ArrowRight"":23}","false","ArrowUp,ArrowLeft","false","","","","","","","",""
"html-keyboard-response","43","247659","0.0-4.0-8.0-1.1","pilot_wm_v1","61592ea07347e286bca1955f","7","null","null","false","","","","","","","","null","<div style=""font-size:60px;"">+</div>","null","fixation","","","","","","","","","","","","","",""
"revaluation","44","253683","0.0-4.0-8.0-0.2","pilot_wm_v1","61592ea07347e286bca1955f","7","null","null","false","","false","","","","","","[986.0000000000291,894]","./assets/img/space/8.jpg","[""ArrowDown"",""ArrowRight""]","full practice","space","23","{""ArrowUp,ArrowLeft"":3,""ArrowUp,ArrowRight"":36,""ArrowDown,ArrowLeft"":15,""ArrowDown,ArrowRight"":23}","false","ArrowDown,ArrowRight","false","","","","","","","",""
"html-keyboard-response","45","254185","0.0-4.0-8.0-1.2","pilot_wm_v1","61592ea07347e286bca1955f","7","null","null","false","","","","","","","","null","<div style=""font-size:60px;"">+</div>","null","fixation","","","","","","","","","","","","","",""
"revaluation","46","260209","0.0-4.0-8.0-0.3","pilot_wm_v1","61592ea07347e286bca1955f","7","null","null","false","","false","","","","","","[781.9999999999709,358]","./assets/img/space/9.jpg","[""ArrowDown"",""ArrowLeft""]","full practice","space","15","{""ArrowUp,ArrowLeft"":3,""ArrowUp,ArrowRight"":36,""ArrowDown,ArrowLeft"":15,""ArrowDown,ArrowRight"":23}","false","ArrowDown,ArrowLeft","false","","","","","","","",""
"html-keyboard-response","47","260712","0.0-4.0-8.0-1.3","pilot_wm_v1","61592ea07347e286bca1955f","7","null","null","false","","","","","","","","null","<div style=""font-size:60px;"">+</div>","null","fixation","","","","","","","","","","","","","",""
"revaluation","48","266735","0.0-4.0-8.0-0.4","pilot_wm_v1","61592ea07347e286bca1955f","7","null","null","false","","false","","","","","","[517,448.0000000000582]","./assets/img/space/10.jpg","[""ArrowUp"",""ArrowRight""]","full practice","space","36","{""ArrowUp,ArrowLeft"":3,""ArrowUp,ArrowRight"":36,""ArrowDown,ArrowLeft"":15,""ArrowDown,ArrowRight"":23}","true","ArrowUp,ArrowRight","false","","","","","","","",""
"html-keyboard-response","49","267237","0.0-4.0-8.0-1.4","pilot_wm_v1","61592ea07347e286bca1955f","7","null","null","false","","","","","","","","null","<div style=""font-size:60px;"">+</div>","null","fixation","","","","","","","","","","","","","",""
"learning-instructions","50","278955","0.0-4.0-9.0-0.0","pilot_wm_v1","61592ea07347e286bca1955f","7","null","null","false","","","","","","","","1403","<p> One last thing: sometimes, you will see a robber. The robber can be anywhere in the picture. </p>
            <p> If you do not stop them, you will lose treasure. </p>
            <img src='./assets/img/instructions/robber.jpg' class='instructions-image'>","","instructions","","","","","","","","","","","","","",""
"learning-instructions","51","286529","0.0-4.0-9.0-0.1","pilot_wm_v1","61592ea07347e286bca1955f","7","null","null","false","","","","","","","","414","<p> If you see the robber, you should <b>press the space bar</b> rather than using the arrow keys. </p>
            <p> Try practicing that now! </p>","","instructions","","","","","","","","","","","","","",""
"revaluation","52","290550","0.0-4.0-10.0-0.0","pilot_wm_v1","61592ea07347e286bca1955f","7","null","null","false","","false","","","","","","[847]","./assets/img/space/catch/0.jpg","[""spaceBar""]","catch practice","space","0","{""ArrowUp,ArrowLeft"":3,""ArrowUp,ArrowRight"":36,""ArrowDown,ArrowLeft"":15,""ArrowDown,ArrowRight"":23}","true","spaceBar","true","","","","","","","",""
"html-keyboard-response","53","291051","0.0-4.0-10.0-1.0","pilot_wm_v1","61592ea07347e286bca1955f","7","null","null","false","","","","","","","","null","<div style=""font-size:60px;"">+</div>","null","fixation","","","","","","","","","","","","","",""
"revaluation","54","295073","0.0-4.0-10.0-0.1","pilot_wm_v1","61592ea07347e286bca1955f","7","null","null","false","","false","","","","","","[603.0000000000582]","./assets/img/space/catch/1.jpg","[""spaceBar""]","catch practice","space","0","{""ArrowUp,ArrowLeft"":3,""ArrowUp,ArrowRight"":36,""ArrowDown,ArrowLeft"":15,""ArrowDown,ArrowRight"":23}","true","spaceBar","true","","","","","","","",""
"html-keyboard-response","55","295575","0.0-4.0-10.0-1.1","pilot_wm_v1","61592ea07347e286bca1955f","7","null","null","false","","","","","","","","null","<div style=""font-size:60px;"">+</div>","null","fixation","","","","","","","","","","","","","",""
"revaluation","56","299595","0.0-4.0-10.0-0.2","pilot_wm_v1","61592ea07347e286bca1955f","7","null","null","false","","false","","","","","","[487]","./assets/img/space/catch/2.jpg","[""spaceBar""]","catch practice","space","0","{""ArrowUp,ArrowLeft"":3,""ArrowUp,ArrowRight"":36,""ArrowDown,ArrowLeft"":15,""ArrowDown,ArrowRight"":23}","true","spaceBar","true","","","","","","","",""
"html-keyboard-response","57","300097","0.0-4.0-10.0-1.2","pilot_wm_v1","61592ea07347e286bca1955f","7","null","null","false","","","","","","","","null","<div style=""font-size:60px;"">+</div>","null","fixation","","","","","","","","","","","","","",""
"learning-instructions","58","307037","0.0-4.0-11.0-0.0","pilot_wm_v1","61592ea07347e286bca1955f","7","null","null","false","","","","","","","","1413","<p> Sometimes, you will come across a special kind of treasure chest that requires a password. </p>
            <img src='./assets/img/instructions/beep_chest.jpg' class='instructions-image'>","","instructions","","","","","","","","","","","","","",""
"learning-instructions","59","329477","0.0-4.0-11.0-0.1","pilot_wm_v1","61592ea07347e286bca1955f","7","null","null","false","","","","","","","","821","<p> Your friend will send you the password using a series of beeps so that you can open the chest and earn treasure. </p>
            <p> You will hear two kinds of beeps, a high beep and a low beep. </p>
            <p> You should report the number of high beeps that you heard before seeing the chest. </p>
            <img src='./assets/img/instructions/listen.jpg' class='instructions-image'>","","instructions","","","","","","","","","","","","","",""
"learning-instructions","60","352477","0.0-4.0-11.0-0.2","pilot_wm_v1","61592ea07347e286bca1955f","7","null","null","false","","","","","","","","714","<p> For example, if you hear this series of beeps, you should report 4 as the password using the slider. </p>
            <p> After reporting a password for a chest, you should count the high beeps again starting from 0. </p>
            <p> Let's try practicing that now. </p>","","instructions","","","","","","","","","","","","","",""
"audio-button-response","61","360495","0.0-4.0-12.0-0.0-0.0","pilot_wm_v1","61592ea07347e286bca1955f","7","null","null","false","","","","","","","","null","./assets/audio/beeps/practice_6.wav","null","","","","","","","","","","","","","","",""
"html-slider-response","62","363730","0.0-4.0-12.0-0.0-1.0","pilot_wm_v1","61592ea07347e286bca1955f","7","null","null","false","","","","","","","","3225","<div style=""width:500px;"">
        <p>What is the password?</p>
        <img src='./assets/img/instructions/beep_chest.jpg' class='instructions-image'>","6","beep chest","","","","false","","","","50","0","6","","","",""
"comp-q","63","369130","0.0-4.0-12.0-0.0-2.0","pilot_wm_v1","61592ea07347e286bca1955f","7","null","null","false","","","","","","","","1196","<p>Correct! There were 6 high pitched beeps before you saw the chest. </p>","0","beep answer","","","","","","","","","","","","","",""
"audio-button-response","64","377152","0.0-4.0-12.0-0.1-0.1","pilot_wm_v1","61592ea07347e286bca1955f","7","null","null","false","","","","","","","","null","./assets/audio/beeps/practice_4.wav","null","","","","","","","","","","","","","","",""
"html-slider-response","65","379758","0.0-4.0-12.0-0.1-1.1","pilot_wm_v1","61592ea07347e286bca1955f","7","null","null","false","","","","","","","","2598","<div style=""width:500px;"">
        <p>What is the password?</p>
        <img src='./assets/img/instructions/beep_chest.jpg' class='instructions-image'>","4","beep chest","","","","false","","","","50","0","4","","","",""
"comp-q","66","384850","0.0-4.0-12.0-0.1-2.1","pilot_wm_v1","61592ea07347e286bca1955f","7","null","null","false","","","","","","","","906.0000000000582","<p>Correct! There were 4 high pitched beeps before you saw the chest. </p>","0","beep answer","","","","","","","","","","","","","",""
"learning-instructions","67","396409","0.0-4.0-13.0-0.0","pilot_wm_v1","61592ea07347e286bca1955f","7","null","null","false","","","","","","","","1252","<p> Good job! In the real game we will not tell you if you entered the right password. </p>
            <p> Do your best, the treasure you earn from these chests will also give you extra bonus money. </p>","","instructions","","","","","","","","","","","","","",""
"learning-instructions","68","402303","0.0-4.0-15.0-0.0-0.0","pilot_wm_v1","61592ea07347e286bca1955f","7","null","null","false","","","","","","","","657","<p> Now, you will practice a shortened version of the game to get a sense of how it all fits together. </p>","","instructions","","","","","","","","","","","","","",""
"learning-instructions","69","406303","0.0-4.0-15.0-0.0-0.1","pilot_wm_v1","61592ea07347e286bca1955f","7","null","null","false","","","","","","","","815","<p>This time you are searching for treasure in outer space.</p>","","instructions","","","","","","","","","","","","","",""
"learning-instructions","70","421716","0.0-4.0-15.0-1.0-0.0","pilot_wm_v1","61592ea07347e286bca1955f","7","null","null","false","","","","","","","","665","<p> Remember, when you see a picture of the place, use the up and down keys to <b>find an animal</b>.</p>
            <p> When you encounter an animal, you should use the left and right keys to <b>select a treasure chest</b>.</p>
            <p> Don't forget to look out for the robber! </p>","","instructions","","","","","","","","","","","","","",""
"revaluation","71","427737","0.0-4.0-15.0-2.0-0.0","pilot_wm_v1","61592ea07347e286bca1955f","7","null","null","false","","false","","","","","","[1384,793.0000000000582]","./assets/img/space/11.jpg","[""ArrowUp"",""ArrowRight""]","practice block","space","36","{""ArrowUp,ArrowLeft"":3,""ArrowUp,ArrowRight"":36,""ArrowDown,ArrowLeft"":15,""ArrowDown,ArrowRight"":23}","true","ArrowUp,ArrowRight","false","","","","","","","",""
"html-keyboard-response","72","428240","0.0-4.0-15.0-2.0-1.0","pilot_wm_v1","61592ea07347e286bca1955f","7","null","null","false","","","","","","","","null","<div style=""font-size:60px;"">+</div>","null","fixation","","","","","","","","","","","","","",""
"revaluation","73","434264","0.0-4.0-15.0-2.0-0.1","pilot_wm_v1","61592ea07347e286bca1955f","7","null","null","false","","false","","","","","","[857,499]","./assets/img/space/12.jpg","[""ArrowUp"",""ArrowRight""]","practice block","space","36","{""ArrowUp,ArrowLeft"":3,""ArrowUp,ArrowRight"":36,""ArrowDown,ArrowLeft"":15,""ArrowDown,ArrowRight"":23}","true","ArrowUp,ArrowRight","false","","","","","","","",""
"html-keyboard-response","74","434766","0.0-4.0-15.0-2.0-1.1","pilot_wm_v1","61592ea07347e286bca1955f","7","null","null","false","","","","","","","","null","<div style=""font-size:60px;"">+</div>","null","fixation","","","","","","","","","","","","","",""
"revaluation","75","440789","0.0-4.0-15.0-2.0-0.2","pilot_wm_v1","61592ea07347e286bca1955f","7","null","null","false","","false","","","","","","[628,428]","./assets/img/space/13.jpg","[""ArrowUp"",""ArrowRight""]","practice block","space","36","{""ArrowUp,ArrowLeft"":3,""ArrowUp,ArrowRight"":36,""ArrowDown,ArrowLeft"":15,""ArrowDown,ArrowRight"":23}","true","ArrowUp,ArrowRight","false","","","","","","","",""
"html-keyboard-response","76","441290","0.0-4.0-15.0-2.0-1.2","pilot_wm_v1","61592ea07347e286bca1955f","7","null","null","false","","","","","","","","null","<div style=""font-size:60px;"">+</div>","null","fixation","","","","","","","","","","","","","",""
"revaluation","77","447312","0.0-4.0-15.0-2.0-0.3","pilot_wm_v1","61592ea07347e286bca1955f","7","null","null","false","","false","","","","","","[857,341]","./assets/img/space/14.jpg","[""ArrowUp"",""ArrowRight""]","practice block","space","36","{""ArrowUp,ArrowLeft"":3,""ArrowUp,ArrowRight"":36,""ArrowDown,ArrowLeft"":15,""ArrowDown,ArrowRight"":23}","true","ArrowUp,ArrowRight","false","","","","","","","",""
"html-keyboard-response","78","447813","0.0-4.0-15.0-2.0-1.3","pilot_wm_v1","61592ea07347e286bca1955f","7","null","null","false","","","","","","","","null","<div style=""font-size:60px;"">+</div>","null","fixation","","","","","","","","","","","","","",""
"revaluation","79","453835","0.0-4.0-15.0-2.0-0.4","pilot_wm_v1","61592ea07347e286bca1955f","7","null","null","false","","false","","","","","","[774,323]","./assets/img/space/11.jpg","[""ArrowUp"",""ArrowRight""]","practice block","space","36","{""ArrowUp,ArrowLeft"":3,""ArrowUp,ArrowRight"":36,""ArrowDown,ArrowLeft"":15,""ArrowDown,ArrowRight"":23}","true","ArrowUp,ArrowRight","false","","","","","","","",""
"html-keyboard-response","80","454337","0.0-4.0-15.0-2.0-1.4","pilot_wm_v1","61592ea07347e286bca1955f","7","null","null","false","","","","","","","","null","<div style=""font-size:60px;"">+</div>","null","fixation","","","","","","","","","","","","","",""
"revaluation","81","460357","0.0-4.0-15.0-2.0-0.5","pilot_wm_v1","61592ea07347e286bca1955f","7","null","null","false","","false","","","","","","[613,322.9999999999418]","./assets/img/space/12.jpg","[""ArrowUp"",""ArrowRight""]","practice block","space","36","{""ArrowUp,ArrowLeft"":3,""ArrowUp,ArrowRight"":36,""ArrowDown,ArrowLeft"":15,""ArrowDown,ArrowRight"":23}","true","ArrowUp,ArrowRight","false","","","","","","","",""
"html-keyboard-response","82","460858","0.0-4.0-15.0-2.0-1.5","pilot_wm_v1","61592ea07347e286bca1955f","7","null","null","false","","","","","","","","null","<div style=""font-size:60px;"">+</div>","null","fixation","","","","","","","","","","","","","",""
"revaluation","83","466879","0.0-4.0-15.0-2.0-0.6","pilot_wm_v1","61592ea07347e286bca1955f","7","null","null","false","","false","","","","","","[505,306]","./assets/img/space/13.jpg","[""ArrowUp"",""ArrowRight""]","practice block","space","36","{""ArrowUp,ArrowLeft"":3,""ArrowUp,ArrowRight"":36,""ArrowDown,ArrowLeft"":15,""ArrowDown,ArrowRight"":23}","true","ArrowUp,ArrowRight","false","","","","","","","",""
"html-keyboard-response","84","467380","0.0-4.0-15.0-2.0-1.6","pilot_wm_v1","61592ea07347e286bca1955f","7","null","null","false","","","","","","","","null","<div style=""font-size:60px;"">+</div>","null","fixation","","","","","","","","","","","","","",""
"revaluation","85","473403","0.0-4.0-15.0-2.0-0.7","pilot_wm_v1","61592ea07347e286bca1955f","7","null","null","false","","false","","","","","","[527.0000000000582,283]","./assets/img/space/14.jpg","[""ArrowUp"",""ArrowRight""]","practice block","space","36","{""ArrowUp,ArrowLeft"":3,""ArrowUp,ArrowRight"":36,""ArrowDown,ArrowLeft"":15,""ArrowDown,ArrowRight"":23}","true","ArrowUp,ArrowRight","false","","","","","","","",""
"html-keyboard-response","86","473905","0.0-4.0-15.0-2.0-1.7","pilot_wm_v1","61592ea07347e286bca1955f","7","null","null","false","","","","","","","","null","<div style=""font-size:60px;"">+</div>","null","fixation","","","","","","","","","","","","","",""
"revaluation","87","477926","0.0-4.0-15.0-2.0-0.8","pilot_wm_v1","61592ea07347e286bca1955f","7","null","null","false","","false","","","","","","[666]","./assets/img/space/catch/3.jpg","[""spaceBar""]","practice block","space","0","{""ArrowUp,ArrowLeft"":3,""ArrowUp,ArrowRight"":36,""ArrowDown,ArrowLeft"":15,""ArrowDown,ArrowRight"":23}","true","spaceBar","true","","","","","","","",""
"html-keyboard-response","88","478427","0.0-4.0-15.0-2.0-1.8","pilot_wm_v1","61592ea07347e286bca1955f","7","null","null","false","","","","","","","","null","<div style=""font-size:60px;"">+</div>","null","fixation","","","","","","","","","","","","","",""
"learning-instructions","89","492743","0.0-4.0-15.0-3.0-0.0","pilot_wm_v1","61592ea07347e286bca1955f","7","null","null","false","","","","","","","","1414.0000000000582","<p> Now, you will travel with a friend who will choose whether you go up or down first. </p>
            <p> On these turns, you will just see the animal that they found. You will still get to choose which chest to search for treasure.</p>","","instructions","","","","","","","","","","","","","",""
"learning-instructions","90","505436","0.0-4.0-15.0-3.0-0.1","pilot_wm_v1","61592ea07347e286bca1955f","7","null","null","false","","","","","","","","1065.0000000000582","<p> In this part, you will also hear beeps from your friend and see special treasure chests that need a password. </p>
            <p> Do your best to count the high beeps <b>and</b> choose between each animals' chests at the same time.</p>
            <img src='./assets/img/instructions/beep_chest.jpg' class='instructions-image'>","","instructions","","","","","","","","","","","","","",""
"revaluation","91","509457","0.0-4.0-15.0-4.0-0.0","pilot_wm_v1","61592ea07347e286bca1955f","7","null","null","false","","false","","","","","","[974.0000000000582]","./assets/img/space/animals/cat.jpg","[""ArrowRight""]","practice block","space","36","{""ArrowUp,ArrowLeft"":3,""ArrowUp,ArrowRight"":36,""ArrowDown,ArrowLeft"":15,""ArrowDown,ArrowRight"":23}","true","ArrowUp,ArrowRight","","[""19_0""]","","","","0","","",""
"html-keyboard-response","92","509960","0.0-4.0-15.0-4.0-1.0","pilot_wm_v1","61592ea07347e286bca1955f","7","null","null","false","","","","","","","","null","<div style=""font-size:60px;"">+</div>","null","fixation","","","","","","","","","","","","","",""
"revaluation","93","513985","0.0-4.0-15.0-4.0-0.1","pilot_wm_v1","61592ea07347e286bca1955f","7","null","null","false","","false","","","","","","[986.9999999999418]","./assets/img/space/animals/cat.jpg","[""ArrowRight""]","practice block","space","36","{""ArrowUp,ArrowLeft"":3,""ArrowUp,ArrowRight"":36,""ArrowDown,ArrowLeft"":15,""ArrowDown,ArrowRight"":23}","true","ArrowUp,ArrowRight","","[""20_0""]","","","","1","","",""
"html-keyboard-response","94","514487","0.0-4.0-15.0-4.0-1.1","pilot_wm_v1","61592ea07347e286bca1955f","7","null","null","false","","","","","","","","null","<div style=""font-size:60px;"">+</div>","null","fixation","","","","","","","","","","","","","",""
"revaluation","95","518508","0.0-4.0-15.0-4.0-0.2","pilot_wm_v1","61592ea07347e286bca1955f","7","null","null","false","","false","","","","","","[626]","./assets/img/space/animals/rabbit.jpg","[""ArrowLeft""]","practice block","space","15","{""ArrowUp,ArrowLeft"":3,""ArrowUp,ArrowRight"":36,""ArrowDown,ArrowLeft"":15,""ArrowDown,ArrowRight"":23}","false","ArrowDown,ArrowLeft","","[""21_1""]","","","","2","","",""
"html-keyboard-response","96","519010","0.0-4.0-15.0-4.0-1.2","pilot_wm_v1","61592ea07347e286bca1955f","7","null","null","false","","","","","","","","null","<div style=""font-size:60px;"">+</div>","null","fixation","","","","","","","","","","","","","",""
"revaluation","97","523031","0.0-4.0-15.0-4.0-0.3","pilot_wm_v1","61592ea07347e286bca1955f","7","null","null","false","","false","","","","","","[560.0000000000582]","./assets/img/space/animals/rabbit.jpg","[""ArrowRight""]","practice block","space","23","{""ArrowUp,ArrowLeft"":3,""ArrowUp,ArrowRight"":36,""ArrowDown,ArrowLeft"":15,""ArrowDown,ArrowRight"":23}","true","ArrowDown,ArrowRight","","[""22_3""]","","","","3","","",""
"html-keyboard-response","98","523534","0.0-4.0-15.0-4.0-1.3","pilot_wm_v1","61592ea07347e286bca1955f","7","null","null","false","","","","","","","","null","<div style=""font-size:60px;"">+</div>","null","fixation","","","","","","","","","","","","","",""
"html-slider-response","99","527370","0.0-4.0-15.0-4.0-2.3-0.3","pilot_wm_v1","61592ea07347e286bca1955f","7","null","null","false","","","","","","","","3833","<div style=""width:500px;"">
        <p>What is the password?</p>
        <img src='./assets/img/instructions/beep_chest.jpg' class='instructions-image'>","2","beep chest","","","","false","","","","50","82","80","","","",""
"learning-instructions","100","535486","0.0-4.0-15.0-6.0-0.0","pilot_wm_v1","61592ea07347e286bca1955f","7","null","null","false","","","","","","","","null","<p> You have almost finished this part of the game! </p>
            <p> We are going to ask you to make a few more choices. </p>","","instructions","","","","","","","","","","","","","",""
"learning-instructions","101","551478","0.0-4.0-15.0-6.0-0.1","pilot_wm_v1","61592ea07347e286bca1955f","7","null","null","false","","","","","","","","null","<p> First, you need to decide whether to go up or down. When you see each picture, use the arrow keys to make your choice. </p>
            <p><b>You will not see which animal you found, but try to get to the one that will give you the most treasure.</b></p>","","instructions","","","","","","","","","","","","","",""
"html-keyboard-response","102","552480","0.0-4.0-15.0-7.0-0.0","pilot_wm_v1","61592ea07347e286bca1955f","7","null","null","false","","","","","","","","null","<div style=""font-size:100px;color:red;"">Starting in...</div>","null","","","","","","","","","","","","","","",""
"html-keyboard-response","103","553481","0.0-4.0-15.0-7.0-1.0","pilot_wm_v1","61592ea07347e286bca1955f","7","null","null","false","","","","","","","","null","<div style=""font-size:200px;color:red;"">3</div>","null","","","","","","","","","","","","","","",""
"html-keyboard-response","104","554482","0.0-4.0-15.0-7.0-2.0","pilot_wm_v1","61592ea07347e286bca1955f","7","null","null","false","","","","","","","","null","<div style=""font-size:200px;color:red;"">2</div>","null","","","","","","","","","","","","","","",""
"html-keyboard-response","105","555483","0.0-4.0-15.0-7.0-3.0","pilot_wm_v1","61592ea07347e286bca1955f","7","null","null","false","","","","","","","","null","<div style=""font-size:200px;color:red;"">1</div>","null","","","","","","","","","","","","","","",""
"revaluation","106","555995","0.0-4.0-15.0-8.0","pilot_wm_v1","61592ea07347e286bca1955f","7","null","null","false","","false","","","","","","[494]","./assets/img/space/15.jpg","[""ArrowUp""]","practice block","space","0","{""ArrowUp,ArrowLeft"":3,""ArrowUp,ArrowRight"":36,""ArrowDown,ArrowLeft"":15,""ArrowDown,ArrowRight"":23}","true","ArrowUp","false","","","","","","","",""
"html-keyboard-response","107","556496","0.0-4.0-15.0-9.0","pilot_wm_v1","61592ea07347e286bca1955f","7","null","null","false","","","","","","","","null","<div style=""font-size:60px;"">+</div>","null","fixation","","","","","","","","","","","","","",""
"learning-instructions","108","569849","0.0-4.0-15.0-10.0-0.0","pilot_wm_v1","61592ea07347e286bca1955f","7","null","null","false","","","","","","","","null","<p> Now you will see the animals again and can search their chests for treasure. </p>
            <p> This time, you will not see how much treasure you earned, but you will earn more bonus money for making better choices. </p>","","instructions","","","","","","","","","","","","","",""
"html-keyboard-response","109","570851","0.0-4.0-15.0-11.0-0.0","pilot_wm_v1","61592ea07347e286bca1955f","7","null","null","false","","","","","","","","null","<div style=""font-size:100px;color:red;"">Starting in...</div>","null","","","","","","","","","","","","","","",""
"html-keyboard-response","110","571854","0.0-4.0-15.0-11.0-1.0","pilot_wm_v1","61592ea07347e286bca1955f","7","null","null","false","","","","","","","","null","<div style=""font-size:200px;color:red;"">3</div>","null","","","","","","","","","","","","","","",""
"html-keyboard-response","111","572855","0.0-4.0-15.0-11.0-2.0","pilot_wm_v1","61592ea07347e286bca1955f","7","null","null","false","","","","","","","","null","<div style=""font-size:200px;color:red;"">2</div>","null","","","","","","","","","","","","","","",""
"html-keyboard-response","112","573856","0.0-4.0-15.0-11.0-3.0","pilot_wm_v1","61592ea07347e286bca1955f","7","null","null","false","","","","","","","","null","<div style=""font-size:200px;color:red;"">1</div>","null","","","","","","","","","","","","","","",""
"revaluation","113","574111","0.0-4.0-15.0-12.0-0.0","pilot_wm_v1","61592ea07347e286bca1955f","7","null","null","false","","false","","","","","","[238]","./assets/img/space/animals/cat.jpg","[""ArrowRight""]","practice block","space","0","{""ArrowUp,ArrowLeft"":3,""ArrowUp,ArrowRight"":36,""ArrowDown,ArrowLeft"":15,""ArrowDown,ArrowRight"":23}","true","ArrowUp,ArrowRight","","","","","","","","",""
"html-keyboard-response","114","574613","0.0-4.0-15.0-12.0-1.0","pilot_wm_v1","61592ea07347e286bca1955f","7","null","null","false","","","","","","","","null","<div style=""font-size:60px;"">+</div>","null","fixation","","","","","","","","","","","","","",""
"revaluation","115","575144","0.0-4.0-15.0-12.0-0.1","pilot_wm_v1","61592ea07347e286bca1955f","7","null","null","false","","false","","","","","","[512]","./assets/img/space/animals/rabbit.jpg","[""ArrowRight""]","practice block","space","0","{""ArrowUp,ArrowLeft"":3,""ArrowUp,ArrowRight"":36,""ArrowDown,ArrowLeft"":15,""ArrowDown,ArrowRight"":23}","true","ArrowDown,ArrowRight","","","","","","","","",""
"html-keyboard-response","116","575646","0.0-4.0-15.0-12.0-1.1","pilot_wm_v1","61592ea07347e286bca1955f","7","null","null","false","","","","","","","","null","<div style=""font-size:60px;"">+</div>","null","fixation","","","","","","","","","","","","","",""
"learning-instructions","117","581488","0.0-4.0-16.0-0.0","pilot_wm_v1","61592ea07347e286bca1955f","7","null","null","false","","","","","","","","1266","<p> Before you start, we're going to ask you a few questions about how the game works. </p>","","instructions","","","","","","","","","","","","","",""
"comp-q","118","588049","0.0-4.0-17.0-0.0-0.0","pilot_wm_v1","61592ea07347e286bca1955f","7","null","null","false","","","","","","","","983","<p> <b> True or False? </b> </p>
            <p> There can be 50 pieces of treasure in a given animal's chest. </p>","1","comp_question","","","","true","","","","","","","","","",""
"comp-q","119","596315","0.0-4.0-17.0-0.0-1.0","pilot_wm_v1","61592ea07347e286bca1955f","7","null","null","false","","","","","","","","1615","<p> <b> That's right! </b> The amount of treasure in each chest can range from 0 to 40 pieces. </p>","0","comp_answer","","","","","","","","","","","","","",""
"comp-q","120","605768","0.0-4.0-17.0-0.1-0.1","pilot_wm_v1","61592ea07347e286bca1955f","7","null","null","false","","","","","","","","2348","<p> <b> True or False? </b> </p><p> In this game, all animals have the same amount of treasure in their left and right chests. </p>","1","comp_question","","","","true","","","","","","","","","",""
"comp-q","121","611782","0.0-4.0-17.0-0.1-1.1","pilot_wm_v1","61592ea07347e286bca1955f","7","null","null","false","","","","","","","","788","<p> <b> That's right! </b> Animals have different amounts of treasure in their treasure chests. </p>","0","comp_answer","","","","","","","","","","","","","",""
"comp-q","122","618982","0.0-4.0-17.0-0.2-0.2","pilot_wm_v1","61592ea07347e286bca1955f","7","null","null","false","","","","","","","","1359","<p> <b> True or False? </b> </p><p> The same animal will always be there if you go up in the same place. </p>","0","comp_question","","","","true","","","","","","","","","",""
"comp-q","123","626421","0.0-4.0-17.0-0.2-1.2","pilot_wm_v1","61592ea07347e286bca1955f","7","null","null","false","","","","","","","","1001","<p> <b> That's right! </b> One animal lives in the upper part and one lives in the lower part of every place. </p>","0","comp_answer","","","","","","","","","","","","","",""
"comp-q","124","632688","0.0-4.0-17.0-0.3-0.3","pilot_wm_v1","61592ea07347e286bca1955f","7","null","null","false","","","","","","","","750","<p> <b> True or False? </b> </p><p> If you see a different picture, it means you are in a new place. </p>","1","comp_question","","","","true","","","","","","","","","",""
"comp-q","125","645955","0.0-4.0-17.0-0.3-1.3","pilot_wm_v1","61592ea07347e286bca1955f","7","null","null","false","","","","","","","","2054","<p> <b> That's right! </b> Lots of different images may show the same place. For example,  you may see three different images that all remind you that you are in outer space. </p>","0","comp_answer","","","","","","","","","","","","","",""
"learning-instructions","126","657209","0.0-4.0-18.0-0.0","pilot_wm_v1","61592ea07347e286bca1955f","7","null","null","false","","","","","","","","1417","<p> Good job. Remember to do your best because the amount of treasure you earn will be converted into bonus money. </p>
            <p> It’s time to start the real game! </p>","","instructions","","","","","","","","","","","","","",""
"learning-instructions","127","662200","0.0-5.0-0.0-0.0","pilot_wm_v1","61592ea07347e286bca1955f","7","null","null","false","","","","","","","","2226","<p> This time you are searching for treasure in the <b>canyon</b>.</p>","","instructions","","","","","","","","","","","","","",""
"learning-instructions","128","680168","0.0-5.0-0.0-0.1","pilot_wm_v1","61592ea07347e286bca1955f","7","null","null","false","","","","","","","","691","<p><b>New</b> animals with <b>new</b> treasure chests live here. You need to explore to discover where the animal with the best treasure chest is.</p>
                    <p> Like before, once you figure out which animal has the chest with the most treasure, you should try to get to that animal and select that chest! </p>","","instructions","","","","","","","","","","","","","",""
"learning-instructions","129","695581","0.0-5.0-1.0-0.0","pilot_wm_v1","61592ea07347e286bca1955f","7","null","null","false","","","","","","","","682","<p> Remember, when you see a picture of the place, use the up and down keys to <b>find an animal</b>.</p>
            <p> When you encounter an animal, you should use the left and right keys to <b>select a treasure chest</b>.</p>
            <p> Don't forget to look out for the robber! </p>","","instructions","","","","","","","","","","","","","",""
"revaluation","130","701605","0.0-5.0-2.0-0.0","pilot_wm_v1","61592ea07347e286bca1955f","7","null","null","false","","false","","","","","","[1247,713]","./assets/img/canyon/memory/39.jpg","[""ArrowUp"",""ArrowRight""]","value training","canyon","10","{""ArrowUp,ArrowLeft"":23,""ArrowUp,ArrowRight"":10,""ArrowDown,ArrowLeft"":8,""ArrowDown,ArrowRight"":30}","false","ArrowUp,ArrowRight","false","","","","","0","original","1",""
"html-keyboard-response","131","702107","0.0-5.0-2.0-1.0","pilot_wm_v1","61592ea07347e286bca1955f","7","null","null","false","","","","","","","","null","<div style=""font-size:60px;"">+</div>","null","fixation","","","","","","","","","","","1","","",""
"revaluation","132","708132","0.0-5.0-2.0-0.1","pilot_wm_v1","61592ea07347e286bca1955f","7","null","null","false","","false","","","","","","[860,436]","./assets/img/canyon/memory/22.jpg","[""ArrowDown"",""ArrowRight""]","value training","canyon","30","{""ArrowUp,ArrowLeft"":23,""ArrowUp,ArrowRight"":10,""ArrowDown,ArrowLeft"":8,""ArrowDown,ArrowRight"":30}","true","ArrowDown,ArrowRight","false","","","","","2","original","1",""
"html-keyboard-response","133","708634","0.0-5.0-2.0-1.1","pilot_wm_v1","61592ea07347e286bca1955f","7","null","null","false","","","","","","","","null","<div style=""font-size:60px;"">+</div>","null","fixation","","","","","","","","","","","3","","",""
"revaluation","134","714656","0.0-5.0-2.0-0.2","pilot_wm_v1","61592ea07347e286bca1955f","7","null","null","false","","false","","","","","","[703,301]","./assets/img/canyon/memory/28.jpg","[""ArrowUp"",""ArrowLeft""]","value training","canyon","23","{""ArrowUp,ArrowLeft"":23,""ArrowUp,ArrowRight"":10,""ArrowDown,ArrowLeft"":8,""ArrowDown,ArrowRight"":30}","false","ArrowUp,ArrowLeft","false","","","","","4","original","1",""
"html-keyboard-response","135","715158","0.0-5.0-2.0-1.2","pilot_wm_v1","61592ea07347e286bca1955f","7","null","null","false","","","","","","","","null","<div style=""font-size:60px;"">+</div>","null","fixation","","","","","","","","","","","5","","",""
"revaluation","136","721183","0.0-5.0-2.0-0.3","pilot_wm_v1","61592ea07347e286bca1955f","7","null","null","false","","false","","","","","","[590,300.0000000001164]","./assets/img/canyon/memory/39.jpg","[""ArrowDown"",""ArrowRight""]","value training","canyon","30","{""ArrowUp,ArrowLeft"":23,""ArrowUp,ArrowRight"":10,""ArrowDown,ArrowLeft"":8,""ArrowDown,ArrowRight"":30}","true","ArrowDown,ArrowRight","false","","","","","6","original","1",""
"html-keyboard-response","137","721684","0.0-5.0-2.0-1.3","pilot_wm_v1","61592ea07347e286bca1955f","7","null","null","false","","","","","","","","null","<div style=""font-size:60px;"">+</div>","null","fixation","","","","","","","","","","","7","","",""
"revaluation","138","727705","0.0-5.0-2.0-0.4","pilot_wm_v1","61592ea07347e286bca1955f","7","null","null","false","","false","","","","","","[501.9999999998836,302.0000000001164]","./assets/img/canyon/memory/38.jpg","[""ArrowUp"",""ArrowLeft""]","value training","canyon","23","{""ArrowUp,ArrowLeft"":23,""ArrowUp,ArrowRight"":10,""ArrowDown,ArrowLeft"":8,""ArrowDown,ArrowRight"":30}","false","ArrowUp,ArrowLeft","false","","","","","8","original","1",""
"html-keyboard-response","139","728207","0.0-5.0-2.0-1.4","pilot_wm_v1","61592ea07347e286bca1955f","7","null","null","false","","","","","","","","null","<div style=""font-size:60px;"">+</div>","null","fixation","","","","","","","","","","","9","","",""
"revaluation","140","734229","0.0-5.0-2.0-0.5","pilot_wm_v1","61592ea07347e286bca1955f","7","null","null","false","","false","","","","","","[552,863]","./assets/img/canyon/memory/36.jpg","[""ArrowDown"",""ArrowRight""]","value training","canyon","30","{""ArrowUp,ArrowLeft"":23,""ArrowUp,ArrowRight"":10,""ArrowDown,ArrowLeft"":8,""ArrowDown,ArrowRight"":30}","true","ArrowDown,ArrowRight","false","","","","","10","original","1",""
"html-keyboard-response","141","734731","0.0-5.0-2.0-1.5","pilot_wm_v1","61592ea07347e286bca1955f","7","null","null","false","","","","","","","","null","<div style=""font-size:60px;"">+</div>","null","fixation","","","","","","","","","","","11","","",""
"revaluation","142","740752","0.0-5.0-2.0-0.6","pilot_wm_v1","61592ea07347e286bca1955f","7","null","null","false","","false","","","","","","[1138,371]","./assets/img/canyon/memory/4.jpg","[""ArrowDown"",""ArrowRight""]","value training","canyon","30","{""ArrowUp,ArrowLeft"":23,""ArrowUp,ArrowRight"":10,""ArrowDown,ArrowLeft"":8,""ArrowDown,ArrowRight"":30}","true","ArrowDown,ArrowRight","false","","","","","12","original","1",""
"html-keyboard-response","143","741255","0.0-5.0-2.0-1.6","pilot_wm_v1","61592ea07347e286bca1955f","7","null","null","false","","","","","","","","null","<div style=""font-size:60px;"">+</div>","null","fixation","","","","","","","","","","","13","","",""
"revaluation","144","747279","0.0-5.0-2.0-0.7","pilot_wm_v1","61592ea07347e286bca1955f","7","null","null","false","","false","","","","","","[345,101]","./assets/img/canyon/memory/35.jpg","[""ArrowDown"",""ArrowRight""]","value training","canyon","30","{""ArrowUp,ArrowLeft"":23,""ArrowUp,ArrowRight"":10,""ArrowDown,ArrowLeft"":8,""ArrowDown,ArrowRight"":30}","true","ArrowDown,ArrowRight","false","","","","","14","original","1",""
"html-keyboard-response","145","747780","0.0-5.0-2.0-1.7","pilot_wm_v1","61592ea07347e286bca1955f","7","null","null","false","","","","","","","","null","<div style=""font-size:60px;"">+</div>","null","fixation","","","","","","","","","","","15","","",""
"revaluation","146","753805","0.0-5.0-2.0-0.8","pilot_wm_v1","61592ea07347e286bca1955f","7","null","null","false","","false","","","","","","[412,323]","./assets/img/canyon/memory/37.jpg","[""ArrowDown"",""ArrowRight""]","value training","canyon","30","{""ArrowUp,ArrowLeft"":23,""ArrowUp,ArrowRight"":10,""ArrowDown,ArrowLeft"":8,""ArrowDown,ArrowRight"":30}","true","ArrowDown,ArrowRight","false","","","","","16","original","1",""
"html-keyboard-response","147","754306","0.0-5.0-2.0-1.8","pilot_wm_v1","61592ea07347e286bca1955f","7","null","null","false","","","","","","","","null","<div style=""font-size:60px;"">+</div>","null","fixation","","","","","","","","","","","17","","",""
"revaluation","148","760328","0.0-5.0-2.0-0.9","pilot_wm_v1","61592ea07347e286bca1955f","7","null","null","false","","false","","","","","","[708,307]","./assets/img/canyon/memory/25.jpg","[""ArrowDown"",""ArrowRight""]","value training","canyon","30","{""ArrowUp,ArrowLeft"":23,""ArrowUp,ArrowRight"":10,""ArrowDown,ArrowLeft"":8,""ArrowDown,ArrowRight"":30}","true","ArrowDown,ArrowRight","false","","","","","18","original","1",""
"html-keyboard-response","149","760830","0.0-5.0-2.0-1.9","pilot_wm_v1","61592ea07347e286bca1955f","7","null","null","false","","","","","","","","null","<div style=""font-size:60px;"">+</div>","null","fixation","","","","","","","","","","","19","","",""
"revaluation","150","766850","0.0-5.0-2.0-0.10","pilot_wm_v1","61592ea07347e286bca1955f","7","null","null","false","","false","","","","","","[281,306]","./assets/img/canyon/memory/28.jpg","[""ArrowDown"",""ArrowRight""]","value training","canyon","30","{""ArrowUp,ArrowLeft"":23,""ArrowUp,ArrowRight"":10,""ArrowDown,ArrowLeft"":8,""ArrowDown,ArrowRight"":30}","true","ArrowDown,ArrowRight","false","","","","","20","original","1",""
"html-keyboard-response","151","767352","0.0-5.0-2.0-1.10","pilot_wm_v1","61592ea07347e286bca1955f","7","null","null","false","","","","","","","","null","<div style=""font-size:60px;"">+</div>","null","fixation","","","","","","","","","","","21","","",""
"revaluation","152","773376","0.0-5.0-2.0-0.11","pilot_wm_v1","61592ea07347e286bca1955f","7","null","null","false","","false","","","","","","[394.0000000001164,330.0000000001164]","./assets/img/canyon/memory/32.jpg","[""ArrowDown"",""ArrowRight""]","value training","canyon","30","{""ArrowUp,ArrowLeft"":23,""ArrowUp,ArrowRight"":10,""ArrowDown,ArrowLeft"":8,""ArrowDown,ArrowRight"":30}","true","ArrowDown,ArrowRight","false","","","","","22","original","1",""
"html-keyboard-response","153","773877","0.0-5.0-2.0-1.11","pilot_wm_v1","61592ea07347e286bca1955f","7","null","null","false","","","","","","","","null","<div style=""font-size:60px;"">+</div>","null","fixation","","","","","","","","","","","23","","",""
"revaluation","154","779898","0.0-5.0-2.0-0.12","pilot_wm_v1","61592ea07347e286bca1955f","7","null","null","false","","false","","","","","","[288,538]","./assets/img/canyon/memory/21.jpg","[""ArrowDown"",""ArrowRight""]","value training","canyon","30","{""ArrowUp,ArrowLeft"":23,""ArrowUp,ArrowRight"":10,""ArrowDown,ArrowLeft"":8,""ArrowDown,ArrowRight"":30}","true","ArrowDown,ArrowRight","false","","","","","24","original","1",""
"html-keyboard-response","155","780400","0.0-5.0-2.0-1.12","pilot_wm_v1","61592ea07347e286bca1955f","7","null","null","false","","","","","","","","null","<div style=""font-size:60px;"">+</div>","null","fixation","","","","","","","","","","","25","","",""
"revaluation","156","786422","0.0-5.0-2.0-0.13","pilot_wm_v1","61592ea07347e286bca1955f","7","null","null","false","","false","","","","","","[510.0000000001164,357]","./assets/img/canyon/memory/40.jpg","[""ArrowDown"",""ArrowRight""]","value training","canyon","30","{""ArrowUp,ArrowLeft"":23,""ArrowUp,ArrowRight"":10,""ArrowDown,ArrowLeft"":8,""ArrowDown,ArrowRight"":30}","true","ArrowDown,ArrowRight","false","","","","","26","original","1",""
"html-keyboard-response","157","786924","0.0-5.0-2.0-1.13","pilot_wm_v1","61592ea07347e286bca1955f","7","null","null","false","","","","","","","","null","<div style=""font-size:60px;"">+</div>","null","fixation","","","","","","","","","","","27","","",""
"revaluation","158","792945","0.0-5.0-2.0-0.14","pilot_wm_v1","61592ea07347e286bca1955f","7","null","null","false","","false","","","","","","[444,671]","./assets/img/canyon/memory/3.jpg","[""ArrowDown"",""ArrowRight""]","value training","canyon","30","{""ArrowUp,ArrowLeft"":23,""ArrowUp,ArrowRight"":10,""ArrowDown,ArrowLeft"":8,""ArrowDown,ArrowRight"":30}","true","ArrowDown,ArrowRight","false","","","","","28","original","1",""
"html-keyboard-response","159","793447","0.0-5.0-2.0-1.14","pilot_wm_v1","61592ea07347e286bca1955f","7","null","null","false","","","","","","","","null","<div style=""font-size:60px;"">+</div>","null","fixation","","","","","","","","","","","29","","",""
"revaluation","160","799458","0.0-5.0-2.0-0.15","pilot_wm_v1","61592ea07347e286bca1955f","7","null","null","false","","false","","","","","","[502,278]","./assets/img/canyon/memory/16.jpg","[""ArrowDown"",""ArrowRight""]","value training","canyon","30","{""ArrowUp,ArrowLeft"":23,""ArrowUp,ArrowRight"":10,""ArrowDown,ArrowLeft"":8,""ArrowDown,ArrowRight"":30}","true","ArrowDown,ArrowRight","false","","","","","30","original","1",""
"html-keyboard-response","161","799960","0.0-5.0-2.0-1.15","pilot_wm_v1","61592ea07347e286bca1955f","7","null","null","false","","","","","","","","null","<div style=""font-size:60px;"">+</div>","null","fixation","","","","","","","","","","","31","","",""
"revaluation","162","803983","0.0-5.0-2.0-0.16","pilot_wm_v1","61592ea07347e286bca1955f","7","null","null","false","","false","","","","","","[704]","./assets/img/canyon/catch/1.jpg","[""spaceBar""]","value training","canyon","0","{""ArrowUp,ArrowLeft"":23,""ArrowUp,ArrowRight"":10,""ArrowDown,ArrowLeft"":8,""ArrowDown,ArrowRight"":30}","true","spaceBar","true","","","","","32","original","1",""
"html-keyboard-response","163","804484","0.0-5.0-2.0-1.16","pilot_wm_v1","61592ea07347e286bca1955f","7","null","null","false","","","","","","","","null","<div style=""font-size:60px;"">+</div>","null","fixation","","","","","","","","","","","33","","",""
"revaluation","164","810505","0.0-5.0-2.0-0.17","pilot_wm_v1","61592ea07347e286bca1955f","7","null","null","false","","false","","","","","","[664,548]","./assets/img/canyon/memory/20.jpg","[""ArrowDown"",""ArrowRight""]","value training","canyon","30","{""ArrowUp,ArrowLeft"":23,""ArrowUp,ArrowRight"":10,""ArrowDown,ArrowLeft"":8,""ArrowDown,ArrowRight"":30}","true","ArrowDown,ArrowRight","false","","","","","34","original","1",""
"html-keyboard-response","165","811007","0.0-5.0-2.0-1.17","pilot_wm_v1","61592ea07347e286bca1955f","7","null","null","false","","","","","","","","null","<div style=""font-size:60px;"">+</div>","null","fixation","","","","","","","","","","","35","","",""
"revaluation","166","815029","0.0-5.0-2.0-0.18","pilot_wm_v1","61592ea07347e286bca1955f","7","null","null","false","","false","","","","","","[592]","./assets/img/canyon/catch/7.jpg","[""spaceBar""]","value training","canyon","0","{""ArrowUp,ArrowLeft"":23,""ArrowUp,ArrowRight"":10,""ArrowDown,ArrowLeft"":8,""ArrowDown,ArrowRight"":30}","true","spaceBar","true","","","","","36","original","1",""
"html-keyboard-response","167","815531","0.0-5.0-2.0-1.18","pilot_wm_v1","61592ea07347e286bca1955f","7","null","null","false","","","","","","","","null","<div style=""font-size:60px;"">+</div>","null","fixation","","","","","","","","","","","37","","",""
"revaluation","168","821551","0.0-5.0-2.0-0.19","pilot_wm_v1","61592ea07347e286bca1955f","7","null","null","false","","false","","","","","","[708,372]","./assets/img/canyon/memory/15.jpg","[""ArrowDown"",""ArrowRight""]","value training","canyon","30","{""ArrowUp,ArrowLeft"":23,""ArrowUp,ArrowRight"":10,""ArrowDown,ArrowLeft"":8,""ArrowDown,ArrowRight"":30}","true","ArrowDown,ArrowRight","false","","","","","38","original","1",""
"html-keyboard-response","169","822053","0.0-5.0-2.0-1.19","pilot_wm_v1","61592ea07347e286bca1955f","7","null","null","false","","","","","","","","null","<div style=""font-size:60px;"">+</div>","null","fixation","","","","","","","","","","","39","","",""
"revaluation","170","828077","0.0-5.0-2.0-0.20","pilot_wm_v1","61592ea07347e286bca1955f","7","null","null","false","","false","","","","","","[663,370]","./assets/img/canyon/memory/20.jpg","[""ArrowDown"",""ArrowRight""]","value training","canyon","30","{""ArrowUp,ArrowLeft"":23,""ArrowUp,ArrowRight"":10,""ArrowDown,ArrowLeft"":8,""ArrowDown,ArrowRight"":30}","true","ArrowDown,ArrowRight","false","","","","","40","original","1",""
"html-keyboard-response","171","828578","0.0-5.0-2.0-1.20","pilot_wm_v1","61592ea07347e286bca1955f","7","null","null","false","","","","","","","","null","<div style=""font-size:60px;"">+</div>","null","fixation","","","","","","","","","","","41","","",""
"revaluation","172","834601","0.0-5.0-2.0-0.21","pilot_wm_v1","61592ea07347e286bca1955f","7","null","null","false","","false","","","","","","[686,438]","./assets/img/canyon/memory/18.jpg","[""ArrowDown"",""ArrowRight""]","value training","canyon","30","{""ArrowUp,ArrowLeft"":23,""ArrowUp,ArrowRight"":10,""ArrowDown,ArrowLeft"":8,""ArrowDown,ArrowRight"":30}","true","ArrowDown,ArrowRight","false","","","","","42","original","1",""
"html-keyboard-response","173","835102","0.0-5.0-2.0-1.21","pilot_wm_v1","61592ea07347e286bca1955f","7","null","null","false","","","","","","","","null","<div style=""font-size:60px;"">+</div>","null","fixation","","","","","","","","","","","43","","",""
"revaluation","174","841125","0.0-5.0-2.0-0.22","pilot_wm_v1","61592ea07347e286bca1955f","7","null","null","false","","false","","","","","","[597,350]","./assets/img/canyon/memory/15.jpg","[""ArrowDown"",""ArrowRight""]","value training","canyon","30","{""ArrowUp,ArrowLeft"":23,""ArrowUp,ArrowRight"":10,""ArrowDown,ArrowLeft"":8,""ArrowDown,ArrowRight"":30}","true","ArrowDown,ArrowRight","false","","","","","44","original","1",""
"html-keyboard-response","175","841626","0.0-5.0-2.0-1.22","pilot_wm_v1","61592ea07347e286bca1955f","7","null","null","false","","","","","","","","null","<div style=""font-size:60px;"">+</div>","null","fixation","","","","","","","","","","","45","","",""
"revaluation","176","845647","0.0-5.0-2.0-0.23","pilot_wm_v1","61592ea07347e286bca1955f","7","null","null","false","","false","","","","","","[529]","./assets/img/canyon/catch/6.jpg","[""spaceBar""]","value training","canyon","0","{""ArrowUp,ArrowLeft"":23,""ArrowUp,ArrowRight"":10,""ArrowDown,ArrowLeft"":8,""ArrowDown,ArrowRight"":30}","true","spaceBar","true","","","","","46","original","1",""
"html-keyboard-response","177","846148","0.0-5.0-2.0-1.23","pilot_wm_v1","61592ea07347e286bca1955f","7","null","null","false","","","","","","","","null","<div style=""font-size:60px;"">+</div>","null","fixation","","","","","","","","","","","47","","",""
"revaluation","178","852171","0.0-5.0-2.0-0.24","pilot_wm_v1","61592ea07347e286bca1955f","7","null","null","false","","false","","","","","","[396,356]","./assets/img/canyon/memory/3.jpg","[""ArrowDown"",""ArrowRight""]","value training","canyon","30","{""ArrowUp,ArrowLeft"":23,""ArrowUp,ArrowRight"":10,""ArrowDown,ArrowLeft"":8,""ArrowDown,ArrowRight"":30}","true","ArrowDown,ArrowRight","false","","","","","48","original","1",""
"html-keyboard-response","179","852672","0.0-5.0-2.0-1.24","pilot_wm_v1","61592ea07347e286bca1955f","7","null","null","false","","","","","","","","null","<div style=""font-size:60px;"">+</div>","null","fixation","","","","","","","","","","","49","","",""
"revaluation","180","858697","0.0-5.0-2.0-0.25","pilot_wm_v1","61592ea07347e286bca1955f","7","null","null","false","","false","","","","","","[731,375]","./assets/img/canyon/memory/33.jpg","[""ArrowDown"",""ArrowRight""]","value training","canyon","30","{""ArrowUp,ArrowLeft"":23,""ArrowUp,ArrowRight"":10,""ArrowDown,ArrowLeft"":8,""ArrowDown,ArrowRight"":30}","true","ArrowDown,ArrowRight","false","","","","","50","original","1",""
"html-keyboard-response","181","859199","0.0-5.0-2.0-1.25","pilot_wm_v1","61592ea07347e286bca1955f","7","null","null","false","","","","","","","","null","<div style=""font-size:60px;"">+</div>","null","fixation","","","","","","","","","","","51","","",""
"revaluation","182","863222","0.0-5.0-2.0-0.26","pilot_wm_v1","61592ea07347e286bca1955f","7","null","null","false","","false","","","","","","[504]","./assets/img/canyon/catch/5.jpg","[""spaceBar""]","value training","canyon","0","{""ArrowUp,ArrowLeft"":23,""ArrowUp,ArrowRight"":10,""ArrowDown,ArrowLeft"":8,""ArrowDown,ArrowRight"":30}","true","spaceBar","true","","","","","52","original","1",""
"html-keyboard-response","183","863724","0.0-5.0-2.0-1.26","pilot_wm_v1","61592ea07347e286bca1955f","7","null","null","false","","","","","","","","null","<div style=""font-size:60px;"">+</div>","null","fixation","","","","","","","","","","","53","","",""
"revaluation","184","869747","0.0-5.0-2.0-0.27","pilot_wm_v1","61592ea07347e286bca1955f","7","null","null","false","","false","","","","","","[822,306]","./assets/img/canyon/memory/33.jpg","[""ArrowDown"",""ArrowRight""]","value training","canyon","30","{""ArrowUp,ArrowLeft"":23,""ArrowUp,ArrowRight"":10,""ArrowDown,ArrowLeft"":8,""ArrowDown,ArrowRight"":30}","true","ArrowDown,ArrowRight","false","","","","","54","original","1",""
"html-keyboard-response","185","870248","0.0-5.0-2.0-1.27","pilot_wm_v1","61592ea07347e286bca1955f","7","null","null","false","","","","","","","","null","<div style=""font-size:60px;"">+</div>","null","fixation","","","","","","","","","","","55","","",""
"revaluation","186","876269","0.0-5.0-2.0-0.28","pilot_wm_v1","61592ea07347e286bca1955f","7","null","null","false","","false","","","","","","[530,328]","./assets/img/canyon/memory/26.jpg","[""ArrowDown"",""ArrowRight""]","value training","canyon","30","{""ArrowUp,ArrowLeft"":23,""ArrowUp,ArrowRight"":10,""ArrowDown,ArrowLeft"":8,""ArrowDown,ArrowRight"":30}","true","ArrowDown,ArrowRight","false","","","","","56","original","1",""
"html-keyboard-response","187","876771","0.0-5.0-2.0-1.28","pilot_wm_v1","61592ea07347e286bca1955f","7","null","null","false","","","","","","","","null","<div style=""font-size:60px;"">+</div>","null","fixation","","","","","","","","","","","57","","",""
"revaluation","188","882796","0.0-5.0-2.0-0.29","pilot_wm_v1","61592ea07347e286bca1955f","7","null","null","false","","false","","","","","","[577,374]","./assets/img/canyon/memory/32.jpg","[""ArrowDown"",""ArrowRight""]","value training","canyon","30","{""ArrowUp,ArrowLeft"":23,""ArrowUp,ArrowRight"":10,""ArrowDown,ArrowLeft"":8,""ArrowDown,ArrowRight"":30}","true","ArrowDown,ArrowRight","false","","","","","58","original","1",""
"html-keyboard-response","189","883298","0.0-5.0-2.0-1.29","pilot_wm_v1","61592ea07347e286bca1955f","7","null","null","false","","","","","","","","null","<div style=""font-size:60px;"">+</div>","null","fixation","","","","","","","","","","","59","","",""
"revaluation","190","887320","0.0-5.0-2.0-0.30","pilot_wm_v1","61592ea07347e286bca1955f","7","null","null","false","","false","","","","","","[776]","./assets/img/canyon/catch/0.jpg","[""spaceBar""]","value training","canyon","0","{""ArrowUp,ArrowLeft"":23,""ArrowUp,ArrowRight"":10,""ArrowDown,ArrowLeft"":8,""ArrowDown,ArrowRight"":30}","true","spaceBar","true","","","","","60","original","1",""
"html-keyboard-response","191","887821","0.0-5.0-2.0-1.30","pilot_wm_v1","61592ea07347e286bca1955f","7","null","null","false","","","","","","","","null","<div style=""font-size:60px;"">+</div>","null","fixation","","","","","","","","","","","61","","",""
"revaluation","192","893844","0.0-5.0-2.0-0.31","pilot_wm_v1","61592ea07347e286bca1955f","7","null","null","false","","false","","","","","","[596,304]","./assets/img/canyon/memory/25.jpg","[""ArrowDown"",""ArrowRight""]","value training","canyon","30","{""ArrowUp,ArrowLeft"":23,""ArrowUp,ArrowRight"":10,""ArrowDown,ArrowLeft"":8,""ArrowDown,ArrowRight"":30}","true","ArrowDown,ArrowRight","false","","","","","62","original","1",""
"html-keyboard-response","193","894345","0.0-5.0-2.0-1.31","pilot_wm_v1","61592ea07347e286bca1955f","7","null","null","false","","","","","","","","null","<div style=""font-size:60px;"">+</div>","null","fixation","","","","","","","","","","","63","","",""
"revaluation","194","900367","0.0-5.0-2.0-0.32","pilot_wm_v1","61592ea07347e286bca1955f","7","null","null","false","","false","","","","","","[776.9999999998836,420.9999999998836]","./assets/img/canyon/memory/41.jpg","[""ArrowDown"",""ArrowRight""]","value training","canyon","30","{""ArrowUp,ArrowLeft"":23,""ArrowUp,ArrowRight"":10,""ArrowDown,ArrowLeft"":8,""ArrowDown,ArrowRight"":30}","true","ArrowDown,ArrowRight","false","","","","","64","original","1",""
"html-keyboard-response","195","900868","0.0-5.0-2.0-1.32","pilot_wm_v1","61592ea07347e286bca1955f","7","null","null","false","","","","","","","","null","<div style=""font-size:60px;"">+</div>","null","fixation","","","","","","","","","","","65","","",""
"revaluation","196","906889","0.0-5.0-2.0-0.33","pilot_wm_v1","61592ea07347e286bca1955f","7","null","null","false","","false","","","","","","[923,426]","./assets/img/canyon/memory/22.jpg","[""ArrowDown"",""ArrowRight""]","value training","canyon","30","{""ArrowUp,ArrowLeft"":23,""ArrowUp,ArrowRight"":10,""ArrowDown,ArrowLeft"":8,""ArrowDown,ArrowRight"":30}","true","ArrowDown,ArrowRight","false","","","","","66","original","1",""
"html-keyboard-response","197","907391","0.0-5.0-2.0-1.33","pilot_wm_v1","61592ea07347e286bca1955f","7","null","null","false","","","","","","","","null","<div style=""font-size:60px;"">+</div>","null","fixation","","","","","","","","","","","67","","",""
"revaluation","198","913414","0.0-5.0-2.0-0.34","pilot_wm_v1","61592ea07347e286bca1955f","7","null","null","false","","false","","","","","","[644,329.9999999998836]","./assets/img/canyon/memory/26.jpg","[""ArrowDown"",""ArrowRight""]","value training","canyon","30","{""ArrowUp,ArrowLeft"":23,""ArrowUp,ArrowRight"":10,""ArrowDown,ArrowLeft"":8,""ArrowDown,ArrowRight"":30}","true","ArrowDown,ArrowRight","false","","","","","68","original","1",""
"html-keyboard-response","199","913915","0.0-5.0-2.0-1.34","pilot_wm_v1","61592ea07347e286bca1955f","7","null","null","false","","","","","","","","null","<div style=""font-size:60px;"">+</div>","null","fixation","","","","","","","","","","","69","","",""
"revaluation","200","919936","0.0-5.0-2.0-0.35","pilot_wm_v1","61592ea07347e286bca1955f","7","null","null","false","","false","","","","","","[536,314]","./assets/img/canyon/memory/4.jpg","[""ArrowDown"",""ArrowRight""]","value training","canyon","30","{""ArrowUp,ArrowLeft"":23,""ArrowUp,ArrowRight"":10,""ArrowDown,ArrowLeft"":8,""ArrowDown,ArrowRight"":30}","true","ArrowDown,ArrowRight","false","","","","","70","original","1",""
"html-keyboard-response","201","920438","0.0-5.0-2.0-1.35","pilot_wm_v1","61592ea07347e286bca1955f","7","null","null","false","","","","","","","","null","<div style=""font-size:60px;"">+</div>","null","fixation","","","","","","","","","","","71","","",""
"revaluation","202","924460","0.0-5.0-2.0-0.36","pilot_wm_v1","61592ea07347e286bca1955f","7","null","null","false","","false","","","","","","[581]","./assets/img/canyon/catch/3.jpg","[""spaceBar""]","value training","canyon","0","{""ArrowUp,ArrowLeft"":23,""ArrowUp,ArrowRight"":10,""ArrowDown,ArrowLeft"":8,""ArrowDown,ArrowRight"":30}","true","spaceBar","true","","","","","72","original","1",""
"html-keyboard-response","203","924961","0.0-5.0-2.0-1.36","pilot_wm_v1","61592ea07347e286bca1955f","7","null","null","false","","","","","","","","null","<div style=""font-size:60px;"">+</div>","null","fixation","","","","","","","","","","","73","","",""
"revaluation","204","930982","0.0-5.0-2.0-0.37","pilot_wm_v1","61592ea07347e286bca1955f","7","null","null","false","","false","","","","","","[650.9999999998836,359.9999999998836]","./assets/img/canyon/memory/24.jpg","[""ArrowDown"",""ArrowRight""]","value training","canyon","30","{""ArrowUp,ArrowLeft"":23,""ArrowUp,ArrowRight"":10,""ArrowDown,ArrowLeft"":8,""ArrowDown,ArrowRight"":30}","true","ArrowDown,ArrowRight","false","","","","","74","original","1",""
"html-keyboard-response","205","931483","0.0-5.0-2.0-1.37","pilot_wm_v1","61592ea07347e286bca1955f","7","null","null","false","","","","","","","","null","<div style=""font-size:60px;"">+</div>","null","fixation","","","","","","","","","","","75","","",""
"revaluation","206","937507","0.0-5.0-2.0-0.38","pilot_wm_v1","61592ea07347e286bca1955f","7","null","null","false","","false","","","","","","[517.9999999998836,290.9999999998836]","./assets/img/canyon/memory/40.jpg","[""ArrowDown"",""ArrowRight""]","value training","canyon","30","{""ArrowUp,ArrowLeft"":23,""ArrowUp,ArrowRight"":10,""ArrowDown,ArrowLeft"":8,""ArrowDown,ArrowRight"":30}","true","ArrowDown,ArrowRight","false","","","","","76","original","1",""
"html-keyboard-response","207","938009","0.0-5.0-2.0-1.38","pilot_wm_v1","61592ea07347e286bca1955f","7","null","null","false","","","","","","","","null","<div style=""font-size:60px;"">+</div>","null","fixation","","","","","","","","","","","77","","",""
"revaluation","208","944033","0.0-5.0-2.0-0.39","pilot_wm_v1","61592ea07347e286bca1955f","7","null","null","false","","false","","","","","","[648,312]","./assets/img/canyon/memory/36.jpg","[""ArrowDown"",""ArrowRight""]","value training","canyon","30","{""ArrowUp,ArrowLeft"":23,""ArrowUp,ArrowRight"":10,""ArrowDown,ArrowLeft"":8,""ArrowDown,ArrowRight"":30}","true","ArrowDown,ArrowRight","false","","","","","78","original","1",""
"html-keyboard-response","209","944534","0.0-5.0-2.0-1.39","pilot_wm_v1","61592ea07347e286bca1955f","7","null","null","false","","","","","","","","null","<div style=""font-size:60px;"">+</div>","null","fixation","","","","","","","","","","","79","","",""
"revaluation","210","950556","0.0-5.0-2.0-0.40","pilot_wm_v1","61592ea07347e286bca1955f","7","null","null","false","","false","","","","","","[589,360.0000000001164]","./assets/img/canyon/memory/37.jpg","[""ArrowDown"",""ArrowRight""]","value training","canyon","30","{""ArrowUp,ArrowLeft"":23,""ArrowUp,ArrowRight"":10,""ArrowDown,ArrowLeft"":8,""ArrowDown,ArrowRight"":30}","true","ArrowDown,ArrowRight","false","","","","","80","original","1",""
"html-keyboard-response","211","951057","0.0-5.0-2.0-1.40","pilot_wm_v1","61592ea07347e286bca1955f","7","null","null","false","","","","","","","","null","<div style=""font-size:60px;"">+</div>","null","fixation","","","","","","","","","","","81","","",""
"revaluation","212","955080","0.0-5.0-2.0-0.41","pilot_wm_v1","61592ea07347e286bca1955f","7","null","null","false","","false","","","","","","[718]","./assets/img/canyon/catch/2.jpg","[""spaceBar""]","value training","canyon","0","{""ArrowUp,ArrowLeft"":23,""ArrowUp,ArrowRight"":10,""ArrowDown,ArrowLeft"":8,""ArrowDown,ArrowRight"":30}","true","spaceBar","true","","","","","82","original","1",""
"html-keyboard-response","213","955581","0.0-5.0-2.0-1.41","pilot_wm_v1","61592ea07347e286bca1955f","7","null","null","false","","","","","","","","null","<div style=""font-size:60px;"">+</div>","null","fixation","","","","","","","","","","","83","","",""
"revaluation","214","961605","0.0-5.0-2.0-0.42","pilot_wm_v1","61592ea07347e286bca1955f","7","null","null","false","","false","","","","","","[718,493]","./assets/img/canyon/memory/21.jpg","[""ArrowDown"",""ArrowRight""]","value training","canyon","30","{""ArrowUp,ArrowLeft"":23,""ArrowUp,ArrowRight"":10,""ArrowDown,ArrowLeft"":8,""ArrowDown,ArrowRight"":30}","true","ArrowDown,ArrowRight","false","","","","","84","original","1",""
"html-keyboard-response","215","962107","0.0-5.0-2.0-1.42","pilot_wm_v1","61592ea07347e286bca1955f","7","null","null","false","","","","","","","","null","<div style=""font-size:60px;"">+</div>","null","fixation","","","","","","","","","","","85","","",""
"revaluation","216","968133","0.0-5.0-2.0-0.43","pilot_wm_v1","61592ea07347e286bca1955f","7","null","null","false","","false","","","","","","[714.9999999998836,381]","./assets/img/canyon/memory/41.jpg","[""ArrowDown"",""ArrowRight""]","value training","canyon","30","{""ArrowUp,ArrowLeft"":23,""ArrowUp,ArrowRight"":10,""ArrowDown,ArrowLeft"":8,""ArrowDown,ArrowRight"":30}","true","ArrowDown,ArrowRight","false","","","","","86","original","1",""
"html-keyboard-response","217","968634","0.0-5.0-2.0-1.43","pilot_wm_v1","61592ea07347e286bca1955f","7","null","null","false","","","","","","","","null","<div style=""font-size:60px;"">+</div>","null","fixation","","","","","","","","","","","87","","",""
"revaluation","218","974656","0.0-5.0-2.0-0.44","pilot_wm_v1","61592ea07347e286bca1955f","7","null","null","false","","false","","","","","","[718.0000000001164,357.9999999998836]","./assets/img/canyon/memory/24.jpg","[""ArrowDown"",""ArrowRight""]","value training","canyon","30","{""ArrowUp,ArrowLeft"":23,""ArrowUp,ArrowRight"":10,""ArrowDown,ArrowLeft"":8,""ArrowDown,ArrowRight"":30}","true","ArrowDown,ArrowRight","false","","","","","88","original","1",""
"html-keyboard-response","219","975159","0.0-5.0-2.0-1.44","pilot_wm_v1","61592ea07347e286bca1955f","7","null","null","false","","","","","","","","null","<div style=""font-size:60px;"">+</div>","null","fixation","","","","","","","","","","","89","","",""
"revaluation","220","981182","0.0-5.0-2.0-0.45","pilot_wm_v1","61592ea07347e286bca1955f","7","null","null","false","","false","","","","","","[693,311]","./assets/img/canyon/memory/38.jpg","[""ArrowDown"",""ArrowRight""]","value training","canyon","30","{""ArrowUp,ArrowLeft"":23,""ArrowUp,ArrowRight"":10,""ArrowDown,ArrowLeft"":8,""ArrowDown,ArrowRight"":30}","true","ArrowDown,ArrowRight","false","","","","","90","original","1",""
"html-keyboard-response","221","981683","0.0-5.0-2.0-1.45","pilot_wm_v1","61592ea07347e286bca1955f","7","null","null","false","","","","","","","","null","<div style=""font-size:60px;"">+</div>","null","fixation","","","","","","","","","","","91","","",""
"revaluation","222","987708","0.0-5.0-2.0-0.46","pilot_wm_v1","61592ea07347e286bca1955f","7","null","null","false","","false","","","","","","[650,405]","./assets/img/canyon/memory/18.jpg","[""ArrowDown"",""ArrowRight""]","value training","canyon","30","{""ArrowUp,ArrowLeft"":23,""ArrowUp,ArrowRight"":10,""ArrowDown,ArrowLeft"":8,""ArrowDown,ArrowRight"":30}","true","ArrowDown,ArrowRight","false","","","","","92","original","1",""
"html-keyboard-response","223","988210","0.0-5.0-2.0-1.46","pilot_wm_v1","61592ea07347e286bca1955f","7","null","null","false","","","","","","","","null","<div style=""font-size:60px;"">+</div>","null","fixation","","","","","","","","","","","93","","",""
"revaluation","224","992230","0.0-5.0-2.0-0.47","pilot_wm_v1","61592ea07347e286bca1955f","7","null","null","false","","false","","","","","","[739.0000000001164]","./assets/img/canyon/catch/4.jpg","[""spaceBar""]","value training","canyon","0","{""ArrowUp,ArrowLeft"":23,""ArrowUp,ArrowRight"":10,""ArrowDown,ArrowLeft"":8,""ArrowDown,ArrowRight"":30}","true","spaceBar","true","","","","","94","original","1",""
"html-keyboard-response","225","992731","0.0-5.0-2.0-1.47","pilot_wm_v1","61592ea07347e286bca1955f","7","null","null","false","","","","","","","","null","<div style=""font-size:60px;"">+</div>","null","fixation","","","","","","","","","","","95","","",""
"revaluation","226","998754","0.0-5.0-2.0-0.48","pilot_wm_v1","61592ea07347e286bca1955f","7","null","null","false","","false","","","","","","[561,451]","./assets/img/canyon/memory/16.jpg","[""ArrowDown"",""ArrowRight""]","value training","canyon","30","{""ArrowUp,ArrowLeft"":23,""ArrowUp,ArrowRight"":10,""ArrowDown,ArrowLeft"":8,""ArrowDown,ArrowRight"":30}","true","ArrowDown,ArrowRight","false","","","","","96","original","1",""
"html-keyboard-response","227","999256","0.0-5.0-2.0-1.48","pilot_wm_v1","61592ea07347e286bca1955f","7","null","null","false","","","","","","","","null","<div style=""font-size:60px;"">+</div>","null","fixation","","","","","","","","","","","97","","",""
"revaluation","228","1005278","0.0-5.0-2.0-0.49","pilot_wm_v1","61592ea07347e286bca1955f","7","null","null","false","","false","","","","","","[1101,428]","./assets/img/canyon/memory/35.jpg","[""ArrowDown"",""ArrowRight""]","value training","canyon","30","{""ArrowUp,ArrowLeft"":23,""ArrowUp,ArrowRight"":10,""ArrowDown,ArrowLeft"":8,""ArrowDown,ArrowRight"":30}","true","ArrowDown,ArrowRight","false","","","","","98","original","1",""
"html-keyboard-response","229","1005781","0.0-5.0-2.0-1.49","pilot_wm_v1","61592ea07347e286bca1955f","7","null","null","false","","","","","","","","null","<div style=""font-size:60px;"">+</div>","null","fixation","","","","","","","","","","","99","","",""
"learning-instructions","230","1020299","0.0-5.0-3.0-0.0","pilot_wm_v1","61592ea07347e286bca1955f","7","null","null","false","","","","","","","","1637","<p> Now, you will travel with a friend who will choose whether you go up or down first. </p>
            <p> On these turns, you will just see the animal that they found. You will still get to choose which chest to search for treasure.</p>","","instructions","","","","","","","","","","","","","",""
"learning-instructions","231","1032740","0.0-5.0-3.0-0.1","pilot_wm_v1","61592ea07347e286bca1955f","7","null","null","false","","","","","","","","821.0000000001164","<p> In this part, you will also hear beeps from your friend and see special treasure chests that need a password. </p>
            <p> Do your best to count the high beeps <b>and</b> choose between each animals' chests at the same time.</p>
            <img src='./assets/img/instructions/beep_chest.jpg' class='instructions-image'>","","instructions","","","","","","","","","","","","","",""
"revaluation","232","1036759","0.0-5.0-4.0-0.0","pilot_wm_v1","61592ea07347e286bca1955f","7","null","null","false","","false","","","","","","[849.0000000002328]","./assets/img/canyon/animals/lion.jpg","[""ArrowRight""]","revaluation","canyon","30","{""ArrowUp,ArrowLeft"":23,""ArrowUp,ArrowRight"":10,""ArrowDown,ArrowLeft"":8,""ArrowDown,ArrowRight"":30}","true","ArrowDown,ArrowRight","","11_4","","","","0","original","1",""
"html-keyboard-response","233","1037261","0.0-5.0-4.0-1.0","pilot_wm_v1","61592ea07347e286bca1955f","7","null","null","false","","","","","","","","null","<div style=""font-size:60px;"">+</div>","null","fixation","","","","","","","","","","","","","",""
"revaluation","234","1041282","0.0-5.0-4.0-0.1","pilot_wm_v1","61592ea07347e286bca1955f","7","null","null","false","","false","","","","","","[827]","./assets/img/canyon/animals/lion.jpg","[""ArrowRight""]","revaluation","canyon","30","{""ArrowUp,ArrowLeft"":23,""ArrowUp,ArrowRight"":10,""ArrowDown,ArrowLeft"":8,""ArrowDown,ArrowRight"":30}","true","ArrowDown,ArrowRight","","10_3","","","","1","original","1",""
"html-keyboard-response","235","1041784","0.0-5.0-4.0-1.1","pilot_wm_v1","61592ea07347e286bca1955f","7","null","null","false","","","","","","","","null","<div style=""font-size:60px;"">+</div>","null","fixation","","","","","","","","","","","","","",""
"revaluation","236","1045806","0.0-5.0-4.0-0.2","pilot_wm_v1","61592ea07347e286bca1955f","7","null","null","false","","false","","","","","","[872]","./assets/img/canyon/animals/giraffe.jpg","[""ArrowLeft""]","revaluation","canyon","23","{""ArrowUp,ArrowLeft"":23,""ArrowUp,ArrowRight"":10,""ArrowDown,ArrowLeft"":8,""ArrowDown,ArrowRight"":30}","true","ArrowUp,ArrowLeft","","9_2","","","","2","original","1",""
"html-keyboard-response","237","1046307","0.0-5.0-4.0-1.2","pilot_wm_v1","61592ea07347e286bca1955f","7","null","null","false","","","","","","","","null","<div style=""font-size:60px;"">+</div>","null","fixation","","","","","","","","","","","","","",""
"revaluation","238","1050327","0.0-5.0-4.0-0.3","pilot_wm_v1","61592ea07347e286bca1955f","7","null","null","false","","false","","","","","","[694.0000000001164]","./assets/img/canyon/animals/lion.jpg","[""ArrowRight""]","revaluation","canyon","30","{""ArrowUp,ArrowLeft"":23,""ArrowUp,ArrowRight"":10,""ArrowDown,ArrowLeft"":8,""ArrowDown,ArrowRight"":30}","true","ArrowDown,ArrowRight","","14_4","","","","3","original","1",""
"html-keyboard-response","239","1050829","0.0-5.0-4.0-1.3","pilot_wm_v1","61592ea07347e286bca1955f","7","null","null","false","","","","","","","","null","<div style=""font-size:60px;"">+</div>","null","fixation","","","","","","","","","","","","","",""
"html-slider-response","240","1054966","0.0-5.0-4.0-2.3-0.3","pilot_wm_v1","61592ea07347e286bca1955f","7","null","null","false","","","","","","","","4130","<div style=""width:500px;"">
        <p>What is the password?</p>
        <img src='./assets/img/instructions/beep_chest.jpg' class='instructions-image'>","7","beep chest","","","","false","","","","50","13","6","","","",""
"revaluation","241","1058984","0.0-5.0-4.0-0.4","pilot_wm_v1","61592ea07347e286bca1955f","7","null","null","false","","false","","","","","","[1147]","./assets/img/canyon/animals/giraffe.jpg","[""ArrowLeft""]","revaluation","canyon","23","{""ArrowUp,ArrowLeft"":23,""ArrowUp,ArrowRight"":10,""ArrowDown,ArrowLeft"":8,""ArrowDown,ArrowRight"":30}","true","ArrowUp,ArrowLeft","","7_4","","","","4","original","1",""
"html-keyboard-response","242","1059486","0.0-5.0-4.0-1.4","pilot_wm_v1","61592ea07347e286bca1955f","7","null","null","false","","","","","","","","null","<div style=""font-size:60px;"">+</div>","null","fixation","","","","","","","","","","","","","",""
"revaluation","243","1063507","0.0-5.0-4.0-0.5","pilot_wm_v1","61592ea07347e286bca1955f","7","null","null","false","","false","","","","","","[701]","./assets/img/canyon/animals/giraffe.jpg","[""ArrowLeft""]","revaluation","canyon","23","{""ArrowUp,ArrowLeft"":23,""ArrowUp,ArrowRight"":10,""ArrowDown,ArrowLeft"":8,""ArrowDown,ArrowRight"":30}","true","ArrowUp,ArrowLeft","","1_4","","","","5","original","1",""
"html-keyboard-response","244","1064008","0.0-5.0-4.0-1.5","pilot_wm_v1","61592ea07347e286bca1955f","7","null","null","false","","","","","","","","null","<div style=""font-size:60px;"">+</div>","null","fixation","","","","","","","","","","","","","",""
"revaluation","245","1068031","0.0-5.0-4.0-0.6","pilot_wm_v1","61592ea07347e286bca1955f","7","null","null","false","","false","","","","","","[560]","./assets/img/canyon/animals/lion.jpg","[""ArrowRight""]","revaluation","canyon","30","{""ArrowUp,ArrowLeft"":23,""ArrowUp,ArrowRight"":10,""ArrowDown,ArrowLeft"":8,""ArrowDown,ArrowRight"":30}","true","ArrowDown,ArrowRight","","18_0","","","","6","original","1",""
"html-keyboard-response","246","1068533","0.0-5.0-4.0-1.6","pilot_wm_v1","61592ea07347e286bca1955f","7","null","null","false","","","","","","","","null","<div style=""font-size:60px;"">+</div>","null","fixation","","","","","","","","","","","","","",""
"revaluation","247","1072553","0.0-5.0-4.0-0.7","pilot_wm_v1","61592ea07347e286bca1955f","7","null","null","false","","false","","","","","","[763]","./assets/img/canyon/animals/giraffe.jpg","[""ArrowLeft""]","revaluation","canyon","23","{""ArrowUp,ArrowLeft"":23,""ArrowUp,ArrowRight"":10,""ArrowDown,ArrowLeft"":8,""ArrowDown,ArrowRight"":30}","true","ArrowUp,ArrowLeft","","3_0","","","","7","original","1",""
"html-keyboard-response","248","1073055","0.0-5.0-4.0-1.7","pilot_wm_v1","61592ea07347e286bca1955f","7","null","null","false","","","","","","","","null","<div style=""font-size:60px;"">+</div>","null","fixation","","","","","","","","","","","","","",""
"html-slider-response","249","1076459","0.0-5.0-4.0-2.7-0.7","pilot_wm_v1","61592ea07347e286bca1955f","7","null","null","false","","","","","","","","3397","<div style=""width:500px;"">
        <p>What is the password?</p>
        <img src='./assets/img/instructions/beep_chest.jpg' class='instructions-image'>","4","beep chest","","","","false","","","","50","8","4","","","",""
"revaluation","250","1080481","0.0-5.0-4.0-0.8","pilot_wm_v1","61592ea07347e286bca1955f","7","null","null","false","","false","","","","","","[1162]","./assets/img/canyon/animals/lion.jpg","[""ArrowRight""]","revaluation","canyon","30","{""ArrowUp,ArrowLeft"":23,""ArrowUp,ArrowRight"":10,""ArrowDown,ArrowLeft"":8,""ArrowDown,ArrowRight"":30}","true","ArrowDown,ArrowRight","","12_2","","","","8","original","1",""
"html-keyboard-response","251","1080983","0.0-5.0-4.0-1.8","pilot_wm_v1","61592ea07347e286bca1955f","7","null","null","false","","","","","","","","null","<div style=""font-size:60px;"">+</div>","null","fixation","","","","","","","","","","","","","",""
"revaluation","252","1085006","0.0-5.0-4.0-0.9","pilot_wm_v1","61592ea07347e286bca1955f","7","null","null","false","","false","","","","","","[686]","./assets/img/canyon/animals/giraffe.jpg","[""ArrowLeft""]","revaluation","canyon","23","{""ArrowUp,ArrowLeft"":23,""ArrowUp,ArrowRight"":10,""ArrowDown,ArrowLeft"":8,""ArrowDown,ArrowRight"":30}","true","ArrowUp,ArrowLeft","","8_2","","","","9","original","1",""
"html-keyboard-response","253","1085507","0.0-5.0-4.0-1.9","pilot_wm_v1","61592ea07347e286bca1955f","7","null","null","false","","","","","","","","null","<div style=""font-size:60px;"">+</div>","null","fixation","","","","","","","","","","","","","",""
"revaluation","254","1089526","0.0-5.0-4.0-0.10","pilot_wm_v1","61592ea07347e286bca1955f","7","null","null","false","","false","","","","","","[823]","./assets/img/canyon/animals/giraffe.jpg","[""ArrowLeft""]","revaluation","canyon","23","{""ArrowUp,ArrowLeft"":23,""ArrowUp,ArrowRight"":10,""ArrowDown,ArrowLeft"":8,""ArrowDown,ArrowRight"":30}","true","ArrowUp,ArrowLeft","","2_1","","","","10","original","1",""
"html-keyboard-response","255","1090028","0.0-5.0-4.0-1.10","pilot_wm_v1","61592ea07347e286bca1955f","7","null","null","false","","","","","","","","null","<div style=""font-size:60px;"">+</div>","null","fixation","","","","","","","","","","","","","",""
"revaluation","256","1094049","0.0-5.0-4.0-0.11","pilot_wm_v1","61592ea07347e286bca1955f","7","null","null","false","","false","","","","","","[1318.0000000002328]","./assets/img/canyon/animals/giraffe.jpg","[""ArrowLeft""]","revaluation","canyon","23","{""ArrowUp,ArrowLeft"":23,""ArrowUp,ArrowRight"":10,""ArrowDown,ArrowLeft"":8,""ArrowDown,ArrowRight"":30}","true","ArrowUp,ArrowLeft","","5_4","","","","11","original","1",""
"html-keyboard-response","257","1094551","0.0-5.0-4.0-1.11","pilot_wm_v1","61592ea07347e286bca1955f","7","null","null","false","","","","","","","","null","<div style=""font-size:60px;"">+</div>","null","fixation","","","","","","","","","","","","","",""
"html-slider-response","258","1099046","0.0-5.0-4.0-2.11-0.11","pilot_wm_v1","61592ea07347e286bca1955f","7","null","null","false","","","","","","","","4487","<div style=""width:500px;"">
        <p>What is the password?</p>
        <img src='./assets/img/instructions/beep_chest.jpg' class='instructions-image'>","5","beep chest","","","","false","","","","50","9","4","","","",""
"revaluation","259","1103068","0.0-5.0-4.0-0.12","pilot_wm_v1","61592ea07347e286bca1955f","7","null","null","false","","false","","","","","","[1075]","./assets/img/canyon/animals/lion.jpg","[""ArrowRight""]","revaluation","canyon","30","{""ArrowUp,ArrowLeft"":23,""ArrowUp,ArrowRight"":10,""ArrowDown,ArrowLeft"":8,""ArrowDown,ArrowRight"":30}","true","ArrowDown,ArrowRight","","17_1","","","","12","original","1",""
"html-keyboard-response","260","1103570","0.0-5.0-4.0-1.12","pilot_wm_v1","61592ea07347e286bca1955f","7","null","null","false","","","","","","","","null","<div style=""font-size:60px;"">+</div>","null","fixation","","","","","","","","","","","","","",""
"revaluation","261","1107592","0.0-5.0-4.0-0.13","pilot_wm_v1","61592ea07347e286bca1955f","7","null","null","false","","false","","","","","","[692]","./assets/img/canyon/animals/lion.jpg","[""ArrowRight""]","revaluation","canyon","30","{""ArrowUp,ArrowLeft"":23,""ArrowUp,ArrowRight"":10,""ArrowDown,ArrowLeft"":8,""ArrowDown,ArrowRight"":30}","true","ArrowDown,ArrowRight","","16_0","","","","13","original","1",""
"html-keyboard-response","262","1108094","0.0-5.0-4.0-1.13","pilot_wm_v1","61592ea07347e286bca1955f","7","null","null","false","","","","","","","","null","<div style=""font-size:60px;"">+</div>","null","fixation","","","","","","","","","","","","","",""
"revaluation","263","1112113","0.0-5.0-4.0-0.14","pilot_wm_v1","61592ea07347e286bca1955f","7","null","null","false","","false","","","","","","[558]","./assets/img/canyon/animals/giraffe.jpg","[""ArrowRight""]","revaluation","canyon","10","{""ArrowUp,ArrowLeft"":23,""ArrowUp,ArrowRight"":10,""ArrowDown,ArrowLeft"":8,""ArrowDown,ArrowRight"":30}","false","ArrowUp,ArrowRight","","6_3","","","","14","original","1",""
"html-keyboard-response","264","1112615","0.0-5.0-4.0-1.14","pilot_wm_v1","61592ea07347e286bca1955f","7","null","null","false","","","","","","","","null","<div style=""font-size:60px;"">+</div>","null","fixation","","","","","","","","","","","","","",""
"revaluation","265","1116636","0.0-5.0-4.0-0.15","pilot_wm_v1","61592ea07347e286bca1955f","7","null","null","false","","true","","","","","","[]","./assets/img/canyon/animals/lion.jpg","[]","revaluation","canyon","-5","{""ArrowUp,ArrowLeft"":23,""ArrowUp,ArrowRight"":10,""ArrowDown,ArrowLeft"":8,""ArrowDown,ArrowRight"":30}","false","ArrowDown","","15_0","","","","15","original","1",""
"html-keyboard-response","266","1117138","0.0-5.0-4.0-1.15","pilot_wm_v1","61592ea07347e286bca1955f","7","null","null","false","","","","","","","","null","<div style=""font-size:60px;"">+</div>","null","fixation","","","","","","","","","","","","","",""
"html-slider-response","267","1120274","0.0-5.0-4.0-2.15-0.15","pilot_wm_v1","61592ea07347e286bca1955f","7","null","null","false","","","","","","","","3128","<div style=""width:500px;"">
        <p>What is the password?</p>
        <img src='./assets/img/instructions/beep_chest.jpg' class='instructions-image'>","1","beep chest","","","","false","","","","50","4","3","","","",""
"revaluation","268","1124300","0.0-5.0-4.0-0.16","pilot_wm_v1","61592ea07347e286bca1955f","7","null","null","false","","false","","","","","","[1013.9999999997672]","./assets/img/canyon/animals/lion.jpg","[""ArrowRight""]","revaluation","canyon","30","{""ArrowUp,ArrowLeft"":23,""ArrowUp,ArrowRight"":10,""ArrowDown,ArrowLeft"":8,""ArrowDown,ArrowRight"":30}","true","ArrowDown,ArrowRight","","13_2","","","","16","original","1",""
"html-keyboard-response","269","1124801","0.0-5.0-4.0-1.16","pilot_wm_v1","61592ea07347e286bca1955f","7","null","null","false","","","","","","","","null","<div style=""font-size:60px;"">+</div>","null","fixation","","","","","","","","","","","","","",""
"revaluation","270","1128821","0.0-5.0-4.0-0.17","pilot_wm_v1","61592ea07347e286bca1955f","7","null","null","false","","false","","","","","","[1129]","./assets/img/canyon/animals/giraffe.jpg","[""ArrowLeft""]","revaluation","canyon","23","{""ArrowUp,ArrowLeft"":23,""ArrowUp,ArrowRight"":10,""ArrowDown,ArrowLeft"":8,""ArrowDown,ArrowRight"":30}","true","ArrowUp,ArrowLeft","","4_0","","","","17","original","1",""
"html-keyboard-response","271","1129322","0.0-5.0-4.0-1.17","pilot_wm_v1","61592ea07347e286bca1955f","7","null","null","false","","","","","","","","null","<div style=""font-size:60px;"">+</div>","null","fixation","","","","","","","","","","","","","",""
"learning-instructions","272","1137424","0.0-5.0-6.0-0.0","pilot_wm_v1","61592ea07347e286bca1955f","7","null","null","false","","","","","","","","null","<p> You have almost finished this part of the game! </p>
            <p> We are going to ask you to make a few more choices. </p>","","instructions","","","","","","","","","","","","","",""
"learning-instructions","273","1153398","0.0-5.0-6.0-0.1","pilot_wm_v1","61592ea07347e286bca1955f","7","null","null","false","","","","","","","","null","<p> First, you need to decide whether to go up or down. When you see each picture, use the arrow keys to make your choice. </p>
            <p><b>You will not see which animal you found, but try to get to the one that will give you the most treasure.</b></p>","","instructions","","","","","","","","","","","","","",""
"html-keyboard-response","274","1154400","0.0-5.0-7.0-0.0","pilot_wm_v1","61592ea07347e286bca1955f","7","null","null","false","","","","","","","","null","<div style=""font-size:100px;color:red;"">Starting in...</div>","null","","","","","","","","","","","","","","",""
"html-keyboard-response","275","1155402","0.0-5.0-7.0-1.0","pilot_wm_v1","61592ea07347e286bca1955f","7","null","null","false","","","","","","","","null","<div style=""font-size:200px;color:red;"">3</div>","null","","","","","","","","","","","","","","",""
"html-keyboard-response","276","1156403","0.0-5.0-7.0-2.0","pilot_wm_v1","61592ea07347e286bca1955f","7","null","null","false","","","","","","","","null","<div style=""font-size:200px;color:red;"">2</div>","null","","","","","","","","","","","","","","",""
"html-keyboard-response","277","1157405","0.0-5.0-7.0-3.0","pilot_wm_v1","61592ea07347e286bca1955f","7","null","null","false","","","","","","","","null","<div style=""font-size:200px;color:red;"">1</div>","null","","","","","","","","","","","","","","",""
"revaluation","278","1157988","0.0-5.0-8.0-0.0","pilot_wm_v1","61592ea07347e286bca1955f","7","null","null","false","","false","","","","","","[563.9999999997672]","./assets/img/canyon/test/3.jpg","[""ArrowDown""]","first stage test","canyon","0","{""ArrowUp,ArrowLeft"":23,""ArrowUp,ArrowRight"":10,""ArrowDown,ArrowLeft"":8,""ArrowDown,ArrowRight"":30}","true","ArrowDown","false","","","","","","original","1",""
"html-keyboard-response","279","1158489","0.0-5.0-8.0-1.0","pilot_wm_v1","61592ea07347e286bca1955f","7","null","null","false","","","","","","","","null","<div style=""font-size:60px;"">+</div>","null","fixation","","","","","","","","","","","","","",""
"revaluation","280","1159161","0.0-5.0-8.0-0.1","pilot_wm_v1","61592ea07347e286bca1955f","7","null","null","false","","false","","","","","","[663]","./assets/img/canyon/test/0.jpg","[""ArrowDown""]","first stage test","canyon","0","{""ArrowUp,ArrowLeft"":23,""ArrowUp,ArrowRight"":10,""ArrowDown,ArrowLeft"":8,""ArrowDown,ArrowRight"":30}","true","ArrowDown","false","","","","","","original","1",""
"html-keyboard-response","281","1159663","0.0-5.0-8.0-1.1","pilot_wm_v1","61592ea07347e286bca1955f","7","null","null","false","","","","","","","","null","<div style=""font-size:60px;"">+</div>","null","fixation","","","","","","","","","","","","","",""
"revaluation","282","1160242","0.0-5.0-8.0-0.2","pilot_wm_v1","61592ea07347e286bca1955f","7","null","null","false","","false","","","","","","[563]","./assets/img/canyon/test/2.jpg","[""ArrowDown""]","first stage test","canyon","0","{""ArrowUp,ArrowLeft"":23,""ArrowUp,ArrowRight"":10,""ArrowDown,ArrowLeft"":8,""ArrowDown,ArrowRight"":30}","true","ArrowDown","false","","","","","","original","1",""
"html-keyboard-response","283","1160743","0.0-5.0-8.0-1.2","pilot_wm_v1","61592ea07347e286bca1955f","7","null","null","false","","","","","","","","null","<div style=""font-size:60px;"">+</div>","null","fixation","","","","","","","","","","","","","",""
"revaluation","284","1161322","0.0-5.0-8.0-0.3","pilot_wm_v1","61592ea07347e286bca1955f","7","null","null","false","","false","","","","","","[557]","./assets/img/canyon/test/1.jpg","[""ArrowDown""]","first stage test","canyon","0","{""ArrowUp,ArrowLeft"":23,""ArrowUp,ArrowRight"":10,""ArrowDown,ArrowLeft"":8,""ArrowDown,ArrowRight"":30}","true","ArrowDown","false","","","","","","original","1",""
"html-keyboard-response","285","1161824","0.0-5.0-8.0-1.3","pilot_wm_v1","61592ea07347e286bca1955f","7","null","null","false","","","","","","","","null","<div style=""font-size:60px;"">+</div>","null","fixation","","","","","","","","","","","","","",""
"learning-instructions","286","1175166","0.0-5.0-9.0-0.0","pilot_wm_v1","61592ea07347e286bca1955f","7","null","null","false","","","","","","","","null","<p> Now you will see the animals again and can search their chests for treasure. </p>
            <p> This time, you will not see how much treasure you earned, but you will earn more bonus money for making better choices. </p>","","instructions","","","","","","","","","","","","","",""
