"trial_type","trial_index","time_elapsed","internal_node_id","task_version","subject_id","assigned_condition","age","gender","rest","browser_interaction","success","timeout","failed_images","failed_audio","failed_video","rt","stimulus","response","task_part","environment","score","rewardMap","correct","fullState","isCatch","audioStim","slider_start","answer","error","numberMissed","duration","trial_num","condition","order","bonus"
"pavlovia","0","1031","0.0-0.0","pilot_wm_v1","5fb5dfa5df577200090d9dc4","3","null","null","true","[{""event"":""blur"",""trial"":1,""time"":6639},{""event"":""focus"",""trial"":1,""time"":6990},{""event"":""fullscreenenter"",""trial"":2,""time"":19750}]","","","","","","","","","","","","","","","","","","","","","","","","",""
"preload","1","16494","0.0-1.0","pilot_wm_v1","5fb5dfa5df577200090d9dc4","3","null","null","true","[{""event"":""blur"",""trial"":1,""time"":6639},{""event"":""focus"",""trial"":1,""time"":6990},{""event"":""fullscreenenter"",""trial"":2,""time"":19750}]","true","false","[]","[]","[]","","","","","","","","","","","","","","","","","","","",""
"fullscreen","2","20720","0.0-2.0","pilot_wm_v1","5fb5dfa5df577200090d9dc4","3","null","null","true","","true","","","","","","","","","","","","","","","","","","","","","","","",""
"audio-button-response","3","22645","0.0-3.0-0.0-0.0","pilot_wm_v1","5fb5dfa5df577200090d9dc4","3","null","null","true","","","","","","","1863","./assets/audio/audiotest/turtle.mp3","2","audio_test","","","","","","","","","","","","","","","",""
"learning-instructions","4","30793","0.0-3.0-1.0-0.0","pilot_wm_v1","5fb5dfa5df577200090d9dc4","3","null","null","true","","","","","","","1149.199999999255","<p> Welcome! Please remember to stay in fullscreen mode and don't click away from the experiment. </p>","","instructions","","","","","","","","","","","","","","","",""
"learning-instructions","5","40078","0.0-3.0-1.0-0.1","pilot_wm_v1","5fb5dfa5df577200090d9dc4","3","null","null","true","","","","","","","856.3999999985099","<p> Today you will be playing a game to earn treasure. </p>
            <p> At the end of the experiment, you will earn a bonus based on how much treasure you find. </p>
            <img src='./assets/img/instructions/treasure.jpg' class='instructions-image'>","","instructions","","","","","","","","","","","","","","","",""
"learning-instructions","6","49004","0.0-3.0-1.0-0.2","pilot_wm_v1","5fb5dfa5df577200090d9dc4","3","null","null","true","","","","","","","645.5","<p> Animals have hidden treasure in treasure chests. </p>
            <p> You need to first find an animal and then choose which of their treasure chests to search. </p>
            <img src='./assets/img/space/animals/cat.jpg' class='instructions-image'>","","instructions","","","","","","","","","","","","","","","",""
"learning-instructions","7","62949","0.0-3.0-1.0-0.3","pilot_wm_v1","5fb5dfa5df577200090d9dc4","3","null","null","true","","","","","","","763.2999999988824","<p> In each round, you will search for treasure in a different place. In the real game, there will be two rounds. </p>
            <p> You will begin with a separate, practice round where you will search for treasure in outer space. </p>
            <img src='./assets/img/space/0.jpg' class='instructions-image'>","","instructions","","","","","","","","","","","","","","","",""
"learning-instructions","8","75127","0.0-3.0-1.0-0.4","pilot_wm_v1","5fb5dfa5df577200090d9dc4","3","null","null","true","","","","","","","727.3000000007451","<p> On every turn, you will see a picture of the place that you are in, but the specific image may be different each time. </p>
            <p> For example, both of these images mean you are in outer space. </p>
            <img src='./assets/img/instructions/outerspace.jpg' class='instructions-image'>","","instructions","","","","","","","","","","","","","","","",""
"learning-instructions","9","83696","0.0-3.0-1.0-0.5","pilot_wm_v1","5fb5dfa5df577200090d9dc4","3","null","null","true","","","","","","","722.0999999996275","<p> You need to decide which direction to travel in. </p>
            <p> You can choose between going <b>up or down</b> by using the arrow keys. </p>
            <img src='./assets/img/instructions/updown.jpg' class='instructions-image'>","","instructions","","","","","","","","","","","","","","","",""
"learning-instructions","10","93584","0.0-3.0-1.0-0.6","pilot_wm_v1","5fb5dfa5df577200090d9dc4","3","null","null","true","","","","","","","1050.199999999255","<p> You will have <b>2 seconds</b> to make your choice. </p>
            <p> If you do not make a choice within 2 seconds, you will not find an animal or earn treasure. </p>
            <img src='./assets/img/instructions/2seconds.jpg' class='instructions-image'>","","instructions","","","","","","","","","","","","","","","",""
"learning-instructions","11","102265","0.0-3.0-1.0-0.7","pilot_wm_v1","5fb5dfa5df577200090d9dc4","3","null","null","true","","","","","","","1620.699999999255","<p> Let’s try practicing that now! </p>
            <p> When you see a picture of the place you are in, press the <b>up</b> key to travel up. </p>
            <img src='./assets/img/instructions/pressUp.jpg' class='instructions-image'>","","instructions","","","","","","","","","","","","","","","",""
"revaluation","12","106286","0.0-3.0-2.0-0.0","pilot_wm_v1","5fb5dfa5df577200090d9dc4","3","null","null","true","","","false","","","","[577.5999999996275]","./assets/img/space/0.jpg","[""ArrowUp""]","first stage practice","space","0","null","null","ArrowUp","false","","","","","","","","","",""
"html-keyboard-response","13","106789","0.0-3.0-2.0-1.0","pilot_wm_v1","5fb5dfa5df577200090d9dc4","3","null","null","true","","","","","","","null","<div style=""font-size:60px;"">+</div>","null","fixation","","","","","","","","","","","","","","","",""
"revaluation","14","110795","0.0-3.0-2.0-0.1","pilot_wm_v1","5fb5dfa5df577200090d9dc4","3","null","null","true","","","false","","","","[1029.7999999988824]","./assets/img/space/1.jpg","[""ArrowUp""]","first stage practice","space","0","null","null","ArrowUp","false","","","","","","","","","",""
"html-keyboard-response","15","111297","0.0-3.0-2.0-1.1","pilot_wm_v1","5fb5dfa5df577200090d9dc4","3","null","null","true","","","","","","","null","<div style=""font-size:60px;"">+</div>","null","fixation","","","","","","","","","","","","","","","",""
"revaluation","16","115303","0.0-3.0-2.0-0.2","pilot_wm_v1","5fb5dfa5df577200090d9dc4","3","null","null","true","","","false","","","","[447.40000000037253]","./assets/img/space/2.jpg","[""ArrowUp""]","first stage practice","space","0","null","null","ArrowUp","false","","","","","","","","","",""
"html-keyboard-response","17","115805","0.0-3.0-2.0-1.2","pilot_wm_v1","5fb5dfa5df577200090d9dc4","3","null","null","true","","","","","","","null","<div style=""font-size:60px;"">+</div>","null","fixation","","","","","","","","","","","","","","","",""
"learning-instructions","18","121789","0.0-3.0-3.0-0.0","pilot_wm_v1","5fb5dfa5df577200090d9dc4","3","null","null","true","","","","","","","1269.4000000003725","<p> Great job! Now try pressing the <b>down</b> key to travel down. </p>
            <img src='./assets/img/instructions/pressDown.jpg' class='instructions-image'>","","instructions","","","","","","","","","","","","","","","",""
"revaluation","19","125793","0.0-3.0-4.0-0.0","pilot_wm_v1","5fb5dfa5df577200090d9dc4","3","null","null","true","","","false","","","","[536.5]","./assets/img/space/3.jpg","[""ArrowDown""]","first stage practice","space","0","null","null","ArrowDown","false","","","","","","","","","",""
"html-keyboard-response","20","126295","0.0-3.0-4.0-1.0","pilot_wm_v1","5fb5dfa5df577200090d9dc4","3","null","null","true","","","","","","","null","<div style=""font-size:60px;"">+</div>","null","fixation","","","","","","","","","","","","","","","",""
"revaluation","21","130300","0.0-3.0-4.0-0.1","pilot_wm_v1","5fb5dfa5df577200090d9dc4","3","null","null","true","","","false","","","","[491.2000000011176]","./assets/img/space/4.jpg","[""ArrowDown""]","first stage practice","space","0","null","null","ArrowDown","false","","","","","","","","","",""
"html-keyboard-response","22","130801","0.0-3.0-4.0-1.1","pilot_wm_v1","5fb5dfa5df577200090d9dc4","3","null","null","true","","","","","","","null","<div style=""font-size:60px;"">+</div>","null","fixation","","","","","","","","","","","","","","","",""
"revaluation","23","134805","0.0-3.0-4.0-0.2","pilot_wm_v1","5fb5dfa5df577200090d9dc4","3","null","null","true","","","false","","","","[531.2999999988824]","./assets/img/space/5.jpg","[""ArrowDown""]","first stage practice","space","0","null","null","ArrowDown","false","","","","","","","","","",""
"html-keyboard-response","24","135307","0.0-3.0-4.0-1.2","pilot_wm_v1","5fb5dfa5df577200090d9dc4","3","null","null","true","","","","","","","null","<div style=""font-size:60px;"">+</div>","null","fixation","","","","","","","","","","","","","","","",""
"learning-instructions","25","146552","0.0-3.0-5.0-0.0","pilot_wm_v1","5fb5dfa5df577200090d9dc4","3","null","null","true","","","","","","","1372.9000000003725","<p> The animals don’t move, so the animal in the upper part of a place will stay in the upper part of a place, and the animal in the lower part of a place will stay in the lower part of a place. </p>","","instructions","","","","","","","","","","","","","","","",""
"learning-instructions","26","156380","0.0-3.0-5.0-0.1","pilot_wm_v1","5fb5dfa5df577200090d9dc4","3","null","null","true","","","","","","","670.4000000003725","<p> Each animal has two treasure chests for you to choose from. </p>
            <p> The amount of treasure in each chest can range from <b> 0 to 40 pieces.</b></p>","","instructions","","","","","","","","","","","","","","","",""
"learning-instructions","27","168458","0.0-3.0-5.0-0.2","pilot_wm_v1","5fb5dfa5df577200090d9dc4","3","null","null","true","","","","","","","863.9000000003725","<p> You should decide which chest to search for treasure by using the <b>left</b> and <b>right</b> arrow keys. </p>
            <p><b> Pay attention to which animal is on the screen, as the animals have different treasure chests. </b></p>
            <img src='./assets/img/instructions/leftright.jpg' class='instructions-image'>","","instructions","","","","","","","","","","","","","","","",""
"learning-instructions","28","175510","0.0-3.0-5.0-0.3","pilot_wm_v1","5fb5dfa5df577200090d9dc4","3","null","null","true","","","","","","","666.3999999985099","<p> Let’s try practicing that now. </p>
            <p> When you see an animal, choose which chest to search for treasure. </p>
            <img src='./assets/img/instructions/chooseChest.jpg' class='instructions-image'>","","instructions","","","","","","","","","","","","","","","",""
"revaluation","29","179515","0.0-3.0-6.0-0.0","pilot_wm_v1","5fb5dfa5df577200090d9dc4","3","null","null","true","","","false","","","","[443.6000000014901]","./assets/img/space/animals/cat.jpg","[""ArrowRight""]","second stage practice","space","36","{""ArrowUp,ArrowLeft"":3,""ArrowUp,ArrowRight"":36,""ArrowDown,ArrowLeft"":15,""ArrowDown,ArrowRight"":23}","true","ArrowUp,ArrowRight","","","","","","","","","","",""
"html-keyboard-response","30","180018","0.0-3.0-6.0-1.0","pilot_wm_v1","5fb5dfa5df577200090d9dc4","3","null","null","true","","","","","","","null","<div style=""font-size:60px;"">+</div>","null","fixation","","","","","","","","","","","","","","","",""
"revaluation","31","184023","0.0-3.0-6.0-0.1","pilot_wm_v1","5fb5dfa5df577200090d9dc4","3","null","null","true","","","false","","","","[933.7999999988824]","./assets/img/space/animals/rabbit.jpg","[""ArrowRight""]","second stage practice","space","23","{""ArrowUp,ArrowLeft"":3,""ArrowUp,ArrowRight"":36,""ArrowDown,ArrowLeft"":15,""ArrowDown,ArrowRight"":23}","true","ArrowDown,ArrowRight","","","","","","","","","","",""
"html-keyboard-response","32","184525","0.0-3.0-6.0-1.1","pilot_wm_v1","5fb5dfa5df577200090d9dc4","3","null","null","true","","","","","","","null","<div style=""font-size:60px;"">+</div>","null","fixation","","","","","","","","","","","","","","","",""
"revaluation","33","188530","0.0-3.0-6.0-0.2","pilot_wm_v1","5fb5dfa5df577200090d9dc4","3","null","null","true","","","false","","","","[557.2999999988824]","./assets/img/space/animals/cat.jpg","[""ArrowLeft""]","second stage practice","space","3","{""ArrowUp,ArrowLeft"":3,""ArrowUp,ArrowRight"":36,""ArrowDown,ArrowLeft"":15,""ArrowDown,ArrowRight"":23}","false","ArrowUp,ArrowLeft","","","","","","","","","","",""
"html-keyboard-response","34","189031","0.0-3.0-6.0-1.2","pilot_wm_v1","5fb5dfa5df577200090d9dc4","3","null","null","true","","","","","","","null","<div style=""font-size:60px;"">+</div>","null","fixation","","","","","","","","","","","","","","","",""
"revaluation","35","193038","0.0-3.0-6.0-0.3","pilot_wm_v1","5fb5dfa5df577200090d9dc4","3","null","null","true","","","false","","","","[477.90000000037253]","./assets/img/space/animals/rabbit.jpg","[""ArrowLeft""]","second stage practice","space","15","{""ArrowUp,ArrowLeft"":3,""ArrowUp,ArrowRight"":36,""ArrowDown,ArrowLeft"":15,""ArrowDown,ArrowRight"":23}","false","ArrowDown,ArrowLeft","","","","","","","","","","",""
"html-keyboard-response","36","193540","0.0-3.0-6.0-1.3","pilot_wm_v1","5fb5dfa5df577200090d9dc4","3","null","null","true","","","","","","","null","<div style=""font-size:60px;"">+</div>","null","fixation","","","","","","","","","","","","","","","",""
"learning-instructions","37","211138","0.0-3.0-7.0-0.0","pilot_wm_v1","5fb5dfa5df577200090d9dc4","3","null","null","true","","","","","","","721.6999999992549","<p> Great job. Now let’s try putting it together. </p>
            <p> On each turn, you will first see a picture to remind you of the place you are in, and you need to choose whether to go up or down. </p>
            <p> Then you will see an animal and choose which of its chests to search for treasure. </p>","","instructions","","","","","","","","","","","","","","","",""
"learning-instructions","38","219882","0.0-3.0-7.0-0.1","pilot_wm_v1","5fb5dfa5df577200090d9dc4","3","null","null","true","","","","","","","462.7999999988824","<p> When you choose whether to go up or down, try to go to the animal with the chest with the most treasure. </p>
            <p> Try practicing that now! </p>","","instructions","","","","","","","","","","","","","","","",""
"revaluation","39","225890","0.0-3.0-8.0-0.0","pilot_wm_v1","5fb5dfa5df577200090d9dc4","3","null","null","true","","","false","","","","[1295.4000000003725,977.8999999985099]","./assets/img/space/6.jpg","[""ArrowUp"",""ArrowRight""]","full practice","space","36","{""ArrowUp,ArrowLeft"":3,""ArrowUp,ArrowRight"":36,""ArrowDown,ArrowLeft"":15,""ArrowDown,ArrowRight"":23}","true","ArrowUp,ArrowRight","false","","","","","","","","","",""
"html-keyboard-response","40","226392","0.0-3.0-8.0-1.0","pilot_wm_v1","5fb5dfa5df577200090d9dc4","3","null","null","true","","","","","","","null","<div style=""font-size:60px;"">+</div>","null","fixation","","","","","","","","","","","","","","","",""
"revaluation","41","232398","0.0-3.0-8.0-0.1","pilot_wm_v1","5fb5dfa5df577200090d9dc4","3","null","null","true","","","false","","","","[1060.800000000745,809.3000000007451]","./assets/img/space/7.jpg","[""ArrowUp"",""ArrowRight""]","full practice","space","36","{""ArrowUp,ArrowLeft"":3,""ArrowUp,ArrowRight"":36,""ArrowDown,ArrowLeft"":15,""ArrowDown,ArrowRight"":23}","true","ArrowUp,ArrowRight","false","","","","","","","","","",""
"html-keyboard-response","42","232900","0.0-3.0-8.0-1.1","pilot_wm_v1","5fb5dfa5df577200090d9dc4","3","null","null","true","","","","","","","null","<div style=""font-size:60px;"">+</div>","null","fixation","","","","","","","","","","","","","","","",""
"revaluation","43","238906","0.0-3.0-8.0-0.2","pilot_wm_v1","5fb5dfa5df577200090d9dc4","3","null","null","true","","","false","","","","[693.7999999988824,435.90000000037253]","./assets/img/space/8.jpg","[""ArrowUp"",""ArrowRight""]","full practice","space","36","{""ArrowUp,ArrowLeft"":3,""ArrowUp,ArrowRight"":36,""ArrowDown,ArrowLeft"":15,""ArrowDown,ArrowRight"":23}","true","ArrowUp,ArrowRight","false","","","","","","","","","",""
"html-keyboard-response","44","239408","0.0-3.0-8.0-1.2","pilot_wm_v1","5fb5dfa5df577200090d9dc4","3","null","null","true","","","","","","","null","<div style=""font-size:60px;"">+</div>","null","fixation","","","","","","","","","","","","","","","",""
"revaluation","45","245414","0.0-3.0-8.0-0.3","pilot_wm_v1","5fb5dfa5df577200090d9dc4","3","null","null","true","","","false","","","","[632.9000000003725,351.30000000074506]","./assets/img/space/9.jpg","[""ArrowUp"",""ArrowRight""]","full practice","space","36","{""ArrowUp,ArrowLeft"":3,""ArrowUp,ArrowRight"":36,""ArrowDown,ArrowLeft"":15,""ArrowDown,ArrowRight"":23}","true","ArrowUp,ArrowRight","false","","","","","","","","","",""
"html-keyboard-response","46","245916","0.0-3.0-8.0-1.3","pilot_wm_v1","5fb5dfa5df577200090d9dc4","3","null","null","true","","","","","","","null","<div style=""font-size:60px;"">+</div>","null","fixation","","","","","","","","","","","","","","","",""
"revaluation","47","251924","0.0-3.0-8.0-0.4","pilot_wm_v1","5fb5dfa5df577200090d9dc4","3","null","null","true","","","false","","","","[411.59999999962747,413]","./assets/img/space/10.jpg","[""ArrowUp"",""ArrowRight""]","full practice","space","36","{""ArrowUp,ArrowLeft"":3,""ArrowUp,ArrowRight"":36,""ArrowDown,ArrowLeft"":15,""ArrowDown,ArrowRight"":23}","true","ArrowUp,ArrowRight","false","","","","","","","","","",""
"html-keyboard-response","48","252426","0.0-3.0-8.0-1.4","pilot_wm_v1","5fb5dfa5df577200090d9dc4","3","null","null","true","","","","","","","null","<div style=""font-size:60px;"">+</div>","null","fixation","","","","","","","","","","","","","","","",""
"learning-instructions","49","263453","0.0-3.0-9.0-0.0","pilot_wm_v1","5fb5dfa5df577200090d9dc4","3","null","null","true","","","","","","","658.2000000011176","<p> One last thing: sometimes, you will see a robber. The robber can be anywhere in the picture. </p>
            <p> If you do not stop them, you will lose treasure. </p>
            <img src='./assets/img/instructions/robber.jpg' class='instructions-image'>","","instructions","","","","","","","","","","","","","","","",""
"learning-instructions","50","271004","0.0-3.0-9.0-0.1","pilot_wm_v1","5fb5dfa5df577200090d9dc4","3","null","null","true","","","","","","","367.09999999962747","<p> If you see the robber, you should <b>press the space bar</b> rather than using the arrow keys. </p>
            <p> Try practicing that now! </p>","","instructions","","","","","","","","","","","","","","","",""
"revaluation","51","275010","0.0-3.0-10.0-0.0","pilot_wm_v1","5fb5dfa5df577200090d9dc4","3","null","null","true","","","false","","","","[1003.5999999996275]","./assets/img/space/catch/0.jpg","[""spaceBar""]","catch practice","space","0","{""ArrowUp,ArrowLeft"":3,""ArrowUp,ArrowRight"":36,""ArrowDown,ArrowLeft"":15,""ArrowDown,ArrowRight"":23}","true","spaceBar","true","","","","","","","","","",""
"html-keyboard-response","52","275512","0.0-3.0-10.0-1.0","pilot_wm_v1","5fb5dfa5df577200090d9dc4","3","null","null","true","","","","","","","null","<div style=""font-size:60px;"">+</div>","null","fixation","","","","","","","","","","","","","","","",""
"revaluation","53","279517","0.0-3.0-10.0-0.1","pilot_wm_v1","5fb5dfa5df577200090d9dc4","3","null","null","true","","","false","","","","[529.5]","./assets/img/space/catch/1.jpg","[""spaceBar""]","catch practice","space","0","{""ArrowUp,ArrowLeft"":3,""ArrowUp,ArrowRight"":36,""ArrowDown,ArrowLeft"":15,""ArrowDown,ArrowRight"":23}","true","spaceBar","true","","","","","","","","","",""
"html-keyboard-response","54","280019","0.0-3.0-10.0-1.1","pilot_wm_v1","5fb5dfa5df577200090d9dc4","3","null","null","true","","","","","","","null","<div style=""font-size:60px;"">+</div>","null","fixation","","","","","","","","","","","","","","","",""
"revaluation","55","284025","0.0-3.0-10.0-0.2","pilot_wm_v1","5fb5dfa5df577200090d9dc4","3","null","null","true","","","false","","","","[568.4000000003725]","./assets/img/space/catch/2.jpg","[""spaceBar""]","catch practice","space","0","{""ArrowUp,ArrowLeft"":3,""ArrowUp,ArrowRight"":36,""ArrowDown,ArrowLeft"":15,""ArrowDown,ArrowRight"":23}","true","spaceBar","true","","","","","","","","","",""
"html-keyboard-response","56","284526","0.0-3.0-10.0-1.2","pilot_wm_v1","5fb5dfa5df577200090d9dc4","3","null","null","true","","","","","","","null","<div style=""font-size:60px;"">+</div>","null","fixation","","","","","","","","","","","","","","","",""
"learning-instructions","57","290456","0.0-3.0-11.0-0.0","pilot_wm_v1","5fb5dfa5df577200090d9dc4","3","null","null","true","","","","","","","394.7999999988824","<p> Sometimes, you will come across a special kind of treasure chest that requires a password. </p>
            <img src='./assets/img/instructions/beep_chest.jpg' class='instructions-image'>","","instructions","","","","","","","","","","","","","","","",""
"learning-instructions","58","313016","0.0-3.0-11.0-0.1","pilot_wm_v1","5fb5dfa5df577200090d9dc4","3","null","null","true","","","","","","","913.7999999988824","<p> Your friend will send you the password using a series of beeps so that you can open the chest and earn treasure. </p>
            <p> You will hear two kinds of beeps, a high beep and a low beep. </p>
            <p> You should report the number of high beeps that you heard before seeing the chest. </p>
            <img src='./assets/img/instructions/listen.jpg' class='instructions-image'>","","instructions","","","","","","","","","","","","","","","",""
"learning-instructions","59","337173","0.0-3.0-11.0-0.2","pilot_wm_v1","5fb5dfa5df577200090d9dc4","3","null","null","true","","","","","","","1822.0999999996275","<p> For example, if you hear this series of beeps, you should report 4 as the password using the slider. </p>
            <p> After reporting a password for a chest, you should count the high beeps again starting from 0. </p>
            <p> Let's try practicing that now. </p>","","instructions","","","","","","","","","","","","","","","",""
"audio-button-response","60","345201","0.0-3.0-12.0-0.0-0.0","pilot_wm_v1","5fb5dfa5df577200090d9dc4","3","null","null","true","","","","","","","null","./assets/audio/beeps/practice_6.wav","null","","","","","","","","","","","","","","","","",""
"html-slider-response","61","349506","0.0-3.0-12.0-0.0-1.0","pilot_wm_v1","5fb5dfa5df577200090d9dc4","3","null","null","true","","","","","","","4301","<div style=""width:500px;"">
        <p>What is the password?</p>
        <img src='./assets/img/instructions/beep_chest.jpg' class='instructions-image'>","6","beep chest","","","","false","","","","50","0","6","","","","","",""
"comp-q","62","354344","0.0-3.0-12.0-0.0-2.0","pilot_wm_v1","5fb5dfa5df577200090d9dc4","3","null","null","true","","","","","","","615.7999999988824","<p>Correct! There were 6 high pitched beeps before you saw the chest. </p>","0","beep answer","","","","","","","","","","","","","","","",""
"audio-button-response","63","362373","0.0-3.0-12.0-0.1-0.1","pilot_wm_v1","5fb5dfa5df577200090d9dc4","3","null","null","true","","","","","","","null","./assets/audio/beeps/practice_4.wav","null","","","","","","","","","","","","","","","","",""
"html-slider-response","64","367706","0.0-3.0-12.0-0.1-1.1","pilot_wm_v1","5fb5dfa5df577200090d9dc4","3","null","null","true","","","","","","","5331","<div style=""width:500px;"">
        <p>What is the password?</p>
        <img src='./assets/img/instructions/beep_chest.jpg' class='instructions-image'>","3","beep chest","","","","false","","","","50","0","3","","","","","",""
"comp-q","65","373937","0.0-3.0-12.0-0.1-2.1","pilot_wm_v1","5fb5dfa5df577200090d9dc4","3","null","null","true","","","","","","","871","<p>Incorrect! Please try again. Remember to count the number of high pitched beeps only. </p>","0","beep answer","","","","","","","","","","","","","","","",""
"audio-button-response","66","381941","0.0-3.0-12.0-0.2-0.2","pilot_wm_v1","5fb5dfa5df577200090d9dc4","3","null","null","true","","","","","","","null","./assets/audio/beeps/practice_4.wav","null","","","","","","","","","","","","","","","","",""
"html-slider-response","67","383952","0.0-3.0-12.0-0.2-1.2","pilot_wm_v1","5fb5dfa5df577200090d9dc4","3","null","null","true","","","","","","","2009","<div style=""width:500px;"">
        <p>What is the password?</p>
        <img src='./assets/img/instructions/beep_chest.jpg' class='instructions-image'>","4","beep chest","","","","false","","","","50","0","4","","","","","",""
"comp-q","68","389284","0.0-3.0-12.0-0.2-2.2","pilot_wm_v1","5fb5dfa5df577200090d9dc4","3","null","null","true","","","","","","","1136.300000000745","<p>Correct! There were 4 high pitched beeps before you saw the chest. </p>","0","beep answer","","","","","","","","","","","","","","","",""
"learning-instructions","69","400306","0.0-3.0-13.0-0.0","pilot_wm_v1","5fb5dfa5df577200090d9dc4","3","null","null","true","","","","","","","687.6999999992549","<p> Good job! In the real game we will not tell you if you entered the right password. </p>
            <p> Do your best, the treasure you earn from these chests will also give you extra bonus money. </p>","","instructions","","","","","","","","","","","","","","","",""
"learning-instructions","70","414423","0.0-3.0-14.0-0.0-0.0","pilot_wm_v1","5fb5dfa5df577200090d9dc4","3","null","null","true","","","","","","","489.09999999962747","<p> After you explore a place to find treasure, it will be time to play a different game. </p>
            <p> During this game, red dots will appear on the screen and fall down slowly. </p>
            <p><b> You must click on them before they reach the bottom. </b></p>
            <img src='./assets/img/instructions/dotGame.jpg' class='instructions-image'>","","instructions","","","","","","","","","","","","","","","",""
"learning-instructions","71","421087","0.0-3.0-14.0-0.0-0.1","pilot_wm_v1","5fb5dfa5df577200090d9dc4","3","null","null","true","","","","","","","971.3000000007451","<p> For every dot you click, you will earn additional treasure. </p>
            <p> Let’s try practicing that now. </p>","","instructions","","","","","","","","","","","","","","","",""
"revaluation","72","436098","0.0-3.0-14.0-1.0-0.0","pilot_wm_v1","5fb5dfa5df577200090d9dc4","3","null","null","true","","","","","","","[67]","","","rest practice","","10","","","","","","","","","0","15000","","","",""
"learning-instructions","73","442044","0.0-3.0-15.0-0.0-0.0","pilot_wm_v1","5fb5dfa5df577200090d9dc4","3","null","null","true","","","","","","","705.6000000014901","<p> Now, you will practice a shortened version of the game to get a sense of how it all fits together. </p>","","instructions","","","","","","","","","","","","","","","",""
"learning-instructions","74","446107","0.0-3.0-15.0-0.0-0.1","pilot_wm_v1","5fb5dfa5df577200090d9dc4","3","null","null","true","","","","","","","861.2000000011176","<p>This time you are searching for treasure in outer space.</p>","","instructions","","","","","","","","","","","","","","","",""
"learning-instructions","75","461881","0.0-3.0-15.0-1.0-0.0","pilot_wm_v1","5fb5dfa5df577200090d9dc4","3","null","null","true","","","","","","","927.7000000011176","<p> Remember, when you see a picture of the place, use the up and down keys to <b>find an animal</b>.</p>
            <p> When you encounter an animal, you should use the left and right keys to <b>select a treasure chest</b>.</p>
            <p> Don't forget to look out for the robber! </p>","","instructions","","","","","","","","","","","","","","","",""
"revaluation","76","467889","0.0-3.0-15.0-2.0-0.0","pilot_wm_v1","5fb5dfa5df577200090d9dc4","3","null","null","true","","","false","","","","[1502.8999999985099,796.1999999992549]","./assets/img/space/11.jpg","[""ArrowUp"",""ArrowRight""]","practice block","space","36","{""ArrowUp,ArrowLeft"":3,""ArrowUp,ArrowRight"":36,""ArrowDown,ArrowLeft"":15,""ArrowDown,ArrowRight"":23}","true","ArrowUp,ArrowRight","false","","","","","","","","","",""
"html-keyboard-response","77","468391","0.0-3.0-15.0-2.0-1.0","pilot_wm_v1","5fb5dfa5df577200090d9dc4","3","null","null","true","","","","","","","null","<div style=""font-size:60px;"">+</div>","null","fixation","","","","","","","","","","","","","","","",""
"revaluation","78","474396","0.0-3.0-15.0-2.0-0.1","pilot_wm_v1","5fb5dfa5df577200090d9dc4","3","null","null","true","","","false","","","","[1011.5,414.7000000011176]","./assets/img/space/12.jpg","[""ArrowUp"",""ArrowRight""]","practice block","space","36","{""ArrowUp,ArrowLeft"":3,""ArrowUp,ArrowRight"":36,""ArrowDown,ArrowLeft"":15,""ArrowDown,ArrowRight"":23}","true","ArrowUp,ArrowRight","false","","","","","","","","","",""
"html-keyboard-response","79","474898","0.0-3.0-15.0-2.0-1.1","pilot_wm_v1","5fb5dfa5df577200090d9dc4","3","null","null","true","","","","","","","null","<div style=""font-size:60px;"">+</div>","null","fixation","","","","","","","","","","","","","","","",""
"revaluation","80","480905","0.0-3.0-15.0-2.0-0.2","pilot_wm_v1","5fb5dfa5df577200090d9dc4","3","null","null","true","","","false","","","","[1055.7000000011176,464.80000000074506]","./assets/img/space/13.jpg","[""ArrowUp"",""ArrowRight""]","practice block","space","36","{""ArrowUp,ArrowLeft"":3,""ArrowUp,ArrowRight"":36,""ArrowDown,ArrowLeft"":15,""ArrowDown,ArrowRight"":23}","true","ArrowUp,ArrowRight","false","","","","","","","","","",""
"html-keyboard-response","81","481407","0.0-3.0-15.0-2.0-1.2","pilot_wm_v1","5fb5dfa5df577200090d9dc4","3","null","null","true","","","","","","","null","<div style=""font-size:60px;"">+</div>","null","fixation","","","","","","","","","","","","","","","",""
"revaluation","82","487414","0.0-3.0-15.0-2.0-0.3","pilot_wm_v1","5fb5dfa5df577200090d9dc4","3","null","null","true","","","false","","","","[874.0999999996275,485.7999999988824]","./assets/img/space/14.jpg","[""ArrowUp"",""ArrowRight""]","practice block","space","36","{""ArrowUp,ArrowLeft"":3,""ArrowUp,ArrowRight"":36,""ArrowDown,ArrowLeft"":15,""ArrowDown,ArrowRight"":23}","true","ArrowUp,ArrowRight","false","","","","","","","","","",""
"html-keyboard-response","83","487917","0.0-3.0-15.0-2.0-1.3","pilot_wm_v1","5fb5dfa5df577200090d9dc4","3","null","null","true","","","","","","","null","<div style=""font-size:60px;"">+</div>","null","fixation","","","","","","","","","","","","","","","",""
"revaluation","84","493922","0.0-3.0-15.0-2.0-0.4","pilot_wm_v1","5fb5dfa5df577200090d9dc4","3","null","null","true","","","false","","","","[1021.8000000007451,410.80000000074506]","./assets/img/space/11.jpg","[""ArrowUp"",""ArrowRight""]","practice block","space","36","{""ArrowUp,ArrowLeft"":3,""ArrowUp,ArrowRight"":36,""ArrowDown,ArrowLeft"":15,""ArrowDown,ArrowRight"":23}","true","ArrowUp,ArrowRight","false","","","","","","","","","",""
"html-keyboard-response","85","494425","0.0-3.0-15.0-2.0-1.4","pilot_wm_v1","5fb5dfa5df577200090d9dc4","3","null","null","true","","","","","","","null","<div style=""font-size:60px;"">+</div>","null","fixation","","","","","","","","","","","","","","","",""
"revaluation","86","500431","0.0-3.0-15.0-2.0-0.5","pilot_wm_v1","5fb5dfa5df577200090d9dc4","3","null","null","true","","","false","","","","[1102.7000000011176,490.5]","./assets/img/space/12.jpg","[""ArrowUp"",""ArrowRight""]","practice block","space","36","{""ArrowUp,ArrowLeft"":3,""ArrowUp,ArrowRight"":36,""ArrowDown,ArrowLeft"":15,""ArrowDown,ArrowRight"":23}","true","ArrowUp,ArrowRight","false","","","","","","","","","",""
"html-keyboard-response","87","500934","0.0-3.0-15.0-2.0-1.5","pilot_wm_v1","5fb5dfa5df577200090d9dc4","3","null","null","true","","","","","","","null","<div style=""font-size:60px;"">+</div>","null","fixation","","","","","","","","","","","","","","","",""
"revaluation","88","506941","0.0-3.0-15.0-2.0-0.6","pilot_wm_v1","5fb5dfa5df577200090d9dc4","3","null","null","true","","","false","","","","[1157.9000000003725,323.30000000074506]","./assets/img/space/13.jpg","[""ArrowUp"",""ArrowRight""]","practice block","space","36","{""ArrowUp,ArrowLeft"":3,""ArrowUp,ArrowRight"":36,""ArrowDown,ArrowLeft"":15,""ArrowDown,ArrowRight"":23}","true","ArrowUp,ArrowRight","false","","","","","","","","","",""
"html-keyboard-response","89","507442","0.0-3.0-15.0-2.0-1.6","pilot_wm_v1","5fb5dfa5df577200090d9dc4","3","null","null","true","","","","","","","null","<div style=""font-size:60px;"">+</div>","null","fixation","","","","","","","","","","","","","","","",""
"revaluation","90","513448","0.0-3.0-15.0-2.0-0.7","pilot_wm_v1","5fb5dfa5df577200090d9dc4","3","null","null","true","","","false","","","","[993.1000000014901,317]","./assets/img/space/14.jpg","[""ArrowUp"",""ArrowRight""]","practice block","space","36","{""ArrowUp,ArrowLeft"":3,""ArrowUp,ArrowRight"":36,""ArrowDown,ArrowLeft"":15,""ArrowDown,ArrowRight"":23}","true","ArrowUp,ArrowRight","false","","","","","","","","","",""
"html-keyboard-response","91","513950","0.0-3.0-15.0-2.0-1.7","pilot_wm_v1","5fb5dfa5df577200090d9dc4","3","null","null","true","","","","","","","null","<div style=""font-size:60px;"">+</div>","null","fixation","","","","","","","","","","","","","","","",""
"revaluation","92","517955","0.0-3.0-15.0-2.0-0.8","pilot_wm_v1","5fb5dfa5df577200090d9dc4","3","null","null","true","","","false","","","","[618.9000000003725]","./assets/img/space/catch/3.jpg","[""spaceBar""]","practice block","space","0","{""ArrowUp,ArrowLeft"":3,""ArrowUp,ArrowRight"":36,""ArrowDown,ArrowLeft"":15,""ArrowDown,ArrowRight"":23}","true","spaceBar","true","","","","","","","","","",""
"html-keyboard-response","93","518457","0.0-3.0-15.0-2.0-1.8","pilot_wm_v1","5fb5dfa5df577200090d9dc4","3","null","null","true","","","","","","","null","<div style=""font-size:60px;"">+</div>","null","fixation","","","","","","","","","","","","","","","",""
"learning-instructions","94","532460","0.0-3.0-15.0-3.0-0.0","pilot_wm_v1","5fb5dfa5df577200090d9dc4","3","null","null","true","","","","","","","1016.5","<p> Now, you will travel with a friend who will choose whether you go up or down first. </p>
            <p> On these turns, you will just see the animal that they found. You will still get to choose which chest to search for treasure.</p>","","instructions","","","","","","","","","","","","","","","",""
"learning-instructions","95","544897","0.0-3.0-15.0-3.0-0.1","pilot_wm_v1","5fb5dfa5df577200090d9dc4","3","null","null","true","","","","","","","792.4000000003725","<p> In this part, you will also hear beeps from your friend and see special treasure chests that need a password. </p>
            <p> Do your best to count the high beeps <b>and</b> choose between each animals' chests at the same time.</p>
            <img src='./assets/img/instructions/beep_chest.jpg' class='instructions-image'>","","instructions","","","","","","","","","","","","","","","",""
"revaluation","96","548903","0.0-3.0-15.0-4.0-0.0","pilot_wm_v1","5fb5dfa5df577200090d9dc4","3","null","null","true","","","true","","","","[]","./assets/img/space/animals/cat.jpg","[]","practice block","space","-5","{""ArrowUp,ArrowLeft"":3,""ArrowUp,ArrowRight"":36,""ArrowDown,ArrowLeft"":15,""ArrowDown,ArrowRight"":23}","false","ArrowUp","","[""20_0""]","","","","","","0","","",""
"html-keyboard-response","97","549409","0.0-3.0-15.0-4.0-1.0","pilot_wm_v1","5fb5dfa5df577200090d9dc4","3","null","null","true","","","","","","","null","<div style=""font-size:60px;"">+</div>","null","fixation","","","","","","","","","","","","","","","",""
"revaluation","98","553414","0.0-3.0-15.0-4.0-0.1","pilot_wm_v1","5fb5dfa5df577200090d9dc4","3","null","null","true","","","false","","","","[963.9000000003725]","./assets/img/space/animals/rabbit.jpg","[""ArrowRight""]","practice block","space","23","{""ArrowUp,ArrowLeft"":3,""ArrowUp,ArrowRight"":36,""ArrowDown,ArrowLeft"":15,""ArrowDown,ArrowRight"":23}","true","ArrowDown,ArrowRight","","[""22_3""]","","","","","","1","","",""
"html-keyboard-response","99","553916","0.0-3.0-15.0-4.0-1.1","pilot_wm_v1","5fb5dfa5df577200090d9dc4","3","null","null","true","","","","","","","null","<div style=""font-size:60px;"">+</div>","null","fixation","","","","","","","","","","","","","","","",""
"revaluation","100","557921","0.0-3.0-15.0-4.0-0.2","pilot_wm_v1","5fb5dfa5df577200090d9dc4","3","null","null","true","","","false","","","","[865]","./assets/img/space/animals/cat.jpg","[""ArrowRight""]","practice block","space","36","{""ArrowUp,ArrowLeft"":3,""ArrowUp,ArrowRight"":36,""ArrowDown,ArrowLeft"":15,""ArrowDown,ArrowRight"":23}","true","ArrowUp,ArrowRight","","[""19_0""]","","","","","","2","","",""
"html-keyboard-response","101","558423","0.0-3.0-15.0-4.0-1.2","pilot_wm_v1","5fb5dfa5df577200090d9dc4","3","null","null","true","","","","","","","null","<div style=""font-size:60px;"">+</div>","null","fixation","","","","","","","","","","","","","","","",""
"revaluation","102","562429","0.0-3.0-15.0-4.0-0.3","pilot_wm_v1","5fb5dfa5df577200090d9dc4","3","null","null","true","","","false","","","","[1804.1000000014901]","./assets/img/space/animals/rabbit.jpg","[""ArrowRight""]","practice block","space","23","{""ArrowUp,ArrowLeft"":3,""ArrowUp,ArrowRight"":36,""ArrowDown,ArrowLeft"":15,""ArrowDown,ArrowRight"":23}","true","ArrowDown,ArrowRight","","[""21_1""]","","","","","","3","","",""
"html-keyboard-response","103","562931","0.0-3.0-15.0-4.0-1.3","pilot_wm_v1","5fb5dfa5df577200090d9dc4","3","null","null","true","","","","","","","null","<div style=""font-size:60px;"">+</div>","null","fixation","","","","","","","","","","","","","","","",""
"html-slider-response","104","565650","0.0-3.0-15.0-4.0-2.3-0.3","pilot_wm_v1","5fb5dfa5df577200090d9dc4","3","null","null","true","","","","","","","2717","<div style=""width:500px;"">
        <p>What is the password?</p>
        <img src='./assets/img/instructions/beep_chest.jpg' class='instructions-image'>","1","beep chest","","","","false","","","","50","82","81","","","","","",""
"learning-instructions","105","575897","0.0-3.0-15.0-5.0-0.0-0.0","pilot_wm_v1","5fb5dfa5df577200090d9dc4","3","null","null","true","","","","","","","2848.5999999996275","<p> Time to play the dot game! </p>
            <p> For 15 seconds, click the red dots on the following screen as they appear. </p>","","instructions","","","","","","","","","","","","","","","",""
"revaluation","106","590900","0.0-3.0-15.0-5.0-1.0-0.0","pilot_wm_v1","5fb5dfa5df577200090d9dc4","3","null","null","true","","","","","","","[53]","","","rest practice","","10","","","","","","","","","0","15000","","","",""
"learning-instructions","107","599055","0.0-3.0-15.0-6.0-0.0","pilot_wm_v1","5fb5dfa5df577200090d9dc4","3","null","null","true","","","","","","","null","<p> You have almost finished this part of the game! </p>
            <p> We are going to ask you to make a few more choices. </p>","","instructions","","","","","","","","","","","","","","","",""
"learning-instructions","108","615116","0.0-3.0-15.0-6.0-0.1","pilot_wm_v1","5fb5dfa5df577200090d9dc4","3","null","null","true","","","","","","","null","<p> First, you need to decide whether to go up or down. When you see each picture, use the arrow keys to make your choice. </p>
            <p><b>You will not see which animal you found, but try to get to the one that will give you the most treasure.</b></p>","","instructions","","","","","","","","","","","","","","","",""
"html-keyboard-response","109","616118","0.0-3.0-15.0-7.0-0.0","pilot_wm_v1","5fb5dfa5df577200090d9dc4","3","null","null","true","","","","","","","null","<div style=""font-size:100px;color:red;"">Starting in...</div>","null","","","","","","","","","","","","","","","","",""
"html-keyboard-response","110","617121","0.0-3.0-15.0-7.0-1.0","pilot_wm_v1","5fb5dfa5df577200090d9dc4","3","null","null","true","","","","","","","null","<div style=""font-size:200px;color:red;"">3</div>","null","","","","","","","","","","","","","","","","",""
"html-keyboard-response","111","618122","0.0-3.0-15.0-7.0-2.0","pilot_wm_v1","5fb5dfa5df577200090d9dc4","3","null","null","true","","","","","","","null","<div style=""font-size:200px;color:red;"">2</div>","null","","","","","","","","","","","","","","","","",""
"html-keyboard-response","112","619124","0.0-3.0-15.0-7.0-3.0","pilot_wm_v1","5fb5dfa5df577200090d9dc4","3","null","null","true","","","","","","","null","<div style=""font-size:200px;color:red;"">1</div>","null","","","","","","","","","","","","","","","","",""
"revaluation","113","619972","0.0-3.0-15.0-8.0","pilot_wm_v1","5fb5dfa5df577200090d9dc4","3","null","null","true","","","false","","","","[845.7999999988824]","./assets/img/space/15.jpg","[""ArrowUp""]","practice block","space","0","{""ArrowUp,ArrowLeft"":3,""ArrowUp,ArrowRight"":36,""ArrowDown,ArrowLeft"":15,""ArrowDown,ArrowRight"":23}","true","ArrowUp","false","","","","","","","","","",""
"html-keyboard-response","114","620473","0.0-3.0-15.0-9.0","pilot_wm_v1","5fb5dfa5df577200090d9dc4","3","null","null","true","","","","","","","null","<div style=""font-size:60px;"">+</div>","null","fixation","","","","","","","","","","","","","","","",""
"learning-instructions","115","633883","0.0-3.0-15.0-10.0-0.0","pilot_wm_v1","5fb5dfa5df577200090d9dc4","3","null","null","true","","","","","","","null","<p> Now you will see the animals again and can search their chests for treasure. </p>
            <p> This time, you will not see how much treasure you earned, but you will earn more bonus money for making better choices. </p>","","instructions","","","","","","","","","","","","","","","",""
"html-keyboard-response","116","634886","0.0-3.0-15.0-11.0-0.0","pilot_wm_v1","5fb5dfa5df577200090d9dc4","3","null","null","true","","","","","","","null","<div style=""font-size:100px;color:red;"">Starting in...</div>","null","","","","","","","","","","","","","","","","",""
"html-keyboard-response","117","635888","0.0-3.0-15.0-11.0-1.0","pilot_wm_v1","5fb5dfa5df577200090d9dc4","3","null","null","true","","","","","","","null","<div style=""font-size:200px;color:red;"">3</div>","null","","","","","","","","","","","","","","","","",""
"html-keyboard-response","118","636891","0.0-3.0-15.0-11.0-2.0","pilot_wm_v1","5fb5dfa5df577200090d9dc4","3","null","null","true","","","","","","","null","<div style=""font-size:200px;color:red;"">2</div>","null","","","","","","","","","","","","","","","","",""
"html-keyboard-response","119","637893","0.0-3.0-15.0-11.0-3.0","pilot_wm_v1","5fb5dfa5df577200090d9dc4","3","null","null","true","","","","","","","null","<div style=""font-size:200px;color:red;"">1</div>","null","","","","","","","","","","","","","","","","",""
"revaluation","120","638473","0.0-3.0-15.0-12.0-0.0","pilot_wm_v1","5fb5dfa5df577200090d9dc4","3","null","null","true","","","false","","","","[576.6999999992549]","./assets/img/space/animals/cat.jpg","[""ArrowRight""]","practice block","space","0","{""ArrowUp,ArrowLeft"":3,""ArrowUp,ArrowRight"":36,""ArrowDown,ArrowLeft"":15,""ArrowDown,ArrowRight"":23}","true","ArrowUp,ArrowRight","","","","","","","","","","",""
"html-keyboard-response","121","638974","0.0-3.0-15.0-12.0-1.0","pilot_wm_v1","5fb5dfa5df577200090d9dc4","3","null","null","true","","","","","","","null","<div style=""font-size:60px;"">+</div>","null","fixation","","","","","","","","","","","","","","","",""
"revaluation","122","639736","0.0-3.0-15.0-12.0-0.1","pilot_wm_v1","5fb5dfa5df577200090d9dc4","3","null","null","true","","","false","","","","[758.7000000011176]","./assets/img/space/animals/rabbit.jpg","[""ArrowRight""]","practice block","space","0","{""ArrowUp,ArrowLeft"":3,""ArrowUp,ArrowRight"":36,""ArrowDown,ArrowLeft"":15,""ArrowDown,ArrowRight"":23}","true","ArrowDown,ArrowRight","","","","","","","","","","",""
"html-keyboard-response","123","640237","0.0-3.0-15.0-12.0-1.1","pilot_wm_v1","5fb5dfa5df577200090d9dc4","3","null","null","true","","","","","","","null","<div style=""font-size:60px;"">+</div>","null","fixation","","","","","","","","","","","","","","","",""
"learning-instructions","124","645643","0.0-3.0-16.0-0.0","pilot_wm_v1","5fb5dfa5df577200090d9dc4","3","null","null","true","","","","","","","816.5999999996275","<p> Before you start, we're going to ask you a few questions about how the game works. </p>","","instructions","","","","","","","","","","","","","","","",""
"comp-q","125","651928","0.0-3.0-17.0-0.0-0.0","pilot_wm_v1","5fb5dfa5df577200090d9dc4","3","null","null","true","","","","","","","657.3000000007451","<p> <b> True or False? </b> </p>
            <p> There can be 50 pieces of treasure in a given animal's chest. </p>","1","comp_question","","","","true","","","","","","","","","","","",""
"comp-q","126","659683","0.0-3.0-17.0-0.0-1.0","pilot_wm_v1","5fb5dfa5df577200090d9dc4","3","null","null","true","","","","","","","1075.1000000014901","<p> <b> That's right! </b> The amount of treasure in each chest can range from 0 to 40 pieces. </p>","0","comp_answer","","","","","","","","","","","","","","","",""
"comp-q","127","667585","0.0-3.0-17.0-0.1-0.1","pilot_wm_v1","5fb5dfa5df577200090d9dc4","3","null","null","true","","","","","","","756.7999999988824","<p> <b> True or False? </b> </p><p> In this game, all animals have the same amount of treasure in their left and right chests. </p>","1","comp_question","","","","true","","","","","","","","","","","",""
"comp-q","128","673422","0.0-3.0-17.0-0.1-1.1","pilot_wm_v1","5fb5dfa5df577200090d9dc4","3","null","null","true","","","","","","","585.5999999996275","<p> <b> That's right! </b> Animals have different amounts of treasure in their treasure chests. </p>","0","comp_answer","","","","","","","","","","","","","","","",""
"comp-q","129","679752","0.0-3.0-17.0-0.2-0.2","pilot_wm_v1","5fb5dfa5df577200090d9dc4","3","null","null","true","","","","","","","472","<p> <b> True or False? </b> </p><p> The same animal will always be there if you go up in the same place. </p>","0","comp_question","","","","true","","","","","","","","","","","",""
"comp-q","130","687182","0.0-3.0-17.0-0.2-1.2","pilot_wm_v1","5fb5dfa5df577200090d9dc4","3","null","null","true","","","","","","","930.7000000011176","<p> <b> That's right! </b> One animal lives in the upper part and one lives in the lower part of every place. </p>","0","comp_answer","","","","","","","","","","","","","","","",""
"comp-q","131","693179","0.0-3.0-17.0-0.3-0.3","pilot_wm_v1","5fb5dfa5df577200090d9dc4","3","null","null","true","","","","","","","460.40000000037253","<p> <b> True or False? </b> </p><p> If you see a different picture, it means you are in a new place. </p>","1","comp_question","","","","true","","","","","","","","","","","",""
"comp-q","132","705040","0.0-3.0-17.0-0.3-1.3","pilot_wm_v1","5fb5dfa5df577200090d9dc4","3","null","null","true","","","","","","","607.4000000003725","<p> <b> That's right! </b> Lots of different images may show the same place. For example,  you may see three different images that all remind you that you are in outer space. </p>","0","comp_answer","","","","","","","","","","","","","","","",""
"learning-instructions","133","715969","0.0-3.0-18.0-0.0","pilot_wm_v1","5fb5dfa5df577200090d9dc4","3","null","null","true","","","","","","","1052.699999999255","<p> Good job. Remember to do your best because the amount of treasure you earn will be converted into bonus money. </p>
            <p> It’s time to start the real game! </p>","","instructions","","","","","","","","","","","","","","","",""
"learning-instructions","134","719344","0.0-4.0-0.0-0.0","pilot_wm_v1","5fb5dfa5df577200090d9dc4","3","null","null","true","","","","","","","654.5999999996275","<p> This time you are searching for treasure in the <b>ocean</b>.</p>","","instructions","","","","","","","","","","","","","","","",""
"learning-instructions","135","737401","0.0-4.0-0.0-0.1","pilot_wm_v1","5fb5dfa5df577200090d9dc4","3","null","null","true","","","","","","","704.6999999992549","<p><b>New</b> animals with <b>new</b> treasure chests live here. You need to explore to discover where the animal with the best treasure chest is.</p>
                    <p> Like before, once you figure out which animal has the chest with the most treasure, you should try to get to that animal and select that chest! </p>","","instructions","","","","","","","","","","","","","","","",""
"learning-instructions","136","752682","0.0-4.0-1.0-0.0","pilot_wm_v1","5fb5dfa5df577200090d9dc4","3","null","null","true","","","","","","","550.0999999996275","<p> Remember, when you see a picture of the place, use the up and down keys to <b>find an animal</b>.</p>
            <p> When you encounter an animal, you should use the left and right keys to <b>select a treasure chest</b>.</p>
            <p> Don't forget to look out for the robber! </p>","","instructions","","","","","","","","","","","","","","","",""
"revaluation","137","758689","0.0-4.0-2.0-0.0","pilot_wm_v1","5fb5dfa5df577200090d9dc4","3","null","null","true","","","false","","","","[935,645.8000000007451]","./assets/img/ocean/memory/4.jpg","[""ArrowUp"",""ArrowLeft""]","value training","ocean","23","{""ArrowUp,ArrowLeft"":23,""ArrowUp,ArrowRight"":10,""ArrowDown,ArrowLeft"":8,""ArrowDown,ArrowRight"":30}","false","ArrowUp,ArrowLeft","false","","","","","","","0","original","1",""
"html-keyboard-response","138","759194","0.0-4.0-2.0-1.0","pilot_wm_v1","5fb5dfa5df577200090d9dc4","3","null","null","true","","","","","","","null","<div style=""font-size:60px;"">+</div>","null","fixation","","","","","","","","","","","","","1","","",""
"revaluation","139","765202","0.0-4.0-2.0-0.1","pilot_wm_v1","5fb5dfa5df577200090d9dc4","3","null","null","true","","","false","","","","[476,446]","./assets/img/ocean/memory/18.jpg","[""ArrowUp"",""ArrowRight""]","value training","ocean","10","{""ArrowUp,ArrowLeft"":23,""ArrowUp,ArrowRight"":10,""ArrowDown,ArrowLeft"":8,""ArrowDown,ArrowRight"":30}","false","ArrowUp,ArrowRight","false","","","","","","","2","original","1",""
"html-keyboard-response","140","765703","0.0-4.0-2.0-1.1","pilot_wm_v1","5fb5dfa5df577200090d9dc4","3","null","null","true","","","","","","","null","<div style=""font-size:60px;"">+</div>","null","fixation","","","","","","","","","","","","","3","","",""
"revaluation","141","771708","0.0-4.0-2.0-0.2","pilot_wm_v1","5fb5dfa5df577200090d9dc4","3","null","null","true","","","false","","","","[774.2999999988824,618]","./assets/img/ocean/memory/41.jpg","[""ArrowDown"",""ArrowLeft""]","value training","ocean","8","{""ArrowUp,ArrowLeft"":23,""ArrowUp,ArrowRight"":10,""ArrowDown,ArrowLeft"":8,""ArrowDown,ArrowRight"":30}","false","ArrowDown,ArrowLeft","false","","","","","","","4","original","1",""
"html-keyboard-response","142","772211","0.0-4.0-2.0-1.2","pilot_wm_v1","5fb5dfa5df577200090d9dc4","3","null","null","true","","","","","","","null","<div style=""font-size:60px;"">+</div>","null","fixation","","","","","","","","","","","","","5","","",""
"revaluation","143","778215","0.0-4.0-2.0-0.3","pilot_wm_v1","5fb5dfa5df577200090d9dc4","3","null","null","true","","","false","","","","[1643.4000000003725,354.09999999962747]","./assets/img/ocean/memory/22.jpg","[""ArrowDown"",""ArrowRight""]","value training","ocean","30","{""ArrowUp,ArrowLeft"":23,""ArrowUp,ArrowRight"":10,""ArrowDown,ArrowLeft"":8,""ArrowDown,ArrowRight"":30}","true","ArrowDown,ArrowRight","false","","","","","","","6","original","1",""
"html-keyboard-response","144","778718","0.0-4.0-2.0-1.3","pilot_wm_v1","5fb5dfa5df577200090d9dc4","3","null","null","true","","","","","","","null","<div style=""font-size:60px;"">+</div>","null","fixation","","","","","","","","","","","","","7","","",""
"revaluation","145","784725","0.0-4.0-2.0-0.4","pilot_wm_v1","5fb5dfa5df577200090d9dc4","3","null","null","true","","","false","","","","[801.5,455.30000000074506]","./assets/img/ocean/memory/34.jpg","[""ArrowDown"",""ArrowRight""]","value training","ocean","30","{""ArrowUp,ArrowLeft"":23,""ArrowUp,ArrowRight"":10,""ArrowDown,ArrowLeft"":8,""ArrowDown,ArrowRight"":30}","true","ArrowDown,ArrowRight","false","","","","","","","8","original","1",""
"html-keyboard-response","146","785227","0.0-4.0-2.0-1.4","pilot_wm_v1","5fb5dfa5df577200090d9dc4","3","null","null","true","","","","","","","null","<div style=""font-size:60px;"">+</div>","null","fixation","","","","","","","","","","","","","9","","",""
"revaluation","147","791235","0.0-4.0-2.0-0.5","pilot_wm_v1","5fb5dfa5df577200090d9dc4","3","null","null","true","","","false","","","","[847.5,391.80000000074506]","./assets/img/ocean/memory/36.jpg","[""ArrowDown"",""ArrowRight""]","value training","ocean","30","{""ArrowUp,ArrowLeft"":23,""ArrowUp,ArrowRight"":10,""ArrowDown,ArrowLeft"":8,""ArrowDown,ArrowRight"":30}","true","ArrowDown,ArrowRight","false","","","","","","","10","original","1",""
"html-keyboard-response","148","791736","0.0-4.0-2.0-1.5","pilot_wm_v1","5fb5dfa5df577200090d9dc4","3","null","null","true","","","","","","","null","<div style=""font-size:60px;"">+</div>","null","fixation","","","","","","","","","","","","","11","","",""
"revaluation","149","797741","0.0-4.0-2.0-0.6","pilot_wm_v1","5fb5dfa5df577200090d9dc4","3","null","null","true","","","false","","","","[959.5,372.09999999962747]","./assets/img/ocean/memory/2.jpg","[""ArrowDown"",""ArrowRight""]","value training","ocean","30","{""ArrowUp,ArrowLeft"":23,""ArrowUp,ArrowRight"":10,""ArrowDown,ArrowLeft"":8,""ArrowDown,ArrowRight"":30}","true","ArrowDown,ArrowRight","false","","","","","","","12","original","1",""
"html-keyboard-response","150","798243","0.0-4.0-2.0-1.6","pilot_wm_v1","5fb5dfa5df577200090d9dc4","3","null","null","true","","","","","","","null","<div style=""font-size:60px;"">+</div>","null","fixation","","","","","","","","","","","","","13","","",""
"revaluation","151","804251","0.0-4.0-2.0-0.7","pilot_wm_v1","5fb5dfa5df577200090d9dc4","3","null","null","true","","","false","","","","[830.1999999992549,454.7000000011176]","./assets/img/ocean/memory/26.jpg","[""ArrowDown"",""ArrowRight""]","value training","ocean","30","{""ArrowUp,ArrowLeft"":23,""ArrowUp,ArrowRight"":10,""ArrowDown,ArrowLeft"":8,""ArrowDown,ArrowRight"":30}","true","ArrowDown,ArrowRight","false","","","","","","","14","original","1",""
"html-keyboard-response","152","804753","0.0-4.0-2.0-1.7","pilot_wm_v1","5fb5dfa5df577200090d9dc4","3","null","null","true","","","","","","","null","<div style=""font-size:60px;"">+</div>","null","fixation","","","","","","","","","","","","","15","","",""
"revaluation","153","810760","0.0-4.0-2.0-0.8","pilot_wm_v1","5fb5dfa5df577200090d9dc4","3","null","null","true","","","false","","","","[896.6999999992549,354.8999999985099]","./assets/img/ocean/memory/1.jpg","[""ArrowDown"",""ArrowRight""]","value training","ocean","30","{""ArrowUp,ArrowLeft"":23,""ArrowUp,ArrowRight"":10,""ArrowDown,ArrowLeft"":8,""ArrowDown,ArrowRight"":30}","true","ArrowDown,ArrowRight","false","","","","","","","16","original","1",""
"html-keyboard-response","154","811262","0.0-4.0-2.0-1.8","pilot_wm_v1","5fb5dfa5df577200090d9dc4","3","null","null","true","","","","","","","null","<div style=""font-size:60px;"">+</div>","null","fixation","","","","","","","","","","","","","17","","",""
"revaluation","155","817271","0.0-4.0-2.0-0.9","pilot_wm_v1","5fb5dfa5df577200090d9dc4","3","null","null","true","","","false","","","","[935.5999999996275,330.80000000074506]","./assets/img/ocean/memory/33.jpg","[""ArrowDown"",""ArrowRight""]","value training","ocean","30","{""ArrowUp,ArrowLeft"":23,""ArrowUp,ArrowRight"":10,""ArrowDown,ArrowLeft"":8,""ArrowDown,ArrowRight"":30}","true","ArrowDown,ArrowRight","false","","","","","","","18","original","1",""
"html-keyboard-response","156","817772","0.0-4.0-2.0-1.9","pilot_wm_v1","5fb5dfa5df577200090d9dc4","3","null","null","true","","","","","","","null","<div style=""font-size:60px;"">+</div>","null","fixation","","","","","","","","","","","","","19","","",""
"revaluation","157","823777","0.0-4.0-2.0-0.10","pilot_wm_v1","5fb5dfa5df577200090d9dc4","3","null","null","true","","","false","","","","[1277.2999999988824,458.69999999925494]","./assets/img/ocean/memory/21.jpg","[""ArrowDown"",""ArrowRight""]","value training","ocean","30","{""ArrowUp,ArrowLeft"":23,""ArrowUp,ArrowRight"":10,""ArrowDown,ArrowLeft"":8,""ArrowDown,ArrowRight"":30}","true","ArrowDown,ArrowRight","false","","","","","","","20","original","1",""
"html-keyboard-response","158","824279","0.0-4.0-2.0-1.10","pilot_wm_v1","5fb5dfa5df577200090d9dc4","3","null","null","true","","","","","","","null","<div style=""font-size:60px;"">+</div>","null","fixation","","","","","","","","","","","","","21","","",""
"revaluation","159","830285","0.0-4.0-2.0-0.11","pilot_wm_v1","5fb5dfa5df577200090d9dc4","3","null","null","true","","","false","","","","[1010.9000000003725,302]","./assets/img/ocean/memory/39.jpg","[""ArrowDown"",""ArrowRight""]","value training","ocean","30","{""ArrowUp,ArrowLeft"":23,""ArrowUp,ArrowRight"":10,""ArrowDown,ArrowLeft"":8,""ArrowDown,ArrowRight"":30}","true","ArrowDown,ArrowRight","false","","","","","","","22","original","1",""
"html-keyboard-response","160","830788","0.0-4.0-2.0-1.11","pilot_wm_v1","5fb5dfa5df577200090d9dc4","3","null","null","true","","","","","","","null","<div style=""font-size:60px;"">+</div>","null","fixation","","","","","","","","","","","","","23","","",""
"revaluation","161","836795","0.0-4.0-2.0-0.12","pilot_wm_v1","5fb5dfa5df577200090d9dc4","3","null","null","true","","","false","","","","[655.5,291.09999999962747]","./assets/img/ocean/memory/36.jpg","[""ArrowDown"",""ArrowRight""]","value training","ocean","30","{""ArrowUp,ArrowLeft"":23,""ArrowUp,ArrowRight"":10,""ArrowDown,ArrowLeft"":8,""ArrowDown,ArrowRight"":30}","true","ArrowDown,ArrowRight","false","","","","","","","24","original","1",""
"html-keyboard-response","162","837297","0.0-4.0-2.0-1.12","pilot_wm_v1","5fb5dfa5df577200090d9dc4","3","null","null","true","","","","","","","null","<div style=""font-size:60px;"">+</div>","null","fixation","","","","","","","","","","","","","25","","",""
"revaluation","163","841302","0.0-4.0-2.0-0.13","pilot_wm_v1","5fb5dfa5df577200090d9dc4","3","null","null","true","","","false","","","","[715.7000000011176]","./assets/img/ocean/catch/0.jpg","[""spaceBar""]","value training","ocean","0","{""ArrowUp,ArrowLeft"":23,""ArrowUp,ArrowRight"":10,""ArrowDown,ArrowLeft"":8,""ArrowDown,ArrowRight"":30}","true","spaceBar","true","","","","","","","26","original","1",""
"html-keyboard-response","164","841803","0.0-4.0-2.0-1.13","pilot_wm_v1","5fb5dfa5df577200090d9dc4","3","null","null","true","","","","","","","null","<div style=""font-size:60px;"">+</div>","null","fixation","","","","","","","","","","","","","27","","",""
"revaluation","165","847807","0.0-4.0-2.0-0.14","pilot_wm_v1","5fb5dfa5df577200090d9dc4","3","null","null","true","","","false","","","","[890.5999999996275,310.80000000074506]","./assets/img/ocean/memory/19.jpg","[""ArrowDown"",""ArrowRight""]","value training","ocean","30","{""ArrowUp,ArrowLeft"":23,""ArrowUp,ArrowRight"":10,""ArrowDown,ArrowLeft"":8,""ArrowDown,ArrowRight"":30}","true","ArrowDown,ArrowRight","false","","","","","","","28","original","1",""
"html-keyboard-response","166","848309","0.0-4.0-2.0-1.14","pilot_wm_v1","5fb5dfa5df577200090d9dc4","3","null","null","true","","","","","","","null","<div style=""font-size:60px;"">+</div>","null","fixation","","","","","","","","","","","","","29","","",""
"revaluation","167","852314","0.0-4.0-2.0-0.15","pilot_wm_v1","5fb5dfa5df577200090d9dc4","3","null","null","true","","","false","","","","[653.8000000007451]","./assets/img/ocean/catch/2.jpg","[""spaceBar""]","value training","ocean","0","{""ArrowUp,ArrowLeft"":23,""ArrowUp,ArrowRight"":10,""ArrowDown,ArrowLeft"":8,""ArrowDown,ArrowRight"":30}","true","spaceBar","true","","","","","","","30","original","1",""
"html-keyboard-response","168","852816","0.0-4.0-2.0-1.15","pilot_wm_v1","5fb5dfa5df577200090d9dc4","3","null","null","true","","","","","","","null","<div style=""font-size:60px;"">+</div>","null","fixation","","","","","","","","","","","","","31","","",""
"revaluation","169","858824","0.0-4.0-2.0-0.16","pilot_wm_v1","5fb5dfa5df577200090d9dc4","3","null","null","true","","","false","","","","[705.4000000003725,288.09999999962747]","./assets/img/ocean/memory/40.jpg","[""ArrowDown"",""ArrowRight""]","value training","ocean","30","{""ArrowUp,ArrowLeft"":23,""ArrowUp,ArrowRight"":10,""ArrowDown,ArrowLeft"":8,""ArrowDown,ArrowRight"":30}","true","ArrowDown,ArrowRight","false","","","","","","","32","original","1",""
"html-keyboard-response","170","859326","0.0-4.0-2.0-1.16","pilot_wm_v1","5fb5dfa5df577200090d9dc4","3","null","null","true","","","","","","","null","<div style=""font-size:60px;"">+</div>","null","fixation","","","","","","","","","","","","","33","","",""
"revaluation","171","865333","0.0-4.0-2.0-0.17","pilot_wm_v1","5fb5dfa5df577200090d9dc4","3","null","null","true","","","false","","","","[765.1999999992549,330.09999999962747]","./assets/img/ocean/memory/41.jpg","[""ArrowDown"",""ArrowRight""]","value training","ocean","30","{""ArrowUp,ArrowLeft"":23,""ArrowUp,ArrowRight"":10,""ArrowDown,ArrowLeft"":8,""ArrowDown,ArrowRight"":30}","true","ArrowDown,ArrowRight","false","","","","","","","34","original","1",""
"html-keyboard-response","172","865834","0.0-4.0-2.0-1.17","pilot_wm_v1","5fb5dfa5df577200090d9dc4","3","null","null","true","","","","","","","null","<div style=""font-size:60px;"">+</div>","null","fixation","","","","","","","","","","","","","35","","",""
"revaluation","173","871839","0.0-4.0-2.0-0.18","pilot_wm_v1","5fb5dfa5df577200090d9dc4","3","null","null","true","","","false","","","","[554.7999999988824,301.69999999925494]","./assets/img/ocean/memory/34.jpg","[""ArrowDown"",""ArrowRight""]","value training","ocean","30","{""ArrowUp,ArrowLeft"":23,""ArrowUp,ArrowRight"":10,""ArrowDown,ArrowLeft"":8,""ArrowDown,ArrowRight"":30}","true","ArrowDown,ArrowRight","false","","","","","","","36","original","1",""
"html-keyboard-response","174","872341","0.0-4.0-2.0-1.18","pilot_wm_v1","5fb5dfa5df577200090d9dc4","3","null","null","true","","","","","","","null","<div style=""font-size:60px;"">+</div>","null","fixation","","","","","","","","","","","","","37","","",""
"revaluation","175","876345","0.0-4.0-2.0-0.19","pilot_wm_v1","5fb5dfa5df577200090d9dc4","3","null","null","true","","","false","","","","[1035]","./assets/img/ocean/catch/5.jpg","[""spaceBar""]","value training","ocean","0","{""ArrowUp,ArrowLeft"":23,""ArrowUp,ArrowRight"":10,""ArrowDown,ArrowLeft"":8,""ArrowDown,ArrowRight"":30}","true","spaceBar","true","","","","","","","38","original","1",""
"html-keyboard-response","176","876848","0.0-4.0-2.0-1.19","pilot_wm_v1","5fb5dfa5df577200090d9dc4","3","null","null","true","","","","","","","null","<div style=""font-size:60px;"">+</div>","null","fixation","","","","","","","","","","","","","39","","",""
"revaluation","177","882856","0.0-4.0-2.0-0.20","pilot_wm_v1","5fb5dfa5df577200090d9dc4","3","null","null","true","","","false","","","","[876.5999999996275,303.90000000037253]","./assets/img/ocean/memory/13.jpg","[""ArrowDown"",""ArrowRight""]","value training","ocean","30","{""ArrowUp,ArrowLeft"":23,""ArrowUp,ArrowRight"":10,""ArrowDown,ArrowLeft"":8,""ArrowDown,ArrowRight"":30}","true","ArrowDown,ArrowRight","false","","","","","","","40","original","1",""
"html-keyboard-response","178","883358","0.0-4.0-2.0-1.20","pilot_wm_v1","5fb5dfa5df577200090d9dc4","3","null","null","true","","","","","","","null","<div style=""font-size:60px;"">+</div>","null","fixation","","","","","","","","","","","","","41","","",""
"revaluation","179","889365","0.0-4.0-2.0-0.21","pilot_wm_v1","5fb5dfa5df577200090d9dc4","3","null","null","true","","","false","","","","[864.4000000003725,179.19999999925494]","./assets/img/ocean/memory/27.jpg","[""ArrowDown"",""ArrowRight""]","value training","ocean","30","{""ArrowUp,ArrowLeft"":23,""ArrowUp,ArrowRight"":10,""ArrowDown,ArrowLeft"":8,""ArrowDown,ArrowRight"":30}","true","ArrowDown,ArrowRight","false","","","","","","","42","original","1",""
"html-keyboard-response","180","889866","0.0-4.0-2.0-1.21","pilot_wm_v1","5fb5dfa5df577200090d9dc4","3","null","null","true","","","","","","","null","<div style=""font-size:60px;"">+</div>","null","fixation","","","","","","","","","","","","","43","","",""
"revaluation","181","895873","0.0-4.0-2.0-0.22","pilot_wm_v1","5fb5dfa5df577200090d9dc4","3","null","null","true","","","false","","","","[771.3000000007451,322.69999999925494]","./assets/img/ocean/memory/40.jpg","[""ArrowDown"",""ArrowRight""]","value training","ocean","30","{""ArrowUp,ArrowLeft"":23,""ArrowUp,ArrowRight"":10,""ArrowDown,ArrowLeft"":8,""ArrowDown,ArrowRight"":30}","true","ArrowDown,ArrowRight","false","","","","","","","44","original","1",""
"html-keyboard-response","182","896376","0.0-4.0-2.0-1.22","pilot_wm_v1","5fb5dfa5df577200090d9dc4","3","null","null","true","","","","","","","null","<div style=""font-size:60px;"">+</div>","null","fixation","","","","","","","","","","","","","45","","",""
"revaluation","183","902382","0.0-4.0-2.0-0.23","pilot_wm_v1","5fb5dfa5df577200090d9dc4","3","null","null","true","","","false","","","","[670.3000000007451,302.09999999962747]","./assets/img/ocean/memory/16.jpg","[""ArrowDown"",""ArrowRight""]","value training","ocean","30","{""ArrowUp,ArrowLeft"":23,""ArrowUp,ArrowRight"":10,""ArrowDown,ArrowLeft"":8,""ArrowDown,ArrowRight"":30}","true","ArrowDown,ArrowRight","false","","","","","","","46","original","1",""
"html-keyboard-response","184","902884","0.0-4.0-2.0-1.23","pilot_wm_v1","5fb5dfa5df577200090d9dc4","3","null","null","true","","","","","","","null","<div style=""font-size:60px;"">+</div>","null","fixation","","","","","","","","","","","","","47","","",""
"revaluation","185","908890","0.0-4.0-2.0-0.24","pilot_wm_v1","5fb5dfa5df577200090d9dc4","3","null","null","true","","","false","","","","[1286.7999999988824,391.59999999962747]","./assets/img/ocean/memory/14.jpg","[""ArrowDown"",""ArrowRight""]","value training","ocean","30","{""ArrowUp,ArrowLeft"":23,""ArrowUp,ArrowRight"":10,""ArrowDown,ArrowLeft"":8,""ArrowDown,ArrowRight"":30}","true","ArrowDown,ArrowRight","false","","","","","","","48","original","1",""
"html-keyboard-response","186","909392","0.0-4.0-2.0-1.24","pilot_wm_v1","5fb5dfa5df577200090d9dc4","3","null","null","true","","","","","","","null","<div style=""font-size:60px;"">+</div>","null","fixation","","","","","","","","","","","","","49","","",""
"revaluation","187","915398","0.0-4.0-2.0-0.25","pilot_wm_v1","5fb5dfa5df577200090d9dc4","3","null","null","true","","","false","","","","[752.6999999992549,273.30000000074506]","./assets/img/ocean/memory/13.jpg","[""ArrowDown"",""ArrowRight""]","value training","ocean","30","{""ArrowUp,ArrowLeft"":23,""ArrowUp,ArrowRight"":10,""ArrowDown,ArrowLeft"":8,""ArrowDown,ArrowRight"":30}","true","ArrowDown,ArrowRight","false","","","","","","","50","original","1",""
"html-keyboard-response","188","915901","0.0-4.0-2.0-1.25","pilot_wm_v1","5fb5dfa5df577200090d9dc4","3","null","null","true","","","","","","","null","<div style=""font-size:60px;"">+</div>","null","fixation","","","","","","","","","","","","","51","","",""
"revaluation","189","921909","0.0-4.0-2.0-0.26","pilot_wm_v1","5fb5dfa5df577200090d9dc4","3","null","null","true","","","false","","","","[767.3999999985099,259.2000000011176]","./assets/img/ocean/memory/10.jpg","[""ArrowDown"",""ArrowRight""]","value training","ocean","30","{""ArrowUp,ArrowLeft"":23,""ArrowUp,ArrowRight"":10,""ArrowDown,ArrowLeft"":8,""ArrowDown,ArrowRight"":30}","true","ArrowDown,ArrowRight","false","","","","","","","52","original","1",""
"html-keyboard-response","190","922411","0.0-4.0-2.0-1.26","pilot_wm_v1","5fb5dfa5df577200090d9dc4","3","null","null","true","","","","","","","null","<div style=""font-size:60px;"">+</div>","null","fixation","","","","","","","","","","","","","53","","",""
"revaluation","191","926417","0.0-4.0-2.0-0.27","pilot_wm_v1","5fb5dfa5df577200090d9dc4","3","null","null","true","","","false","","","","[827.3999999985099]","./assets/img/ocean/catch/7.jpg","[""spaceBar""]","value training","ocean","0","{""ArrowUp,ArrowLeft"":23,""ArrowUp,ArrowRight"":10,""ArrowDown,ArrowLeft"":8,""ArrowDown,ArrowRight"":30}","true","spaceBar","true","","","","","","","54","original","1",""
"html-keyboard-response","192","926919","0.0-4.0-2.0-1.27","pilot_wm_v1","5fb5dfa5df577200090d9dc4","3","null","null","true","","","","","","","null","<div style=""font-size:60px;"">+</div>","null","fixation","","","","","","","","","","","","","55","","",""
"revaluation","193","932925","0.0-4.0-2.0-0.28","pilot_wm_v1","5fb5dfa5df577200090d9dc4","3","null","null","true","","","false","","","","[753.3999999985099,448.2999999988824]","./assets/img/ocean/memory/19.jpg","[""ArrowDown"",""ArrowRight""]","value training","ocean","30","{""ArrowUp,ArrowLeft"":23,""ArrowUp,ArrowRight"":10,""ArrowDown,ArrowLeft"":8,""ArrowDown,ArrowRight"":30}","true","ArrowDown,ArrowRight","false","","","","","","","56","original","1",""
"html-keyboard-response","194","933427","0.0-4.0-2.0-1.28","pilot_wm_v1","5fb5dfa5df577200090d9dc4","3","null","null","true","","","","","","","null","<div style=""font-size:60px;"">+</div>","null","fixation","","","","","","","","","","","","","57","","",""
"revaluation","195","939434","0.0-4.0-2.0-0.29","pilot_wm_v1","5fb5dfa5df577200090d9dc4","3","null","null","true","","","false","","","","[607.4000000003725,309]","./assets/img/ocean/memory/28.jpg","[""ArrowDown"",""ArrowRight""]","value training","ocean","30","{""ArrowUp,ArrowLeft"":23,""ArrowUp,ArrowRight"":10,""ArrowDown,ArrowLeft"":8,""ArrowDown,ArrowRight"":30}","true","ArrowDown,ArrowRight","false","","","","","","","58","original","1",""
"html-keyboard-response","196","939935","0.0-4.0-2.0-1.29","pilot_wm_v1","5fb5dfa5df577200090d9dc4","3","null","null","true","","","","","","","null","<div style=""font-size:60px;"">+</div>","null","fixation","","","","","","","","","","","","","59","","",""
"revaluation","197","945942","0.0-4.0-2.0-0.30","pilot_wm_v1","5fb5dfa5df577200090d9dc4","3","null","null","true","","","false","","","","[720.2000000011176,279.40000000037253]","./assets/img/ocean/memory/33.jpg","[""ArrowDown"",""ArrowRight""]","value training","ocean","30","{""ArrowUp,ArrowLeft"":23,""ArrowUp,ArrowRight"":10,""ArrowDown,ArrowLeft"":8,""ArrowDown,ArrowRight"":30}","true","ArrowDown,ArrowRight","false","","","","","","","60","original","1",""
"html-keyboard-response","198","946444","0.0-4.0-2.0-1.30","pilot_wm_v1","5fb5dfa5df577200090d9dc4","3","null","null","true","","","","","","","null","<div style=""font-size:60px;"">+</div>","null","fixation","","","","","","","","","","","","","61","","",""
"revaluation","199","952450","0.0-4.0-2.0-0.31","pilot_wm_v1","5fb5dfa5df577200090d9dc4","3","null","null","true","","","false","","","","[940.1000000014901,394.90000000037253]","./assets/img/ocean/memory/21.jpg","[""ArrowDown"",""ArrowRight""]","value training","ocean","30","{""ArrowUp,ArrowLeft"":23,""ArrowUp,ArrowRight"":10,""ArrowDown,ArrowLeft"":8,""ArrowDown,ArrowRight"":30}","true","ArrowDown,ArrowRight","false","","","","","","","62","original","1",""
"html-keyboard-response","200","952953","0.0-4.0-2.0-1.31","pilot_wm_v1","5fb5dfa5df577200090d9dc4","3","null","null","true","","","","","","","null","<div style=""font-size:60px;"">+</div>","null","fixation","","","","","","","","","","","","","63","","",""
"revaluation","201","958959","0.0-4.0-2.0-0.32","pilot_wm_v1","5fb5dfa5df577200090d9dc4","3","null","null","true","","","false","","","","[1707.1000000014901,1229.5999999996275]","./assets/img/ocean/memory/39.jpg","[""ArrowDown"",""ArrowRight""]","value training","ocean","30","{""ArrowUp,ArrowLeft"":23,""ArrowUp,ArrowRight"":10,""ArrowDown,ArrowLeft"":8,""ArrowDown,ArrowRight"":30}","true","ArrowDown,ArrowRight","false","","","","","","","64","original","1",""
"html-keyboard-response","202","959461","0.0-4.0-2.0-1.32","pilot_wm_v1","5fb5dfa5df577200090d9dc4","3","null","null","true","","","","","","","null","<div style=""font-size:60px;"">+</div>","null","fixation","","","","","","","","","","","","","65","","",""
"revaluation","203","965468","0.0-4.0-2.0-0.33","pilot_wm_v1","5fb5dfa5df577200090d9dc4","3","null","null","true","","","false","","","","[1150,394.09999999962747]","./assets/img/ocean/memory/24.jpg","[""ArrowDown"",""ArrowRight""]","value training","ocean","30","{""ArrowUp,ArrowLeft"":23,""ArrowUp,ArrowRight"":10,""ArrowDown,ArrowLeft"":8,""ArrowDown,ArrowRight"":30}","true","ArrowDown,ArrowRight","false","","","","","","","66","original","1",""
"html-keyboard-response","204","965970","0.0-4.0-2.0-1.33","pilot_wm_v1","5fb5dfa5df577200090d9dc4","3","null","null","true","","","","","","","null","<div style=""font-size:60px;"">+</div>","null","fixation","","","","","","","","","","","","","67","","",""
"revaluation","205","969975","0.0-4.0-2.0-0.34","pilot_wm_v1","5fb5dfa5df577200090d9dc4","3","null","null","true","","","false","","","","[747.8000000007451]","./assets/img/ocean/catch/3.jpg","[""spaceBar""]","value training","ocean","0","{""ArrowUp,ArrowLeft"":23,""ArrowUp,ArrowRight"":10,""ArrowDown,ArrowLeft"":8,""ArrowDown,ArrowRight"":30}","true","spaceBar","true","","","","","","","68","original","1",""
"html-keyboard-response","206","970476","0.0-4.0-2.0-1.34","pilot_wm_v1","5fb5dfa5df577200090d9dc4","3","null","null","true","","","","","","","null","<div style=""font-size:60px;"">+</div>","null","fixation","","","","","","","","","","","","","69","","",""
"revaluation","207","976483","0.0-4.0-2.0-0.35","pilot_wm_v1","5fb5dfa5df577200090d9dc4","3","null","null","true","","","false","","","","[610.2999999988824,289.59999999962747]","./assets/img/ocean/memory/16.jpg","[""ArrowDown"",""ArrowRight""]","value training","ocean","30","{""ArrowUp,ArrowLeft"":23,""ArrowUp,ArrowRight"":10,""ArrowDown,ArrowLeft"":8,""ArrowDown,ArrowRight"":30}","true","ArrowDown,ArrowRight","false","","","","","","","70","original","1",""
"html-keyboard-response","208","976985","0.0-4.0-2.0-1.35","pilot_wm_v1","5fb5dfa5df577200090d9dc4","3","null","null","true","","","","","","","null","<div style=""font-size:60px;"">+</div>","null","fixation","","","","","","","","","","","","","71","","",""
"revaluation","209","982991","0.0-4.0-2.0-0.36","pilot_wm_v1","5fb5dfa5df577200090d9dc4","3","null","null","true","","","false","","","","[704.6000000014901,308.1000000014901]","./assets/img/ocean/memory/2.jpg","[""ArrowDown"",""ArrowRight""]","value training","ocean","30","{""ArrowUp,ArrowLeft"":23,""ArrowUp,ArrowRight"":10,""ArrowDown,ArrowLeft"":8,""ArrowDown,ArrowRight"":30}","true","ArrowDown,ArrowRight","false","","","","","","","72","original","1",""
"html-keyboard-response","210","983493","0.0-4.0-2.0-1.36","pilot_wm_v1","5fb5dfa5df577200090d9dc4","3","null","null","true","","","","","","","null","<div style=""font-size:60px;"">+</div>","null","fixation","","","","","","","","","","","","","73","","",""
"revaluation","211","987497","0.0-4.0-2.0-0.37","pilot_wm_v1","5fb5dfa5df577200090d9dc4","3","null","null","true","","","false","","","","[744.6999999992549]","./assets/img/ocean/catch/1.jpg","[""spaceBar""]","value training","ocean","0","{""ArrowUp,ArrowLeft"":23,""ArrowUp,ArrowRight"":10,""ArrowDown,ArrowLeft"":8,""ArrowDown,ArrowRight"":30}","true","spaceBar","true","","","","","","","74","original","1",""
"html-keyboard-response","212","988000","0.0-4.0-2.0-1.37","pilot_wm_v1","5fb5dfa5df577200090d9dc4","3","null","null","true","","","","","","","null","<div style=""font-size:60px;"">+</div>","null","fixation","","","","","","","","","","","","","75","","",""
"revaluation","213","994007","0.0-4.0-2.0-0.38","pilot_wm_v1","5fb5dfa5df577200090d9dc4","3","null","null","true","","","false","","","","[622,328.80000000074506]","./assets/img/ocean/memory/28.jpg","[""ArrowDown"",""ArrowRight""]","value training","ocean","30","{""ArrowUp,ArrowLeft"":23,""ArrowUp,ArrowRight"":10,""ArrowDown,ArrowLeft"":8,""ArrowDown,ArrowRight"":30}","true","ArrowDown,ArrowRight","false","","","","","","","76","original","1",""
"html-keyboard-response","214","994509","0.0-4.0-2.0-1.38","pilot_wm_v1","5fb5dfa5df577200090d9dc4","3","null","null","true","","","","","","","null","<div style=""font-size:60px;"">+</div>","null","fixation","","","","","","","","","","","","","77","","",""
"revaluation","215","1000517","0.0-4.0-2.0-0.39","pilot_wm_v1","5fb5dfa5df577200090d9dc4","3","null","null","true","","","false","","","","[612.2999999988824,261.09999999962747]","./assets/img/ocean/memory/26.jpg","[""ArrowDown"",""ArrowRight""]","value training","ocean","30","{""ArrowUp,ArrowLeft"":23,""ArrowUp,ArrowRight"":10,""ArrowDown,ArrowLeft"":8,""ArrowDown,ArrowRight"":30}","true","ArrowDown,ArrowRight","false","","","","","","","78","original","1",""
"html-keyboard-response","216","1001019","0.0-4.0-2.0-1.39","pilot_wm_v1","5fb5dfa5df577200090d9dc4","3","null","null","true","","","","","","","null","<div style=""font-size:60px;"">+</div>","null","fixation","","","","","","","","","","","","","79","","",""
"revaluation","217","1005023","0.0-4.0-2.0-0.40","pilot_wm_v1","5fb5dfa5df577200090d9dc4","3","null","null","true","","","false","","","","[590]","./assets/img/ocean/catch/6.jpg","[""spaceBar""]","value training","ocean","0","{""ArrowUp,ArrowLeft"":23,""ArrowUp,ArrowRight"":10,""ArrowDown,ArrowLeft"":8,""ArrowDown,ArrowRight"":30}","true","spaceBar","true","","","","","","","80","original","1",""
"html-keyboard-response","218","1005526","0.0-4.0-2.0-1.40","pilot_wm_v1","5fb5dfa5df577200090d9dc4","3","null","null","true","","","","","","","null","<div style=""font-size:60px;"">+</div>","null","fixation","","","","","","","","","","","","","81","","",""
"revaluation","219","1011532","0.0-4.0-2.0-0.41","pilot_wm_v1","5fb5dfa5df577200090d9dc4","3","null","null","true","","","false","","","","[730.3000000007451,311.80000000074506]","./assets/img/ocean/memory/4.jpg","[""ArrowDown"",""ArrowRight""]","value training","ocean","30","{""ArrowUp,ArrowLeft"":23,""ArrowUp,ArrowRight"":10,""ArrowDown,ArrowLeft"":8,""ArrowDown,ArrowRight"":30}","true","ArrowDown,ArrowRight","false","","","","","","","82","original","1",""
"html-keyboard-response","220","1012034","0.0-4.0-2.0-1.41","pilot_wm_v1","5fb5dfa5df577200090d9dc4","3","null","null","true","","","","","","","null","<div style=""font-size:60px;"">+</div>","null","fixation","","","","","","","","","","","","","83","","",""
"revaluation","221","1018039","0.0-4.0-2.0-0.42","pilot_wm_v1","5fb5dfa5df577200090d9dc4","3","null","null","true","","","false","","","","[986.5,352.19999999925494]","./assets/img/ocean/memory/14.jpg","[""ArrowDown"",""ArrowRight""]","value training","ocean","30","{""ArrowUp,ArrowLeft"":23,""ArrowUp,ArrowRight"":10,""ArrowDown,ArrowLeft"":8,""ArrowDown,ArrowRight"":30}","true","ArrowDown,ArrowRight","false","","","","","","","84","original","1",""
"html-keyboard-response","222","1018540","0.0-4.0-2.0-1.42","pilot_wm_v1","5fb5dfa5df577200090d9dc4","3","null","null","true","","","","","","","null","<div style=""font-size:60px;"">+</div>","null","fixation","","","","","","","","","","","","","85","","",""
"revaluation","223","1024545","0.0-4.0-2.0-0.43","pilot_wm_v1","5fb5dfa5df577200090d9dc4","3","null","null","true","","","false","","","","[675.0999999996275,209.30000000074506]","./assets/img/ocean/memory/10.jpg","[""ArrowDown"",""ArrowRight""]","value training","ocean","30","{""ArrowUp,ArrowLeft"":23,""ArrowUp,ArrowRight"":10,""ArrowDown,ArrowLeft"":8,""ArrowDown,ArrowRight"":30}","true","ArrowDown,ArrowRight","false","","","","","","","86","original","1",""
"html-keyboard-response","224","1025048","0.0-4.0-2.0-1.43","pilot_wm_v1","5fb5dfa5df577200090d9dc4","3","null","null","true","","","","","","","null","<div style=""font-size:60px;"">+</div>","null","fixation","","","","","","","","","","","","","87","","",""
"revaluation","225","1029053","0.0-4.0-2.0-0.44","pilot_wm_v1","5fb5dfa5df577200090d9dc4","3","null","null","true","","","false","","","","[875.5999999996275]","./assets/img/ocean/catch/4.jpg","[""spaceBar""]","value training","ocean","0","{""ArrowUp,ArrowLeft"":23,""ArrowUp,ArrowRight"":10,""ArrowDown,ArrowLeft"":8,""ArrowDown,ArrowRight"":30}","true","spaceBar","true","","","","","","","88","original","1",""
"html-keyboard-response","226","1029554","0.0-4.0-2.0-1.44","pilot_wm_v1","5fb5dfa5df577200090d9dc4","3","null","null","true","","","","","","","null","<div style=""font-size:60px;"">+</div>","null","fixation","","","","","","","","","","","","","89","","",""
"revaluation","227","1035561","0.0-4.0-2.0-0.45","pilot_wm_v1","5fb5dfa5df577200090d9dc4","3","null","null","true","","","false","","","","[776.8000000007451,316.2999999988824]","./assets/img/ocean/memory/22.jpg","[""ArrowDown"",""ArrowRight""]","value training","ocean","30","{""ArrowUp,ArrowLeft"":23,""ArrowUp,ArrowRight"":10,""ArrowDown,ArrowLeft"":8,""ArrowDown,ArrowRight"":30}","true","ArrowDown,ArrowRight","false","","","","","","","90","original","1",""
"html-keyboard-response","228","1036063","0.0-4.0-2.0-1.45","pilot_wm_v1","5fb5dfa5df577200090d9dc4","3","null","null","true","","","","","","","null","<div style=""font-size:60px;"">+</div>","null","fixation","","","","","","","","","","","","","91","","",""
"revaluation","229","1042071","0.0-4.0-2.0-0.46","pilot_wm_v1","5fb5dfa5df577200090d9dc4","3","null","null","true","","","false","","","","[472.80000000074506,306.59999999962747]","./assets/img/ocean/memory/18.jpg","[""ArrowDown"",""ArrowRight""]","value training","ocean","30","{""ArrowUp,ArrowLeft"":23,""ArrowUp,ArrowRight"":10,""ArrowDown,ArrowLeft"":8,""ArrowDown,ArrowRight"":30}","true","ArrowDown,ArrowRight","false","","","","","","","92","original","1",""
"html-keyboard-response","230","1042572","0.0-4.0-2.0-1.46","pilot_wm_v1","5fb5dfa5df577200090d9dc4","3","null","null","true","","","","","","","null","<div style=""font-size:60px;"">+</div>","null","fixation","","","","","","","","","","","","","93","","",""
"revaluation","231","1048578","0.0-4.0-2.0-0.47","pilot_wm_v1","5fb5dfa5df577200090d9dc4","3","null","null","true","","","false","","","","[949.8000000007451,286.19999999925494]","./assets/img/ocean/memory/24.jpg","[""ArrowDown"",""ArrowRight""]","value training","ocean","30","{""ArrowUp,ArrowLeft"":23,""ArrowUp,ArrowRight"":10,""ArrowDown,ArrowLeft"":8,""ArrowDown,ArrowRight"":30}","true","ArrowDown,ArrowRight","false","","","","","","","94","original","1",""
"html-keyboard-response","232","1049080","0.0-4.0-2.0-1.47","pilot_wm_v1","5fb5dfa5df577200090d9dc4","3","null","null","true","","","","","","","null","<div style=""font-size:60px;"">+</div>","null","fixation","","","","","","","","","","","","","95","","",""
"revaluation","233","1055087","0.0-4.0-2.0-0.48","pilot_wm_v1","5fb5dfa5df577200090d9dc4","3","null","null","true","","","false","","","","[719.5999999996275,257.5]","./assets/img/ocean/memory/27.jpg","[""ArrowDown"",""ArrowRight""]","value training","ocean","30","{""ArrowUp,ArrowLeft"":23,""ArrowUp,ArrowRight"":10,""ArrowDown,ArrowLeft"":8,""ArrowDown,ArrowRight"":30}","true","ArrowDown,ArrowRight","false","","","","","","","96","original","1",""
"html-keyboard-response","234","1055589","0.0-4.0-2.0-1.48","pilot_wm_v1","5fb5dfa5df577200090d9dc4","3","null","null","true","","","","","","","null","<div style=""font-size:60px;"">+</div>","null","fixation","","","","","","","","","","","","","97","","",""
"revaluation","235","1061594","0.0-4.0-2.0-0.49","pilot_wm_v1","5fb5dfa5df577200090d9dc4","3","null","null","true","","","false","","","","[630.7000000011176,307]","./assets/img/ocean/memory/1.jpg","[""ArrowDown"",""ArrowRight""]","value training","ocean","30","{""ArrowUp,ArrowLeft"":23,""ArrowUp,ArrowRight"":10,""ArrowDown,ArrowLeft"":8,""ArrowDown,ArrowRight"":30}","true","ArrowDown,ArrowRight","false","","","","","","","98","original","1",""
"html-keyboard-response","236","1062096","0.0-4.0-2.0-1.49","pilot_wm_v1","5fb5dfa5df577200090d9dc4","3","null","null","true","","","","","","","null","<div style=""font-size:60px;"">+</div>","null","fixation","","","","","","","","","","","","","99","","",""
"learning-instructions","237","1077423","0.0-4.0-3.0-0.0","pilot_wm_v1","5fb5dfa5df577200090d9dc4","3","null","null","true","","","","","","","2393.699999999255","<p> Now, you will travel with a friend who will choose whether you go up or down first. </p>
            <p> On these turns, you will just see the animal that they found. You will still get to choose which chest to search for treasure.</p>","","instructions","","","","","","","","","","","","","","","",""
"learning-instructions","238","1089702","0.0-4.0-3.0-0.1","pilot_wm_v1","5fb5dfa5df577200090d9dc4","3","null","null","true","","","","","","","677.4000000003725","<p> In this part, you will also hear beeps from your friend and see special treasure chests that need a password. </p>
            <p> Do your best to count the high beeps <b>and</b> choose between each animals' chests at the same time.</p>
            <img src='./assets/img/instructions/beep_chest.jpg' class='instructions-image'>","","instructions","","","","","","","","","","","","","","","",""
"revaluation","239","1093707","0.0-4.0-4.0-0.0","pilot_wm_v1","5fb5dfa5df577200090d9dc4","3","null","null","true","","","false","","","","[1548.7000000011176]","./assets/img/ocean/animals/octopus.jpg","[""ArrowRight""]","revaluation","ocean","30","{""ArrowUp,ArrowLeft"":23,""ArrowUp,ArrowRight"":10,""ArrowDown,ArrowLeft"":8,""ArrowDown,ArrowRight"":30}","true","ArrowDown,ArrowRight","","17_1","","","","","","0","original","1",""
"html-keyboard-response","240","1094213","0.0-4.0-4.0-1.0","pilot_wm_v1","5fb5dfa5df577200090d9dc4","3","null","null","true","","","","","","","null","<div style=""font-size:60px;"">+</div>","null","fixation","","","","","","","","","","","","","","","",""
"revaluation","241","1098218","0.0-4.0-4.0-0.1","pilot_wm_v1","5fb5dfa5df577200090d9dc4","3","null","null","true","","","false","","","","[858.5]","./assets/img/ocean/animals/seahorse.jpg","[""ArrowLeft""]","revaluation","ocean","23","{""ArrowUp,ArrowLeft"":23,""ArrowUp,ArrowRight"":10,""ArrowDown,ArrowLeft"":8,""ArrowDown,ArrowRight"":30}","true","ArrowUp,ArrowLeft","","1_4","","","","","","1","original","1",""
"html-keyboard-response","242","1098720","0.0-4.0-4.0-1.1","pilot_wm_v1","5fb5dfa5df577200090d9dc4","3","null","null","true","","","","","","","null","<div style=""font-size:60px;"">+</div>","null","fixation","","","","","","","","","","","","","","","",""
"revaluation","243","1102724","0.0-4.0-4.0-0.2","pilot_wm_v1","5fb5dfa5df577200090d9dc4","3","null","null","true","","","false","","","","[1477.2999999988824]","./assets/img/ocean/animals/seahorse.jpg","[""ArrowLeft""]","revaluation","ocean","23","{""ArrowUp,ArrowLeft"":23,""ArrowUp,ArrowRight"":10,""ArrowDown,ArrowLeft"":8,""ArrowDown,ArrowRight"":30}","true","ArrowUp,ArrowLeft","","5_4","","","","","","2","original","1",""
"html-keyboard-response","244","1103227","0.0-4.0-4.0-1.2","pilot_wm_v1","5fb5dfa5df577200090d9dc4","3","null","null","true","","","","","","","null","<div style=""font-size:60px;"">+</div>","null","fixation","","","","","","","","","","","","","","","",""
"revaluation","245","1107233","0.0-4.0-4.0-0.3","pilot_wm_v1","5fb5dfa5df577200090d9dc4","3","null","null","true","","","false","","","","[1982.0999999996275]","./assets/img/ocean/animals/seahorse.jpg","[""ArrowLeft""]","revaluation","ocean","23","{""ArrowUp,ArrowLeft"":23,""ArrowUp,ArrowRight"":10,""ArrowDown,ArrowLeft"":8,""ArrowDown,ArrowRight"":30}","true","ArrowUp,ArrowLeft","","4_0","","","","","","3","original","1",""
"html-keyboard-response","246","1107735","0.0-4.0-4.0-1.3","pilot_wm_v1","5fb5dfa5df577200090d9dc4","3","null","null","true","","","","","","","null","<div style=""font-size:60px;"">+</div>","null","fixation","","","","","","","","","","","","","","","",""
"html-slider-response","247","1110749","0.0-4.0-4.0-2.3-0.3","pilot_wm_v1","5fb5dfa5df577200090d9dc4","3","null","null","true","","","","","","","3012","<div style=""width:500px;"">
        <p>What is the password?</p>
        <img src='./assets/img/instructions/beep_chest.jpg' class='instructions-image'>","0","beep chest","","","","false","","","","50","9","9","","","","","",""
"revaluation","248","1114752","0.0-4.0-4.0-0.4","pilot_wm_v1","5fb5dfa5df577200090d9dc4","3","null","null","true","","","false","","","","[1750.0999999996275]","./assets/img/ocean/animals/octopus.jpg","[""ArrowRight""]","revaluation","ocean","30","{""ArrowUp,ArrowLeft"":23,""ArrowUp,ArrowRight"":10,""ArrowDown,ArrowLeft"":8,""ArrowDown,ArrowRight"":30}","true","ArrowDown,ArrowRight","","11_4","","","","","","4","original","1",""
"html-keyboard-response","249","1115253","0.0-4.0-4.0-1.4","pilot_wm_v1","5fb5dfa5df577200090d9dc4","3","null","null","true","","","","","","","null","<div style=""font-size:60px;"">+</div>","null","fixation","","","","","","","","","","","","","","","",""
"revaluation","250","1119258","0.0-4.0-4.0-0.5","pilot_wm_v1","5fb5dfa5df577200090d9dc4","3","null","null","true","","","false","","","","[1281.7999999988824]","./assets/img/ocean/animals/seahorse.jpg","[""ArrowLeft""]","revaluation","ocean","23","{""ArrowUp,ArrowLeft"":23,""ArrowUp,ArrowRight"":10,""ArrowDown,ArrowLeft"":8,""ArrowDown,ArrowRight"":30}","true","ArrowUp,ArrowLeft","","2_1","","","","","","5","original","1",""
"html-keyboard-response","251","1119759","0.0-4.0-4.0-1.5","pilot_wm_v1","5fb5dfa5df577200090d9dc4","3","null","null","true","","","","","","","null","<div style=""font-size:60px;"">+</div>","null","fixation","","","","","","","","","","","","","","","",""
"revaluation","252","1123762","0.0-4.0-4.0-0.6","pilot_wm_v1","5fb5dfa5df577200090d9dc4","3","null","null","true","","","true","","","","[]","./assets/img/ocean/animals/seahorse.jpg","[]","revaluation","ocean","-5","{""ArrowUp,ArrowLeft"":23,""ArrowUp,ArrowRight"":10,""ArrowDown,ArrowLeft"":8,""ArrowDown,ArrowRight"":30}","false","ArrowUp","","3_0","","","","","","6","original","1",""
"html-keyboard-response","253","1124264","0.0-4.0-4.0-1.6","pilot_wm_v1","5fb5dfa5df577200090d9dc4","3","null","null","true","","","","","","","null","<div style=""font-size:60px;"">+</div>","null","fixation","","","","","","","","","","","","","","","",""
"revaluation","254","1128269","0.0-4.0-4.0-0.7","pilot_wm_v1","5fb5dfa5df577200090d9dc4","3","null","null","true","","","false","","","","[1192.800000000745]","./assets/img/ocean/animals/octopus.jpg","[""ArrowRight""]","revaluation","ocean","30","{""ArrowUp,ArrowLeft"":23,""ArrowUp,ArrowRight"":10,""ArrowDown,ArrowLeft"":8,""ArrowDown,ArrowRight"":30}","true","ArrowDown,ArrowRight","","18_0","","","","","","7","original","1",""
"html-keyboard-response","255","1128772","0.0-4.0-4.0-1.7","pilot_wm_v1","5fb5dfa5df577200090d9dc4","3","null","null","true","","","","","","","null","<div style=""font-size:60px;"">+</div>","null","fixation","","","","","","","","","","","","","","","",""
"html-slider-response","256","1133394","0.0-4.0-4.0-2.7-0.7","pilot_wm_v1","5fb5dfa5df577200090d9dc4","3","null","null","true","","","","","","","4621","<div style=""width:500px;"">
        <p>What is the password?</p>
        <img src='./assets/img/instructions/beep_chest.jpg' class='instructions-image'>","0","beep chest","","","","false","","","","50","5","5","","","","","",""
"revaluation","257","1137400","0.0-4.0-4.0-0.8","pilot_wm_v1","5fb5dfa5df577200090d9dc4","3","null","null","true","","","false","","","","[1307]","./assets/img/ocean/animals/octopus.jpg","[""ArrowRight""]","revaluation","ocean","30","{""ArrowUp,ArrowLeft"":23,""ArrowUp,ArrowRight"":10,""ArrowDown,ArrowLeft"":8,""ArrowDown,ArrowRight"":30}","true","ArrowDown,ArrowRight","","10_3","","","","","","8","original","1",""
"html-keyboard-response","258","1137903","0.0-4.0-4.0-1.8","pilot_wm_v1","5fb5dfa5df577200090d9dc4","3","null","null","true","","","","","","","null","<div style=""font-size:60px;"">+</div>","null","fixation","","","","","","","","","","","","","","","",""
"revaluation","259","1141907","0.0-4.0-4.0-0.9","pilot_wm_v1","5fb5dfa5df577200090d9dc4","3","null","null","true","","","false","","","","[790]","./assets/img/ocean/animals/seahorse.jpg","[""ArrowLeft""]","revaluation","ocean","23","{""ArrowUp,ArrowLeft"":23,""ArrowUp,ArrowRight"":10,""ArrowDown,ArrowLeft"":8,""ArrowDown,ArrowRight"":30}","true","ArrowUp,ArrowLeft","","9_2","","","","","","9","original","1",""
"html-keyboard-response","260","1142410","0.0-4.0-4.0-1.9","pilot_wm_v1","5fb5dfa5df577200090d9dc4","3","null","null","true","","","","","","","null","<div style=""font-size:60px;"">+</div>","null","fixation","","","","","","","","","","","","","","","",""
"revaluation","261","1146415","0.0-4.0-4.0-0.10","pilot_wm_v1","5fb5dfa5df577200090d9dc4","3","null","null","true","","","false","","","","[871.8999999985099]","./assets/img/ocean/animals/seahorse.jpg","[""ArrowLeft""]","revaluation","ocean","23","{""ArrowUp,ArrowLeft"":23,""ArrowUp,ArrowRight"":10,""ArrowDown,ArrowLeft"":8,""ArrowDown,ArrowRight"":30}","true","ArrowUp,ArrowLeft","","7_4","","","","","","10","original","1",""
"html-keyboard-response","262","1146917","0.0-4.0-4.0-1.10","pilot_wm_v1","5fb5dfa5df577200090d9dc4","3","null","null","true","","","","","","","null","<div style=""font-size:60px;"">+</div>","null","fixation","","","","","","","","","","","","","","","",""
"revaluation","263","1150922","0.0-4.0-4.0-0.11","pilot_wm_v1","5fb5dfa5df577200090d9dc4","3","null","null","true","","","false","","","","[812.0999999996275]","./assets/img/ocean/animals/octopus.jpg","[""ArrowRight""]","revaluation","ocean","30","{""ArrowUp,ArrowLeft"":23,""ArrowUp,ArrowRight"":10,""ArrowDown,ArrowLeft"":8,""ArrowDown,ArrowRight"":30}","true","ArrowDown,ArrowRight","","13_2","","","","","","11","original","1",""
"html-keyboard-response","264","1151424","0.0-4.0-4.0-1.11","pilot_wm_v1","5fb5dfa5df577200090d9dc4","3","null","null","true","","","","","","","null","<div style=""font-size:60px;"">+</div>","null","fixation","","","","","","","","","","","","","","","",""
"html-slider-response","265","1153853","0.0-4.0-4.0-2.11-0.11","pilot_wm_v1","5fb5dfa5df577200090d9dc4","3","null","null","true","","","","","","","2427","<div style=""width:500px;"">
        <p>What is the password?</p>
        <img src='./assets/img/instructions/beep_chest.jpg' class='instructions-image'>","10","beep chest","","","","false","","","","50","11","1","","","","","",""
"revaluation","266","1157857","0.0-4.0-4.0-0.12","pilot_wm_v1","5fb5dfa5df577200090d9dc4","3","null","null","true","","","false","","","","[1541.0999999996275]","./assets/img/ocean/animals/seahorse.jpg","[""ArrowLeft""]","revaluation","ocean","23","{""ArrowUp,ArrowLeft"":23,""ArrowUp,ArrowRight"":10,""ArrowDown,ArrowLeft"":8,""ArrowDown,ArrowRight"":30}","true","ArrowUp,ArrowLeft","","6_3","","","","","","12","original","1",""
"html-keyboard-response","267","1158358","0.0-4.0-4.0-1.12","pilot_wm_v1","5fb5dfa5df577200090d9dc4","3","null","null","true","","","","","","","null","<div style=""font-size:60px;"">+</div>","null","fixation","","","","","","","","","","","","","","","",""
"revaluation","268","1162364","0.0-4.0-4.0-0.13","pilot_wm_v1","5fb5dfa5df577200090d9dc4","3","null","null","true","","","false","","","","[1134.6000000014901]","./assets/img/ocean/animals/seahorse.jpg","[""ArrowLeft""]","revaluation","ocean","23","{""ArrowUp,ArrowLeft"":23,""ArrowUp,ArrowRight"":10,""ArrowDown,ArrowLeft"":8,""ArrowDown,ArrowRight"":30}","true","ArrowUp,ArrowLeft","","8_2","","","","","","13","original","1",""
"html-keyboard-response","269","1162866","0.0-4.0-4.0-1.13","pilot_wm_v1","5fb5dfa5df577200090d9dc4","3","null","null","true","","","","","","","null","<div style=""font-size:60px;"">+</div>","null","fixation","","","","","","","","","","","","","","","",""
"revaluation","270","1166870","0.0-4.0-4.0-0.14","pilot_wm_v1","5fb5dfa5df577200090d9dc4","3","null","null","true","","","false","","","","[516.2999999988824]","./assets/img/ocean/animals/octopus.jpg","[""ArrowRight""]","revaluation","ocean","30","{""ArrowUp,ArrowLeft"":23,""ArrowUp,ArrowRight"":10,""ArrowDown,ArrowLeft"":8,""ArrowDown,ArrowRight"":30}","true","ArrowDown,ArrowRight","","16_0","","","","","","14","original","1",""
"html-keyboard-response","271","1167373","0.0-4.0-4.0-1.14","pilot_wm_v1","5fb5dfa5df577200090d9dc4","3","null","null","true","","","","","","","null","<div style=""font-size:60px;"">+</div>","null","fixation","","","","","","","","","","","","","","","",""
"revaluation","272","1171378","0.0-4.0-4.0-0.15","pilot_wm_v1","5fb5dfa5df577200090d9dc4","3","null","null","true","","","false","","","","[1190.0999999996275]","./assets/img/ocean/animals/octopus.jpg","[""ArrowRight""]","revaluation","ocean","30","{""ArrowUp,ArrowLeft"":23,""ArrowUp,ArrowRight"":10,""ArrowDown,ArrowLeft"":8,""ArrowDown,ArrowRight"":30}","true","ArrowDown,ArrowRight","","14_4","","","","","","15","original","1",""
"html-keyboard-response","273","1171879","0.0-4.0-4.0-1.15","pilot_wm_v1","5fb5dfa5df577200090d9dc4","3","null","null","true","","","","","","","null","<div style=""font-size:60px;"">+</div>","null","fixation","","","","","","","","","","","","","","","",""
"html-slider-response","274","1173629","0.0-4.0-4.0-2.15-0.15","pilot_wm_v1","5fb5dfa5df577200090d9dc4","3","null","null","true","","","","","","","1749","<div style=""width:500px;"">
        <p>What is the password?</p>
        <img src='./assets/img/instructions/beep_chest.jpg' class='instructions-image'>","9","beep chest","","","","true","","","","50","9","0","","","","","",""
"revaluation","275","1177635","0.0-4.0-4.0-0.16","pilot_wm_v1","5fb5dfa5df577200090d9dc4","3","null","null","true","","","false","","","","[945.2000000011176]","./assets/img/ocean/animals/octopus.jpg","[""ArrowRight""]","revaluation","ocean","30","{""ArrowUp,ArrowLeft"":23,""ArrowUp,ArrowRight"":10,""ArrowDown,ArrowLeft"":8,""ArrowDown,ArrowRight"":30}","true","ArrowDown,ArrowRight","","12_2","","","","","","16","original","1",""
"html-keyboard-response","276","1178137","0.0-4.0-4.0-1.16","pilot_wm_v1","5fb5dfa5df577200090d9dc4","3","null","null","true","","","","","","","null","<div style=""font-size:60px;"">+</div>","null","fixation","","","","","","","","","","","","","","","",""
"revaluation","277","1182142","0.0-4.0-4.0-0.17","pilot_wm_v1","5fb5dfa5df577200090d9dc4","3","null","null","true","","","false","","","","[712.9000000003725]","./assets/img/ocean/animals/octopus.jpg","[""ArrowRight""]","revaluation","ocean","30","{""ArrowUp,ArrowLeft"":23,""ArrowUp,ArrowRight"":10,""ArrowDown,ArrowLeft"":8,""ArrowDown,ArrowRight"":30}","true","ArrowDown,ArrowRight","","15_0","","","","","","17","original","1",""
"html-keyboard-response","278","1182644","0.0-4.0-4.0-1.17","pilot_wm_v1","5fb5dfa5df577200090d9dc4","3","null","null","true","","","","","","","null","<div style=""font-size:60px;"">+</div>","null","fixation","","","","","","","","","","","","","","","",""
