"trial_type","trial_index","time_elapsed","internal_node_id","task_version","subject_id","assigned_condition","age","gender","rest","success","timeout","failed_images","failed_audio","failed_video","browser_interaction","value","rt","stimulus","response","task_part","environment","score","rewardMap","correct","fullState","isCatch","audioStim","slider_start","answer","error","numberMissed","duration","trial_num","condition","order","bonus"
"pavlovia","0","755","0.0-0.0","pilot_wm_v1","65f647c74af96460db093800","4","null","null","true","","","","","","","","","","","","","","","","","","","","","","","","","","",""
"preload","1","21668","0.0-1.0","pilot_wm_v1","65f647c74af96460db093800","4","null","null","true","true","false","[]","[]","[]","[{""event"":""fullscreenenter"",""trial"":2,""time"":27303},{""event"":""fullscreenenter"",""trial"":2,""time"":27303}]","","","","","","","","","","","","","","","","","","","","",""
"fullscreen","2","28248","0.0-2.0","pilot_wm_v1","65f647c74af96460db093800","4","null","null","true","true","","","","","","","","","","","","","","","","","","","","","","","","","",""
"call-function","3","32578","0.0-3.0","pilot_wm_v1","65f647c74af96460db093800","4","null","null","true","","","","","","","","","","","","","","","","","","","","","","","","","","",""
"audio-button-response","4","35187","0.0-4.0-0.0-0.0","pilot_wm_v1","65f647c74af96460db093800","4","null","null","true","","","","","","","","2520","./assets/audio/audiotest/turtle.mp3","2","audio_test","","","","","","","","","","","","","","","",""
"learning-instructions","5","43986","0.0-4.0-1.0-0.0","pilot_wm_v1","65f647c74af96460db093800","4","null","null","true","","","","","","","","1838","<p> Welcome! Please remember to stay in fullscreen mode and don't click away from the experiment. </p>","","instructions","","","","","","","","","","","","","","","",""
"learning-instructions","6","53410","0.0-4.0-1.0-0.1","pilot_wm_v1","65f647c74af96460db093800","4","null","null","true","","","","","","","","1035","<p> Today you will be playing a game to earn treasure. </p>
            <p> At the end of the experiment, you will earn a bonus based on how much treasure you find. </p>
            <img src='./assets/img/instructions/treasure.jpg' class='instructions-image'>","","instructions","","","","","","","","","","","","","","","",""
"learning-instructions","7","62998","0.0-4.0-1.0-0.2","pilot_wm_v1","65f647c74af96460db093800","4","null","null","true","","","","","","","","1352","<p> Animals have hidden treasure in treasure chests. </p>
            <p> You need to first find an animal and then choose which of their treasure chests to search. </p>
            <img src='./assets/img/space/animals/cat.jpg' class='instructions-image'>","","instructions","","","","","","","","","","","","","","","",""
"learning-instructions","8","78681","0.0-4.0-1.0-0.3","pilot_wm_v1","65f647c74af96460db093800","4","null","null","true","","","","","","","","1187","<p> In each round, you will search for treasure in a different place. In the real game, there will be two rounds. </p>
            <p> You will begin with a separate, practice round where you will search for treasure in outer space. </p>
            <img src='./assets/img/space/0.jpg' class='instructions-image'>","","instructions","","","","","","","","","","","","","","","",""
"learning-instructions","9","91030","0.0-4.0-1.0-0.4","pilot_wm_v1","65f647c74af96460db093800","4","null","null","true","","","","","","","","952","<p> On every turn, you will see a picture of the place that you are in, but the specific image may be different each time. </p>
            <p> For example, both of these images mean you are in outer space. </p>
            <img src='./assets/img/instructions/outerspace.jpg' class='instructions-image'>","","instructions","","","","","","","","","","","","","","","",""
"learning-instructions","10","99760","0.0-4.0-1.0-0.5","pilot_wm_v1","65f647c74af96460db093800","4","null","null","true","","","","","","","","922.0000000000146","<p> You need to decide which direction to travel in. </p>
            <p> You can choose between going <b>up or down</b> by using the arrow keys. </p>
            <img src='./assets/img/instructions/updown.jpg' class='instructions-image'>","","instructions","","","","","","","","","","","","","","","",""
"learning-instructions","11","109782","0.0-4.0-1.0-0.6","pilot_wm_v1","65f647c74af96460db093800","4","null","null","true","","","","","","","","1235","<p> You will have <b>2 seconds</b> to make your choice. </p>
            <p> If you do not make a choice within 2 seconds, you will not find an animal or earn treasure. </p>
            <img src='./assets/img/instructions/2seconds.jpg' class='instructions-image'>","","instructions","","","","","","","","","","","","","","","",""
"learning-instructions","12","117760","0.0-4.0-1.0-0.7","pilot_wm_v1","65f647c74af96460db093800","4","null","null","true","","","","","","","","962","<p> Let’s try practicing that now! </p>
            <p> When you see a picture of the place you are in, press the <b>up</b> key to travel up. </p>
            <img src='./assets/img/instructions/pressUp.jpg' class='instructions-image'>","","instructions","","","","","","","","","","","","","","","",""
"revaluation","13","121775","0.0-4.0-2.0-0.0","pilot_wm_v1","65f647c74af96460db093800","4","null","null","true","","false","","","","","","[1292]","./assets/img/space/0.jpg","[""ArrowUp""]","first stage practice","space","0","null","null","ArrowUp","false","","","","","","","","","",""
"html-keyboard-response","14","122276","0.0-4.0-2.0-1.0","pilot_wm_v1","65f647c74af96460db093800","4","null","null","true","","","","","","","","null","<div style=""font-size:60px;"">+</div>","null","fixation","","","","","","","","","","","","","","","",""
"revaluation","15","126280","0.0-4.0-2.0-0.1","pilot_wm_v1","65f647c74af96460db093800","4","null","null","true","","true","","","","","","[]","./assets/img/space/1.jpg","[]","first stage practice","space","-5","null","null","","false","","","","","","","","","",""
"html-keyboard-response","16","126782","0.0-4.0-2.0-1.1","pilot_wm_v1","65f647c74af96460db093800","4","null","null","true","","","","","","","","null","<div style=""font-size:60px;"">+</div>","null","fixation","","","","","","","","","","","","","","","",""
"revaluation","17","130787","0.0-4.0-2.0-0.2","pilot_wm_v1","65f647c74af96460db093800","4","null","null","true","","true","","","","","","[]","./assets/img/space/2.jpg","[]","first stage practice","space","-5","null","null","","false","","","","","","","","","",""
"html-keyboard-response","18","131289","0.0-4.0-2.0-1.2","pilot_wm_v1","65f647c74af96460db093800","4","null","null","true","","","","","","","","null","<div style=""font-size:60px;"">+</div>","null","fixation","","","","","","","","","","","","","","","",""
"learning-instructions","19","137088","0.0-4.0-3.0-0.0","pilot_wm_v1","65f647c74af96460db093800","4","null","null","true","","","","","","","","1113","<p> Great job! Now try pressing the <b>down</b> key to travel down. </p>
            <img src='./assets/img/instructions/pressDown.jpg' class='instructions-image'>","","instructions","","","","","","","","","","","","","","","",""
"revaluation","20","141092","0.0-4.0-4.0-0.0","pilot_wm_v1","65f647c74af96460db093800","4","null","null","true","","false","","","","","","[937]","./assets/img/space/3.jpg","[""ArrowDown""]","first stage practice","space","0","null","null","ArrowDown","false","","","","","","","","","",""
"html-keyboard-response","21","141594","0.0-4.0-4.0-1.0","pilot_wm_v1","65f647c74af96460db093800","4","null","null","true","","","","","","","","null","<div style=""font-size:60px;"">+</div>","null","fixation","","","","","","","","","","","","","","","",""
"revaluation","22","145600","0.0-4.0-4.0-0.1","pilot_wm_v1","65f647c74af96460db093800","4","null","null","true","","false","","","","","","[768.9999999999709]","./assets/img/space/4.jpg","[""ArrowDown""]","first stage practice","space","0","null","null","ArrowDown","false","","","","","","","","","",""
"html-keyboard-response","23","146102","0.0-4.0-4.0-1.1","pilot_wm_v1","65f647c74af96460db093800","4","null","null","true","","","","","","","","null","<div style=""font-size:60px;"">+</div>","null","fixation","","","","","","","","","","","","","","","",""
"revaluation","24","150106","0.0-4.0-4.0-0.2","pilot_wm_v1","65f647c74af96460db093800","4","null","null","true","","false","","","","","","[923]","./assets/img/space/5.jpg","[""ArrowDown""]","first stage practice","space","0","null","null","ArrowDown","false","","","","","","","","","",""
"html-keyboard-response","25","150608","0.0-4.0-4.0-1.2","pilot_wm_v1","65f647c74af96460db093800","4","null","null","true","","","","","","","","null","<div style=""font-size:60px;"">+</div>","null","fixation","","","","","","","","","","","","","","","",""
"learning-instructions","26","162552","0.0-4.0-5.0-0.0","pilot_wm_v1","65f647c74af96460db093800","4","null","null","true","","","","","","","","2116.999999999971","<p> The animals don’t move, so the animal in the upper part of a place will stay in the upper part of a place, and the animal in the lower part of a place will stay in the lower part of a place. </p>","","instructions","","","","","","","","","","","","","","","",""
"learning-instructions","27","172444","0.0-4.0-5.0-0.1","pilot_wm_v1","65f647c74af96460db093800","4","null","null","true","","","","","","","","784","<p> Each animal has two treasure chests for you to choose from. </p>
            <p> The amount of treasure in each chest can range from <b> 0 to 40 pieces.</b></p>","","instructions","","","","","","","","","","","","","","","",""
"learning-instructions","28","184587","0.0-4.0-5.0-0.2","pilot_wm_v1","65f647c74af96460db093800","4","null","null","true","","","","","","","","981","<p> You should decide which chest to search for treasure by using the <b>left</b> and <b>right</b> arrow keys. </p>
            <p><b> Pay attention to which animal is on the screen, as the animals have different treasure chests. </b></p>
            <img src='./assets/img/instructions/leftright.jpg' class='instructions-image'>","","instructions","","","","","","","","","","","","","","","",""
"learning-instructions","29","192321","0.0-4.0-5.0-0.3","pilot_wm_v1","65f647c74af96460db093800","4","null","null","true","","","","","","","","1388","<p> Let’s try practicing that now. </p>
            <p> When you see an animal, choose which chest to search for treasure. </p>
            <img src='./assets/img/instructions/chooseChest.jpg' class='instructions-image'>","","instructions","","","","","","","","","","","","","","","",""
"revaluation","30","196327","0.0-4.0-6.0-0.0","pilot_wm_v1","65f647c74af96460db093800","4","null","null","true","","false","","","","","","[931]","./assets/img/space/animals/rabbit.jpg","[""ArrowRight""]","second stage practice","space","23","{""ArrowUp,ArrowLeft"":3,""ArrowUp,ArrowRight"":36,""ArrowDown,ArrowLeft"":15,""ArrowDown,ArrowRight"":23}","true","ArrowDown,ArrowRight","","","","","","","","","","",""
"html-keyboard-response","31","196828","0.0-4.0-6.0-1.0","pilot_wm_v1","65f647c74af96460db093800","4","null","null","true","","","","","","","","null","<div style=""font-size:60px;"">+</div>","null","fixation","","","","","","","","","","","","","","","",""
"revaluation","32","200833","0.0-4.0-6.0-0.1","pilot_wm_v1","65f647c74af96460db093800","4","null","null","true","","false","","","","","","[631]","./assets/img/space/animals/cat.jpg","[""ArrowLeft""]","second stage practice","space","3","{""ArrowUp,ArrowLeft"":3,""ArrowUp,ArrowRight"":36,""ArrowDown,ArrowLeft"":15,""ArrowDown,ArrowRight"":23}","false","ArrowUp,ArrowLeft","","","","","","","","","","",""
"html-keyboard-response","33","201334","0.0-4.0-6.0-1.1","pilot_wm_v1","65f647c74af96460db093800","4","null","null","true","","","","","","","","null","<div style=""font-size:60px;"">+</div>","null","fixation","","","","","","","","","","","","","","","",""
"revaluation","34","205339","0.0-4.0-6.0-0.2","pilot_wm_v1","65f647c74af96460db093800","4","null","null","true","","false","","","","","","[584]","./assets/img/space/animals/rabbit.jpg","[""ArrowLeft""]","second stage practice","space","15","{""ArrowUp,ArrowLeft"":3,""ArrowUp,ArrowRight"":36,""ArrowDown,ArrowLeft"":15,""ArrowDown,ArrowRight"":23}","false","ArrowDown,ArrowLeft","","","","","","","","","","",""
"html-keyboard-response","35","205841","0.0-4.0-6.0-1.2","pilot_wm_v1","65f647c74af96460db093800","4","null","null","true","","","","","","","","null","<div style=""font-size:60px;"">+</div>","null","fixation","","","","","","","","","","","","","","","",""
"revaluation","36","209846","0.0-4.0-6.0-0.3","pilot_wm_v1","65f647c74af96460db093800","4","null","null","true","","false","","","","","","[1112]","./assets/img/space/animals/cat.jpg","[""ArrowRight""]","second stage practice","space","36","{""ArrowUp,ArrowLeft"":3,""ArrowUp,ArrowRight"":36,""ArrowDown,ArrowLeft"":15,""ArrowDown,ArrowRight"":23}","true","ArrowUp,ArrowRight","","","","","","","","","","",""
"html-keyboard-response","37","210348","0.0-4.0-6.0-1.3","pilot_wm_v1","65f647c74af96460db093800","4","null","null","true","","","","","","","","null","<div style=""font-size:60px;"">+</div>","null","fixation","","","","","","","","","","","","","","","",""
"learning-instructions","38","228868","0.0-4.0-7.0-0.0","pilot_wm_v1","65f647c74af96460db093800","4","null","null","true","","","","","","","","1731","<p> Great job. Now let’s try putting it together. </p>
            <p> On each turn, you will first see a picture to remind you of the place you are in, and you need to choose whether to go up or down. </p>
            <p> Then you will see an animal and choose which of its chests to search for treasure. </p>","","instructions","","","","","","","","","","","","","","","",""
"learning-instructions","39","238259","0.0-4.0-7.0-0.1","pilot_wm_v1","65f647c74af96460db093800","4","null","null","true","","","","","","","","1155","<p> When you choose whether to go up or down, try to go to the animal with the chest with the most treasure. </p>
            <p> Try practicing that now! </p>","","instructions","","","","","","","","","","","","","","","",""
"revaluation","40","244264","0.0-4.0-8.0-0.0","pilot_wm_v1","65f647c74af96460db093800","4","null","null","true","","false","","","","","","[1465.000000000029,815]","./assets/img/space/6.jpg","[""ArrowUp"",""ArrowRight""]","full practice","space","36","{""ArrowUp,ArrowLeft"":3,""ArrowUp,ArrowRight"":36,""ArrowDown,ArrowLeft"":15,""ArrowDown,ArrowRight"":23}","true","ArrowUp,ArrowRight","false","","","","","","","","","",""
"html-keyboard-response","41","244766","0.0-4.0-8.0-1.0","pilot_wm_v1","65f647c74af96460db093800","4","null","null","true","","","","","","","","null","<div style=""font-size:60px;"">+</div>","null","fixation","","","","","","","","","","","","","","","",""
"revaluation","42","250772","0.0-4.0-8.0-0.1","pilot_wm_v1","65f647c74af96460db093800","4","null","null","true","","false","","","","","","[1279.999999999971,459]","./assets/img/space/7.jpg","[""ArrowDown"",""ArrowLeft""]","full practice","space","15","{""ArrowUp,ArrowLeft"":3,""ArrowUp,ArrowRight"":36,""ArrowDown,ArrowLeft"":15,""ArrowDown,ArrowRight"":23}","false","ArrowDown,ArrowLeft","false","","","","","","","","","",""
"html-keyboard-response","43","251274","0.0-4.0-8.0-1.1","pilot_wm_v1","65f647c74af96460db093800","4","null","null","true","","","","","","","","null","<div style=""font-size:60px;"">+</div>","null","fixation","","","","","","","","","","","","","","","",""
"revaluation","44","257279","0.0-4.0-8.0-0.2","pilot_wm_v1","65f647c74af96460db093800","4","null","null","true","","false","","","","","","[1188.000000000029,631]","./assets/img/space/8.jpg","[""ArrowDown"",""ArrowRight""]","full practice","space","23","{""ArrowUp,ArrowLeft"":3,""ArrowUp,ArrowRight"":36,""ArrowDown,ArrowLeft"":15,""ArrowDown,ArrowRight"":23}","false","ArrowDown,ArrowRight","false","","","","","","","","","",""
"html-keyboard-response","45","257781","0.0-4.0-8.0-1.2","pilot_wm_v1","65f647c74af96460db093800","4","null","null","true","","","","","","","","null","<div style=""font-size:60px;"">+</div>","null","fixation","","","","","","","","","","","","","","","",""
"revaluation","46","263787","0.0-4.0-8.0-0.3","pilot_wm_v1","65f647c74af96460db093800","4","null","null","true","","false","","","","","","[697.9999999999709,458.9999999999418]","./assets/img/space/9.jpg","[""ArrowUp"",""ArrowRight""]","full practice","space","36","{""ArrowUp,ArrowLeft"":3,""ArrowUp,ArrowRight"":36,""ArrowDown,ArrowLeft"":15,""ArrowDown,ArrowRight"":23}","true","ArrowUp,ArrowRight","false","","","","","","","","","",""
"html-keyboard-response","47","264289","0.0-4.0-8.0-1.3","pilot_wm_v1","65f647c74af96460db093800","4","null","null","true","","","","","","","","null","<div style=""font-size:60px;"">+</div>","null","fixation","","","","","","","","","","","","","","","",""
"revaluation","48","270296","0.0-4.0-8.0-0.4","pilot_wm_v1","65f647c74af96460db093800","4","null","null","true","","false","","","","","","[875,349]","./assets/img/space/10.jpg","[""ArrowUp"",""ArrowRight""]","full practice","space","36","{""ArrowUp,ArrowLeft"":3,""ArrowUp,ArrowRight"":36,""ArrowDown,ArrowLeft"":15,""ArrowDown,ArrowRight"":23}","true","ArrowUp,ArrowRight","false","","","","","","","","","",""
"html-keyboard-response","49","270798","0.0-4.0-8.0-1.4","pilot_wm_v1","65f647c74af96460db093800","4","null","null","true","","","","","","","","null","<div style=""font-size:60px;"">+</div>","null","fixation","","","","","","","","","","","","","","","",""
"learning-instructions","50","287799","0.0-4.0-9.0-0.0","pilot_wm_v1","65f647c74af96460db093800","4","null","null","true","","","","","","","","6714","<p> One last thing: sometimes, you will see a robber. The robber can be anywhere in the picture. </p>
            <p> If you do not stop them, you will lose treasure. </p>
            <img src='./assets/img/instructions/robber.jpg' class='instructions-image'>","","instructions","","","","","","","","","","","","","","","",""
"learning-instructions","51","296118","0.0-4.0-9.0-0.1","pilot_wm_v1","65f647c74af96460db093800","4","null","null","true","","","","","","","","1170","<p> If you see the robber, you should <b>press the space bar</b> rather than using the arrow keys. </p>
            <p> Try practicing that now! </p>","","instructions","","","","","","","","","","","","","","","",""
"revaluation","52","300123","0.0-4.0-10.0-0.0","pilot_wm_v1","65f647c74af96460db093800","4","null","null","true","","false","","","","","","[924]","./assets/img/space/catch/0.jpg","[""spaceBar""]","catch practice","space","0","{""ArrowUp,ArrowLeft"":3,""ArrowUp,ArrowRight"":36,""ArrowDown,ArrowLeft"":15,""ArrowDown,ArrowRight"":23}","true","spaceBar","true","","","","","","","","","",""
"html-keyboard-response","53","300625","0.0-4.0-10.0-1.0","pilot_wm_v1","65f647c74af96460db093800","4","null","null","true","","","","","","","","null","<div style=""font-size:60px;"">+</div>","null","fixation","","","","","","","","","","","","","","","",""
"revaluation","54","304629","0.0-4.0-10.0-0.1","pilot_wm_v1","65f647c74af96460db093800","4","null","null","true","","false","","","","","","[890]","./assets/img/space/catch/1.jpg","[""spaceBar""]","catch practice","space","0","{""ArrowUp,ArrowLeft"":3,""ArrowUp,ArrowRight"":36,""ArrowDown,ArrowLeft"":15,""ArrowDown,ArrowRight"":23}","true","spaceBar","true","","","","","","","","","",""
"html-keyboard-response","55","305131","0.0-4.0-10.0-1.1","pilot_wm_v1","65f647c74af96460db093800","4","null","null","true","","","","","","","","null","<div style=""font-size:60px;"">+</div>","null","fixation","","","","","","","","","","","","","","","",""
"revaluation","56","309135","0.0-4.0-10.0-0.2","pilot_wm_v1","65f647c74af96460db093800","4","null","null","true","","false","","","","","","[615.9999999999418]","./assets/img/space/catch/2.jpg","[""spaceBar""]","catch practice","space","0","{""ArrowUp,ArrowLeft"":3,""ArrowUp,ArrowRight"":36,""ArrowDown,ArrowLeft"":15,""ArrowDown,ArrowRight"":23}","true","spaceBar","true","","","","","","","","","",""
"html-keyboard-response","57","309637","0.0-4.0-10.0-1.2","pilot_wm_v1","65f647c74af96460db093800","4","null","null","true","","","","","","","","null","<div style=""font-size:60px;"">+</div>","null","fixation","","","","","","","","","","","","","","","",""
"learning-instructions","58","318059","0.0-4.0-11.0-0.0","pilot_wm_v1","65f647c74af96460db093800","4","null","null","true","","","","","","","","2309","<p> Sometimes, you will come across a special kind of treasure chest that requires a password. </p>
            <img src='./assets/img/instructions/beep_chest.jpg' class='instructions-image'>","","instructions","","","","","","","","","","","","","","","",""
"learning-instructions","59","341512","0.0-4.0-11.0-0.1","pilot_wm_v1","65f647c74af96460db093800","4","null","null","true","","","","","","","","1036","<p> Your friend will send you the password using a series of beeps so that you can open the chest and earn treasure. </p>
            <p> You will hear two kinds of beeps, a high beep and a low beep. </p>
            <p> You should report the number of high beeps that you heard before seeing the chest. </p>
            <img src='./assets/img/instructions/listen.jpg' class='instructions-image'>","","instructions","","","","","","","","","","","","","","","",""
"learning-instructions","60","364664","0.0-4.0-11.0-0.2","pilot_wm_v1","65f647c74af96460db093800","4","null","null","true","","","","","","","","867","<p> For example, if you hear this series of beeps, you should report 4 as the password using the slider. </p>
            <p> After reporting a password for a chest, you should count the high beeps again starting from 0. </p>
            <p> Let's try practicing that now. </p>","","instructions","","","","","","","","","","","","","","","",""
"audio-button-response","61","372676","0.0-4.0-12.0-0.0-0.0","pilot_wm_v1","65f647c74af96460db093800","4","null","null","true","","","","","","","","null","./assets/audio/beeps/practice_6.wav","null","","","","","","","","","","","","","","","","",""
"html-slider-response","62","376447","0.0-4.0-12.0-0.0-1.0","pilot_wm_v1","65f647c74af96460db093800","4","null","null","true","","","","","","","","3769","<div style=""width:500px;"">
        <p>What is the password?</p>
        <img src='./assets/img/instructions/beep_chest.jpg' class='instructions-image'>","6","beep chest","","","","false","","","","50","0","6","","","","","",""
"comp-q","63","381776","0.0-4.0-12.0-0.0-2.0","pilot_wm_v1","65f647c74af96460db093800","4","null","null","true","","","","","","","","1131.9999999999418","<p>Correct! There were 6 high pitched beeps before you saw the chest. </p>","0","beep answer","","","","","","","","","","","","","","","",""
"audio-button-response","64","390526","0.0-4.0-12.0-0.1-0.1","pilot_wm_v1","65f647c74af96460db093800","4","null","null","true","","","","","","","","null","./assets/audio/beeps/practice_4.wav","null","","","","","","","","","","","","","","","","",""
"html-slider-response","65","393212","0.0-4.0-12.0-0.1-1.1","pilot_wm_v1","65f647c74af96460db093800","4","null","null","true","","","","","","","","2685","<div style=""width:500px;"">
        <p>What is the password?</p>
        <img src='./assets/img/instructions/beep_chest.jpg' class='instructions-image'>","4","beep chest","","","","false","","","","50","0","4","","","","","",""
"comp-q","66","398426","0.0-4.0-12.0-0.1-2.1","pilot_wm_v1","65f647c74af96460db093800","4","null","null","true","","","","","","","","1039","<p>Correct! There were 4 high pitched beeps before you saw the chest. </p>","0","beep answer","","","","","","","","","","","","","","","",""
"learning-instructions","67","409706","0.0-4.0-13.0-0.0","pilot_wm_v1","65f647c74af96460db093800","4","null","null","true","","","","","","","","978.9999999999418","<p> Good job! In the real game we will not tell you if you entered the right password. </p>
            <p> Do your best, the treasure you earn from these chests will also give you extra bonus money. </p>","","instructions","","","","","","","","","","","","","","","",""
"learning-instructions","68","424358","0.0-4.0-14.0-0.0-0.0","pilot_wm_v1","65f647c74af96460db093800","4","null","null","true","","","","","","","","1086.0000000000582","<p> After you explore a place to find treasure, it will be time to play a different game. </p>
            <p> During this game, red dots will appear on the screen and fall down slowly. </p>
            <p><b> You must click on them before they reach the bottom. </b></p>
            <img src='./assets/img/instructions/dotGame.jpg' class='instructions-image'>","","instructions","","","","","","","","","","","","","","","",""
"learning-instructions","69","431198","0.0-4.0-14.0-0.0-0.1","pilot_wm_v1","65f647c74af96460db093800","4","null","null","true","","","","","","","","498","<p> For every dot you click, you will earn additional treasure. </p>
            <p> Let’s try practicing that now. </p>","","instructions","","","","","","","","","","","","","","","",""
"revaluation","70","446202","0.0-4.0-14.0-1.0-0.0","pilot_wm_v1","65f647c74af96460db093800","4","null","null","true","","","","","","","","[82]","","","rest practice","","10","","","","","","","","","0","15000","","","",""
"learning-instructions","71","452258","0.0-4.0-15.0-0.0-0.0","pilot_wm_v1","65f647c74af96460db093800","4","null","null","true","","","","","","","","830","<p> Now, you will practice a shortened version of the game to get a sense of how it all fits together. </p>","","instructions","","","","","","","","","","","","","","","",""
"learning-instructions","72","459537","0.0-4.0-15.0-0.0-0.1","pilot_wm_v1","65f647c74af96460db093800","4","null","null","true","","","","","","","","3523","<p>This time you are searching for treasure in outer space.</p>","","instructions","","","","","","","","","","","","","","","",""
"learning-instructions","73","478282","0.0-4.0-15.0-1.0-0.0","pilot_wm_v1","65f647c74af96460db093800","4","null","null","true","","","","","","","","3078.999999999942","<p> Remember, when you see a picture of the place, use the up and down keys to <b>find an animal</b>.</p>
            <p> When you encounter an animal, you should use the left and right keys to <b>select a treasure chest</b>.</p>
            <p> Don't forget to look out for the robber! </p>","","instructions","","","","","","","","","","","","","","","",""
"revaluation","74","484288","0.0-4.0-15.0-2.0-0.0","pilot_wm_v1","65f647c74af96460db093800","4","null","null","true","","false","","","","","","[959.0000000000582,871]","./assets/img/space/11.jpg","[""ArrowUp"",""ArrowRight""]","practice block","space","36","{""ArrowUp,ArrowLeft"":3,""ArrowUp,ArrowRight"":36,""ArrowDown,ArrowLeft"":15,""ArrowDown,ArrowRight"":23}","true","ArrowUp,ArrowRight","false","","","","","","","","","",""
"html-keyboard-response","75","484789","0.0-4.0-15.0-2.0-1.0","pilot_wm_v1","65f647c74af96460db093800","4","null","null","true","","","","","","","","null","<div style=""font-size:60px;"">+</div>","null","fixation","","","","","","","","","","","","","","","",""
"revaluation","76","490795","0.0-4.0-15.0-2.0-0.1","pilot_wm_v1","65f647c74af96460db093800","4","null","null","true","","false","","","","","","[987,437.9999999999418]","./assets/img/space/12.jpg","[""ArrowUp"",""ArrowLeft""]","practice block","space","3","{""ArrowUp,ArrowLeft"":3,""ArrowUp,ArrowRight"":36,""ArrowDown,ArrowLeft"":15,""ArrowDown,ArrowRight"":23}","false","ArrowUp,ArrowLeft","false","","","","","","","","","",""
"html-keyboard-response","77","491296","0.0-4.0-15.0-2.0-1.1","pilot_wm_v1","65f647c74af96460db093800","4","null","null","true","","","","","","","","null","<div style=""font-size:60px;"">+</div>","null","fixation","","","","","","","","","","","","","","","",""
"revaluation","78","497301","0.0-4.0-15.0-2.0-0.2","pilot_wm_v1","65f647c74af96460db093800","4","null","null","true","","false","","","","","","[1763,767]","./assets/img/space/13.jpg","[""ArrowDown"",""ArrowRight""]","practice block","space","23","{""ArrowUp,ArrowLeft"":3,""ArrowUp,ArrowRight"":36,""ArrowDown,ArrowLeft"":15,""ArrowDown,ArrowRight"":23}","false","ArrowDown,ArrowRight","false","","","","","","","","","",""
"html-keyboard-response","79","497803","0.0-4.0-15.0-2.0-1.2","pilot_wm_v1","65f647c74af96460db093800","4","null","null","true","","","","","","","","null","<div style=""font-size:60px;"">+</div>","null","fixation","","","","","","","","","","","","","","","",""
"revaluation","80","503810","0.0-4.0-15.0-2.0-0.3","pilot_wm_v1","65f647c74af96460db093800","4","null","null","true","","false","","","","","","[693,779]","./assets/img/space/14.jpg","[""ArrowUp"",""ArrowRight""]","practice block","space","36","{""ArrowUp,ArrowLeft"":3,""ArrowUp,ArrowRight"":36,""ArrowDown,ArrowLeft"":15,""ArrowDown,ArrowRight"":23}","true","ArrowUp,ArrowRight","false","","","","","","","","","",""
"html-keyboard-response","81","504311","0.0-4.0-15.0-2.0-1.3","pilot_wm_v1","65f647c74af96460db093800","4","null","null","true","","","","","","","","null","<div style=""font-size:60px;"">+</div>","null","fixation","","","","","","","","","","","","","","","",""
"revaluation","82","510317","0.0-4.0-15.0-2.0-0.4","pilot_wm_v1","65f647c74af96460db093800","4","null","null","true","","false","","","","","","[671,578.0000000000582]","./assets/img/space/11.jpg","[""ArrowUp"",""ArrowRight""]","practice block","space","36","{""ArrowUp,ArrowLeft"":3,""ArrowUp,ArrowRight"":36,""ArrowDown,ArrowLeft"":15,""ArrowDown,ArrowRight"":23}","true","ArrowUp,ArrowRight","false","","","","","","","","","",""
"html-keyboard-response","83","510818","0.0-4.0-15.0-2.0-1.4","pilot_wm_v1","65f647c74af96460db093800","4","null","null","true","","","","","","","","null","<div style=""font-size:60px;"">+</div>","null","fixation","","","","","","","","","","","","","","","",""
"revaluation","84","516823","0.0-4.0-15.0-2.0-0.5","pilot_wm_v1","65f647c74af96460db093800","4","null","null","true","","false","","","","","","[633.9999999998836,439.9999999999418]","./assets/img/space/12.jpg","[""ArrowUp"",""ArrowRight""]","practice block","space","36","{""ArrowUp,ArrowLeft"":3,""ArrowUp,ArrowRight"":36,""ArrowDown,ArrowLeft"":15,""ArrowDown,ArrowRight"":23}","true","ArrowUp,ArrowRight","false","","","","","","","","","",""
"html-keyboard-response","85","517325","0.0-4.0-15.0-2.0-1.5","pilot_wm_v1","65f647c74af96460db093800","4","null","null","true","","","","","","","","null","<div style=""font-size:60px;"">+</div>","null","fixation","","","","","","","","","","","","","","","",""
"revaluation","86","523331","0.0-4.0-15.0-2.0-0.6","pilot_wm_v1","65f647c74af96460db093800","4","null","null","true","","false","","","","","","[648,501.0000000001164]","./assets/img/space/13.jpg","[""ArrowUp"",""ArrowRight""]","practice block","space","36","{""ArrowUp,ArrowLeft"":3,""ArrowUp,ArrowRight"":36,""ArrowDown,ArrowLeft"":15,""ArrowDown,ArrowRight"":23}","true","ArrowUp,ArrowRight","false","","","","","","","","","",""
"html-keyboard-response","87","523833","0.0-4.0-15.0-2.0-1.6","pilot_wm_v1","65f647c74af96460db093800","4","null","null","true","","","","","","","","null","<div style=""font-size:60px;"">+</div>","null","fixation","","","","","","","","","","","","","","","",""
"revaluation","88","529839","0.0-4.0-15.0-2.0-0.7","pilot_wm_v1","65f647c74af96460db093800","4","null","null","true","","false","","","","","","[689,443]","./assets/img/space/14.jpg","[""ArrowUp"",""ArrowRight""]","practice block","space","36","{""ArrowUp,ArrowLeft"":3,""ArrowUp,ArrowRight"":36,""ArrowDown,ArrowLeft"":15,""ArrowDown,ArrowRight"":23}","true","ArrowUp,ArrowRight","false","","","","","","","","","",""
"html-keyboard-response","89","530342","0.0-4.0-15.0-2.0-1.7","pilot_wm_v1","65f647c74af96460db093800","4","null","null","true","","","","","","","","null","<div style=""font-size:60px;"">+</div>","null","fixation","","","","","","","","","","","","","","","",""
"revaluation","90","534347","0.0-4.0-15.0-2.0-0.8","pilot_wm_v1","65f647c74af96460db093800","4","null","null","true","","false","","","","","","[603]","./assets/img/space/catch/3.jpg","[""spaceBar""]","practice block","space","0","{""ArrowUp,ArrowLeft"":3,""ArrowUp,ArrowRight"":36,""ArrowDown,ArrowLeft"":15,""ArrowDown,ArrowRight"":23}","true","spaceBar","true","","","","","","","","","",""
"html-keyboard-response","91","534849","0.0-4.0-15.0-2.0-1.8","pilot_wm_v1","65f647c74af96460db093800","4","null","null","true","","","","","","","","null","<div style=""font-size:60px;"">+</div>","null","fixation","","","","","","","","","","","","","","","",""
"learning-instructions","92","548529","0.0-4.0-15.0-3.0-0.0","pilot_wm_v1","65f647c74af96460db093800","4","null","null","true","","","","","","","","787","<p> Now, you will travel with a friend who will choose whether you go up or down first. </p>
            <p> On these turns, you will just see the animal that they found. You will still get to choose which chest to search for treasure.</p>","","instructions","","","","","","","","","","","","","","","",""
"learning-instructions","93","561407","0.0-4.0-15.0-3.0-0.1","pilot_wm_v1","65f647c74af96460db093800","4","null","null","true","","","","","","","","1266","<p> In this part, you will also hear beeps from your friend and see special treasure chests that need a password. </p>
            <p> Do your best to count the high beeps <b>and</b> choose between each animals' chests at the same time.</p>
            <img src='./assets/img/instructions/beep_chest.jpg' class='instructions-image'>","","instructions","","","","","","","","","","","","","","","",""
"revaluation","94","565411","0.0-4.0-15.0-4.0-0.0","pilot_wm_v1","65f647c74af96460db093800","4","null","null","true","","false","","","","","","[1043.9999999998836]","./assets/img/space/animals/cat.jpg","[""ArrowRight""]","practice block","space","36","{""ArrowUp,ArrowLeft"":3,""ArrowUp,ArrowRight"":36,""ArrowDown,ArrowLeft"":15,""ArrowDown,ArrowRight"":23}","true","ArrowUp,ArrowRight","","[""19_0""]","","","","","","0","","",""
"html-keyboard-response","95","565915","0.0-4.0-15.0-4.0-1.0","pilot_wm_v1","65f647c74af96460db093800","4","null","null","true","","","","","","","","null","<div style=""font-size:60px;"">+</div>","null","fixation","","","","","","","","","","","","","","","",""
"revaluation","96","569920","0.0-4.0-15.0-4.0-0.1","pilot_wm_v1","65f647c74af96460db093800","4","null","null","true","","false","","","","","","[1246]","./assets/img/space/animals/cat.jpg","[""ArrowRight""]","practice block","space","36","{""ArrowUp,ArrowLeft"":3,""ArrowUp,ArrowRight"":36,""ArrowDown,ArrowLeft"":15,""ArrowDown,ArrowRight"":23}","true","ArrowUp,ArrowRight","","[""20_0""]","","","","","","1","","",""
"html-keyboard-response","97","570422","0.0-4.0-15.0-4.0-1.1","pilot_wm_v1","65f647c74af96460db093800","4","null","null","true","","","","","","","","null","<div style=""font-size:60px;"">+</div>","null","fixation","","","","","","","","","","","","","","","",""
"revaluation","98","574427","0.0-4.0-15.0-4.0-0.2","pilot_wm_v1","65f647c74af96460db093800","4","null","null","true","","false","","","","","","[875]","./assets/img/space/animals/rabbit.jpg","[""ArrowRight""]","practice block","space","23","{""ArrowUp,ArrowLeft"":3,""ArrowUp,ArrowRight"":36,""ArrowDown,ArrowLeft"":15,""ArrowDown,ArrowRight"":23}","true","ArrowDown,ArrowRight","","[""22_3""]","","","","","","2","","",""
"html-keyboard-response","99","574929","0.0-4.0-15.0-4.0-1.2","pilot_wm_v1","65f647c74af96460db093800","4","null","null","true","","","","","","","","null","<div style=""font-size:60px;"">+</div>","null","fixation","","","","","","","","","","","","","","","",""
"revaluation","100","578933","0.0-4.0-15.0-4.0-0.3","pilot_wm_v1","65f647c74af96460db093800","4","null","null","true","","false","","","","","","[548]","./assets/img/space/animals/rabbit.jpg","[""ArrowRight""]","practice block","space","23","{""ArrowUp,ArrowLeft"":3,""ArrowUp,ArrowRight"":36,""ArrowDown,ArrowLeft"":15,""ArrowDown,ArrowRight"":23}","true","ArrowDown,ArrowRight","","[""21_1""]","","","","","","3","","",""
"html-keyboard-response","101","579435","0.0-4.0-15.0-4.0-1.3","pilot_wm_v1","65f647c74af96460db093800","4","null","null","true","","","","","","","","null","<div style=""font-size:60px;"">+</div>","null","fixation","","","","","","","","","","","","","","","",""
"html-slider-response","102","583059","0.0-4.0-15.0-4.0-2.3-0.3","pilot_wm_v1","65f647c74af96460db093800","4","null","null","true","","","","","","","","3623","<div style=""width:500px;"">
        <p>What is the password?</p>
        <img src='./assets/img/instructions/beep_chest.jpg' class='instructions-image'>","3","beep chest","","","","false","","","","50","82","79","","","","","",""
"learning-instructions","103","592131","0.0-4.0-15.0-5.0-0.0-0.0","pilot_wm_v1","65f647c74af96460db093800","4","null","null","true","","","","","","","","956","<p> Time to play the dot game! </p>
            <p> For 15 seconds, click the red dots on the following screen as they appear. </p>","","instructions","","","","","","","","","","","","","","","",""
"revaluation","104","607132","0.0-4.0-15.0-5.0-1.0-0.0","pilot_wm_v1","65f647c74af96460db093800","4","null","null","true","","","","","","","","[67]","","","rest practice","","10","","","","","","","","","0","15000","","","",""
"learning-instructions","105","615962","0.0-4.0-15.0-6.0-0.0","pilot_wm_v1","65f647c74af96460db093800","4","null","null","true","","","","","","","","null","<p> You have almost finished this part of the game! </p>
            <p> We are going to ask you to make a few more choices. </p>","","instructions","","","","","","","","","","","","","","","",""
"learning-instructions","106","631946","0.0-4.0-15.0-6.0-0.1","pilot_wm_v1","65f647c74af96460db093800","4","null","null","true","","","","","","","","null","<p> First, you need to decide whether to go up or down. When you see each picture, use the arrow keys to make your choice. </p>
            <p><b>You will not see which animal you found, but try to get to the one that will give you the most treasure.</b></p>","","instructions","","","","","","","","","","","","","","","",""
"html-keyboard-response","107","632947","0.0-4.0-15.0-7.0-0.0","pilot_wm_v1","65f647c74af96460db093800","4","null","null","true","","","","","","","","null","<div style=""font-size:100px;color:red;"">Starting in...</div>","null","","","","","","","","","","","","","","","","",""
"html-keyboard-response","108","633949","0.0-4.0-15.0-7.0-1.0","pilot_wm_v1","65f647c74af96460db093800","4","null","null","true","","","","","","","","null","<div style=""font-size:200px;color:red;"">3</div>","null","","","","","","","","","","","","","","","","",""
"html-keyboard-response","109","634952","0.0-4.0-15.0-7.0-2.0","pilot_wm_v1","65f647c74af96460db093800","4","null","null","true","","","","","","","","null","<div style=""font-size:200px;color:red;"">2</div>","null","","","","","","","","","","","","","","","","",""
"html-keyboard-response","110","635954","0.0-4.0-15.0-7.0-3.0","pilot_wm_v1","65f647c74af96460db093800","4","null","null","true","","","","","","","","null","<div style=""font-size:200px;color:red;"">1</div>","null","","","","","","","","","","","","","","","","",""
"revaluation","111","636616","0.0-4.0-15.0-8.0","pilot_wm_v1","65f647c74af96460db093800","4","null","null","true","","false","","","","","","[658.9999999998836]","./assets/img/space/15.jpg","[""ArrowUp""]","practice block","space","0","{""ArrowUp,ArrowLeft"":3,""ArrowUp,ArrowRight"":36,""ArrowDown,ArrowLeft"":15,""ArrowDown,ArrowRight"":23}","true","ArrowUp","false","","","","","","","","","",""
"html-keyboard-response","112","637117","0.0-4.0-15.0-9.0","pilot_wm_v1","65f647c74af96460db093800","4","null","null","true","","","","","","","","null","<div style=""font-size:60px;"">+</div>","null","fixation","","","","","","","","","","","","","","","",""
"learning-instructions","113","651302","0.0-4.0-15.0-10.0-0.0","pilot_wm_v1","65f647c74af96460db093800","4","null","null","true","","","","","","","","null","<p> Now you will see the animals again and can search their chests for treasure. </p>
            <p> This time, you will not see how much treasure you earned, but you will earn more bonus money for making better choices. </p>","","instructions","","","","","","","","","","","","","","","",""
"html-keyboard-response","114","652304","0.0-4.0-15.0-11.0-0.0","pilot_wm_v1","65f647c74af96460db093800","4","null","null","true","","","","","","","","null","<div style=""font-size:100px;color:red;"">Starting in...</div>","null","","","","","","","","","","","","","","","","",""
"html-keyboard-response","115","653305","0.0-4.0-15.0-11.0-1.0","pilot_wm_v1","65f647c74af96460db093800","4","null","null","true","","","","","","","","null","<div style=""font-size:200px;color:red;"">3</div>","null","","","","","","","","","","","","","","","","",""
"html-keyboard-response","116","654308","0.0-4.0-15.0-11.0-2.0","pilot_wm_v1","65f647c74af96460db093800","4","null","null","true","","","","","","","","null","<div style=""font-size:200px;color:red;"">2</div>","null","","","","","","","","","","","","","","","","",""
"html-keyboard-response","117","655309","0.0-4.0-15.0-11.0-3.0","pilot_wm_v1","65f647c74af96460db093800","4","null","null","true","","","","","","","","null","<div style=""font-size:200px;color:red;"">1</div>","null","","","","","","","","","","","","","","","","",""
"revaluation","118","655928","0.0-4.0-15.0-12.0-0.0","pilot_wm_v1","65f647c74af96460db093800","4","null","null","true","","false","","","","","","[617]","./assets/img/space/animals/cat.jpg","[""ArrowRight""]","practice block","space","0","{""ArrowUp,ArrowLeft"":3,""ArrowUp,ArrowRight"":36,""ArrowDown,ArrowLeft"":15,""ArrowDown,ArrowRight"":23}","true","ArrowUp,ArrowRight","","","","","","","","","","",""
"html-keyboard-response","119","656430","0.0-4.0-15.0-12.0-1.0","pilot_wm_v1","65f647c74af96460db093800","4","null","null","true","","","","","","","","null","<div style=""font-size:60px;"">+</div>","null","fixation","","","","","","","","","","","","","","","",""
"revaluation","120","657072","0.0-4.0-15.0-12.0-0.1","pilot_wm_v1","65f647c74af96460db093800","4","null","null","true","","false","","","","","","[639.9999999998836]","./assets/img/space/animals/rabbit.jpg","[""ArrowRight""]","practice block","space","0","{""ArrowUp,ArrowLeft"":3,""ArrowUp,ArrowRight"":36,""ArrowDown,ArrowLeft"":15,""ArrowDown,ArrowRight"":23}","true","ArrowDown,ArrowRight","","","","","","","","","","",""
"html-keyboard-response","121","657574","0.0-4.0-15.0-12.0-1.1","pilot_wm_v1","65f647c74af96460db093800","4","null","null","true","","","","","","","","null","<div style=""font-size:60px;"">+</div>","null","fixation","","","","","","","","","","","","","","","",""
"learning-instructions","122","663387","0.0-4.0-16.0-0.0","pilot_wm_v1","65f647c74af96460db093800","4","null","null","true","","","","","","","","1246","<p> Before you start, we're going to ask you a few questions about how the game works. </p>","","instructions","","","","","","","","","","","","","","","",""
"comp-q","123","670955","0.0-4.0-17.0-0.0-0.0","pilot_wm_v1","65f647c74af96460db093800","4","null","null","true","","","","","","","","1257","<p> <b> True or False? </b> </p>
            <p> There can be 50 pieces of treasure in a given animal's chest. </p>","0","comp_question","","","","false","","","","","","","","","","","",""
"comp-q","124","678570","0.0-4.0-17.0-0.0-1.0","pilot_wm_v1","65f647c74af96460db093800","4","null","null","true","","","","","","","","1104","<p> <b>Incorrect.</b> The amount of treasure in each chest can range from 0 to 40 pieces. </p>","0","comp_answer","","","","","","","","","","","","","","","",""
"comp-q","125","684913","0.0-4.0-17.0-0.1-0.1","pilot_wm_v1","65f647c74af96460db093800","4","null","null","true","","","","","","","","784","<p> <b> True or False? </b> </p>
            <p> There can be 50 pieces of treasure in a given animal's chest. </p>","1","comp_question","","","","true","","","","","","","","","","","",""
"comp-q","126","693711","0.0-4.0-17.0-0.1-1.1","pilot_wm_v1","65f647c74af96460db093800","4","null","null","true","","","","","","","","1422","<p> <b> That's right! </b> The amount of treasure in each chest can range from 0 to 40 pieces. </p>","0","comp_answer","","","","","","","","","","","","","","","",""
"comp-q","127","701535","0.0-4.0-17.0-0.2-0.2","pilot_wm_v1","65f647c74af96460db093800","4","null","null","true","","","","","","","","726","<p> <b> True or False? </b> </p><p> In this game, all animals have the same amount of treasure in their left and right chests. </p>","1","comp_question","","","","true","","","","","","","","","","","",""
"comp-q","128","708181","0.0-4.0-17.0-0.2-1.2","pilot_wm_v1","65f647c74af96460db093800","4","null","null","true","","","","","","","","1434.0000000001164","<p> <b> That's right! </b> Animals have different amounts of treasure in their treasure chests. </p>","0","comp_answer","","","","","","","","","","","","","","","",""
"comp-q","129","715747","0.0-4.0-17.0-0.3-0.3","pilot_wm_v1","65f647c74af96460db093800","4","null","null","true","","","","","","","","957","<p> <b> True or False? </b> </p><p> The same animal will always be there if you go up in the same place. </p>","1","comp_question","","","","false","","","","","","","","","","","",""
"comp-q","130","722912","0.0-4.0-17.0-0.3-1.3","pilot_wm_v1","65f647c74af96460db093800","4","null","null","true","","","","","","","","879.9999999998836","<p> <b>Incorrect.</b> One animal lives in the upper part and one lives in the lower part of every place. </p>","0","comp_answer","","","","","","","","","","","","","","","",""
"comp-q","131","729444","0.0-4.0-17.0-0.4-0.4","pilot_wm_v1","65f647c74af96460db093800","4","null","null","true","","","","","","","","709.9999999998836","<p> <b> True or False? </b> </p><p> The same animal will always be there if you go up in the same place. </p>","0","comp_question","","","","true","","","","","","","","","","","",""
"comp-q","132","736701","0.0-4.0-17.0-0.4-1.4","pilot_wm_v1","65f647c74af96460db093800","4","null","null","true","","","","","","","","829","<p> <b> That's right! </b> One animal lives in the upper part and one lives in the lower part of every place. </p>","0","comp_answer","","","","","","","","","","","","","","","",""
"comp-q","133","743583","0.0-4.0-17.0-0.5-0.5","pilot_wm_v1","65f647c74af96460db093800","4","null","null","true","","","","","","","","663","<p> <b> True or False? </b> </p><p> If you see a different picture, it means you are in a new place. </p>","1","comp_question","","","","true","","","","","","","","","","","",""
"comp-q","134","755696","0.0-4.0-17.0-0.5-1.5","pilot_wm_v1","65f647c74af96460db093800","4","null","null","true","","","","","","","","911","<p> <b> That's right! </b> Lots of different images may show the same place. For example,  you may see three different images that all remind you that you are in outer space. </p>","0","comp_answer","","","","","","","","","","","","","","","",""
"learning-instructions","135","766428","0.0-4.0-18.0-0.0","pilot_wm_v1","65f647c74af96460db093800","4","null","null","true","","","","","","","","901.9999999998836","<p> Good job. Remember to do your best because the amount of treasure you earn will be converted into bonus money. </p>
            <p> It’s time to start the real game! </p>","","instructions","","","","","","","","","","","","","","","",""
"learning-instructions","136","770609","0.0-5.0-0.0-0.0","pilot_wm_v1","65f647c74af96460db093800","4","null","null","true","","","","","","","","1488","<p> This time you are searching for treasure in the <b>ocean</b>.</p>","","instructions","","","","","","","","","","","","","","","",""
"learning-instructions","137","789665","0.0-5.0-0.0-0.1","pilot_wm_v1","65f647c74af96460db093800","4","null","null","true","","","","","","","","1787","<p><b>New</b> animals with <b>new</b> treasure chests live here. You need to explore to discover where the animal with the best treasure chest is.</p>
                    <p> Like before, once you figure out which animal has the chest with the most treasure, you should try to get to that animal and select that chest! </p>","","instructions","","","","","","","","","","","","","","","",""
"learning-instructions","138","805185","0.0-5.0-1.0-0.0","pilot_wm_v1","65f647c74af96460db093800","4","null","null","true","","","","","","","","789.9999999998836","<p> Remember, when you see a picture of the place, use the up and down keys to <b>find an animal</b>.</p>
            <p> When you encounter an animal, you should use the left and right keys to <b>select a treasure chest</b>.</p>
            <p> Don't forget to look out for the robber! </p>","","instructions","","","","","","","","","","","","","","","",""
"revaluation","139","811192","0.0-5.0-2.0-0.0","pilot_wm_v1","65f647c74af96460db093800","4","null","null","true","","false","","","","","","[1573,1000]","./assets/img/ocean/memory/17.jpg","[""ArrowUp"",""ArrowRight""]","value training","ocean","10","{""ArrowUp,ArrowLeft"":26,""ArrowUp,ArrowRight"":10,""ArrowDown,ArrowLeft"":5,""ArrowDown,ArrowRight"":17}","false","ArrowUp,ArrowRight","false","","","","","","","0","revaluation","1",""
"html-keyboard-response","140","811695","0.0-5.0-2.0-1.0","pilot_wm_v1","65f647c74af96460db093800","4","null","null","true","","","","","","","","null","<div style=""font-size:60px;"">+</div>","null","fixation","","","","","","","","","","","","","1","","",""
"revaluation","141","817701","0.0-5.0-2.0-0.1","pilot_wm_v1","65f647c74af96460db093800","4","null","null","true","","false","","","","","","[868,900.0000000001164]","./assets/img/ocean/memory/20.jpg","[""ArrowDown"",""ArrowRight""]","value training","ocean","17","{""ArrowUp,ArrowLeft"":26,""ArrowUp,ArrowRight"":10,""ArrowDown,ArrowLeft"":5,""ArrowDown,ArrowRight"":17}","false","ArrowDown,ArrowRight","false","","","","","","","2","revaluation","1",""
"html-keyboard-response","142","818203","0.0-5.0-2.0-1.1","pilot_wm_v1","65f647c74af96460db093800","4","null","null","true","","","","","","","","null","<div style=""font-size:60px;"">+</div>","null","fixation","","","","","","","","","","","","","3","","",""
"revaluation","143","822207","0.0-5.0-2.0-0.2","pilot_wm_v1","65f647c74af96460db093800","4","null","null","true","","false","","","","","","[473]","./assets/img/ocean/catch/5.jpg","[""ArrowUp""]","value training","ocean","-10","{""ArrowUp,ArrowLeft"":26,""ArrowUp,ArrowRight"":10,""ArrowDown,ArrowLeft"":5,""ArrowDown,ArrowRight"":17}","false","ArrowUp","true","","","","","","","4","revaluation","1",""
"html-keyboard-response","144","822708","0.0-5.0-2.0-1.2","pilot_wm_v1","65f647c74af96460db093800","4","null","null","true","","","","","","","","null","<div style=""font-size:60px;"">+</div>","null","fixation","","","","","","","","","","","","","5","","",""
"revaluation","145","828714","0.0-5.0-2.0-0.3","pilot_wm_v1","65f647c74af96460db093800","4","null","null","true","","false","","","","","","[996,590]","./assets/img/ocean/memory/15.jpg","[""ArrowUp"",""ArrowLeft""]","value training","ocean","26","{""ArrowUp,ArrowLeft"":26,""ArrowUp,ArrowRight"":10,""ArrowDown,ArrowLeft"":5,""ArrowDown,ArrowRight"":17}","true","ArrowUp,ArrowLeft","false","","","","","","","6","revaluation","1",""
"html-keyboard-response","146","829217","0.0-5.0-2.0-1.3","pilot_wm_v1","65f647c74af96460db093800","4","null","null","true","","","","","","","","null","<div style=""font-size:60px;"">+</div>","null","fixation","","","","","","","","","","","","","7","","",""
"revaluation","147","835223","0.0-5.0-2.0-0.4","pilot_wm_v1","65f647c74af96460db093800","4","null","null","true","","false","","","","","","[730,697]","./assets/img/ocean/memory/38.jpg","[""ArrowUp"",""ArrowLeft""]","value training","ocean","26","{""ArrowUp,ArrowLeft"":26,""ArrowUp,ArrowRight"":10,""ArrowDown,ArrowLeft"":5,""ArrowDown,ArrowRight"":17}","true","ArrowUp,ArrowLeft","false","","","","","","","8","revaluation","1",""
"html-keyboard-response","148","835725","0.0-5.0-2.0-1.4","pilot_wm_v1","65f647c74af96460db093800","4","null","null","true","","","","","","","","null","<div style=""font-size:60px;"">+</div>","null","fixation","","","","","","","","","","","","","9","","",""
"revaluation","149","841731","0.0-5.0-2.0-0.5","pilot_wm_v1","65f647c74af96460db093800","4","null","null","true","","false","","","","","","[429,1067]","./assets/img/ocean/memory/41.jpg","[""ArrowUp"",""ArrowLeft""]","value training","ocean","26","{""ArrowUp,ArrowLeft"":26,""ArrowUp,ArrowRight"":10,""ArrowDown,ArrowLeft"":5,""ArrowDown,ArrowRight"":17}","true","ArrowUp,ArrowLeft","false","","","","","","","10","revaluation","1",""
"html-keyboard-response","150","842233","0.0-5.0-2.0-1.5","pilot_wm_v1","65f647c74af96460db093800","4","null","null","true","","","","","","","","null","<div style=""font-size:60px;"">+</div>","null","fixation","","","","","","","","","","","","","11","","",""
"revaluation","151","848239","0.0-5.0-2.0-0.6","pilot_wm_v1","65f647c74af96460db093800","4","null","null","true","","false","","","","","","[743,880]","./assets/img/ocean/memory/26.jpg","[""ArrowDown"",""ArrowLeft""]","value training","ocean","5","{""ArrowUp,ArrowLeft"":26,""ArrowUp,ArrowRight"":10,""ArrowDown,ArrowLeft"":5,""ArrowDown,ArrowRight"":17}","false","ArrowDown,ArrowLeft","false","","","","","","","12","revaluation","1",""
"html-keyboard-response","152","848740","0.0-5.0-2.0-1.6","pilot_wm_v1","65f647c74af96460db093800","4","null","null","true","","","","","","","","null","<div style=""font-size:60px;"">+</div>","null","fixation","","","","","","","","","","","","","13","","",""
"revaluation","153","854745","0.0-5.0-2.0-0.7","pilot_wm_v1","65f647c74af96460db093800","4","null","null","true","","false","","","","","","[362,398]","./assets/img/ocean/memory/12.jpg","[""ArrowUp"",""ArrowLeft""]","value training","ocean","26","{""ArrowUp,ArrowLeft"":26,""ArrowUp,ArrowRight"":10,""ArrowDown,ArrowLeft"":5,""ArrowDown,ArrowRight"":17}","true","ArrowUp,ArrowLeft","false","","","","","","","14","revaluation","1",""
"html-keyboard-response","154","855246","0.0-5.0-2.0-1.7","pilot_wm_v1","65f647c74af96460db093800","4","null","null","true","","","","","","","","null","<div style=""font-size:60px;"">+</div>","null","fixation","","","","","","","","","","","","","15","","",""
"revaluation","155","859250","0.0-5.0-2.0-0.8","pilot_wm_v1","65f647c74af96460db093800","4","null","null","true","","false","","","","","","[674]","./assets/img/ocean/catch/7.jpg","[""spaceBar""]","value training","ocean","0","{""ArrowUp,ArrowLeft"":26,""ArrowUp,ArrowRight"":10,""ArrowDown,ArrowLeft"":5,""ArrowDown,ArrowRight"":17}","true","spaceBar","true","","","","","","","16","revaluation","1",""
"html-keyboard-response","156","859752","0.0-5.0-2.0-1.8","pilot_wm_v1","65f647c74af96460db093800","4","null","null","true","","","","","","","","null","<div style=""font-size:60px;"">+</div>","null","fixation","","","","","","","","","","","","","17","","",""
"revaluation","157","865759","0.0-5.0-2.0-0.9","pilot_wm_v1","65f647c74af96460db093800","4","null","null","true","","false","","","","","","[873,336]","./assets/img/ocean/memory/20.jpg","[""ArrowUp"",""ArrowLeft""]","value training","ocean","26","{""ArrowUp,ArrowLeft"":26,""ArrowUp,ArrowRight"":10,""ArrowDown,ArrowLeft"":5,""ArrowDown,ArrowRight"":17}","true","ArrowUp,ArrowLeft","false","","","","","","","18","revaluation","1",""
"html-keyboard-response","158","866262","0.0-5.0-2.0-1.9","pilot_wm_v1","65f647c74af96460db093800","4","null","null","true","","","","","","","","null","<div style=""font-size:60px;"">+</div>","null","fixation","","","","","","","","","","","","","19","","",""
"revaluation","159","872270","0.0-5.0-2.0-0.10","pilot_wm_v1","65f647c74af96460db093800","4","null","null","true","","false","","","","","","[618,553]","./assets/img/ocean/memory/13.jpg","[""ArrowUp"",""ArrowLeft""]","value training","ocean","26","{""ArrowUp,ArrowLeft"":26,""ArrowUp,ArrowRight"":10,""ArrowDown,ArrowLeft"":5,""ArrowDown,ArrowRight"":17}","true","ArrowUp,ArrowLeft","false","","","","","","","20","revaluation","1",""
"html-keyboard-response","160","872771","0.0-5.0-2.0-1.10","pilot_wm_v1","65f647c74af96460db093800","4","null","null","true","","","","","","","","null","<div style=""font-size:60px;"">+</div>","null","fixation","","","","","","","","","","","","","21","","",""
"revaluation","161","878776","0.0-5.0-2.0-0.11","pilot_wm_v1","65f647c74af96460db093800","4","null","null","true","","false","","","","","","[490,498]","./assets/img/ocean/memory/34.jpg","[""ArrowUp"",""ArrowLeft""]","value training","ocean","26","{""ArrowUp,ArrowLeft"":26,""ArrowUp,ArrowRight"":10,""ArrowDown,ArrowLeft"":5,""ArrowDown,ArrowRight"":17}","true","ArrowUp,ArrowLeft","false","","","","","","","22","revaluation","1",""
"html-keyboard-response","162","879279","0.0-5.0-2.0-1.11","pilot_wm_v1","65f647c74af96460db093800","4","null","null","true","","","","","","","","null","<div style=""font-size:60px;"">+</div>","null","fixation","","","","","","","","","","","","","23","","",""
"revaluation","163","885284","0.0-5.0-2.0-0.12","pilot_wm_v1","65f647c74af96460db093800","4","null","null","true","","false","","","","","","[411,332]","./assets/img/ocean/memory/2.jpg","[""ArrowUp"",""ArrowLeft""]","value training","ocean","26","{""ArrowUp,ArrowLeft"":26,""ArrowUp,ArrowRight"":10,""ArrowDown,ArrowLeft"":5,""ArrowDown,ArrowRight"":17}","true","ArrowUp,ArrowLeft","false","","","","","","","24","revaluation","1",""
"html-keyboard-response","164","885786","0.0-5.0-2.0-1.12","pilot_wm_v1","65f647c74af96460db093800","4","null","null","true","","","","","","","","null","<div style=""font-size:60px;"">+</div>","null","fixation","","","","","","","","","","","","","25","","",""
"revaluation","165","891792","0.0-5.0-2.0-0.13","pilot_wm_v1","65f647c74af96460db093800","4","null","null","true","","false","","","","","","[977,365.0000000001164]","./assets/img/ocean/memory/0.jpg","[""ArrowUp"",""ArrowLeft""]","value training","ocean","26","{""ArrowUp,ArrowLeft"":26,""ArrowUp,ArrowRight"":10,""ArrowDown,ArrowLeft"":5,""ArrowDown,ArrowRight"":17}","true","ArrowUp,ArrowLeft","false","","","","","","","26","revaluation","1",""
"html-keyboard-response","166","892295","0.0-5.0-2.0-1.13","pilot_wm_v1","65f647c74af96460db093800","4","null","null","true","","","","","","","","null","<div style=""font-size:60px;"">+</div>","null","fixation","","","","","","","","","","","","","27","","",""
"revaluation","167","898301","0.0-5.0-2.0-0.14","pilot_wm_v1","65f647c74af96460db093800","4","null","null","true","","false","","","","","","[719,333.9999999998836]","./assets/img/ocean/memory/35.jpg","[""ArrowUp"",""ArrowLeft""]","value training","ocean","26","{""ArrowUp,ArrowLeft"":26,""ArrowUp,ArrowRight"":10,""ArrowDown,ArrowLeft"":5,""ArrowDown,ArrowRight"":17}","true","ArrowUp,ArrowLeft","false","","","","","","","28","revaluation","1",""
"html-keyboard-response","168","898803","0.0-5.0-2.0-1.14","pilot_wm_v1","65f647c74af96460db093800","4","null","null","true","","","","","","","","null","<div style=""font-size:60px;"">+</div>","null","fixation","","","","","","","","","","","","","29","","",""
"revaluation","169","902808","0.0-5.0-2.0-0.15","pilot_wm_v1","65f647c74af96460db093800","4","null","null","true","","false","","","","","","[666]","./assets/img/ocean/catch/6.jpg","[""spaceBar""]","value training","ocean","0","{""ArrowUp,ArrowLeft"":26,""ArrowUp,ArrowRight"":10,""ArrowDown,ArrowLeft"":5,""ArrowDown,ArrowRight"":17}","true","spaceBar","true","","","","","","","30","revaluation","1",""
"html-keyboard-response","170","903308","0.0-5.0-2.0-1.15","pilot_wm_v1","65f647c74af96460db093800","4","null","null","true","","","","","","","","null","<div style=""font-size:60px;"">+</div>","null","fixation","","","","","","","","","","","","","31","","",""
"revaluation","171","909314","0.0-5.0-2.0-0.16","pilot_wm_v1","65f647c74af96460db093800","4","null","null","true","","false","","","","","","[624,316]","./assets/img/ocean/memory/33.jpg","[""ArrowUp"",""ArrowLeft""]","value training","ocean","26","{""ArrowUp,ArrowLeft"":26,""ArrowUp,ArrowRight"":10,""ArrowDown,ArrowLeft"":5,""ArrowDown,ArrowRight"":17}","true","ArrowUp,ArrowLeft","false","","","","","","","32","revaluation","1",""
"html-keyboard-response","172","909815","0.0-5.0-2.0-1.16","pilot_wm_v1","65f647c74af96460db093800","4","null","null","true","","","","","","","","null","<div style=""font-size:60px;"">+</div>","null","fixation","","","","","","","","","","","","","33","","",""
"revaluation","173","915820","0.0-5.0-2.0-0.17","pilot_wm_v1","65f647c74af96460db093800","4","null","null","true","","false","","","","","","[452,298]","./assets/img/ocean/memory/4.jpg","[""ArrowUp"",""ArrowLeft""]","value training","ocean","26","{""ArrowUp,ArrowLeft"":26,""ArrowUp,ArrowRight"":10,""ArrowDown,ArrowLeft"":5,""ArrowDown,ArrowRight"":17}","true","ArrowUp,ArrowLeft","false","","","","","","","34","revaluation","1",""
"html-keyboard-response","174","916321","0.0-5.0-2.0-1.17","pilot_wm_v1","65f647c74af96460db093800","4","null","null","true","","","","","","","","null","<div style=""font-size:60px;"">+</div>","null","fixation","","","","","","","","","","","","","35","","",""
"revaluation","175","922328","0.0-5.0-2.0-0.18","pilot_wm_v1","65f647c74af96460db093800","4","null","null","true","","false","","","","","","[572,345]","./assets/img/ocean/memory/41.jpg","[""ArrowUp"",""ArrowLeft""]","value training","ocean","26","{""ArrowUp,ArrowLeft"":26,""ArrowUp,ArrowRight"":10,""ArrowDown,ArrowLeft"":5,""ArrowDown,ArrowRight"":17}","true","ArrowUp,ArrowLeft","false","","","","","","","36","revaluation","1",""
"html-keyboard-response","176","922830","0.0-5.0-2.0-1.18","pilot_wm_v1","65f647c74af96460db093800","4","null","null","true","","","","","","","","null","<div style=""font-size:60px;"">+</div>","null","fixation","","","","","","","","","","","","","37","","",""
"revaluation","177","928837","0.0-5.0-2.0-0.19","pilot_wm_v1","65f647c74af96460db093800","4","null","null","true","","false","","","","","","[524,411]","./assets/img/ocean/memory/40.jpg","[""ArrowUp"",""ArrowLeft""]","value training","ocean","26","{""ArrowUp,ArrowLeft"":26,""ArrowUp,ArrowRight"":10,""ArrowDown,ArrowLeft"":5,""ArrowDown,ArrowRight"":17}","true","ArrowUp,ArrowLeft","false","","","","","","","38","revaluation","1",""
"html-keyboard-response","178","929340","0.0-5.0-2.0-1.19","pilot_wm_v1","65f647c74af96460db093800","4","null","null","true","","","","","","","","null","<div style=""font-size:60px;"">+</div>","null","fixation","","","","","","","","","","","","","39","","",""
"revaluation","179","935345","0.0-5.0-2.0-0.20","pilot_wm_v1","65f647c74af96460db093800","4","null","null","true","","false","","","","","","[544,349.0000000001164]","./assets/img/ocean/memory/34.jpg","[""ArrowUp"",""ArrowLeft""]","value training","ocean","26","{""ArrowUp,ArrowLeft"":26,""ArrowUp,ArrowRight"":10,""ArrowDown,ArrowLeft"":5,""ArrowDown,ArrowRight"":17}","true","ArrowUp,ArrowLeft","false","","","","","","","40","revaluation","1",""
"html-keyboard-response","180","935847","0.0-5.0-2.0-1.20","pilot_wm_v1","65f647c74af96460db093800","4","null","null","true","","","","","","","","null","<div style=""font-size:60px;"">+</div>","null","fixation","","","","","","","","","","","","","41","","",""
"revaluation","181","941853","0.0-5.0-2.0-0.21","pilot_wm_v1","65f647c74af96460db093800","4","null","null","true","","false","","","","","","[485,298]","./assets/img/ocean/memory/17.jpg","[""ArrowUp"",""ArrowLeft""]","value training","ocean","26","{""ArrowUp,ArrowLeft"":26,""ArrowUp,ArrowRight"":10,""ArrowDown,ArrowLeft"":5,""ArrowDown,ArrowRight"":17}","true","ArrowUp,ArrowLeft","false","","","","","","","42","revaluation","1",""
"html-keyboard-response","182","942355","0.0-5.0-2.0-1.21","pilot_wm_v1","65f647c74af96460db093800","4","null","null","true","","","","","","","","null","<div style=""font-size:60px;"">+</div>","null","fixation","","","","","","","","","","","","","43","","",""
"revaluation","183","948362","0.0-5.0-2.0-0.22","pilot_wm_v1","65f647c74af96460db093800","4","null","null","true","","false","","","","","","[373,303]","./assets/img/ocean/memory/35.jpg","[""ArrowUp"",""ArrowLeft""]","value training","ocean","26","{""ArrowUp,ArrowLeft"":26,""ArrowUp,ArrowRight"":10,""ArrowDown,ArrowLeft"":5,""ArrowDown,ArrowRight"":17}","true","ArrowUp,ArrowLeft","false","","","","","","","44","revaluation","1",""
"html-keyboard-response","184","948863","0.0-5.0-2.0-1.22","pilot_wm_v1","65f647c74af96460db093800","4","null","null","true","","","","","","","","null","<div style=""font-size:60px;"">+</div>","null","fixation","","","","","","","","","","","","","45","","",""
"revaluation","185","954870","0.0-5.0-2.0-0.23","pilot_wm_v1","65f647c74af96460db093800","4","null","null","true","","false","","","","","","[444,303]","./assets/img/ocean/memory/40.jpg","[""ArrowUp"",""ArrowLeft""]","value training","ocean","26","{""ArrowUp,ArrowLeft"":26,""ArrowUp,ArrowRight"":10,""ArrowDown,ArrowLeft"":5,""ArrowDown,ArrowRight"":17}","true","ArrowUp,ArrowLeft","false","","","","","","","46","revaluation","1",""
"html-keyboard-response","186","955371","0.0-5.0-2.0-1.23","pilot_wm_v1","65f647c74af96460db093800","4","null","null","true","","","","","","","","null","<div style=""font-size:60px;"">+</div>","null","fixation","","","","","","","","","","","","","47","","",""
"revaluation","187","959375","0.0-5.0-2.0-0.24","pilot_wm_v1","65f647c74af96460db093800","4","null","null","true","","false","","","","","","[567]","./assets/img/ocean/catch/3.jpg","[""spaceBar""]","value training","ocean","0","{""ArrowUp,ArrowLeft"":26,""ArrowUp,ArrowRight"":10,""ArrowDown,ArrowLeft"":5,""ArrowDown,ArrowRight"":17}","true","spaceBar","true","","","","","","","48","revaluation","1",""
"html-keyboard-response","188","959877","0.0-5.0-2.0-1.24","pilot_wm_v1","65f647c74af96460db093800","4","null","null","true","","","","","","","","null","<div style=""font-size:60px;"">+</div>","null","fixation","","","","","","","","","","","","","49","","",""
"revaluation","189","965883","0.0-5.0-2.0-0.25","pilot_wm_v1","65f647c74af96460db093800","4","null","null","true","","false","","","","","","[394.9999999998836,337]","./assets/img/ocean/memory/38.jpg","[""ArrowUp"",""ArrowLeft""]","value training","ocean","26","{""ArrowUp,ArrowLeft"":26,""ArrowUp,ArrowRight"":10,""ArrowDown,ArrowLeft"":5,""ArrowDown,ArrowRight"":17}","true","ArrowUp,ArrowLeft","false","","","","","","","50","revaluation","1",""
"html-keyboard-response","190","966384","0.0-5.0-2.0-1.25","pilot_wm_v1","65f647c74af96460db093800","4","null","null","true","","","","","","","","null","<div style=""font-size:60px;"">+</div>","null","fixation","","","","","","","","","","","","","51","","",""
"revaluation","191","972388","0.0-5.0-2.0-0.26","pilot_wm_v1","65f647c74af96460db093800","4","null","null","true","","false","","","","","","[368,275]","./assets/img/ocean/memory/37.jpg","[""ArrowUp"",""ArrowLeft""]","value training","ocean","26","{""ArrowUp,ArrowLeft"":26,""ArrowUp,ArrowRight"":10,""ArrowDown,ArrowLeft"":5,""ArrowDown,ArrowRight"":17}","true","ArrowUp,ArrowLeft","false","","","","","","","52","revaluation","1",""
"html-keyboard-response","192","972890","0.0-5.0-2.0-1.26","pilot_wm_v1","65f647c74af96460db093800","4","null","null","true","","","","","","","","null","<div style=""font-size:60px;"">+</div>","null","fixation","","","","","","","","","","","","","53","","",""
"revaluation","193","978896","0.0-5.0-2.0-0.27","pilot_wm_v1","65f647c74af96460db093800","4","null","null","true","","false","","","","","","[678,337]","./assets/img/ocean/memory/36.jpg","[""ArrowUp"",""ArrowLeft""]","value training","ocean","26","{""ArrowUp,ArrowLeft"":26,""ArrowUp,ArrowRight"":10,""ArrowDown,ArrowLeft"":5,""ArrowDown,ArrowRight"":17}","true","ArrowUp,ArrowLeft","false","","","","","","","54","revaluation","1",""
"html-keyboard-response","194","979399","0.0-5.0-2.0-1.27","pilot_wm_v1","65f647c74af96460db093800","4","null","null","true","","","","","","","","null","<div style=""font-size:60px;"">+</div>","null","fixation","","","","","","","","","","","","","55","","",""
"revaluation","195","985405","0.0-5.0-2.0-0.28","pilot_wm_v1","65f647c74af96460db093800","4","null","null","true","","false","","","","","","[663,413]","./assets/img/ocean/memory/0.jpg","[""ArrowUp"",""ArrowLeft""]","value training","ocean","26","{""ArrowUp,ArrowLeft"":26,""ArrowUp,ArrowRight"":10,""ArrowDown,ArrowLeft"":5,""ArrowDown,ArrowRight"":17}","true","ArrowUp,ArrowLeft","false","","","","","","","56","revaluation","1",""
"html-keyboard-response","196","985907","0.0-5.0-2.0-1.28","pilot_wm_v1","65f647c74af96460db093800","4","null","null","true","","","","","","","","null","<div style=""font-size:60px;"">+</div>","null","fixation","","","","","","","","","","","","","57","","",""
"revaluation","197","989911","0.0-5.0-2.0-0.29","pilot_wm_v1","65f647c74af96460db093800","4","null","null","true","","false","","","","","","[568]","./assets/img/ocean/catch/2.jpg","[""spaceBar""]","value training","ocean","0","{""ArrowUp,ArrowLeft"":26,""ArrowUp,ArrowRight"":10,""ArrowDown,ArrowLeft"":5,""ArrowDown,ArrowRight"":17}","true","spaceBar","true","","","","","","","58","revaluation","1",""
"html-keyboard-response","198","990413","0.0-5.0-2.0-1.29","pilot_wm_v1","65f647c74af96460db093800","4","null","null","true","","","","","","","","null","<div style=""font-size:60px;"">+</div>","null","fixation","","","","","","","","","","","","","59","","",""
"revaluation","199","996420","0.0-5.0-2.0-0.30","pilot_wm_v1","65f647c74af96460db093800","4","null","null","true","","false","","","","","","[722.0000000001164,454.9999999998836]","./assets/img/ocean/memory/30.jpg","[""ArrowUp"",""ArrowLeft""]","value training","ocean","26","{""ArrowUp,ArrowLeft"":26,""ArrowUp,ArrowRight"":10,""ArrowDown,ArrowLeft"":5,""ArrowDown,ArrowRight"":17}","true","ArrowUp,ArrowLeft","false","","","","","","","60","revaluation","1",""
"html-keyboard-response","200","996921","0.0-5.0-2.0-1.30","pilot_wm_v1","65f647c74af96460db093800","4","null","null","true","","","","","","","","null","<div style=""font-size:60px;"">+</div>","null","fixation","","","","","","","","","","","","","61","","",""
"revaluation","201","1002927","0.0-5.0-2.0-0.31","pilot_wm_v1","65f647c74af96460db093800","4","null","null","true","","false","","","","","","[615,405]","./assets/img/ocean/memory/39.jpg","[""ArrowUp"",""ArrowLeft""]","value training","ocean","26","{""ArrowUp,ArrowLeft"":26,""ArrowUp,ArrowRight"":10,""ArrowDown,ArrowLeft"":5,""ArrowDown,ArrowRight"":17}","true","ArrowUp,ArrowLeft","false","","","","","","","62","revaluation","1",""
"html-keyboard-response","202","1003429","0.0-5.0-2.0-1.31","pilot_wm_v1","65f647c74af96460db093800","4","null","null","true","","","","","","","","null","<div style=""font-size:60px;"">+</div>","null","fixation","","","","","","","","","","","","","63","","",""
"revaluation","203","1009436","0.0-5.0-2.0-0.32","pilot_wm_v1","65f647c74af96460db093800","4","null","null","true","","false","","","","","","[428,475]","./assets/img/ocean/memory/6.jpg","[""ArrowUp"",""ArrowLeft""]","value training","ocean","26","{""ArrowUp,ArrowLeft"":26,""ArrowUp,ArrowRight"":10,""ArrowDown,ArrowLeft"":5,""ArrowDown,ArrowRight"":17}","true","ArrowUp,ArrowLeft","false","","","","","","","64","revaluation","1",""
"html-keyboard-response","204","1009938","0.0-5.0-2.0-1.32","pilot_wm_v1","65f647c74af96460db093800","4","null","null","true","","","","","","","","null","<div style=""font-size:60px;"">+</div>","null","fixation","","","","","","","","","","","","","65","","",""
"revaluation","205","1013943","0.0-5.0-2.0-0.33","pilot_wm_v1","65f647c74af96460db093800","4","null","null","true","","false","","","","","","[638.9999999998836]","./assets/img/ocean/catch/1.jpg","[""spaceBar""]","value training","ocean","0","{""ArrowUp,ArrowLeft"":26,""ArrowUp,ArrowRight"":10,""ArrowDown,ArrowLeft"":5,""ArrowDown,ArrowRight"":17}","true","spaceBar","true","","","","","","","66","revaluation","1",""
"html-keyboard-response","206","1014445","0.0-5.0-2.0-1.33","pilot_wm_v1","65f647c74af96460db093800","4","null","null","true","","","","","","","","null","<div style=""font-size:60px;"">+</div>","null","fixation","","","","","","","","","","","","","67","","",""
"revaluation","207","1020450","0.0-5.0-2.0-0.34","pilot_wm_v1","65f647c74af96460db093800","4","null","null","true","","false","","","","","","[427,1273]","./assets/img/ocean/memory/26.jpg","[""ArrowUp"",""ArrowLeft""]","value training","ocean","26","{""ArrowUp,ArrowLeft"":26,""ArrowUp,ArrowRight"":10,""ArrowDown,ArrowLeft"":5,""ArrowDown,ArrowRight"":17}","true","ArrowUp,ArrowLeft","false","","","","","","","68","revaluation","1",""
"html-keyboard-response","208","1020952","0.0-5.0-2.0-1.34","pilot_wm_v1","65f647c74af96460db093800","4","null","null","true","","","","","","","","null","<div style=""font-size:60px;"">+</div>","null","fixation","","","","","","","","","","","","","69","","",""
"revaluation","209","1026958","0.0-5.0-2.0-0.35","pilot_wm_v1","65f647c74af96460db093800","4","null","null","true","","false","","","","","","[455,333]","./assets/img/ocean/memory/6.jpg","[""ArrowUp"",""ArrowLeft""]","value training","ocean","26","{""ArrowUp,ArrowLeft"":26,""ArrowUp,ArrowRight"":10,""ArrowDown,ArrowLeft"":5,""ArrowDown,ArrowRight"":17}","true","ArrowUp,ArrowLeft","false","","","","","","","70","revaluation","1",""
"html-keyboard-response","210","1027460","0.0-5.0-2.0-1.35","pilot_wm_v1","65f647c74af96460db093800","4","null","null","true","","","","","","","","null","<div style=""font-size:60px;"">+</div>","null","fixation","","","","","","","","","","","","","71","","",""
"revaluation","211","1031465","0.0-5.0-2.0-0.36","pilot_wm_v1","65f647c74af96460db093800","4","null","null","true","","false","","","","","","[556]","./assets/img/ocean/catch/0.jpg","[""spaceBar""]","value training","ocean","0","{""ArrowUp,ArrowLeft"":26,""ArrowUp,ArrowRight"":10,""ArrowDown,ArrowLeft"":5,""ArrowDown,ArrowRight"":17}","true","spaceBar","true","","","","","","","72","revaluation","1",""
"html-keyboard-response","212","1031967","0.0-5.0-2.0-1.36","pilot_wm_v1","65f647c74af96460db093800","4","null","null","true","","","","","","","","null","<div style=""font-size:60px;"">+</div>","null","fixation","","","","","","","","","","","","","73","","",""
"revaluation","213","1037974","0.0-5.0-2.0-0.37","pilot_wm_v1","65f647c74af96460db093800","4","null","null","true","","false","","","","","","[442.9999999998836,591.9999999998836]","./assets/img/ocean/memory/33.jpg","[""ArrowUp"",""ArrowLeft""]","value training","ocean","26","{""ArrowUp,ArrowLeft"":26,""ArrowUp,ArrowRight"":10,""ArrowDown,ArrowLeft"":5,""ArrowDown,ArrowRight"":17}","true","ArrowUp,ArrowLeft","false","","","","","","","74","revaluation","1",""
"html-keyboard-response","214","1038476","0.0-5.0-2.0-1.37","pilot_wm_v1","65f647c74af96460db093800","4","null","null","true","","","","","","","","null","<div style=""font-size:60px;"">+</div>","null","fixation","","","","","","","","","","","","","75","","",""
"revaluation","215","1044485","0.0-5.0-2.0-0.38","pilot_wm_v1","65f647c74af96460db093800","4","null","null","true","","false","","","","","","[475.9999999998836,464]","./assets/img/ocean/memory/39.jpg","[""ArrowUp"",""ArrowLeft""]","value training","ocean","26","{""ArrowUp,ArrowLeft"":26,""ArrowUp,ArrowRight"":10,""ArrowDown,ArrowLeft"":5,""ArrowDown,ArrowRight"":17}","true","ArrowUp,ArrowLeft","false","","","","","","","76","revaluation","1",""
"html-keyboard-response","216","1044986","0.0-5.0-2.0-1.38","pilot_wm_v1","65f647c74af96460db093800","4","null","null","true","","","","","","","","null","<div style=""font-size:60px;"">+</div>","null","fixation","","","","","","","","","","","","","77","","",""
"revaluation","217","1050992","0.0-5.0-2.0-0.39","pilot_wm_v1","65f647c74af96460db093800","4","null","null","true","","false","","","","","","[684,809]","./assets/img/ocean/memory/15.jpg","[""ArrowUp"",""ArrowLeft""]","value training","ocean","26","{""ArrowUp,ArrowLeft"":26,""ArrowUp,ArrowRight"":10,""ArrowDown,ArrowLeft"":5,""ArrowDown,ArrowRight"":17}","true","ArrowUp,ArrowLeft","false","","","","","","","78","revaluation","1",""
"html-keyboard-response","218","1051494","0.0-5.0-2.0-1.39","pilot_wm_v1","65f647c74af96460db093800","4","null","null","true","","","","","","","","null","<div style=""font-size:60px;"">+</div>","null","fixation","","","","","","","","","","","","","79","","",""
"revaluation","219","1057500","0.0-5.0-2.0-0.40","pilot_wm_v1","65f647c74af96460db093800","4","null","null","true","","false","","","","","","[431,980]","./assets/img/ocean/memory/30.jpg","[""ArrowUp"",""ArrowLeft""]","value training","ocean","26","{""ArrowUp,ArrowLeft"":26,""ArrowUp,ArrowRight"":10,""ArrowDown,ArrowLeft"":5,""ArrowDown,ArrowRight"":17}","true","ArrowUp,ArrowLeft","false","","","","","","","80","revaluation","1",""
"html-keyboard-response","220","1058002","0.0-5.0-2.0-1.40","pilot_wm_v1","65f647c74af96460db093800","4","null","null","true","","","","","","","","null","<div style=""font-size:60px;"">+</div>","null","fixation","","","","","","","","","","","","","81","","",""
"revaluation","221","1062008","0.0-5.0-2.0-0.41","pilot_wm_v1","65f647c74af96460db093800","4","null","null","true","","false","","","","","","[896]","./assets/img/ocean/catch/4.jpg","[""spaceBar""]","value training","ocean","0","{""ArrowUp,ArrowLeft"":26,""ArrowUp,ArrowRight"":10,""ArrowDown,ArrowLeft"":5,""ArrowDown,ArrowRight"":17}","true","spaceBar","true","","","","","","","82","revaluation","1",""
"html-keyboard-response","222","1062510","0.0-5.0-2.0-1.41","pilot_wm_v1","65f647c74af96460db093800","4","null","null","true","","","","","","","","null","<div style=""font-size:60px;"">+</div>","null","fixation","","","","","","","","","","","","","83","","",""
"revaluation","223","1068518","0.0-5.0-2.0-0.42","pilot_wm_v1","65f647c74af96460db093800","4","null","null","true","","false","","","","","","[495,448.99999999976717]","./assets/img/ocean/memory/13.jpg","[""ArrowUp"",""ArrowLeft""]","value training","ocean","26","{""ArrowUp,ArrowLeft"":26,""ArrowUp,ArrowRight"":10,""ArrowDown,ArrowLeft"":5,""ArrowDown,ArrowRight"":17}","true","ArrowUp,ArrowLeft","false","","","","","","","84","revaluation","1",""
"html-keyboard-response","224","1069020","0.0-5.0-2.0-1.42","pilot_wm_v1","65f647c74af96460db093800","4","null","null","true","","","","","","","","null","<div style=""font-size:60px;"">+</div>","null","fixation","","","","","","","","","","","","","85","","",""
"revaluation","225","1075026","0.0-5.0-2.0-0.43","pilot_wm_v1","65f647c74af96460db093800","4","null","null","true","","false","","","","","","[474,436.99999999976717]","./assets/img/ocean/memory/36.jpg","[""ArrowUp"",""ArrowLeft""]","value training","ocean","26","{""ArrowUp,ArrowLeft"":26,""ArrowUp,ArrowRight"":10,""ArrowDown,ArrowLeft"":5,""ArrowDown,ArrowRight"":17}","true","ArrowUp,ArrowLeft","false","","","","","","","86","revaluation","1",""
"html-keyboard-response","226","1075528","0.0-5.0-2.0-1.43","pilot_wm_v1","65f647c74af96460db093800","4","null","null","true","","","","","","","","null","<div style=""font-size:60px;"">+</div>","null","fixation","","","","","","","","","","","","","87","","",""
"revaluation","227","1081534","0.0-5.0-2.0-0.44","pilot_wm_v1","65f647c74af96460db093800","4","null","null","true","","false","","","","","","[404,765]","./assets/img/ocean/memory/32.jpg","[""ArrowUp"",""ArrowLeft""]","value training","ocean","26","{""ArrowUp,ArrowLeft"":26,""ArrowUp,ArrowRight"":10,""ArrowDown,ArrowLeft"":5,""ArrowDown,ArrowRight"":17}","true","ArrowUp,ArrowLeft","false","","","","","","","88","revaluation","1",""
"html-keyboard-response","228","1082036","0.0-5.0-2.0-1.44","pilot_wm_v1","65f647c74af96460db093800","4","null","null","true","","","","","","","","null","<div style=""font-size:60px;"">+</div>","null","fixation","","","","","","","","","","","","","89","","",""
"revaluation","229","1088041","0.0-5.0-2.0-0.45","pilot_wm_v1","65f647c74af96460db093800","4","null","null","true","","false","","","","","","[367,288]","./assets/img/ocean/memory/37.jpg","[""ArrowUp"",""ArrowLeft""]","value training","ocean","26","{""ArrowUp,ArrowLeft"":26,""ArrowUp,ArrowRight"":10,""ArrowDown,ArrowLeft"":5,""ArrowDown,ArrowRight"":17}","true","ArrowUp,ArrowLeft","false","","","","","","","90","revaluation","1",""
"html-keyboard-response","230","1088543","0.0-5.0-2.0-1.45","pilot_wm_v1","65f647c74af96460db093800","4","null","null","true","","","","","","","","null","<div style=""font-size:60px;"">+</div>","null","fixation","","","","","","","","","","","","","91","","",""
"revaluation","231","1094549","0.0-5.0-2.0-0.46","pilot_wm_v1","65f647c74af96460db093800","4","null","null","true","","false","","","","","","[427,503]","./assets/img/ocean/memory/32.jpg","[""ArrowUp"",""ArrowLeft""]","value training","ocean","26","{""ArrowUp,ArrowLeft"":26,""ArrowUp,ArrowRight"":10,""ArrowDown,ArrowLeft"":5,""ArrowDown,ArrowRight"":17}","true","ArrowUp,ArrowLeft","false","","","","","","","92","revaluation","1",""
"html-keyboard-response","232","1095051","0.0-5.0-2.0-1.46","pilot_wm_v1","65f647c74af96460db093800","4","null","null","true","","","","","","","","null","<div style=""font-size:60px;"">+</div>","null","fixation","","","","","","","","","","","","","93","","",""
"revaluation","233","1101057","0.0-5.0-2.0-0.47","pilot_wm_v1","65f647c74af96460db093800","4","null","null","true","","false","","","","","","[600,748.0000000002328]","./assets/img/ocean/memory/4.jpg","[""ArrowUp"",""ArrowLeft""]","value training","ocean","26","{""ArrowUp,ArrowLeft"":26,""ArrowUp,ArrowRight"":10,""ArrowDown,ArrowLeft"":5,""ArrowDown,ArrowRight"":17}","true","ArrowUp,ArrowLeft","false","","","","","","","94","revaluation","1",""
"html-keyboard-response","234","1101560","0.0-5.0-2.0-1.47","pilot_wm_v1","65f647c74af96460db093800","4","null","null","true","","","","","","","","null","<div style=""font-size:60px;"">+</div>","null","fixation","","","","","","","","","","","","","95","","",""
"revaluation","235","1107566","0.0-5.0-2.0-0.48","pilot_wm_v1","65f647c74af96460db093800","4","null","null","true","","false","","","","","","[419.99999999976717,478]","./assets/img/ocean/memory/12.jpg","[""ArrowUp"",""ArrowLeft""]","value training","ocean","26","{""ArrowUp,ArrowLeft"":26,""ArrowUp,ArrowRight"":10,""ArrowDown,ArrowLeft"":5,""ArrowDown,ArrowRight"":17}","true","ArrowUp,ArrowLeft","false","","","","","","","96","revaluation","1",""
"html-keyboard-response","236","1108068","0.0-5.0-2.0-1.48","pilot_wm_v1","65f647c74af96460db093800","4","null","null","true","","","","","","","","null","<div style=""font-size:60px;"">+</div>","null","fixation","","","","","","","","","","","","","97","","",""
"revaluation","237","1114074","0.0-5.0-2.0-0.49","pilot_wm_v1","65f647c74af96460db093800","4","null","null","true","","false","","","","","","[448.99999999976717,468]","./assets/img/ocean/memory/2.jpg","[""ArrowUp"",""ArrowLeft""]","value training","ocean","26","{""ArrowUp,ArrowLeft"":26,""ArrowUp,ArrowRight"":10,""ArrowDown,ArrowLeft"":5,""ArrowDown,ArrowRight"":17}","true","ArrowUp,ArrowLeft","false","","","","","","","98","revaluation","1",""
"html-keyboard-response","238","1114576","0.0-5.0-2.0-1.49","pilot_wm_v1","65f647c74af96460db093800","4","null","null","true","","","","","","","","null","<div style=""font-size:60px;"">+</div>","null","fixation","","","","","","","","","","","","","99","","",""
"learning-instructions","239","1131340","0.0-5.0-3.0-0.0","pilot_wm_v1","65f647c74af96460db093800","4","null","null","true","","","","","","","","3883.999999999767","<p> Now, you will travel with a friend who will choose whether you go up or down first. </p>
            <p> On these turns, you will just see the animal that they found. You will still get to choose which chest to search for treasure.</p>","","instructions","","","","","","","","","","","","","","","",""
"learning-instructions","240","1144455","0.0-5.0-3.0-0.1","pilot_wm_v1","65f647c74af96460db093800","4","null","null","true","","","","","","","","1511","<p> In this part, you will also hear beeps from your friend and see special treasure chests that need a password. </p>
            <p> Do your best to count the high beeps <b>and</b> choose between each animals' chests at the same time.</p>
            <img src='./assets/img/instructions/beep_chest.jpg' class='instructions-image'>","","instructions","","","","","","","","","","","","","","","",""
"revaluation","241","1148458","0.0-5.0-4.0-0.0","pilot_wm_v1","65f647c74af96460db093800","4","null","null","true","","false","","","","","","[816.0000000002328]","./assets/img/ocean/animals/octopus.jpg","[""ArrowLeft""]","revaluation","ocean","2","{""ArrowUp,ArrowLeft"":2,""ArrowUp,ArrowRight"":11,""ArrowDown,ArrowLeft"":8,""ArrowDown,ArrowRight"":27}","false","ArrowUp,ArrowLeft","","3_0","","","","","","0","revaluation","1",""
"html-keyboard-response","242","1148961","0.0-5.0-4.0-1.0","pilot_wm_v1","65f647c74af96460db093800","4","null","null","true","","","","","","","","null","<div style=""font-size:60px;"">+</div>","null","fixation","","","","","","","","","","","","","","","",""
"revaluation","243","1152966","0.0-5.0-4.0-0.1","pilot_wm_v1","65f647c74af96460db093800","4","null","null","true","","false","","","","","","[1159]","./assets/img/ocean/animals/seahorse.jpg","[""ArrowLeft""]","revaluation","ocean","8","{""ArrowUp,ArrowLeft"":2,""ArrowUp,ArrowRight"":11,""ArrowDown,ArrowLeft"":8,""ArrowDown,ArrowRight"":27}","false","ArrowDown,ArrowLeft","","17_1","","","","","","1","revaluation","1",""
"html-keyboard-response","244","1153468","0.0-5.0-4.0-1.1","pilot_wm_v1","65f647c74af96460db093800","4","null","null","true","","","","","","","","null","<div style=""font-size:60px;"">+</div>","null","fixation","","","","","","","","","","","","","","","",""
"revaluation","245","1157473","0.0-5.0-4.0-0.2","pilot_wm_v1","65f647c74af96460db093800","4","null","null","true","","false","","","","","","[884]","./assets/img/ocean/animals/octopus.jpg","[""ArrowRight""]","revaluation","ocean","11","{""ArrowUp,ArrowLeft"":2,""ArrowUp,ArrowRight"":11,""ArrowDown,ArrowLeft"":8,""ArrowDown,ArrowRight"":27}","true","ArrowUp,ArrowRight","","8_2","","","","","","2","revaluation","1",""
"html-keyboard-response","246","1157975","0.0-5.0-4.0-1.2","pilot_wm_v1","65f647c74af96460db093800","4","null","null","true","","","","","","","","null","<div style=""font-size:60px;"">+</div>","null","fixation","","","","","","","","","","","","","","","",""
"revaluation","247","1161979","0.0-5.0-4.0-0.3","pilot_wm_v1","65f647c74af96460db093800","4","null","null","true","","false","","","","","","[853.0000000002328]","./assets/img/ocean/animals/octopus.jpg","[""ArrowRight""]","revaluation","ocean","11","{""ArrowUp,ArrowLeft"":2,""ArrowUp,ArrowRight"":11,""ArrowDown,ArrowLeft"":8,""ArrowDown,ArrowRight"":27}","true","ArrowUp,ArrowRight","","4_0","","","","","","3","revaluation","1",""
"html-keyboard-response","248","1162481","0.0-5.0-4.0-1.3","pilot_wm_v1","65f647c74af96460db093800","4","null","null","true","","","","","","","","null","<div style=""font-size:60px;"">+</div>","null","fixation","","","","","","","","","","","","","","","",""
"html-slider-response","249","1166337","0.0-5.0-4.0-2.3-0.3","pilot_wm_v1","65f647c74af96460db093800","4","null","null","true","","","","","","","","3854","<div style=""width:500px;"">
        <p>What is the password?</p>
        <img src='./assets/img/instructions/beep_chest.jpg' class='instructions-image'>","2","beep chest","","","","false","","","","50","3","1","","","","","",""
"revaluation","250","1170342","0.0-5.0-4.0-0.4","pilot_wm_v1","65f647c74af96460db093800","4","null","null","true","","false","","","","","","[1245]","./assets/img/ocean/animals/seahorse.jpg","[""ArrowLeft""]","revaluation","ocean","8","{""ArrowUp,ArrowLeft"":2,""ArrowUp,ArrowRight"":11,""ArrowDown,ArrowLeft"":8,""ArrowDown,ArrowRight"":27}","false","ArrowDown,ArrowLeft","","13_2","","","","","","4","revaluation","1",""
"html-keyboard-response","251","1170843","0.0-5.0-4.0-1.4","pilot_wm_v1","65f647c74af96460db093800","4","null","null","true","","","","","","","","null","<div style=""font-size:60px;"">+</div>","null","fixation","","","","","","","","","","","","","","","",""
"revaluation","252","1174848","0.0-5.0-4.0-0.5","pilot_wm_v1","65f647c74af96460db093800","4","null","null","true","","false","","","","","","[831.0000000002328]","./assets/img/ocean/animals/seahorse.jpg","[""ArrowRight""]","revaluation","ocean","27","{""ArrowUp,ArrowLeft"":2,""ArrowUp,ArrowRight"":11,""ArrowDown,ArrowLeft"":8,""ArrowDown,ArrowRight"":27}","true","ArrowDown,ArrowRight","","12_2","","","","","","5","revaluation","1",""
"html-keyboard-response","253","1175350","0.0-5.0-4.0-1.5","pilot_wm_v1","65f647c74af96460db093800","4","null","null","true","","","","","","","","null","<div style=""font-size:60px;"">+</div>","null","fixation","","","","","","","","","","","","","","","",""
"revaluation","254","1179355","0.0-5.0-4.0-0.6","pilot_wm_v1","65f647c74af96460db093800","4","null","null","true","","false","","","","","","[1364]","./assets/img/ocean/animals/octopus.jpg","[""ArrowRight""]","revaluation","ocean","11","{""ArrowUp,ArrowLeft"":2,""ArrowUp,ArrowRight"":11,""ArrowDown,ArrowLeft"":8,""ArrowDown,ArrowRight"":27}","true","ArrowUp,ArrowRight","","2_1","","","","","","6","revaluation","1",""
"html-keyboard-response","255","1179857","0.0-5.0-4.0-1.6","pilot_wm_v1","65f647c74af96460db093800","4","null","null","true","","","","","","","","null","<div style=""font-size:60px;"">+</div>","null","fixation","","","","","","","","","","","","","","","",""
"revaluation","256","1183862","0.0-5.0-4.0-0.7","pilot_wm_v1","65f647c74af96460db093800","4","null","null","true","","false","","","","","","[871]","./assets/img/ocean/animals/octopus.jpg","[""ArrowLeft""]","revaluation","ocean","2","{""ArrowUp,ArrowLeft"":2,""ArrowUp,ArrowRight"":11,""ArrowDown,ArrowLeft"":8,""ArrowDown,ArrowRight"":27}","false","ArrowUp,ArrowLeft","","1_4","","","","","","7","revaluation","1",""
"html-keyboard-response","257","1184363","0.0-5.0-4.0-1.7","pilot_wm_v1","65f647c74af96460db093800","4","null","null","true","","","","","","","","null","<div style=""font-size:60px;"">+</div>","null","fixation","","","","","","","","","","","","","","","",""
"html-slider-response","258","1187642","0.0-5.0-4.0-2.7-0.7","pilot_wm_v1","65f647c74af96460db093800","4","null","null","true","","","","","","","","3278","<div style=""width:500px;"">
        <p>What is the password?</p>
        <img src='./assets/img/instructions/beep_chest.jpg' class='instructions-image'>","6","beep chest","","","","false","","","","50","9","3","","","","","",""
"revaluation","259","1191648","0.0-5.0-4.0-0.8","pilot_wm_v1","65f647c74af96460db093800","4","null","null","true","","false","","","","","","[1662]","./assets/img/ocean/animals/octopus.jpg","[""ArrowRight""]","revaluation","ocean","11","{""ArrowUp,ArrowLeft"":2,""ArrowUp,ArrowRight"":11,""ArrowDown,ArrowLeft"":8,""ArrowDown,ArrowRight"":27}","true","ArrowUp,ArrowRight","","9_2","","","","","","8","revaluation","1",""
"html-keyboard-response","260","1192149","0.0-5.0-4.0-1.8","pilot_wm_v1","65f647c74af96460db093800","4","null","null","true","","","","","","","","null","<div style=""font-size:60px;"">+</div>","null","fixation","","","","","","","","","","","","","","","",""
"revaluation","261","1196154","0.0-5.0-4.0-0.9","pilot_wm_v1","65f647c74af96460db093800","4","null","null","true","","false","","","","","","[917]","./assets/img/ocean/animals/seahorse.jpg","[""ArrowRight""]","revaluation","ocean","27","{""ArrowUp,ArrowLeft"":2,""ArrowUp,ArrowRight"":11,""ArrowDown,ArrowLeft"":8,""ArrowDown,ArrowRight"":27}","true","ArrowDown,ArrowRight","","10_3","","","","","","9","revaluation","1",""
"html-keyboard-response","262","1196656","0.0-5.0-4.0-1.9","pilot_wm_v1","65f647c74af96460db093800","4","null","null","true","","","","","","","","null","<div style=""font-size:60px;"">+</div>","null","fixation","","","","","","","","","","","","","","","",""
"revaluation","263","1200661","0.0-5.0-4.0-0.10","pilot_wm_v1","65f647c74af96460db093800","4","null","null","true","","false","","","","","","[792]","./assets/img/ocean/animals/seahorse.jpg","[""ArrowRight""]","revaluation","ocean","27","{""ArrowUp,ArrowLeft"":2,""ArrowUp,ArrowRight"":11,""ArrowDown,ArrowLeft"":8,""ArrowDown,ArrowRight"":27}","true","ArrowDown,ArrowRight","","14_4","","","","","","10","revaluation","1",""
"html-keyboard-response","264","1201165","0.0-5.0-4.0-1.10","pilot_wm_v1","65f647c74af96460db093800","4","null","null","true","","","","","","","","null","<div style=""font-size:60px;"">+</div>","null","fixation","","","","","","","","","","","","","","","",""
"revaluation","265","1205171","0.0-5.0-4.0-0.11","pilot_wm_v1","65f647c74af96460db093800","4","null","null","true","","false","","","","","","[1304]","./assets/img/ocean/animals/seahorse.jpg","[""ArrowRight""]","revaluation","ocean","27","{""ArrowUp,ArrowLeft"":2,""ArrowUp,ArrowRight"":11,""ArrowDown,ArrowLeft"":8,""ArrowDown,ArrowRight"":27}","true","ArrowDown,ArrowRight","","11_4","","","","","","11","revaluation","1",""
"html-keyboard-response","266","1205673","0.0-5.0-4.0-1.11","pilot_wm_v1","65f647c74af96460db093800","4","null","null","true","","","","","","","","null","<div style=""font-size:60px;"">+</div>","null","fixation","","","","","","","","","","","","","","","",""
"html-slider-response","267","1208284","0.0-5.0-4.0-2.11-0.11","pilot_wm_v1","65f647c74af96460db093800","4","null","null","true","","","","","","","","2608","<div style=""width:500px;"">
        <p>What is the password?</p>
        <img src='./assets/img/instructions/beep_chest.jpg' class='instructions-image'>","11","beep chest","","","","false","","","","50","13","2","","","","","",""
"revaluation","268","1212288","0.0-5.0-4.0-0.12","pilot_wm_v1","65f647c74af96460db093800","4","null","null","true","","false","","","","","","[812]","./assets/img/ocean/animals/seahorse.jpg","[""ArrowRight""]","revaluation","ocean","27","{""ArrowUp,ArrowLeft"":2,""ArrowUp,ArrowRight"":11,""ArrowDown,ArrowLeft"":8,""ArrowDown,ArrowRight"":27}","true","ArrowDown,ArrowRight","","15_0","","","","","","12","revaluation","1",""
"html-keyboard-response","269","1212790","0.0-5.0-4.0-1.12","pilot_wm_v1","65f647c74af96460db093800","4","null","null","true","","","","","","","","null","<div style=""font-size:60px;"">+</div>","null","fixation","","","","","","","","","","","","","","","",""
"revaluation","270","1216795","0.0-5.0-4.0-0.13","pilot_wm_v1","65f647c74af96460db093800","4","null","null","true","","false","","","","","","[501]","./assets/img/ocean/animals/octopus.jpg","[""ArrowRight""]","revaluation","ocean","11","{""ArrowUp,ArrowLeft"":2,""ArrowUp,ArrowRight"":11,""ArrowDown,ArrowLeft"":8,""ArrowDown,ArrowRight"":27}","true","ArrowUp,ArrowRight","","6_3","","","","","","13","revaluation","1",""
"html-keyboard-response","271","1217297","0.0-5.0-4.0-1.13","pilot_wm_v1","65f647c74af96460db093800","4","null","null","true","","","","","","","","null","<div style=""font-size:60px;"">+</div>","null","fixation","","","","","","","","","","","","","","","",""
"revaluation","272","1221301","0.0-5.0-4.0-0.14","pilot_wm_v1","65f647c74af96460db093800","4","null","null","true","","false","","","","","","[583]","./assets/img/ocean/animals/octopus.jpg","[""ArrowLeft""]","revaluation","ocean","2","{""ArrowUp,ArrowLeft"":2,""ArrowUp,ArrowRight"":11,""ArrowDown,ArrowLeft"":8,""ArrowDown,ArrowRight"":27}","false","ArrowUp,ArrowLeft","","7_4","","","","","","14","revaluation","1",""
"html-keyboard-response","273","1221803","0.0-5.0-4.0-1.14","pilot_wm_v1","65f647c74af96460db093800","4","null","null","true","","","","","","","","null","<div style=""font-size:60px;"">+</div>","null","fixation","","","","","","","","","","","","","","","",""
"revaluation","274","1225808","0.0-5.0-4.0-0.15","pilot_wm_v1","65f647c74af96460db093800","4","null","null","true","","false","","","","","","[903]","./assets/img/ocean/animals/octopus.jpg","[""ArrowRight""]","revaluation","ocean","11","{""ArrowUp,ArrowLeft"":2,""ArrowUp,ArrowRight"":11,""ArrowDown,ArrowLeft"":8,""ArrowDown,ArrowRight"":27}","true","ArrowUp,ArrowRight","","5_4","","","","","","15","revaluation","1",""
"html-keyboard-response","275","1226310","0.0-5.0-4.0-1.15","pilot_wm_v1","65f647c74af96460db093800","4","null","null","true","","","","","","","","null","<div style=""font-size:60px;"">+</div>","null","fixation","","","","","","","","","","","","","","","",""
"html-slider-response","276","1231129","0.0-5.0-4.0-2.15-0.15","pilot_wm_v1","65f647c74af96460db093800","4","null","null","true","","","","","","","","4818","<div style=""width:500px;"">
        <p>What is the password?</p>
        <img src='./assets/img/instructions/beep_chest.jpg' class='instructions-image'>","8","beep chest","","","","false","","","","50","11","3","","","","","",""
"revaluation","277","1235135","0.0-5.0-4.0-0.16","pilot_wm_v1","65f647c74af96460db093800","4","null","null","true","","false","","","","","","[1290]","./assets/img/ocean/animals/seahorse.jpg","[""ArrowRight""]","revaluation","ocean","27","{""ArrowUp,ArrowLeft"":2,""ArrowUp,ArrowRight"":11,""ArrowDown,ArrowLeft"":8,""ArrowDown,ArrowRight"":27}","true","ArrowDown,ArrowRight","","16_0","","","","","","16","revaluation","1",""
"html-keyboard-response","278","1235636","0.0-5.0-4.0-1.16","pilot_wm_v1","65f647c74af96460db093800","4","null","null","true","","","","","","","","null","<div style=""font-size:60px;"">+</div>","null","fixation","","","","","","","","","","","","","","","",""
"revaluation","279","1239641","0.0-5.0-4.0-0.17","pilot_wm_v1","65f647c74af96460db093800","4","null","null","true","","false","","","","","","[779]","./assets/img/ocean/animals/seahorse.jpg","[""ArrowRight""]","revaluation","ocean","27","{""ArrowUp,ArrowLeft"":2,""ArrowUp,ArrowRight"":11,""ArrowDown,ArrowLeft"":8,""ArrowDown,ArrowRight"":27}","true","ArrowDown,ArrowRight","","18_0","","","","","","17","revaluation","1",""
"html-keyboard-response","280","1240143","0.0-5.0-4.0-1.17","pilot_wm_v1","65f647c74af96460db093800","4","null","null","true","","","","","","","","null","<div style=""font-size:60px;"">+</div>","null","fixation","","","","","","","","","","","","","","","",""
"learning-instructions","281","1253357","0.0-5.0-5.0-0.0-0.0","pilot_wm_v1","65f647c74af96460db093800","4","null","null","true","","","","","","","","1019","<p> Time to play the dot game! </p>
            <p> For one minute, click the red dots on the following screen as they appear. </p>
            <p><b> Don't look away, as you will earn bonus for clicking dots</b>. </p>","","instructions","","","","","","","","","","","","","","","",""
"revaluation","282","1313358","0.0-5.0-5.0-1.0-0.0","pilot_wm_v1","65f647c74af96460db093800","4","null","null","true","","","","","","","","[78,64,68,69,75,53,59]","","","rest","","70","","","","","","","","","0","60000","","","",""
