"trial_type","trial_index","time_elapsed","internal_node_id","task_version","subject_id","assigned_condition","age","gender","rest","browser_interaction","success","timeout","failed_images","failed_audio","failed_video","rt","stimulus","response","task_part","environment","score","rewardMap","correct","fullState","isCatch","audioStim","slider_start","answer","error","trial_num","condition","order","bonus"
"pavlovia","0","1191","0.0-0.0","pilot_wm_v1","null","8","null","null","false","[{""event"":""blur"",""trial"":1,""time"":3728},{""event"":""focus"",""trial"":1,""time"":5210},{""event"":""blur"",""trial"":1,""time"":5266},{""event"":""focus"",""trial"":1,""time"":5382},{""event"":""blur"",""trial"":1,""time"":8150},{""event"":""focus"",""trial"":1,""time"":14726},{""event"":""blur"",""trial"":1,""time"":14739},{""event"":""focus"",""trial"":1,""time"":18554},{""event"":""blur"",""trial"":1,""time"":20857},{""event"":""focus"",""trial"":1,""time"":26066},{""event"":""blur"",""trial"":2,""time"":41353},{""event"":""focus"",""trial"":2,""time"":43593},{""event"":""fullscreenenter"",""trial"":2,""time"":45031}]","","","","","","","","","","","","","","","","","","","","","","",""
"preload","1","41213","0.0-1.0","pilot_wm_v1","null","8","null","null","false","[{""event"":""blur"",""trial"":1,""time"":3728},{""event"":""focus"",""trial"":1,""time"":5210},{""event"":""blur"",""trial"":1,""time"":5266},{""event"":""focus"",""trial"":1,""time"":5382},{""event"":""blur"",""trial"":1,""time"":8150},{""event"":""focus"",""trial"":1,""time"":14726},{""event"":""blur"",""trial"":1,""time"":14739},{""event"":""focus"",""trial"":1,""time"":18554},{""event"":""blur"",""trial"":1,""time"":20857},{""event"":""focus"",""trial"":1,""time"":26066},{""event"":""blur"",""trial"":2,""time"":41353},{""event"":""focus"",""trial"":2,""time"":43593},{""event"":""fullscreenenter"",""trial"":2,""time"":45031}]","true","false","[]","[]","[]","","","","","","","","","","","","","","","","","",""
"fullscreen","2","46011","0.0-2.0","pilot_wm_v1","null","8","null","null","false","","true","","","","","","","","","","","","","","","","","","","","","",""
"audio-button-response","3","50055","0.0-3.0-0.0-0.0","pilot_wm_v1","null","8","null","null","false","","","","","","","4021","./assets/audio/audiotest/turtle.mp3","4","audio_test","","","","","","","","","","","","","",""
"audio-button-response","4","52162","0.0-3.0-0.1-0.1","pilot_wm_v1","null","8","null","null","false","","","","","","","1101","./assets/audio/audiotest/turtle.mp3","2","audio_test","","","","","","","","","","","","","",""
"learning-instructions","5","61637","0.0-3.0-1.0-0.0","pilot_wm_v1","null","8","null","null","false","","","","","","","2507.899999999907","<p> Welcome! Please remember to stay in fullscreen mode and don't click away from the experiment. </p>","","instructions","","","","","","","","","","","","","",""
"learning-instructions","6","71839","0.0-3.0-1.0-0.1","pilot_wm_v1","null","8","null","null","false","","","","","","","1799.6999999997206","<p> Today you will be playing a game to earn treasure. </p>
            <p> At the end of the experiment, you will earn a bonus based on how much treasure you find. </p>
            <img src='./assets/img/instructions/treasure.jpg' class='instructions-image'>","","instructions","","","","","","","","","","","","","",""
"learning-instructions","7","81920","0.0-3.0-1.0-0.2","pilot_wm_v1","null","8","null","null","false","","","","","","","1831.2999999998137","<p> Animals have hidden treasure in treasure chests. </p>
            <p> You need to first find an animal and then choose which of their treasure chests to search. </p>
            <img src='./assets/img/space/animals/cat.jpg' class='instructions-image'>","","instructions","","","","","","","","","","","","","",""
"learning-instructions","8","95994","0.0-3.0-1.0-0.3","pilot_wm_v1","null","8","null","null","false","","","","","","","945.3999999999069","<p> In each round, you will search for treasure in a different place. In the real game, there will be two rounds. </p>
            <p> You will begin with a separate, practice round where you will search for treasure in outer space. </p>
            <img src='./assets/img/space/0.jpg' class='instructions-image'>","","instructions","","","","","","","","","","","","","",""
"learning-instructions","9","111708","0.0-3.0-1.0-0.4","pilot_wm_v1","null","8","null","null","false","","","","","","","4310.299999999814","<p> On every turn, you will see a picture of the place that you are in, but the specific image may be different each time. </p>
            <p> For example, both of these images mean you are in outer space. </p>
            <img src='./assets/img/instructions/outerspace.jpg' class='instructions-image'>","","instructions","","","","","","","","","","","","","",""
"learning-instructions","10","120000","0.0-3.0-1.0-0.5","pilot_wm_v1","null","8","null","null","false","","","","","","","482.5","<p> You need to decide which direction to travel in. </p>
            <p> You can choose between going <b>up or down</b> by using the arrow keys. </p>
            <img src='./assets/img/instructions/updown.jpg' class='instructions-image'>","","instructions","","","","","","","","","","","","","",""
"learning-instructions","11","129488","0.0-3.0-1.0-0.6","pilot_wm_v1","null","8","null","null","false","","","","","","","690.5999999996275","<p> You will have <b>2 seconds</b> to make your choice. </p>
            <p> If you do not make a choice within 2 seconds, you will not find an animal or earn treasure. </p>
            <img src='./assets/img/instructions/2seconds.jpg' class='instructions-image'>","","instructions","","","","","","","","","","","","","",""
"learning-instructions","12","137180","0.0-3.0-1.0-0.7","pilot_wm_v1","null","8","null","null","false","","","","","","","671.6999999997206","<p> Let’s try practicing that now! </p>
            <p> When you see a picture of the place you are in, press the <b>up</b> key to travel up. </p>
            <img src='./assets/img/instructions/pressUp.jpg' class='instructions-image'>","","instructions","","","","","","","","","","","","","",""
"revaluation","13","141211","0.0-3.0-2.0-0.0","pilot_wm_v1","null","8","null","null","false","","","false","","","","[1094.8999999999069]","./assets/img/space/0.jpg","[""ArrowUp""]","first stage practice","space","0","null","null","ArrowUp","false","","","","","","","",""
"html-keyboard-response","14","141725","0.0-3.0-2.0-1.0","pilot_wm_v1","null","8","null","null","false","","","","","","","null","<div style=""font-size:60px;"">+</div>","null","fixation","","","","","","","","","","","","","",""
"revaluation","15","145755","0.0-3.0-2.0-0.1","pilot_wm_v1","null","8","null","null","false","","","true","","","","[]","./assets/img/space/1.jpg","[]","first stage practice","space","-5","null","null","","false","","","","","","","",""
"html-keyboard-response","16","146271","0.0-3.0-2.0-1.1","pilot_wm_v1","null","8","null","null","false","","","","","","","null","<div style=""font-size:60px;"">+</div>","null","fixation","","","","","","","","","","","","","",""
"revaluation","17","150292","0.0-3.0-2.0-0.2","pilot_wm_v1","null","8","null","null","false","","","true","","","","[]","./assets/img/space/2.jpg","[]","first stage practice","space","-5","null","null","","false","","","","","","","",""
"html-keyboard-response","18","150794","0.0-3.0-2.0-1.2","pilot_wm_v1","null","8","null","null","false","","","","","","","null","<div style=""font-size:60px;"">+</div>","null","fixation","","","","","","","","","","","","","",""
"learning-instructions","19","156120","0.0-3.0-3.0-0.0","pilot_wm_v1","null","8","null","null","false","","","","","","","643.1000000000931","<p> Great job! Now try pressing the <b>down</b> key to travel down. </p>
            <img src='./assets/img/instructions/pressDown.jpg' class='instructions-image'>","","instructions","","","","","","","","","","","","","",""
"revaluation","20","160147","0.0-3.0-4.0-0.0","pilot_wm_v1","null","8","null","null","false","","","false","","","","[343.70000000018626]","./assets/img/space/3.jpg","[""ArrowDown""]","first stage practice","space","0","null","null","ArrowDown","false","","","","","","","",""
"html-keyboard-response","21","160650","0.0-3.0-4.0-1.0","pilot_wm_v1","null","8","null","null","false","","","","","","","null","<div style=""font-size:60px;"">+</div>","null","fixation","","","","","","","","","","","","","",""
"revaluation","22","164674","0.0-3.0-4.0-0.1","pilot_wm_v1","null","8","null","null","false","","","false","","","","[229.10000000009313]","./assets/img/space/4.jpg","[""ArrowDown""]","first stage practice","space","0","null","null","ArrowDown","false","","","","","","","",""
"html-keyboard-response","23","165181","0.0-3.0-4.0-1.1","pilot_wm_v1","null","8","null","null","false","","","","","","","null","<div style=""font-size:60px;"">+</div>","null","fixation","","","","","","","","","","","","","",""
"revaluation","24","169201","0.0-3.0-4.0-0.2","pilot_wm_v1","null","8","null","null","false","","","false","","","","[754.0999999996275]","./assets/img/space/5.jpg","[""ArrowDown""]","first stage practice","space","0","null","null","ArrowDown","false","","","","","","","",""
"html-keyboard-response","25","169704","0.0-3.0-4.0-1.2","pilot_wm_v1","null","8","null","null","false","","","","","","","null","<div style=""font-size:60px;"">+</div>","null","fixation","","","","","","","","","","","","","",""
"learning-instructions","26","180167","0.0-3.0-5.0-0.0","pilot_wm_v1","null","8","null","null","false","","","","","","","620.7999999998137","<p> The animals don’t move, so the animal in the upper part of a place will stay in the upper part of a place, and the animal in the lower part of a place will stay in the lower part of a place. </p>","","instructions","","","","","","","","","","","","","",""
"learning-instructions","27","189882","0.0-3.0-5.0-0.1","pilot_wm_v1","null","8","null","null","false","","","","","","","605.8999999999069","<p> Each animal has two treasure chests for you to choose from. </p>
            <p> The amount of treasure in each chest can range from <b> 0 to 40 pieces.</b></p>","","instructions","","","","","","","","","","","","","",""
"learning-instructions","28","201574","0.0-3.0-5.0-0.2","pilot_wm_v1","null","8","null","null","false","","","","","","","527.5999999996275","<p> You should decide which chest to search for treasure by using the <b>left</b> and <b>right</b> arrow keys. </p>
            <p><b> Pay attention to which animal is on the screen, as the animals have different treasure chests. </b></p>
            <img src='./assets/img/instructions/leftright.jpg' class='instructions-image'>","","instructions","","","","","","","","","","","","","",""
"learning-instructions","29","208554","0.0-3.0-5.0-0.3","pilot_wm_v1","null","8","null","null","false","","","","","","","627.7999999998137","<p> Let’s try practicing that now. </p>
            <p> When you see an animal, choose which chest to search for treasure. </p>
            <img src='./assets/img/instructions/chooseChest.jpg' class='instructions-image'>","","instructions","","","","","","","","","","","","","",""
"revaluation","30","212566","0.0-3.0-6.0-0.0","pilot_wm_v1","null","8","null","null","false","","","false","","","","[548.8999999999069]","./assets/img/space/animals/rabbit.jpg","[""ArrowRight""]","second stage practice","space","23","{""ArrowUp,ArrowLeft"":3,""ArrowUp,ArrowRight"":36,""ArrowDown,ArrowLeft"":15,""ArrowDown,ArrowRight"":23}","true","ArrowDown,ArrowRight","","","","","","","","",""
"html-keyboard-response","31","213070","0.0-3.0-6.0-1.0","pilot_wm_v1","null","8","null","null","false","","","","","","","null","<div style=""font-size:60px;"">+</div>","null","fixation","","","","","","","","","","","","","",""
"revaluation","32","217086","0.0-3.0-6.0-0.1","pilot_wm_v1","null","8","null","null","false","","","false","","","","[680.8999999999069]","./assets/img/space/animals/cat.jpg","[""ArrowLeft""]","second stage practice","space","3","{""ArrowUp,ArrowLeft"":3,""ArrowUp,ArrowRight"":36,""ArrowDown,ArrowLeft"":15,""ArrowDown,ArrowRight"":23}","false","ArrowUp,ArrowLeft","","","","","","","","",""
"html-keyboard-response","33","217591","0.0-3.0-6.0-1.1","pilot_wm_v1","null","8","null","null","false","","","","","","","null","<div style=""font-size:60px;"">+</div>","null","fixation","","","","","","","","","","","","","",""
"revaluation","34","221603","0.0-3.0-6.0-0.2","pilot_wm_v1","null","8","null","null","false","","","false","","","","[487.6999999997206]","./assets/img/space/animals/rabbit.jpg","[""ArrowRight""]","second stage practice","space","23","{""ArrowUp,ArrowLeft"":3,""ArrowUp,ArrowRight"":36,""ArrowDown,ArrowLeft"":15,""ArrowDown,ArrowRight"":23}","true","ArrowDown,ArrowRight","","","","","","","","",""
"html-keyboard-response","35","222117","0.0-3.0-6.0-1.2","pilot_wm_v1","null","8","null","null","false","","","","","","","null","<div style=""font-size:60px;"">+</div>","null","fixation","","","","","","","","","","","","","",""
"revaluation","36","226133","0.0-3.0-6.0-0.3","pilot_wm_v1","null","8","null","null","false","","","false","","","","[689.7999999998137]","./assets/img/space/animals/cat.jpg","[""ArrowRight""]","second stage practice","space","36","{""ArrowUp,ArrowLeft"":3,""ArrowUp,ArrowRight"":36,""ArrowDown,ArrowLeft"":15,""ArrowDown,ArrowRight"":23}","true","ArrowUp,ArrowRight","","","","","","","","",""
"html-keyboard-response","37","226637","0.0-3.0-6.0-1.3","pilot_wm_v1","null","8","null","null","false","","","","","","","null","<div style=""font-size:60px;"">+</div>","null","fixation","","","","","","","","","","","","","",""
"learning-instructions","38","244635","0.0-3.0-7.0-0.0","pilot_wm_v1","null","8","null","null","false","","","","","","","1209.3999999999069","<p> Great job. Now let’s try putting it together. </p>
            <p> On each turn, you will first see a picture to remind you of the place you are in, and you need to choose whether to go up or down. </p>
            <p> Then you will see an animal and choose which of its chests to search for treasure. </p>","","instructions","","","","","","","","","","","","","",""
"learning-instructions","39","253456","0.0-3.0-7.0-0.1","pilot_wm_v1","null","8","null","null","false","","","","","","","570.3999999999069","<p> When you choose whether to go up or down, try to go to the animal with the chest with the most treasure. </p>
            <p> Try practicing that now! </p>","","instructions","","","","","","","","","","","","","",""
"revaluation","40","259492","0.0-3.0-8.0-0.0","pilot_wm_v1","null","8","null","null","false","","","false","","","","[446.39999999990687,608.1999999997206]","./assets/img/space/6.jpg","[""ArrowUp"",""ArrowRight""]","full practice","space","36","{""ArrowUp,ArrowLeft"":3,""ArrowUp,ArrowRight"":36,""ArrowDown,ArrowLeft"":15,""ArrowDown,ArrowRight"":23}","true","ArrowUp,ArrowRight","false","","","","","","","",""
"html-keyboard-response","41","259994","0.0-3.0-8.0-1.0","pilot_wm_v1","null","8","null","null","false","","","","","","","null","<div style=""font-size:60px;"">+</div>","null","fixation","","","","","","","","","","","","","",""
"revaluation","42","266013","0.0-3.0-8.0-0.1","pilot_wm_v1","null","8","null","null","false","","","false","","","","[396.79999999981374,591.7000000001863]","./assets/img/space/7.jpg","[""ArrowDown"",""ArrowRight""]","full practice","space","23","{""ArrowUp,ArrowLeft"":3,""ArrowUp,ArrowRight"":36,""ArrowDown,ArrowLeft"":15,""ArrowDown,ArrowRight"":23}","false","ArrowDown,ArrowRight","false","","","","","","","",""
"html-keyboard-response","43","266515","0.0-3.0-8.0-1.1","pilot_wm_v1","null","8","null","null","false","","","","","","","null","<div style=""font-size:60px;"">+</div>","null","fixation","","","","","","","","","","","","","",""
"revaluation","44","272541","0.0-3.0-8.0-0.2","pilot_wm_v1","null","8","null","null","false","","","false","","","","[362.89999999990687,420.70000000018626]","./assets/img/space/8.jpg","[""ArrowDown"",""ArrowRight""]","full practice","space","23","{""ArrowUp,ArrowLeft"":3,""ArrowUp,ArrowRight"":36,""ArrowDown,ArrowLeft"":15,""ArrowDown,ArrowRight"":23}","false","ArrowDown,ArrowRight","false","","","","","","","",""
"html-keyboard-response","45","273056","0.0-3.0-8.0-1.2","pilot_wm_v1","null","8","null","null","false","","","","","","","null","<div style=""font-size:60px;"">+</div>","null","fixation","","","","","","","","","","","","","",""
"revaluation","46","279077","0.0-3.0-8.0-0.3","pilot_wm_v1","null","8","null","null","false","","","false","","","","[269.70000000018626,389.20000000018626]","./assets/img/space/9.jpg","[""ArrowUp"",""ArrowRight""]","full practice","space","36","{""ArrowUp,ArrowLeft"":3,""ArrowUp,ArrowRight"":36,""ArrowDown,ArrowLeft"":15,""ArrowDown,ArrowRight"":23}","true","ArrowUp,ArrowRight","false","","","","","","","",""
"html-keyboard-response","47","279580","0.0-3.0-8.0-1.3","pilot_wm_v1","null","8","null","null","false","","","","","","","null","<div style=""font-size:60px;"">+</div>","null","fixation","","","","","","","","","","","","","",""
"revaluation","48","285583","0.0-3.0-8.0-0.4","pilot_wm_v1","null","8","null","null","false","","","false","","","","[458.60000000009313,265.89999999990687]","./assets/img/space/10.jpg","[""ArrowUp"",""ArrowRight""]","full practice","space","36","{""ArrowUp,ArrowLeft"":3,""ArrowUp,ArrowRight"":36,""ArrowDown,ArrowLeft"":15,""ArrowDown,ArrowRight"":23}","true","ArrowUp,ArrowRight","false","","","","","","","",""
"html-keyboard-response","49","286084","0.0-3.0-8.0-1.4","pilot_wm_v1","null","8","null","null","false","","","","","","","null","<div style=""font-size:60px;"">+</div>","null","fixation","","","","","","","","","","","","","",""
"learning-instructions","50","297136","0.0-3.0-9.0-0.0","pilot_wm_v1","null","8","null","null","false","","","","","","","765.1999999997206","<p> One last thing: sometimes, you will see a robber. The robber can be anywhere in the picture. </p>
            <p> If you do not stop them, you will lose treasure. </p>
            <img src='./assets/img/instructions/robber.jpg' class='instructions-image'>","","instructions","","","","","","","","","","","","","",""
"learning-instructions","51","305093","0.0-3.0-9.0-0.1","pilot_wm_v1","null","8","null","null","false","","","","","","","802.2999999998137","<p> If you see the robber, you should <b>press the space bar</b> rather than using the arrow keys. </p>
            <p> Try practicing that now! </p>","","instructions","","","","","","","","","","","","","",""
"revaluation","52","309114","0.0-3.0-10.0-0.0","pilot_wm_v1","null","8","null","null","false","","","false","","","","[712.6000000000931]","./assets/img/space/catch/0.jpg","[""ArrowUp""]","catch practice","space","-10","{""ArrowUp,ArrowLeft"":3,""ArrowUp,ArrowRight"":36,""ArrowDown,ArrowLeft"":15,""ArrowDown,ArrowRight"":23}","false","ArrowUp","true","","","","","","","",""
"html-keyboard-response","53","309617","0.0-3.0-10.0-1.0","pilot_wm_v1","null","8","null","null","false","","","","","","","null","<div style=""font-size:60px;"">+</div>","null","fixation","","","","","","","","","","","","","",""
"revaluation","54","313638","0.0-3.0-10.0-0.1","pilot_wm_v1","null","8","null","null","false","","","false","","","","[508.6999999997206]","./assets/img/space/catch/1.jpg","[""spaceBar""]","catch practice","space","0","{""ArrowUp,ArrowLeft"":3,""ArrowUp,ArrowRight"":36,""ArrowDown,ArrowLeft"":15,""ArrowDown,ArrowRight"":23}","true","spaceBar","true","","","","","","","",""
"html-keyboard-response","55","314141","0.0-3.0-10.0-1.1","pilot_wm_v1","null","8","null","null","false","","","","","","","null","<div style=""font-size:60px;"">+</div>","null","fixation","","","","","","","","","","","","","",""
"revaluation","56","318148","0.0-3.0-10.0-0.2","pilot_wm_v1","null","8","null","null","false","","","false","","","","[448]","./assets/img/space/catch/2.jpg","[""spaceBar""]","catch practice","space","0","{""ArrowUp,ArrowLeft"":3,""ArrowUp,ArrowRight"":36,""ArrowDown,ArrowLeft"":15,""ArrowDown,ArrowRight"":23}","true","spaceBar","true","","","","","","","",""
"html-keyboard-response","57","318652","0.0-3.0-10.0-1.2","pilot_wm_v1","null","8","null","null","false","","","","","","","null","<div style=""font-size:60px;"">+</div>","null","fixation","","","","","","","","","","","","","",""
"learning-instructions","58","326612","0.0-3.0-11.0-0.0","pilot_wm_v1","null","8","null","null","false","","","","","","","1712.1999999997206","<p> Sometimes, you will come across a special kind of treasure chest that requires a password. </p>
            <img src='./assets/img/instructions/beep_chest.jpg' class='instructions-image'>","","instructions","","","","","","","","","","","","","",""
"learning-instructions","59","349389","0.0-3.0-11.0-0.1","pilot_wm_v1","null","8","null","null","false","","","","","","","1178.8999999999069","<p> Your friend will send you the password using a series of beeps so that you can open the chest and earn treasure. </p>
            <p> You will hear two kinds of beeps, a high beep and a low beep. </p>
            <p> You should report the number of high beeps that you heard before seeing the chest. </p>
            <img src='./assets/img/instructions/listen.jpg' class='instructions-image'>","","instructions","","","","","","","","","","","","","",""
"learning-instructions","60","372312","0.0-3.0-11.0-0.2","pilot_wm_v1","null","8","null","null","false","","","","","","","643","<p> For example, if you hear this series of beeps, you should report 4 as the password using the slider. </p>
            <p> After reporting a password for a chest, you should count the high beeps again starting from 0. </p>
            <p> Let's try practicing that now. </p>","","instructions","","","","","","","","","","","","","",""
"audio-button-response","61","380460","0.0-3.0-12.0-0.0-0.0","pilot_wm_v1","null","8","null","null","false","","","","","","","null","./assets/audio/beeps/practice_6.wav","null","","","","","","","","","","","","","","",""
"html-slider-response","62","383615","0.0-3.0-12.0-0.0-1.0","pilot_wm_v1","null","8","null","null","false","","","","","","","3154","<div style=""width:500px;"">
        <p>What is the password?</p>
        <img src='./assets/img/instructions/beep_chest.jpg' class='instructions-image'>","6","","","","","false","","","","50","0","6","","","",""
"comp-q","63","389327","0.0-3.0-12.0-0.0-2.0","pilot_wm_v1","null","8","null","null","false","","","","","","","867.3000000002794","<p>Correct! There were 6 high pitched beeps before you saw the chest. </p>","0","beep_answer","","","","","","","","","","","","","",""
"audio-button-response","64","397478","0.0-3.0-12.0-0.1-0.1","pilot_wm_v1","null","8","null","null","false","","","","","","","null","./assets/audio/beeps/practice_4.wav","null","","","","","","","","","","","","","","",""
"html-slider-response","65","400090","0.0-3.0-12.0-0.1-1.1","pilot_wm_v1","null","8","null","null","false","","","","","","","2611","<div style=""width:500px;"">
        <p>What is the password?</p>
        <img src='./assets/img/instructions/beep_chest.jpg' class='instructions-image'>","4","","","","","false","","","","50","0","4","","","",""
"comp-q","66","405726","0.0-3.0-12.0-0.1-2.1","pilot_wm_v1","null","8","null","null","false","","","","","","","826.5","<p>Correct! There were 4 high pitched beeps before you saw the chest. </p>","0","beep_answer","","","","","","","","","","","","","",""
"learning-instructions","67","417420","0.0-3.0-13.0-0.0","pilot_wm_v1","null","8","null","null","false","","","","","","","1261.6999999997206","<p> Good job! In the real game we will not tell you if you entered the right password. </p>
            <p> Do your best, the treasure you earn from these chests will also give you extra bonus money. </p>","","instructions","","","","","","","","","","","","","",""
"learning-instructions","68","423481","0.0-3.0-15.0-0.0-0.0","pilot_wm_v1","null","8","null","null","false","","","","","","","822.5999999996275","<p> Now, you will practice a shortened version of the game to get a sense of how it all fits together. </p>","","instructions","","","","","","","","","","","","","",""
"learning-instructions","69","427008","0.0-3.0-15.0-0.0-0.1","pilot_wm_v1","null","8","null","null","false","","","","","","","349.89999999990687","<p>This time you are searching for treasure in outer space.</p>","","instructions","","","","","","","","","","","","","",""
"learning-instructions","70","442860","0.0-3.0-15.0-1.0-0.0","pilot_wm_v1","null","8","null","null","false","","","","","","","1091.8999999999069","<p> Remember, when you see a picture of the place, use the up and down keys to <b>find an animal</b>.</p>
            <p> When you encounter an animal, you should use the left and right keys to <b>select a treasure chest</b>.</p>
            <p> Don't forget to look out for the robber! </p>","","instructions","","","","","","","","","","","","","",""
"revaluation","71","448898","0.0-3.0-15.0-2.0-0.0","pilot_wm_v1","null","8","null","null","false","","","false","","","","[1064.1000000000931,520.9000000003725]","./assets/img/space/11.jpg","[""ArrowUp"",""ArrowRight""]","practice block","space","36","{""ArrowUp,ArrowLeft"":3,""ArrowUp,ArrowRight"":36,""ArrowDown,ArrowLeft"":15,""ArrowDown,ArrowRight"":23}","true","ArrowUp,ArrowRight","false","","","","","","","",""
"html-keyboard-response","72","449411","0.0-3.0-15.0-2.0-1.0","pilot_wm_v1","null","8","null","null","false","","","","","","","null","<div style=""font-size:60px;"">+</div>","null","fixation","","","","","","","","","","","","","",""
"revaluation","73","455437","0.0-3.0-15.0-2.0-0.1","pilot_wm_v1","null","8","null","null","false","","","false","","","","[696.8999999999069,288.1999999997206]","./assets/img/space/12.jpg","[""ArrowUp"",""ArrowRight""]","practice block","space","36","{""ArrowUp,ArrowLeft"":3,""ArrowUp,ArrowRight"":36,""ArrowDown,ArrowLeft"":15,""ArrowDown,ArrowRight"":23}","true","ArrowUp,ArrowRight","false","","","","","","","",""
"html-keyboard-response","74","455952","0.0-3.0-15.0-2.0-1.1","pilot_wm_v1","null","8","null","null","false","","","","","","","null","<div style=""font-size:60px;"">+</div>","null","fixation","","","","","","","","","","","","","",""
"revaluation","75","461977","0.0-3.0-15.0-2.0-0.2","pilot_wm_v1","null","8","null","null","false","","","false","","","","[924.1999999997206,308.70000000018626]","./assets/img/space/13.jpg","[""ArrowUp"",""ArrowRight""]","practice block","space","36","{""ArrowUp,ArrowLeft"":3,""ArrowUp,ArrowRight"":36,""ArrowDown,ArrowLeft"":15,""ArrowDown,ArrowRight"":23}","true","ArrowUp,ArrowRight","false","","","","","","","",""
"html-keyboard-response","76","462493","0.0-3.0-15.0-2.0-1.2","pilot_wm_v1","null","8","null","null","false","","","","","","","null","<div style=""font-size:60px;"">+</div>","null","fixation","","","","","","","","","","","","","",""
"revaluation","77","468522","0.0-3.0-15.0-2.0-0.3","pilot_wm_v1","null","8","null","null","false","","","false","","","","[526.8000000002794,345.89999999990687]","./assets/img/space/14.jpg","[""ArrowUp"",""ArrowRight""]","practice block","space","36","{""ArrowUp,ArrowLeft"":3,""ArrowUp,ArrowRight"":36,""ArrowDown,ArrowLeft"":15,""ArrowDown,ArrowRight"":23}","true","ArrowUp,ArrowRight","false","","","","","","","",""
"html-keyboard-response","78","469023","0.0-3.0-15.0-2.0-1.3","pilot_wm_v1","null","8","null","null","false","","","","","","","null","<div style=""font-size:60px;"">+</div>","null","fixation","","","","","","","","","","","","","",""
"revaluation","79","475038","0.0-3.0-15.0-2.0-0.4","pilot_wm_v1","null","8","null","null","false","","","false","","","","[732.7000000001863,256]","./assets/img/space/11.jpg","[""ArrowUp"",""ArrowRight""]","practice block","space","36","{""ArrowUp,ArrowLeft"":3,""ArrowUp,ArrowRight"":36,""ArrowDown,ArrowLeft"":15,""ArrowDown,ArrowRight"":23}","true","ArrowUp,ArrowRight","false","","","","","","","",""
"html-keyboard-response","80","475539","0.0-3.0-15.0-2.0-1.4","pilot_wm_v1","null","8","null","null","false","","","","","","","null","<div style=""font-size:60px;"">+</div>","null","fixation","","","","","","","","","","","","","",""
"revaluation","81","481542","0.0-3.0-15.0-2.0-0.5","pilot_wm_v1","null","8","null","null","false","","","false","","","","[728.2999999998137,224.09999999962747]","./assets/img/space/12.jpg","[""ArrowUp"",""ArrowRight""]","practice block","space","36","{""ArrowUp,ArrowLeft"":3,""ArrowUp,ArrowRight"":36,""ArrowDown,ArrowLeft"":15,""ArrowDown,ArrowRight"":23}","true","ArrowUp,ArrowRight","false","","","","","","","",""
"html-keyboard-response","82","482058","0.0-3.0-15.0-2.0-1.5","pilot_wm_v1","null","8","null","null","false","","","","","","","null","<div style=""font-size:60px;"">+</div>","null","fixation","","","","","","","","","","","","","",""
"revaluation","83","488062","0.0-3.0-15.0-2.0-0.6","pilot_wm_v1","null","8","null","null","false","","","false","","","","[569.2999999998137,256]","./assets/img/space/13.jpg","[""ArrowUp"",""ArrowRight""]","practice block","space","36","{""ArrowUp,ArrowLeft"":3,""ArrowUp,ArrowRight"":36,""ArrowDown,ArrowLeft"":15,""ArrowDown,ArrowRight"":23}","true","ArrowUp,ArrowRight","false","","","","","","","",""
"html-keyboard-response","84","488563","0.0-3.0-15.0-2.0-1.6","pilot_wm_v1","null","8","null","null","false","","","","","","","null","<div style=""font-size:60px;"">+</div>","null","fixation","","","","","","","","","","","","","",""
"revaluation","85","494567","0.0-3.0-15.0-2.0-0.7","pilot_wm_v1","null","8","null","null","false","","","false","","","","[672.0999999996275,206.40000000037253]","./assets/img/space/14.jpg","[""ArrowUp"",""ArrowRight""]","practice block","space","36","{""ArrowUp,ArrowLeft"":3,""ArrowUp,ArrowRight"":36,""ArrowDown,ArrowLeft"":15,""ArrowDown,ArrowRight"":23}","true","ArrowUp,ArrowRight","false","","","","","","","",""
"html-keyboard-response","86","495068","0.0-3.0-15.0-2.0-1.7","pilot_wm_v1","null","8","null","null","false","","","","","","","null","<div style=""font-size:60px;"">+</div>","null","fixation","","","","","","","","","","","","","",""
"revaluation","87","499070","0.0-3.0-15.0-2.0-0.8","pilot_wm_v1","null","8","null","null","false","","","false","","","","[582.7999999998137]","./assets/img/space/catch/3.jpg","[""spaceBar""]","practice block","space","0","{""ArrowUp,ArrowLeft"":3,""ArrowUp,ArrowRight"":36,""ArrowDown,ArrowLeft"":15,""ArrowDown,ArrowRight"":23}","true","spaceBar","true","","","","","","","",""
"html-keyboard-response","88","499572","0.0-3.0-15.0-2.0-1.8","pilot_wm_v1","null","8","null","null","false","","","","","","","null","<div style=""font-size:60px;"">+</div>","null","fixation","","","","","","","","","","","","","",""
"learning-instructions","89","514221","0.0-3.0-15.0-3.0-0.0","pilot_wm_v1","null","8","null","null","false","","","","","","","1739","<p> Now, you will travel with a friend who will choose whether you go up or down first. </p>
            <p> On these turns, you will just see the animal that they found. You will still get to choose which chest to search for treasure.</p>","","instructions","","","","","","","","","","","","","",""
"learning-instructions","90","526595","0.0-3.0-15.0-3.0-0.1","pilot_wm_v1","null","8","null","null","false","","","","","","","632.1999999997206","<p> In this part, you will also hear beeps from your friend and see special treasure chests that need a password. </p>
            <p> Do your best to count the high beeps <b>and</b> choose between each animals' chests at the same time.</p>
            <img src='./assets/img/instructions/beep_chest.jpg' class='instructions-image'>","","instructions","","","","","","","","","","","","","",""
"revaluation","91","530618","0.0-3.0-15.0-4.0-0.0","pilot_wm_v1","null","8","null","null","false","","","false","","","","[1151.5]","./assets/img/space/animals/rabbit.jpg","[""ArrowRight""]","practice block","space","23","{""ArrowUp,ArrowLeft"":3,""ArrowUp,ArrowRight"":36,""ArrowDown,ArrowLeft"":15,""ArrowDown,ArrowRight"":23}","true","ArrowDown,ArrowRight","","[""21_1""]","","","","0","","",""
"html-keyboard-response","92","531134","0.0-3.0-15.0-4.0-1.0","pilot_wm_v1","null","8","null","null","false","","","","","","","null","<div style=""font-size:60px;"">+</div>","null","fixation","","","","","","","","","","","","","",""
"revaluation","93","535146","0.0-3.0-15.0-4.0-0.1","pilot_wm_v1","null","8","null","null","false","","","false","","","","[1188.8000000002794]","./assets/img/space/animals/cat.jpg","[""ArrowRight""]","practice block","space","36","{""ArrowUp,ArrowLeft"":3,""ArrowUp,ArrowRight"":36,""ArrowDown,ArrowLeft"":15,""ArrowDown,ArrowRight"":23}","true","ArrowUp,ArrowRight","","[""19_0""]","","","","1","","",""
"html-keyboard-response","94","535648","0.0-3.0-15.0-4.0-1.1","pilot_wm_v1","null","8","null","null","false","","","","","","","null","<div style=""font-size:60px;"">+</div>","null","fixation","","","","","","","","","","","","","",""
"revaluation","95","539672","0.0-3.0-15.0-4.0-0.2","pilot_wm_v1","null","8","null","null","false","","","false","","","","[674.7000000001863]","./assets/img/space/animals/rabbit.jpg","[""ArrowRight""]","practice block","space","23","{""ArrowUp,ArrowLeft"":3,""ArrowUp,ArrowRight"":36,""ArrowDown,ArrowLeft"":15,""ArrowDown,ArrowRight"":23}","true","ArrowDown,ArrowRight","","[""22_3""]","","","","2","","",""
"html-keyboard-response","96","540176","0.0-3.0-15.0-4.0-1.2","pilot_wm_v1","null","8","null","null","false","","","","","","","null","<div style=""font-size:60px;"">+</div>","null","fixation","","","","","","","","","","","","","",""
"revaluation","97","544198","0.0-3.0-15.0-4.0-0.3","pilot_wm_v1","null","8","null","null","false","","","false","","","","[626.7000000001863]","./assets/img/space/animals/cat.jpg","[""ArrowRight""]","practice block","space","36","{""ArrowUp,ArrowLeft"":3,""ArrowUp,ArrowRight"":36,""ArrowDown,ArrowLeft"":15,""ArrowDown,ArrowRight"":23}","true","ArrowUp,ArrowRight","","[""20_0""]","","","","3","","",""
"html-keyboard-response","98","544702","0.0-3.0-15.0-4.0-1.3","pilot_wm_v1","null","8","null","null","false","","","","","","","null","<div style=""font-size:60px;"">+</div>","null","fixation","","","","","","","","","","","","","",""
"html-slider-response","99","547913","0.0-3.0-15.0-4.0-2.3-0.3","pilot_wm_v1","null","8","null","null","false","","","","","","","3210","<div style=""width:500px;"">
        <p>What is the password?</p>
        <img src='./assets/img/instructions/beep_chest.jpg' class='instructions-image'>","4","","","","","false","","","","50","82","78","","","",""
"learning-instructions","100","556023","0.0-3.0-15.0-6.0-0.0","pilot_wm_v1","null","8","null","null","false","","","","","","","null","<p> You have almost finished this part of the game! </p>
            <p> We are going to ask you to make a few more choices. </p>","","instructions","","","","","","","","","","","","","",""
"learning-instructions","101","572027","0.0-3.0-15.0-6.0-0.1","pilot_wm_v1","null","8","null","null","false","","","","","","","null","<p> First, you need to decide whether to go up or down. When you see each picture, use the arrow keys to make your choice. </p>
            <p><b>You will not see which animal you found, but try to get to the one that will give you the most treasure.</b></p>","","instructions","","","","","","","","","","","","","",""
"html-keyboard-response","102","573038","0.0-3.0-15.0-7.0-0.0","pilot_wm_v1","null","8","null","null","false","","","","","","","null","<div style=""font-size:100px;color:red;"">Starting in...</div>","null","","","","","","","","","","","","","","",""
"html-keyboard-response","103","574053","0.0-3.0-15.0-7.0-1.0","pilot_wm_v1","null","8","null","null","false","","","","","","","null","<div style=""font-size:200px;color:red;"">3</div>","null","","","","","","","","","","","","","","",""
"html-keyboard-response","104","575069","0.0-3.0-15.0-7.0-2.0","pilot_wm_v1","null","8","null","null","false","","","","","","","null","<div style=""font-size:200px;color:red;"">2</div>","null","","","","","","","","","","","","","","",""
"html-keyboard-response","105","576074","0.0-3.0-15.0-7.0-3.0","pilot_wm_v1","null","8","null","null","false","","","","","","","null","<div style=""font-size:200px;color:red;"">1</div>","null","","","","","","","","","","","","","","",""
"revaluation","106","576604","0.0-3.0-15.0-8.0","pilot_wm_v1","null","8","null","null","false","","","false","","","","[528.1999999992549]","./assets/img/space/15.jpg","[""ArrowUp""]","practice block","space","0","{""ArrowUp,ArrowLeft"":3,""ArrowUp,ArrowRight"":36,""ArrowDown,ArrowLeft"":15,""ArrowDown,ArrowRight"":23}","true","ArrowUp","false","","","","","","","",""
"html-keyboard-response","107","577107","0.0-3.0-15.0-9.0","pilot_wm_v1","null","8","null","null","false","","","","","","","null","<div style=""font-size:60px;"">+</div>","null","fixation","","","","","","","","","","","","","",""
"learning-instructions","108","590477","0.0-3.0-15.0-10.0-0.0","pilot_wm_v1","null","8","null","null","false","","","","","","","null","<p> Now you will see the animals again and can search their chests for treasure. </p>
            <p> This time, you will not see how much treasure you earned, but you will earn more bonus money for making better choices. </p>","","instructions","","","","","","","","","","","","","",""
"html-keyboard-response","109","591490","0.0-3.0-15.0-11.0-0.0","pilot_wm_v1","null","8","null","null","false","","","","","","","null","<div style=""font-size:100px;color:red;"">Starting in...</div>","null","","","","","","","","","","","","","","",""
"html-keyboard-response","110","592506","0.0-3.0-15.0-11.0-1.0","pilot_wm_v1","null","8","null","null","false","","","","","","","null","<div style=""font-size:200px;color:red;"">3</div>","null","","","","","","","","","","","","","","",""
"html-keyboard-response","111","593523","0.0-3.0-15.0-11.0-2.0","pilot_wm_v1","null","8","null","null","false","","","","","","","null","<div style=""font-size:200px;color:red;"">2</div>","null","","","","","","","","","","","","","","",""
"html-keyboard-response","112","594524","0.0-3.0-15.0-11.0-3.0","pilot_wm_v1","null","8","null","null","false","","","","","","","null","<div style=""font-size:200px;color:red;"">1</div>","null","","","","","","","","","","","","","","",""
"revaluation","113","594852","0.0-3.0-15.0-12.0-0.0","pilot_wm_v1","null","8","null","null","false","","","false","","","","[326]","./assets/img/space/animals/cat.jpg","[""ArrowRight""]","practice block","space","0","{""ArrowUp,ArrowLeft"":3,""ArrowUp,ArrowRight"":36,""ArrowDown,ArrowLeft"":15,""ArrowDown,ArrowRight"":23}","true","ArrowUp,ArrowRight","","","","","","","","",""
"html-keyboard-response","114","595358","0.0-3.0-15.0-12.0-1.0","pilot_wm_v1","null","8","null","null","false","","","","","","","null","<div style=""font-size:60px;"">+</div>","null","fixation","","","","","","","","","","","","","",""
"revaluation","115","596172","0.0-3.0-15.0-12.0-0.1","pilot_wm_v1","null","8","null","null","false","","","false","","","","[811.6999999992549]","./assets/img/space/animals/rabbit.jpg","[""ArrowRight""]","practice block","space","0","{""ArrowUp,ArrowLeft"":3,""ArrowUp,ArrowRight"":36,""ArrowDown,ArrowLeft"":15,""ArrowDown,ArrowRight"":23}","true","ArrowDown,ArrowRight","","","","","","","","",""
"html-keyboard-response","116","596687","0.0-3.0-15.0-12.0-1.1","pilot_wm_v1","null","8","null","null","false","","","","","","","null","<div style=""font-size:60px;"">+</div>","null","fixation","","","","","","","","","","","","","",""
"learning-instructions","117","602744","0.0-3.0-16.0-0.0","pilot_wm_v1","null","8","null","null","false","","","","","","","1492.2999999998137","<p> Before you start, we're going to ask you a few questions about how the game works. </p>","","instructions","","","","","","","","","","","","","",""
"comp-q","118","609592","0.0-3.0-17.0-0.0-0.0","pilot_wm_v1","null","8","null","null","false","","","","","","","1280.2000000001863","<p> <b> True or False? </b> </p>
            <p> There can be 50 pieces of treasure in a given animal's chest. </p>","1","comp_question","","","","true","","","","","","","","","",""
"comp-q","119","617185","0.0-3.0-17.0-0.0-1.0","pilot_wm_v1","null","8","null","null","false","","","","","","","953.3000000007451","<p> <b> That's right! </b> The amount of treasure in each chest can range from 0 to 40 pieces. </p>","0","comp_answer","","","","","","","","","","","","","",""
"comp-q","120","626119","0.0-3.0-17.0-0.1-0.1","pilot_wm_v1","null","8","null","null","false","","","","","","","1827.4000000003725","<p> <b> True or False? </b> </p><p> In this game, all animals have the same amount of treasure in their left and right chests. </p>","0","comp_question","","","","false","","","","","","","","","",""
"comp-q","121","631851","0.0-3.0-17.0-0.1-1.1","pilot_wm_v1","null","8","null","null","false","","","","","","","649.8000000007451","<p> <b>Incorrect.</b> Animals have different amounts of treasure in their treasure chests. </p>","0","comp_answer","","","","","","","","","","","","","",""
"comp-q","122","639430","0.0-3.0-17.0-0.2-0.2","pilot_wm_v1","null","8","null","null","false","","","","","","","488.5","<p> <b> True or False? </b> </p><p> In this game, all animals have the same amount of treasure in their left and right chests. </p>","1","comp_question","","","","true","","","","","","","","","",""
"comp-q","123","645266","0.0-3.0-17.0-0.2-1.2","pilot_wm_v1","null","8","null","null","false","","","","","","","614.7999999998137","<p> <b> That's right! </b> Animals have different amounts of treasure in their treasure chests. </p>","0","comp_answer","","","","","","","","","","","","","",""
"comp-q","124","651498","0.0-3.0-17.0-0.3-0.3","pilot_wm_v1","null","8","null","null","false","","","","","","","397.80000000074506","<p> <b> True or False? </b> </p><p> The same animal will always be there if you go up in the same place. </p>","0","comp_question","","","","true","","","","","","","","","",""
"comp-q","125","658678","0.0-3.0-17.0-0.3-1.3","pilot_wm_v1","null","8","null","null","false","","","","","","","737.9000000003725","<p> <b> That's right! </b> One animal lives in the upper part and one lives in the lower part of every place. </p>","0","comp_answer","","","","","","","","","","","","","",""
"comp-q","126","664745","0.0-3.0-17.0-0.4-0.4","pilot_wm_v1","null","8","null","null","false","","","","","","","554.8000000007451","<p> <b> True or False? </b> </p><p> If you see a different picture, it means you are in a new place. </p>","1","comp_question","","","","true","","","","","","","","","",""
"comp-q","127","676592","0.0-3.0-17.0-0.4-1.4","pilot_wm_v1","null","8","null","null","false","","","","","","","642.1000000005588","<p> <b> That's right! </b> Lots of different images may show the same place. For example,  you may see three different images that all remind you that you are in outer space. </p>","0","comp_answer","","","","","","","","","","","","","",""
"learning-instructions","128","687073","0.0-3.0-18.0-0.0","pilot_wm_v1","null","8","null","null","false","","","","","","","653.2000000001863","<p> Good job. Remember to do your best because the amount of treasure you earn will be converted into bonus money. </p>
            <p> It’s time to start the real game! </p>","","instructions","","","","","","","","","","","","","",""
"learning-instructions","129","690441","0.0-4.0-0.0-0.0","pilot_wm_v1","null","8","null","null","false","","","","","","","671.2000000001863","<p> This time you are searching for treasure in the <b>ocean</b>.</p>","","instructions","","","","","","","","","","","","","",""
"learning-instructions","130","708472","0.0-4.0-0.0-0.1","pilot_wm_v1","null","8","null","null","false","","","","","","","762.3999999994412","<p><b>New</b> animals with <b>new</b> treasure chests live here. You need to explore to discover where the animal with the best treasure chest is.</p>
                    <p> Like before, once you figure out which animal has the chest with the most treasure, you should try to get to that animal and select that chest! </p>","","instructions","","","","","","","","","","","","","",""
"learning-instructions","131","723716","0.0-4.0-1.0-0.0","pilot_wm_v1","null","8","null","null","false","","","","","","","506.5","<p> Remember, when you see a picture of the place, use the up and down keys to <b>find an animal</b>.</p>
            <p> When you encounter an animal, you should use the left and right keys to <b>select a treasure chest</b>.</p>
            <p> Don't forget to look out for the robber! </p>","","instructions","","","","","","","","","","","","","",""
"revaluation","132","727736","0.0-4.0-2.0-0.0","pilot_wm_v1","null","8","null","null","false","","","false","","","","[596.0999999996275]","./assets/img/ocean/catch/3.jpg","[""spaceBar""]","value training","ocean","0","{""ArrowUp,ArrowLeft"":26,""ArrowUp,ArrowRight"":10,""ArrowDown,ArrowLeft"":5,""ArrowDown,ArrowRight"":17}","true","spaceBar","true","","","","","0","revaluation","1",""
"html-keyboard-response","133","728251","0.0-4.0-2.0-1.0","pilot_wm_v1","null","8","null","null","false","","","","","","","null","<div style=""font-size:60px;"">+</div>","null","fixation","","","","","","","","","","","1","","",""
"revaluation","134","734276","0.0-4.0-2.0-0.1","pilot_wm_v1","null","8","null","null","false","","","false","","","","[532.9000000003725,603.1000000005588]","./assets/img/ocean/memory/20.jpg","[""ArrowUp"",""ArrowRight""]","value training","ocean","10","{""ArrowUp,ArrowLeft"":26,""ArrowUp,ArrowRight"":10,""ArrowDown,ArrowLeft"":5,""ArrowDown,ArrowRight"":17}","false","ArrowUp,ArrowRight","false","","","","","2","revaluation","1",""
"html-keyboard-response","135","734781","0.0-4.0-2.0-1.1","pilot_wm_v1","null","8","null","null","false","","","","","","","null","<div style=""font-size:60px;"">+</div>","null","fixation","","","","","","","","","","","3","","",""
"revaluation","136","740819","0.0-4.0-2.0-0.2","pilot_wm_v1","null","8","null","null","false","","","false","","","","[467,282.20000000018626]","./assets/img/ocean/memory/13.jpg","[""ArrowUp"",""ArrowLeft""]","value training","ocean","26","{""ArrowUp,ArrowLeft"":26,""ArrowUp,ArrowRight"":10,""ArrowDown,ArrowLeft"":5,""ArrowDown,ArrowRight"":17}","true","ArrowUp,ArrowLeft","false","","","","","4","revaluation","1",""
"html-keyboard-response","137","741322","0.0-4.0-2.0-1.2","pilot_wm_v1","null","8","null","null","false","","","","","","","null","<div style=""font-size:60px;"">+</div>","null","fixation","","","","","","","","","","","5","","",""
"revaluation","138","747352","0.0-4.0-2.0-0.3","pilot_wm_v1","null","8","null","null","false","","","false","","","","[686.5,408.6000000005588]","./assets/img/ocean/memory/20.jpg","[""ArrowDown"",""ArrowLeft""]","value training","ocean","5","{""ArrowUp,ArrowLeft"":26,""ArrowUp,ArrowRight"":10,""ArrowDown,ArrowLeft"":5,""ArrowDown,ArrowRight"":17}","false","ArrowDown,ArrowLeft","false","","","","","6","revaluation","1",""
"html-keyboard-response","139","747867","0.0-4.0-2.0-1.3","pilot_wm_v1","null","8","null","null","false","","","","","","","null","<div style=""font-size:60px;"">+</div>","null","fixation","","","","","","","","","","","7","","",""
"revaluation","140","753890","0.0-4.0-2.0-0.4","pilot_wm_v1","null","8","null","null","false","","","false","","","","[653.0999999996275,285.59999999962747]","./assets/img/ocean/memory/41.jpg","[""ArrowDown"",""ArrowRight""]","value training","ocean","17","{""ArrowUp,ArrowLeft"":26,""ArrowUp,ArrowRight"":10,""ArrowDown,ArrowLeft"":5,""ArrowDown,ArrowRight"":17}","false","ArrowDown,ArrowRight","false","","","","","8","revaluation","1",""
"html-keyboard-response","141","754391","0.0-4.0-2.0-1.4","pilot_wm_v1","null","8","null","null","false","","","","","","","null","<div style=""font-size:60px;"">+</div>","null","fixation","","","","","","","","","","","9","","",""
"revaluation","142","760394","0.0-4.0-2.0-0.5","pilot_wm_v1","null","8","null","null","false","","","false","","","","[521,208.09999999962747]","./assets/img/ocean/memory/23.jpg","[""ArrowUp"",""ArrowLeft""]","value training","ocean","26","{""ArrowUp,ArrowLeft"":26,""ArrowUp,ArrowRight"":10,""ArrowDown,ArrowLeft"":5,""ArrowDown,ArrowRight"":17}","true","ArrowUp,ArrowLeft","false","","","","","10","revaluation","1",""
"html-keyboard-response","143","760896","0.0-4.0-2.0-1.5","pilot_wm_v1","null","8","null","null","false","","","","","","","null","<div style=""font-size:60px;"">+</div>","null","fixation","","","","","","","","","","","11","","",""
"revaluation","144","766899","0.0-4.0-2.0-0.6","pilot_wm_v1","null","8","null","null","false","","","false","","","","[576.3000000007451,271.69999999925494]","./assets/img/ocean/memory/35.jpg","[""ArrowUp"",""ArrowLeft""]","value training","ocean","26","{""ArrowUp,ArrowLeft"":26,""ArrowUp,ArrowRight"":10,""ArrowDown,ArrowLeft"":5,""ArrowDown,ArrowRight"":17}","true","ArrowUp,ArrowLeft","false","","","","","12","revaluation","1",""
"html-keyboard-response","145","767401","0.0-4.0-2.0-1.6","pilot_wm_v1","null","8","null","null","false","","","","","","","null","<div style=""font-size:60px;"">+</div>","null","fixation","","","","","","","","","","","13","","",""
"revaluation","146","773404","0.0-4.0-2.0-0.7","pilot_wm_v1","null","8","null","null","false","","","false","","","","[390.70000000018626,230.30000000074506]","./assets/img/ocean/memory/21.jpg","[""ArrowUp"",""ArrowLeft""]","value training","ocean","26","{""ArrowUp,ArrowLeft"":26,""ArrowUp,ArrowRight"":10,""ArrowDown,ArrowLeft"":5,""ArrowDown,ArrowRight"":17}","true","ArrowUp,ArrowLeft","false","","","","","14","revaluation","1",""
"html-keyboard-response","147","773905","0.0-4.0-2.0-1.7","pilot_wm_v1","null","8","null","null","false","","","","","","","null","<div style=""font-size:60px;"">+</div>","null","fixation","","","","","","","","","","","15","","",""
"revaluation","148","779909","0.0-4.0-2.0-0.8","pilot_wm_v1","null","8","null","null","false","","","false","","","","[551.1000000005588,253.29999999981374]","./assets/img/ocean/memory/31.jpg","[""ArrowUp"",""ArrowLeft""]","value training","ocean","26","{""ArrowUp,ArrowLeft"":26,""ArrowUp,ArrowRight"":10,""ArrowDown,ArrowLeft"":5,""ArrowDown,ArrowRight"":17}","true","ArrowUp,ArrowLeft","false","","","","","16","revaluation","1",""
"html-keyboard-response","149","780410","0.0-4.0-2.0-1.8","pilot_wm_v1","null","8","null","null","false","","","","","","","null","<div style=""font-size:60px;"">+</div>","null","fixation","","","","","","","","","","","17","","",""
"revaluation","150","786415","0.0-4.0-2.0-0.9","pilot_wm_v1","null","8","null","null","false","","","false","","","","[485.59999999962747,292.20000000018626]","./assets/img/ocean/memory/26.jpg","[""ArrowUp"",""ArrowLeft""]","value training","ocean","26","{""ArrowUp,ArrowLeft"":26,""ArrowUp,ArrowRight"":10,""ArrowDown,ArrowLeft"":5,""ArrowDown,ArrowRight"":17}","true","ArrowUp,ArrowLeft","false","","","","","18","revaluation","1",""
"html-keyboard-response","151","786916","0.0-4.0-2.0-1.9","pilot_wm_v1","null","8","null","null","false","","","","","","","null","<div style=""font-size:60px;"">+</div>","null","fixation","","","","","","","","","","","19","","",""
"revaluation","152","792919","0.0-4.0-2.0-0.10","pilot_wm_v1","null","8","null","null","false","","","false","","","","[468.09999999962747,226.6000000005588]","./assets/img/ocean/memory/16.jpg","[""ArrowUp"",""ArrowLeft""]","value training","ocean","26","{""ArrowUp,ArrowLeft"":26,""ArrowUp,ArrowRight"":10,""ArrowDown,ArrowLeft"":5,""ArrowDown,ArrowRight"":17}","true","ArrowUp,ArrowLeft","false","","","","","20","revaluation","1",""
"html-keyboard-response","153","793420","0.0-4.0-2.0-1.10","pilot_wm_v1","null","8","null","null","false","","","","","","","null","<div style=""font-size:60px;"">+</div>","null","fixation","","","","","","","","","","","21","","",""
"revaluation","154","799424","0.0-4.0-2.0-0.11","pilot_wm_v1","null","8","null","null","false","","","false","","","","[652,227]","./assets/img/ocean/memory/35.jpg","[""ArrowUp"",""ArrowLeft""]","value training","ocean","26","{""ArrowUp,ArrowLeft"":26,""ArrowUp,ArrowRight"":10,""ArrowDown,ArrowLeft"":5,""ArrowDown,ArrowRight"":17}","true","ArrowUp,ArrowLeft","false","","","","","22","revaluation","1",""
"html-keyboard-response","155","799925","0.0-4.0-2.0-1.11","pilot_wm_v1","null","8","null","null","false","","","","","","","null","<div style=""font-size:60px;"">+</div>","null","fixation","","","","","","","","","","","23","","",""
"revaluation","156","805930","0.0-4.0-2.0-0.12","pilot_wm_v1","null","8","null","null","false","","","false","","","","[410.5,177.79999999981374]","./assets/img/ocean/memory/33.jpg","[""ArrowUp"",""ArrowLeft""]","value training","ocean","26","{""ArrowUp,ArrowLeft"":26,""ArrowUp,ArrowRight"":10,""ArrowDown,ArrowLeft"":5,""ArrowDown,ArrowRight"":17}","true","ArrowUp,ArrowLeft","false","","","","","24","revaluation","1",""
"html-keyboard-response","157","806431","0.0-4.0-2.0-1.12","pilot_wm_v1","null","8","null","null","false","","","","","","","null","<div style=""font-size:60px;"">+</div>","null","fixation","","","","","","","","","","","25","","",""
"revaluation","158","812434","0.0-4.0-2.0-0.13","pilot_wm_v1","null","8","null","null","false","","","false","","","","[408.59999999962747,271.69999999925494]","./assets/img/ocean/memory/8.jpg","[""ArrowUp"",""ArrowLeft""]","value training","ocean","26","{""ArrowUp,ArrowLeft"":26,""ArrowUp,ArrowRight"":10,""ArrowDown,ArrowLeft"":5,""ArrowDown,ArrowRight"":17}","true","ArrowUp,ArrowLeft","false","","","","","26","revaluation","1",""
"html-keyboard-response","159","812936","0.0-4.0-2.0-1.13","pilot_wm_v1","null","8","null","null","false","","","","","","","null","<div style=""font-size:60px;"">+</div>","null","fixation","","","","","","","","","","","27","","",""
"revaluation","160","818939","0.0-4.0-2.0-0.14","pilot_wm_v1","null","8","null","null","false","","","false","","","","[415.20000000018626,255.09999999962747]","./assets/img/ocean/memory/8.jpg","[""ArrowUp"",""ArrowLeft""]","value training","ocean","26","{""ArrowUp,ArrowLeft"":26,""ArrowUp,ArrowRight"":10,""ArrowDown,ArrowLeft"":5,""ArrowDown,ArrowRight"":17}","true","ArrowUp,ArrowLeft","false","","","","","28","revaluation","1",""
"html-keyboard-response","161","819440","0.0-4.0-2.0-1.14","pilot_wm_v1","null","8","null","null","false","","","","","","","null","<div style=""font-size:60px;"">+</div>","null","fixation","","","","","","","","","","","29","","",""
"revaluation","162","823443","0.0-4.0-2.0-0.15","pilot_wm_v1","null","8","null","null","false","","","false","","","","[567.9000000003725]","./assets/img/ocean/catch/5.jpg","[""ArrowUp""]","value training","ocean","-10","{""ArrowUp,ArrowLeft"":26,""ArrowUp,ArrowRight"":10,""ArrowDown,ArrowLeft"":5,""ArrowDown,ArrowRight"":17}","false","ArrowUp","true","","","","","30","revaluation","1",""
"html-keyboard-response","163","823944","0.0-4.0-2.0-1.15","pilot_wm_v1","null","8","null","null","false","","","","","","","null","<div style=""font-size:60px;"">+</div>","null","fixation","","","","","","","","","","","31","","",""
"revaluation","164","829948","0.0-4.0-2.0-0.16","pilot_wm_v1","null","8","null","null","false","","","false","","","","[678.9000000003725,214.59999999962747]","./assets/img/ocean/memory/27.jpg","[""ArrowUp"",""ArrowLeft""]","value training","ocean","26","{""ArrowUp,ArrowLeft"":26,""ArrowUp,ArrowRight"":10,""ArrowDown,ArrowLeft"":5,""ArrowDown,ArrowRight"":17}","true","ArrowUp,ArrowLeft","false","","","","","32","revaluation","1",""
"html-keyboard-response","165","830449","0.0-4.0-2.0-1.16","pilot_wm_v1","null","8","null","null","false","","","","","","","null","<div style=""font-size:60px;"">+</div>","null","fixation","","","","","","","","","","","33","","",""
"revaluation","166","836453","0.0-4.0-2.0-0.17","pilot_wm_v1","null","8","null","null","false","","","false","","","","[533.7000000001863,365]","./assets/img/ocean/memory/4.jpg","[""ArrowUp"",""ArrowLeft""]","value training","ocean","26","{""ArrowUp,ArrowLeft"":26,""ArrowUp,ArrowRight"":10,""ArrowDown,ArrowLeft"":5,""ArrowDown,ArrowRight"":17}","true","ArrowUp,ArrowLeft","false","","","","","34","revaluation","1",""
"html-keyboard-response","167","836954","0.0-4.0-2.0-1.17","pilot_wm_v1","null","8","null","null","false","","","","","","","null","<div style=""font-size:60px;"">+</div>","null","fixation","","","","","","","","","","","35","","",""
"revaluation","168","840956","0.0-4.0-2.0-0.18","pilot_wm_v1","null","8","null","null","false","","","false","","","","[685.2000000001863]","./assets/img/ocean/catch/0.jpg","[""spaceBar""]","value training","ocean","0","{""ArrowUp,ArrowLeft"":26,""ArrowUp,ArrowRight"":10,""ArrowDown,ArrowLeft"":5,""ArrowDown,ArrowRight"":17}","true","spaceBar","true","","","","","36","revaluation","1",""
"html-keyboard-response","169","841457","0.0-4.0-2.0-1.18","pilot_wm_v1","null","8","null","null","false","","","","","","","null","<div style=""font-size:60px;"">+</div>","null","fixation","","","","","","","","","","","37","","",""
"revaluation","170","847462","0.0-4.0-2.0-0.19","pilot_wm_v1","null","8","null","null","false","","","false","","","","[597.4000000003725,219.90000000037253]","./assets/img/ocean/memory/4.jpg","[""ArrowUp"",""ArrowLeft""]","value training","ocean","26","{""ArrowUp,ArrowLeft"":26,""ArrowUp,ArrowRight"":10,""ArrowDown,ArrowLeft"":5,""ArrowDown,ArrowRight"":17}","true","ArrowUp,ArrowLeft","false","","","","","38","revaluation","1",""
"html-keyboard-response","171","847964","0.0-4.0-2.0-1.19","pilot_wm_v1","null","8","null","null","false","","","","","","","null","<div style=""font-size:60px;"">+</div>","null","fixation","","","","","","","","","","","39","","",""
"revaluation","172","853967","0.0-4.0-2.0-0.20","pilot_wm_v1","null","8","null","null","false","","","false","","","","[459.09999999962747,42.200000000186265]","./assets/img/ocean/memory/3.jpg","[""ArrowUp"",""ArrowLeft""]","value training","ocean","26","{""ArrowUp,ArrowLeft"":26,""ArrowUp,ArrowRight"":10,""ArrowDown,ArrowLeft"":5,""ArrowDown,ArrowRight"":17}","true","ArrowUp,ArrowLeft","false","","","","","40","revaluation","1",""
"html-keyboard-response","173","854468","0.0-4.0-2.0-1.20","pilot_wm_v1","null","8","null","null","false","","","","","","","null","<div style=""font-size:60px;"">+</div>","null","fixation","","","","","","","","","","","41","","",""
"revaluation","174","860473","0.0-4.0-2.0-0.21","pilot_wm_v1","null","8","null","null","false","","","false","","","","[562.5,113.09999999962747]","./assets/img/ocean/memory/1.jpg","[""ArrowUp"",""ArrowLeft""]","value training","ocean","26","{""ArrowUp,ArrowLeft"":26,""ArrowUp,ArrowRight"":10,""ArrowDown,ArrowLeft"":5,""ArrowDown,ArrowRight"":17}","true","ArrowUp,ArrowLeft","false","","","","","42","revaluation","1",""
"html-keyboard-response","175","860974","0.0-4.0-2.0-1.21","pilot_wm_v1","null","8","null","null","false","","","","","","","null","<div style=""font-size:60px;"">+</div>","null","fixation","","","","","","","","","","","43","","",""
"revaluation","176","866977","0.0-4.0-2.0-0.22","pilot_wm_v1","null","8","null","null","false","","","false","","","","[385,112]","./assets/img/ocean/memory/13.jpg","[""ArrowUp"",""ArrowLeft""]","value training","ocean","26","{""ArrowUp,ArrowLeft"":26,""ArrowUp,ArrowRight"":10,""ArrowDown,ArrowLeft"":5,""ArrowDown,ArrowRight"":17}","true","ArrowUp,ArrowLeft","false","","","","","44","revaluation","1",""
"html-keyboard-response","177","867478","0.0-4.0-2.0-1.22","pilot_wm_v1","null","8","null","null","false","","","","","","","null","<div style=""font-size:60px;"">+</div>","null","fixation","","","","","","","","","","","45","","",""
"revaluation","178","873483","0.0-4.0-2.0-0.23","pilot_wm_v1","null","8","null","null","false","","","false","","","","[352.79999999981374,167.20000000018626]","./assets/img/ocean/memory/27.jpg","[""ArrowUp"",""ArrowLeft""]","value training","ocean","26","{""ArrowUp,ArrowLeft"":26,""ArrowUp,ArrowRight"":10,""ArrowDown,ArrowLeft"":5,""ArrowDown,ArrowRight"":17}","true","ArrowUp,ArrowLeft","false","","","","","46","revaluation","1",""
"html-keyboard-response","179","873983","0.0-4.0-2.0-1.23","pilot_wm_v1","null","8","null","null","false","","","","","","","null","<div style=""font-size:60px;"">+</div>","null","fixation","","","","","","","","","","","47","","",""
"revaluation","180","877986","0.0-4.0-2.0-0.24","pilot_wm_v1","null","8","null","null","false","","","false","","","","[471.09999999962747]","./assets/img/ocean/catch/6.jpg","[""spaceBar""]","value training","ocean","0","{""ArrowUp,ArrowLeft"":26,""ArrowUp,ArrowRight"":10,""ArrowDown,ArrowLeft"":5,""ArrowDown,ArrowRight"":17}","true","spaceBar","true","","","","","48","revaluation","1",""
"html-keyboard-response","181","878487","0.0-4.0-2.0-1.24","pilot_wm_v1","null","8","null","null","false","","","","","","","null","<div style=""font-size:60px;"">+</div>","null","fixation","","","","","","","","","","","49","","",""
"revaluation","182","884491","0.0-4.0-2.0-0.25","pilot_wm_v1","null","8","null","null","false","","","false","","","","[823.3000000007451,286.5]","./assets/img/ocean/memory/24.jpg","[""ArrowUp"",""ArrowLeft""]","value training","ocean","26","{""ArrowUp,ArrowLeft"":26,""ArrowUp,ArrowRight"":10,""ArrowDown,ArrowLeft"":5,""ArrowDown,ArrowRight"":17}","true","ArrowUp,ArrowLeft","false","","","","","50","revaluation","1",""
"html-keyboard-response","183","884992","0.0-4.0-2.0-1.25","pilot_wm_v1","null","8","null","null","false","","","","","","","null","<div style=""font-size:60px;"">+</div>","null","fixation","","","","","","","","","","","51","","",""
"revaluation","184","890995","0.0-4.0-2.0-0.26","pilot_wm_v1","null","8","null","null","false","","","false","","","","[470.5,326.20000000018626]","./assets/img/ocean/memory/7.jpg","[""ArrowUp"",""ArrowLeft""]","value training","ocean","26","{""ArrowUp,ArrowLeft"":26,""ArrowUp,ArrowRight"":10,""ArrowDown,ArrowLeft"":5,""ArrowDown,ArrowRight"":17}","true","ArrowUp,ArrowLeft","false","","","","","52","revaluation","1",""
"html-keyboard-response","185","891495","0.0-4.0-2.0-1.26","pilot_wm_v1","null","8","null","null","false","","","","","","","null","<div style=""font-size:60px;"">+</div>","null","fixation","","","","","","","","","","","53","","",""
"revaluation","186","897499","0.0-4.0-2.0-0.27","pilot_wm_v1","null","8","null","null","false","","","false","","","","[479.09999999962747,429.40000000037253]","./assets/img/ocean/memory/1.jpg","[""ArrowUp"",""ArrowLeft""]","value training","ocean","26","{""ArrowUp,ArrowLeft"":26,""ArrowUp,ArrowRight"":10,""ArrowDown,ArrowLeft"":5,""ArrowDown,ArrowRight"":17}","true","ArrowUp,ArrowLeft","false","","","","","54","revaluation","1",""
"html-keyboard-response","187","898000","0.0-4.0-2.0-1.27","pilot_wm_v1","null","8","null","null","false","","","","","","","null","<div style=""font-size:60px;"">+</div>","null","fixation","","","","","","","","","","","55","","",""
"revaluation","188","904003","0.0-4.0-2.0-0.28","pilot_wm_v1","null","8","null","null","false","","","false","","","","[541.8000000007451,245.5]","./assets/img/ocean/memory/6.jpg","[""ArrowUp"",""ArrowLeft""]","value training","ocean","26","{""ArrowUp,ArrowLeft"":26,""ArrowUp,ArrowRight"":10,""ArrowDown,ArrowLeft"":5,""ArrowDown,ArrowRight"":17}","true","ArrowUp,ArrowLeft","false","","","","","56","revaluation","1",""
"html-keyboard-response","189","904504","0.0-4.0-2.0-1.28","pilot_wm_v1","null","8","null","null","false","","","","","","","null","<div style=""font-size:60px;"">+</div>","null","fixation","","","","","","","","","","","57","","",""
"revaluation","190","910508","0.0-4.0-2.0-0.29","pilot_wm_v1","null","8","null","null","false","","","false","","","","[421.90000000037253,245.20000000018626]","./assets/img/ocean/memory/16.jpg","[""ArrowUp"",""ArrowLeft""]","value training","ocean","26","{""ArrowUp,ArrowLeft"":26,""ArrowUp,ArrowRight"":10,""ArrowDown,ArrowLeft"":5,""ArrowDown,ArrowRight"":17}","true","ArrowUp,ArrowLeft","false","","","","","58","revaluation","1",""
"html-keyboard-response","191","911009","0.0-4.0-2.0-1.29","pilot_wm_v1","null","8","null","null","false","","","","","","","null","<div style=""font-size:60px;"">+</div>","null","fixation","","","","","","","","","","","59","","",""
"revaluation","192","915012","0.0-4.0-2.0-0.30","pilot_wm_v1","null","8","null","null","false","","","false","","","","[684.5999999996275]","./assets/img/ocean/catch/4.jpg","[""spaceBar""]","value training","ocean","0","{""ArrowUp,ArrowLeft"":26,""ArrowUp,ArrowRight"":10,""ArrowDown,ArrowLeft"":5,""ArrowDown,ArrowRight"":17}","true","spaceBar","true","","","","","60","revaluation","1",""
"html-keyboard-response","193","915512","0.0-4.0-2.0-1.30","pilot_wm_v1","null","8","null","null","false","","","","","","","null","<div style=""font-size:60px;"">+</div>","null","fixation","","","","","","","","","","","61","","",""
"revaluation","194","921516","0.0-4.0-2.0-0.31","pilot_wm_v1","null","8","null","null","false","","","false","","","","[613.3999999994412,228.90000000037253]","./assets/img/ocean/memory/31.jpg","[""ArrowUp"",""ArrowLeft""]","value training","ocean","26","{""ArrowUp,ArrowLeft"":26,""ArrowUp,ArrowRight"":10,""ArrowDown,ArrowLeft"":5,""ArrowDown,ArrowRight"":17}","true","ArrowUp,ArrowLeft","false","","","","","62","revaluation","1",""
"html-keyboard-response","195","922018","0.0-4.0-2.0-1.31","pilot_wm_v1","null","8","null","null","false","","","","","","","null","<div style=""font-size:60px;"">+</div>","null","fixation","","","","","","","","","","","63","","",""
"revaluation","196","928021","0.0-4.0-2.0-0.32","pilot_wm_v1","null","8","null","null","false","","","false","","","","[499.79999999981374,251.40000000037253]","./assets/img/ocean/memory/3.jpg","[""ArrowUp"",""ArrowLeft""]","value training","ocean","26","{""ArrowUp,ArrowLeft"":26,""ArrowUp,ArrowRight"":10,""ArrowDown,ArrowLeft"":5,""ArrowDown,ArrowRight"":17}","true","ArrowUp,ArrowLeft","false","","","","","64","revaluation","1",""
"html-keyboard-response","197","928522","0.0-4.0-2.0-1.32","pilot_wm_v1","null","8","null","null","false","","","","","","","null","<div style=""font-size:60px;"">+</div>","null","fixation","","","","","","","","","","","65","","",""
"revaluation","198","934526","0.0-4.0-2.0-0.33","pilot_wm_v1","null","8","null","null","false","","","false","","","","[427.6000000005588,170.29999999981374]","./assets/img/ocean/memory/41.jpg","[""ArrowUp"",""ArrowLeft""]","value training","ocean","26","{""ArrowUp,ArrowLeft"":26,""ArrowUp,ArrowRight"":10,""ArrowDown,ArrowLeft"":5,""ArrowDown,ArrowRight"":17}","true","ArrowUp,ArrowLeft","false","","","","","66","revaluation","1",""
"html-keyboard-response","199","935027","0.0-4.0-2.0-1.33","pilot_wm_v1","null","8","null","null","false","","","","","","","null","<div style=""font-size:60px;"">+</div>","null","fixation","","","","","","","","","","","67","","",""
"revaluation","200","941030","0.0-4.0-2.0-0.34","pilot_wm_v1","null","8","null","null","false","","","false","","","","[402.6000000005588,218.1000000005588]","./assets/img/ocean/memory/26.jpg","[""ArrowUp"",""ArrowLeft""]","value training","ocean","26","{""ArrowUp,ArrowLeft"":26,""ArrowUp,ArrowRight"":10,""ArrowDown,ArrowLeft"":5,""ArrowDown,ArrowRight"":17}","true","ArrowUp,ArrowLeft","false","","","","","68","revaluation","1",""
"html-keyboard-response","201","941531","0.0-4.0-2.0-1.34","pilot_wm_v1","null","8","null","null","false","","","","","","","null","<div style=""font-size:60px;"">+</div>","null","fixation","","","","","","","","","","","69","","",""
"revaluation","202","945534","0.0-4.0-2.0-0.35","pilot_wm_v1","null","8","null","null","false","","","false","","","","[554.3000000007451]","./assets/img/ocean/catch/1.jpg","[""spaceBar""]","value training","ocean","0","{""ArrowUp,ArrowLeft"":26,""ArrowUp,ArrowRight"":10,""ArrowDown,ArrowLeft"":5,""ArrowDown,ArrowRight"":17}","true","spaceBar","true","","","","","70","revaluation","1",""
"html-keyboard-response","203","946035","0.0-4.0-2.0-1.35","pilot_wm_v1","null","8","null","null","false","","","","","","","null","<div style=""font-size:60px;"">+</div>","null","fixation","","","","","","","","","","","71","","",""
"revaluation","204","952038","0.0-4.0-2.0-0.36","pilot_wm_v1","null","8","null","null","false","","","false","","","","[466.09999999962747,225.5]","./assets/img/ocean/memory/34.jpg","[""ArrowUp"",""ArrowLeft""]","value training","ocean","26","{""ArrowUp,ArrowLeft"":26,""ArrowUp,ArrowRight"":10,""ArrowDown,ArrowLeft"":5,""ArrowDown,ArrowRight"":17}","true","ArrowUp,ArrowLeft","false","","","","","72","revaluation","1",""
"html-keyboard-response","205","952539","0.0-4.0-2.0-1.36","pilot_wm_v1","null","8","null","null","false","","","","","","","null","<div style=""font-size:60px;"">+</div>","null","fixation","","","","","","","","","","","73","","",""
"revaluation","206","958542","0.0-4.0-2.0-0.37","pilot_wm_v1","null","8","null","null","false","","","false","","","","[1442.0999999996275,409.3999999994412]","./assets/img/ocean/memory/7.jpg","[""ArrowUp"",""ArrowLeft""]","value training","ocean","26","{""ArrowUp,ArrowLeft"":26,""ArrowUp,ArrowRight"":10,""ArrowDown,ArrowLeft"":5,""ArrowDown,ArrowRight"":17}","true","ArrowUp,ArrowLeft","false","","","","","74","revaluation","1",""
"html-keyboard-response","207","959044","0.0-4.0-2.0-1.37","pilot_wm_v1","null","8","null","null","false","","","","","","","null","<div style=""font-size:60px;"">+</div>","null","fixation","","","","","","","","","","","75","","",""
"revaluation","208","963046","0.0-4.0-2.0-0.38","pilot_wm_v1","null","8","null","null","false","","","false","","","","[577.2999999998137]","./assets/img/ocean/catch/7.jpg","[""spaceBar""]","value training","ocean","0","{""ArrowUp,ArrowLeft"":26,""ArrowUp,ArrowRight"":10,""ArrowDown,ArrowLeft"":5,""ArrowDown,ArrowRight"":17}","true","spaceBar","true","","","","","76","revaluation","1",""
"html-keyboard-response","209","963547","0.0-4.0-2.0-1.38","pilot_wm_v1","null","8","null","null","false","","","","","","","null","<div style=""font-size:60px;"">+</div>","null","fixation","","","","","","","","","","","77","","",""
"revaluation","210","969551","0.0-4.0-2.0-0.39","pilot_wm_v1","null","8","null","null","false","","","false","","","","[594.1999999992549,208.5]","./assets/img/ocean/memory/21.jpg","[""ArrowUp"",""ArrowLeft""]","value training","ocean","26","{""ArrowUp,ArrowLeft"":26,""ArrowUp,ArrowRight"":10,""ArrowDown,ArrowLeft"":5,""ArrowDown,ArrowRight"":17}","true","ArrowUp,ArrowLeft","false","","","","","78","revaluation","1",""
"html-keyboard-response","211","970052","0.0-4.0-2.0-1.39","pilot_wm_v1","null","8","null","null","false","","","","","","","null","<div style=""font-size:60px;"">+</div>","null","fixation","","","","","","","","","","","79","","",""
"revaluation","212","976056","0.0-4.0-2.0-0.40","pilot_wm_v1","null","8","null","null","false","","","false","","","","[400.30000000074506,208]","./assets/img/ocean/memory/6.jpg","[""ArrowUp"",""ArrowLeft""]","value training","ocean","26","{""ArrowUp,ArrowLeft"":26,""ArrowUp,ArrowRight"":10,""ArrowDown,ArrowLeft"":5,""ArrowDown,ArrowRight"":17}","true","ArrowUp,ArrowLeft","false","","","","","80","revaluation","1",""
"html-keyboard-response","213","976565","0.0-4.0-2.0-1.40","pilot_wm_v1","null","8","null","null","false","","","","","","","null","<div style=""font-size:60px;"">+</div>","null","fixation","","","","","","","","","","","81","","",""
"revaluation","214","982568","0.0-4.0-2.0-0.41","pilot_wm_v1","null","8","null","null","false","","","false","","","","[384.20000000018626,270.90000000037253]","./assets/img/ocean/memory/14.jpg","[""ArrowUp"",""ArrowLeft""]","value training","ocean","26","{""ArrowUp,ArrowLeft"":26,""ArrowUp,ArrowRight"":10,""ArrowDown,ArrowLeft"":5,""ArrowDown,ArrowRight"":17}","true","ArrowUp,ArrowLeft","false","","","","","82","revaluation","1",""
"html-keyboard-response","215","983070","0.0-4.0-2.0-1.41","pilot_wm_v1","null","8","null","null","false","","","","","","","null","<div style=""font-size:60px;"">+</div>","null","fixation","","","","","","","","","","","83","","",""
"revaluation","216","989074","0.0-4.0-2.0-0.42","pilot_wm_v1","null","8","null","null","false","","","false","","","","[590.8000000007451,236.40000000037253]","./assets/img/ocean/memory/33.jpg","[""ArrowUp"",""ArrowLeft""]","value training","ocean","26","{""ArrowUp,ArrowLeft"":26,""ArrowUp,ArrowRight"":10,""ArrowDown,ArrowLeft"":5,""ArrowDown,ArrowRight"":17}","true","ArrowUp,ArrowLeft","false","","","","","84","revaluation","1",""
"html-keyboard-response","217","989575","0.0-4.0-2.0-1.42","pilot_wm_v1","null","8","null","null","false","","","","","","","null","<div style=""font-size:60px;"">+</div>","null","fixation","","","","","","","","","","","85","","",""
"revaluation","218","995581","0.0-4.0-2.0-0.43","pilot_wm_v1","null","8","null","null","false","","","false","","","","[1085.4000000003725,755.4000000003725]","./assets/img/ocean/memory/24.jpg","[""ArrowUp"",""ArrowLeft""]","value training","ocean","26","{""ArrowUp,ArrowLeft"":26,""ArrowUp,ArrowRight"":10,""ArrowDown,ArrowLeft"":5,""ArrowDown,ArrowRight"":17}","true","ArrowUp,ArrowLeft","false","","","","","86","revaluation","1",""
"html-keyboard-response","219","996082","0.0-4.0-2.0-1.43","pilot_wm_v1","null","8","null","null","false","","","","","","","null","<div style=""font-size:60px;"">+</div>","null","fixation","","","","","","","","","","","87","","",""
"revaluation","220","1002085","0.0-4.0-2.0-0.44","pilot_wm_v1","null","8","null","null","false","","","false","","","","[594.0999999996275,177.79999999981374]","./assets/img/ocean/memory/14.jpg","[""ArrowUp"",""ArrowLeft""]","value training","ocean","26","{""ArrowUp,ArrowLeft"":26,""ArrowUp,ArrowRight"":10,""ArrowDown,ArrowLeft"":5,""ArrowDown,ArrowRight"":17}","true","ArrowUp,ArrowLeft","false","","","","","88","revaluation","1",""
"html-keyboard-response","221","1002586","0.0-4.0-2.0-1.44","pilot_wm_v1","null","8","null","null","false","","","","","","","null","<div style=""font-size:60px;"">+</div>","null","fixation","","","","","","","","","","","89","","",""
"revaluation","222","1008590","0.0-4.0-2.0-0.45","pilot_wm_v1","null","8","null","null","false","","","false","","","","[458.3999999994412,257.8999999994412]","./assets/img/ocean/memory/29.jpg","[""ArrowUp"",""ArrowLeft""]","value training","ocean","26","{""ArrowUp,ArrowLeft"":26,""ArrowUp,ArrowRight"":10,""ArrowDown,ArrowLeft"":5,""ArrowDown,ArrowRight"":17}","true","ArrowUp,ArrowLeft","false","","","","","90","revaluation","1",""
"html-keyboard-response","223","1009091","0.0-4.0-2.0-1.45","pilot_wm_v1","null","8","null","null","false","","","","","","","null","<div style=""font-size:60px;"">+</div>","null","fixation","","","","","","","","","","","91","","",""
"revaluation","224","1013094","0.0-4.0-2.0-0.46","pilot_wm_v1","null","8","null","null","false","","","false","","","","[633.3000000007451]","./assets/img/ocean/catch/2.jpg","[""spaceBar""]","value training","ocean","0","{""ArrowUp,ArrowLeft"":26,""ArrowUp,ArrowRight"":10,""ArrowDown,ArrowLeft"":5,""ArrowDown,ArrowRight"":17}","true","spaceBar","true","","","","","92","revaluation","1",""
"html-keyboard-response","225","1013595","0.0-4.0-2.0-1.46","pilot_wm_v1","null","8","null","null","false","","","","","","","null","<div style=""font-size:60px;"">+</div>","null","fixation","","","","","","","","","","","93","","",""
"revaluation","226","1019600","0.0-4.0-2.0-0.47","pilot_wm_v1","null","8","null","null","false","","","false","","","","[609.6000000005588,527.9000000003725]","./assets/img/ocean/memory/23.jpg","[""ArrowUp"",""ArrowLeft""]","value training","ocean","26","{""ArrowUp,ArrowLeft"":26,""ArrowUp,ArrowRight"":10,""ArrowDown,ArrowLeft"":5,""ArrowDown,ArrowRight"":17}","true","ArrowUp,ArrowLeft","false","","","","","94","revaluation","1",""
"html-keyboard-response","227","1020101","0.0-4.0-2.0-1.47","pilot_wm_v1","null","8","null","null","false","","","","","","","null","<div style=""font-size:60px;"">+</div>","null","fixation","","","","","","","","","","","95","","",""
"revaluation","228","1026105","0.0-4.0-2.0-0.48","pilot_wm_v1","null","8","null","null","false","","","false","","","","[446.90000000037253,221.6000000005588]","./assets/img/ocean/memory/34.jpg","[""ArrowUp"",""ArrowLeft""]","value training","ocean","26","{""ArrowUp,ArrowLeft"":26,""ArrowUp,ArrowRight"":10,""ArrowDown,ArrowLeft"":5,""ArrowDown,ArrowRight"":17}","true","ArrowUp,ArrowLeft","false","","","","","96","revaluation","1",""
"html-keyboard-response","229","1026606","0.0-4.0-2.0-1.48","pilot_wm_v1","null","8","null","null","false","","","","","","","null","<div style=""font-size:60px;"">+</div>","null","fixation","","","","","","","","","","","97","","",""
"revaluation","230","1032610","0.0-4.0-2.0-0.49","pilot_wm_v1","null","8","null","null","false","","","false","","","","[358.19999999925494,229]","./assets/img/ocean/memory/29.jpg","[""ArrowUp"",""ArrowLeft""]","value training","ocean","26","{""ArrowUp,ArrowLeft"":26,""ArrowUp,ArrowRight"":10,""ArrowDown,ArrowLeft"":5,""ArrowDown,ArrowRight"":17}","true","ArrowUp,ArrowLeft","false","","","","","98","revaluation","1",""
"html-keyboard-response","231","1033111","0.0-4.0-2.0-1.49","pilot_wm_v1","null","8","null","null","false","","","","","","","null","<div style=""font-size:60px;"">+</div>","null","fixation","","","","","","","","","","","99","","",""
"learning-instructions","232","1049107","0.0-4.0-3.0-0.0","pilot_wm_v1","null","8","null","null","false","","","","","","","3102.7999999998137","<p> Now, you will travel with a friend who will choose whether you go up or down first. </p>
            <p> On these turns, you will just see the animal that they found. You will still get to choose which chest to search for treasure.</p>","","instructions","","","","","","","","","","","","","",""
"learning-instructions","233","1061328","0.0-4.0-3.0-0.1","pilot_wm_v1","null","8","null","null","false","","","","","","","614","<p> In this part, you will also hear beeps from your friend and see special treasure chests that need a password. </p>
            <p> Do your best to count the high beeps <b>and</b> choose between each animals' chests at the same time.</p>
            <img src='./assets/img/instructions/beep_chest.jpg' class='instructions-image'>","","instructions","","","","","","","","","","","","","",""
"revaluation","234","1065344","0.0-4.0-4.0-0.0","pilot_wm_v1","null","8","null","null","false","","","false","","","","[811.8000000007451]","./assets/img/ocean/animals/octopus.jpg","[""ArrowLeft""]","revaluation","ocean","2","{""ArrowUp,ArrowLeft"":2,""ArrowUp,ArrowRight"":11,""ArrowDown,ArrowLeft"":8,""ArrowDown,ArrowRight"":27}","false","ArrowUp,ArrowLeft","","5_4","","","","0","revaluation","1",""
"html-keyboard-response","235","1065858","0.0-4.0-4.0-1.0","pilot_wm_v1","null","8","null","null","false","","","","","","","null","<div style=""font-size:60px;"">+</div>","null","fixation","","","","","","","","","","","","","",""
"revaluation","236","1069875","0.0-4.0-4.0-0.1","pilot_wm_v1","null","8","null","null","false","","","false","","","","[1272.9000000003725]","./assets/img/ocean/animals/octopus.jpg","[""ArrowRight""]","revaluation","ocean","11","{""ArrowUp,ArrowLeft"":2,""ArrowUp,ArrowRight"":11,""ArrowDown,ArrowLeft"":8,""ArrowDown,ArrowRight"":27}","true","ArrowUp,ArrowRight","","2_1","","","","1","revaluation","1",""
"html-keyboard-response","237","1070390","0.0-4.0-4.0-1.1","pilot_wm_v1","null","8","null","null","false","","","","","","","null","<div style=""font-size:60px;"">+</div>","null","fixation","","","","","","","","","","","","","",""
"revaluation","238","1074407","0.0-4.0-4.0-0.2","pilot_wm_v1","null","8","null","null","false","","","false","","","","[1045.7000000001863]","./assets/img/ocean/animals/seahorse.jpg","[""ArrowLeft""]","revaluation","ocean","8","{""ArrowUp,ArrowLeft"":2,""ArrowUp,ArrowRight"":11,""ArrowDown,ArrowLeft"":8,""ArrowDown,ArrowRight"":27}","false","ArrowDown,ArrowLeft","","12_2","","","","2","revaluation","1",""
"html-keyboard-response","239","1074910","0.0-4.0-4.0-1.2","pilot_wm_v1","null","8","null","null","false","","","","","","","null","<div style=""font-size:60px;"">+</div>","null","fixation","","","","","","","","","","","","","",""
"revaluation","240","1078915","0.0-4.0-4.0-0.3","pilot_wm_v1","null","8","null","null","false","","","false","","","","[357.5]","./assets/img/ocean/animals/seahorse.jpg","[""ArrowRight""]","revaluation","ocean","27","{""ArrowUp,ArrowLeft"":2,""ArrowUp,ArrowRight"":11,""ArrowDown,ArrowLeft"":8,""ArrowDown,ArrowRight"":27}","true","ArrowDown,ArrowRight","","18_0","","","","3","revaluation","1",""
"html-keyboard-response","241","1079417","0.0-4.0-4.0-1.3","pilot_wm_v1","null","8","null","null","false","","","","","","","null","<div style=""font-size:60px;"">+</div>","null","fixation","","","","","","","","","","","","","",""
"html-slider-response","242","1082181","0.0-4.0-4.0-2.3-0.3","pilot_wm_v1","null","8","null","null","false","","","","","","","2764","<div style=""width:500px;"">
        <p>What is the password?</p>
        <img src='./assets/img/instructions/beep_chest.jpg' class='instructions-image'>","6","","","","","false","","","","50","7","1","","","",""
"revaluation","243","1086194","0.0-4.0-4.0-0.4","pilot_wm_v1","null","8","null","null","false","","","false","","","","[1150.7000000001863]","./assets/img/ocean/animals/octopus.jpg","[""ArrowRight""]","revaluation","ocean","11","{""ArrowUp,ArrowLeft"":2,""ArrowUp,ArrowRight"":11,""ArrowDown,ArrowLeft"":8,""ArrowDown,ArrowRight"":27}","true","ArrowUp,ArrowRight","","6_3","","","","4","revaluation","1",""
"html-keyboard-response","244","1086695","0.0-4.0-4.0-1.4","pilot_wm_v1","null","8","null","null","false","","","","","","","null","<div style=""font-size:60px;"">+</div>","null","fixation","","","","","","","","","","","","","",""
"revaluation","245","1090723","0.0-4.0-4.0-0.5","pilot_wm_v1","null","8","null","null","false","","","false","","","","[660.1000000005588]","./assets/img/ocean/animals/seahorse.jpg","[""ArrowLeft""]","revaluation","ocean","8","{""ArrowUp,ArrowLeft"":2,""ArrowUp,ArrowRight"":11,""ArrowDown,ArrowLeft"":8,""ArrowDown,ArrowRight"":27}","false","ArrowDown,ArrowLeft","","14_4","","","","5","revaluation","1",""
"html-keyboard-response","246","1091224","0.0-4.0-4.0-1.5","pilot_wm_v1","null","8","null","null","false","","","","","","","null","<div style=""font-size:60px;"">+</div>","null","fixation","","","","","","","","","","","","","",""
"revaluation","247","1095238","0.0-4.0-4.0-0.6","pilot_wm_v1","null","8","null","null","false","","","false","","","","[626.6000000005588]","./assets/img/ocean/animals/seahorse.jpg","[""ArrowRight""]","revaluation","ocean","27","{""ArrowUp,ArrowLeft"":2,""ArrowUp,ArrowRight"":11,""ArrowDown,ArrowLeft"":8,""ArrowDown,ArrowRight"":27}","true","ArrowDown,ArrowRight","","13_2","","","","6","revaluation","1",""
"html-keyboard-response","248","1095740","0.0-4.0-4.0-1.6","pilot_wm_v1","null","8","null","null","false","","","","","","","null","<div style=""font-size:60px;"">+</div>","null","fixation","","","","","","","","","","","","","",""
"revaluation","249","1099743","0.0-4.0-4.0-0.7","pilot_wm_v1","null","8","null","null","false","","","false","","","","[512.0999999996275]","./assets/img/ocean/animals/seahorse.jpg","[""ArrowRight""]","revaluation","ocean","27","{""ArrowUp,ArrowLeft"":2,""ArrowUp,ArrowRight"":11,""ArrowDown,ArrowLeft"":8,""ArrowDown,ArrowRight"":27}","true","ArrowDown,ArrowRight","","16_0","","","","7","revaluation","1",""
"html-keyboard-response","250","1100244","0.0-4.0-4.0-1.7","pilot_wm_v1","null","8","null","null","false","","","","","","","null","<div style=""font-size:60px;"">+</div>","null","fixation","","","","","","","","","","","","","",""
"html-slider-response","251","1103595","0.0-4.0-4.0-2.7-0.7","pilot_wm_v1","null","8","null","null","false","","","","","","","3350","<div style=""width:500px;"">
        <p>What is the password?</p>
        <img src='./assets/img/instructions/beep_chest.jpg' class='instructions-image'>","6","","","","","false","","","","50","9","3","","","",""
"revaluation","252","1107599","0.0-4.0-4.0-0.8","pilot_wm_v1","null","8","null","null","false","","","false","","","","[1088.2999999998137]","./assets/img/ocean/animals/seahorse.jpg","[""ArrowRight""]","revaluation","ocean","27","{""ArrowUp,ArrowLeft"":2,""ArrowUp,ArrowRight"":11,""ArrowDown,ArrowLeft"":8,""ArrowDown,ArrowRight"":27}","true","ArrowDown,ArrowRight","","15_0","","","","8","revaluation","1",""
"html-keyboard-response","253","1108100","0.0-4.0-4.0-1.8","pilot_wm_v1","null","8","null","null","false","","","","","","","null","<div style=""font-size:60px;"">+</div>","null","fixation","","","","","","","","","","","","","",""
"revaluation","254","1112115","0.0-4.0-4.0-0.9","pilot_wm_v1","null","8","null","null","false","","","false","","","","[439.09999999962747]","./assets/img/ocean/animals/octopus.jpg","[""ArrowLeft""]","revaluation","ocean","2","{""ArrowUp,ArrowLeft"":2,""ArrowUp,ArrowRight"":11,""ArrowDown,ArrowLeft"":8,""ArrowDown,ArrowRight"":27}","false","ArrowUp,ArrowLeft","","9_2","","","","9","revaluation","1",""
"html-keyboard-response","255","1112616","0.0-4.0-4.0-1.9","pilot_wm_v1","null","8","null","null","false","","","","","","","null","<div style=""font-size:60px;"">+</div>","null","fixation","","","","","","","","","","","","","",""
"revaluation","256","1116619","0.0-4.0-4.0-0.10","pilot_wm_v1","null","8","null","null","false","","","false","","","","[618.7000000001863]","./assets/img/ocean/animals/octopus.jpg","[""ArrowRight""]","revaluation","ocean","11","{""ArrowUp,ArrowLeft"":2,""ArrowUp,ArrowRight"":11,""ArrowDown,ArrowLeft"":8,""ArrowDown,ArrowRight"":27}","true","ArrowUp,ArrowRight","","1_4","","","","10","revaluation","1",""
"html-keyboard-response","257","1117121","0.0-4.0-4.0-1.10","pilot_wm_v1","null","8","null","null","false","","","","","","","null","<div style=""font-size:60px;"">+</div>","null","fixation","","","","","","","","","","","","","",""
"revaluation","258","1121124","0.0-4.0-4.0-0.11","pilot_wm_v1","null","8","null","null","false","","","false","","","","[313.90000000037253]","./assets/img/ocean/animals/seahorse.jpg","[""ArrowRight""]","revaluation","ocean","27","{""ArrowUp,ArrowLeft"":2,""ArrowUp,ArrowRight"":11,""ArrowDown,ArrowLeft"":8,""ArrowDown,ArrowRight"":27}","true","ArrowDown,ArrowRight","","11_4","","","","11","revaluation","1",""
"html-keyboard-response","259","1121625","0.0-4.0-4.0-1.11","pilot_wm_v1","null","8","null","null","false","","","","","","","null","<div style=""font-size:60px;"">+</div>","null","fixation","","","","","","","","","","","","","",""
"html-slider-response","260","1124661","0.0-4.0-4.0-2.11-0.11","pilot_wm_v1","null","8","null","null","false","","","","","","","3035","<div style=""width:500px;"">
        <p>What is the password?</p>
        <img src='./assets/img/instructions/beep_chest.jpg' class='instructions-image'>","8","","","","","false","","","","50","10","2","","","",""
"revaluation","261","1128665","0.0-4.0-4.0-0.12","pilot_wm_v1","null","8","null","null","false","","","false","","","","[893.7999999998137]","./assets/img/ocean/animals/octopus.jpg","[""ArrowRight""]","revaluation","ocean","11","{""ArrowUp,ArrowLeft"":2,""ArrowUp,ArrowRight"":11,""ArrowDown,ArrowLeft"":8,""ArrowDown,ArrowRight"":27}","true","ArrowUp,ArrowRight","","7_4","","","","12","revaluation","1",""
"html-keyboard-response","262","1129166","0.0-4.0-4.0-1.12","pilot_wm_v1","null","8","null","null","false","","","","","","","null","<div style=""font-size:60px;"">+</div>","null","fixation","","","","","","","","","","","","","",""
"revaluation","263","1133169","0.0-4.0-4.0-0.13","pilot_wm_v1","null","8","null","null","false","","","false","","","","[444.29999999981374]","./assets/img/ocean/animals/seahorse.jpg","[""ArrowRight""]","revaluation","ocean","27","{""ArrowUp,ArrowLeft"":2,""ArrowUp,ArrowRight"":11,""ArrowDown,ArrowLeft"":8,""ArrowDown,ArrowRight"":27}","true","ArrowDown,ArrowRight","","10_3","","","","13","revaluation","1",""
"html-keyboard-response","264","1133671","0.0-4.0-4.0-1.13","pilot_wm_v1","null","8","null","null","false","","","","","","","null","<div style=""font-size:60px;"">+</div>","null","fixation","","","","","","","","","","","","","",""
"revaluation","265","1137674","0.0-4.0-4.0-0.14","pilot_wm_v1","null","8","null","null","false","","","false","","","","[324]","./assets/img/ocean/animals/octopus.jpg","[""ArrowRight""]","revaluation","ocean","11","{""ArrowUp,ArrowLeft"":2,""ArrowUp,ArrowRight"":11,""ArrowDown,ArrowLeft"":8,""ArrowDown,ArrowRight"":27}","true","ArrowUp,ArrowRight","","3_0","","","","14","revaluation","1",""
"html-keyboard-response","266","1138175","0.0-4.0-4.0-1.14","pilot_wm_v1","null","8","null","null","false","","","","","","","null","<div style=""font-size:60px;"">+</div>","null","fixation","","","","","","","","","","","","","",""
"revaluation","267","1142178","0.0-4.0-4.0-0.15","pilot_wm_v1","null","8","null","null","false","","","false","","","","[331.59999999962747]","./assets/img/ocean/animals/octopus.jpg","[""ArrowRight""]","revaluation","ocean","11","{""ArrowUp,ArrowLeft"":2,""ArrowUp,ArrowRight"":11,""ArrowDown,ArrowLeft"":8,""ArrowDown,ArrowRight"":27}","true","ArrowUp,ArrowRight","","4_0","","","","15","revaluation","1",""
"html-keyboard-response","268","1142692","0.0-4.0-4.0-1.15","pilot_wm_v1","null","8","null","null","false","","","","","","","null","<div style=""font-size:60px;"">+</div>","null","fixation","","","","","","","","","","","","","",""
"html-slider-response","269","1145112","0.0-4.0-4.0-2.15-0.15","pilot_wm_v1","null","8","null","null","false","","","","","","","2419","<div style=""width:500px;"">
        <p>What is the password?</p>
        <img src='./assets/img/instructions/beep_chest.jpg' class='instructions-image'>","6","","","","","false","","","","50","7","1","","","",""
"revaluation","270","1149114","0.0-4.0-4.0-0.16","pilot_wm_v1","null","8","null","null","false","","","false","","","","[1058.9000000003725]","./assets/img/ocean/animals/octopus.jpg","[""ArrowRight""]","revaluation","ocean","11","{""ArrowUp,ArrowLeft"":2,""ArrowUp,ArrowRight"":11,""ArrowDown,ArrowLeft"":8,""ArrowDown,ArrowRight"":27}","true","ArrowUp,ArrowRight","","8_2","","","","16","revaluation","1",""
"html-keyboard-response","271","1149615","0.0-4.0-4.0-1.16","pilot_wm_v1","null","8","null","null","false","","","","","","","null","<div style=""font-size:60px;"">+</div>","null","fixation","","","","","","","","","","","","","",""
"revaluation","272","1153617","0.0-4.0-4.0-0.17","pilot_wm_v1","null","8","null","null","false","","","false","","","","[843.2999999998137]","./assets/img/ocean/animals/seahorse.jpg","[""ArrowRight""]","revaluation","ocean","27","{""ArrowUp,ArrowLeft"":2,""ArrowUp,ArrowRight"":11,""ArrowDown,ArrowLeft"":8,""ArrowDown,ArrowRight"":27}","true","ArrowDown,ArrowRight","","17_1","","","","17","revaluation","1",""
"html-keyboard-response","273","1154118","0.0-4.0-4.0-1.17","pilot_wm_v1","null","8","null","null","false","","","","","","","null","<div style=""font-size:60px;"">+</div>","null","fixation","","","","","","","","","","","","","",""
"learning-instructions","274","1162224","0.0-4.0-6.0-0.0","pilot_wm_v1","null","8","null","null","false","","","","","","","null","<p> You have almost finished this part of the game! </p>
            <p> We are going to ask you to make a few more choices. </p>","","instructions","","","","","","","","","","","","","",""
"learning-instructions","275","1178202","0.0-4.0-6.0-0.1","pilot_wm_v1","null","8","null","null","false","","","","","","","null","<p> First, you need to decide whether to go up or down. When you see each picture, use the arrow keys to make your choice. </p>
            <p><b>You will not see which animal you found, but try to get to the one that will give you the most treasure.</b></p>","","instructions","","","","","","","","","","","","","",""
"html-keyboard-response","276","1179215","0.0-4.0-7.0-0.0","pilot_wm_v1","null","8","null","null","false","","","","","","","null","<div style=""font-size:100px;color:red;"">Starting in...</div>","null","","","","","","","","","","","","","","",""
"html-keyboard-response","277","1180227","0.0-4.0-7.0-1.0","pilot_wm_v1","null","8","null","null","false","","","","","","","null","<div style=""font-size:200px;color:red;"">3</div>","null","","","","","","","","","","","","","","",""
"html-keyboard-response","278","1181228","0.0-4.0-7.0-2.0","pilot_wm_v1","null","8","null","null","false","","","","","","","null","<div style=""font-size:200px;color:red;"">2</div>","null","","","","","","","","","","","","","","",""
"html-keyboard-response","279","1182242","0.0-4.0-7.0-3.0","pilot_wm_v1","null","8","null","null","false","","","","","","","null","<div style=""font-size:200px;color:red;"">1</div>","null","","","","","","","","","","","","","","",""
"revaluation","280","1182756","0.0-4.0-8.0-0.0","pilot_wm_v1","null","8","null","null","false","","","false","","","","[512.2000000001863]","./assets/img/ocean/test/3.jpg","[""ArrowUp""]","first stage test","ocean","0","{""ArrowUp,ArrowLeft"":2,""ArrowUp,ArrowRight"":11,""ArrowDown,ArrowLeft"":8,""ArrowDown,ArrowRight"":27}","false","ArrowUp","false","","","","","","revaluation","1",""
"html-keyboard-response","281","1183262","0.0-4.0-8.0-1.0","pilot_wm_v1","null","8","null","null","false","","","","","","","null","<div style=""font-size:60px;"">+</div>","null","fixation","","","","","","","","","","","","","",""
"revaluation","282","1184387","0.0-4.0-8.0-0.1","pilot_wm_v1","null","8","null","null","false","","","false","","","","[1124.5999999996275]","./assets/img/ocean/test/1.jpg","[""ArrowUp""]","first stage test","ocean","0","{""ArrowUp,ArrowLeft"":2,""ArrowUp,ArrowRight"":11,""ArrowDown,ArrowLeft"":8,""ArrowDown,ArrowRight"":27}","false","ArrowUp","false","","","","","","revaluation","1",""
"html-keyboard-response","283","1184893","0.0-4.0-8.0-1.1","pilot_wm_v1","null","8","null","null","false","","","","","","","null","<div style=""font-size:60px;"">+</div>","null","fixation","","","","","","","","","","","","","",""
"revaluation","284","1185467","0.0-4.0-8.0-0.2","pilot_wm_v1","null","8","null","null","false","","","false","","","","[572.5999999996275]","./assets/img/ocean/test/0.jpg","[""ArrowUp""]","first stage test","ocean","0","{""ArrowUp,ArrowLeft"":2,""ArrowUp,ArrowRight"":11,""ArrowDown,ArrowLeft"":8,""ArrowDown,ArrowRight"":27}","false","ArrowUp","false","","","","","","revaluation","1",""
"html-keyboard-response","285","1185970","0.0-4.0-8.0-1.2","pilot_wm_v1","null","8","null","null","false","","","","","","","null","<div style=""font-size:60px;"">+</div>","null","fixation","","","","","","","","","","","","","",""
"revaluation","286","1186572","0.0-4.0-8.0-0.3","pilot_wm_v1","null","8","null","null","false","","","false","","","","[599.7000000001863]","./assets/img/ocean/test/2.jpg","[""ArrowUp""]","first stage test","ocean","0","{""ArrowUp,ArrowLeft"":2,""ArrowUp,ArrowRight"":11,""ArrowDown,ArrowLeft"":8,""ArrowDown,ArrowRight"":27}","false","ArrowUp","false","","","","","","revaluation","1",""
"html-keyboard-response","287","1187083","0.0-4.0-8.0-1.3","pilot_wm_v1","null","8","null","null","false","","","","","","","null","<div style=""font-size:60px;"">+</div>","null","fixation","","","","","","","","","","","","","",""
"learning-instructions","288","1200430","0.0-4.0-9.0-0.0","pilot_wm_v1","null","8","null","null","false","","","","","","","null","<p> Now you will see the animals again and can search their chests for treasure. </p>
            <p> This time, you will not see how much treasure you earned, but you will earn more bonus money for making better choices. </p>","","instructions","","","","","","","","","","","","","",""
"html-keyboard-response","289","1201437","0.0-4.0-10.0-0.0","pilot_wm_v1","null","8","null","null","false","","","","","","","null","<div style=""font-size:100px;color:red;"">Starting in...</div>","null","","","","","","","","","","","","","","",""
"html-keyboard-response","290","1202440","0.0-4.0-10.0-1.0","pilot_wm_v1","null","8","null","null","false","","","","","","","null","<div style=""font-size:200px;color:red;"">3</div>","null","","","","","","","","","","","","","","",""
"html-keyboard-response","291","1203445","0.0-4.0-10.0-2.0","pilot_wm_v1","null","8","null","null","false","","","","","","","null","<div style=""font-size:200px;color:red;"">2</div>","null","","","","","","","","","","","","","","",""
"html-keyboard-response","292","1204460","0.0-4.0-10.0-3.0","pilot_wm_v1","null","8","null","null","false","","","","","","","null","<div style=""font-size:200px;color:red;"">1</div>","null","","","","","","","","","","","","","","",""
"revaluation","293","1204995","0.0-4.0-11.0-0.0","pilot_wm_v1","null","8","null","null","false","","","false","","","","[533.7000000001863]","./assets/img/ocean/animals/octopus.jpg","[""ArrowLeft""]","second stage test","ocean","0","{""ArrowUp,ArrowLeft"":2,""ArrowUp,ArrowRight"":11,""ArrowDown,ArrowLeft"":8,""ArrowDown,ArrowRight"":27}","false","ArrowUp,ArrowLeft","","","","","","","revaluation","1",""
"html-keyboard-response","294","1205509","0.0-4.0-11.0-1.0","pilot_wm_v1","null","8","null","null","false","","","","","","","null","<div style=""font-size:60px;"">+</div>","null","fixation","","","","","","","","","","","","","",""
"revaluation","295","1206291","0.0-4.0-11.0-0.1","pilot_wm_v1","null","8","null","null","false","","","false","","","","[780.7999999998137]","./assets/img/ocean/animals/octopus.jpg","[""ArrowLeft""]","second stage test","ocean","0","{""ArrowUp,ArrowLeft"":2,""ArrowUp,ArrowRight"":11,""ArrowDown,ArrowLeft"":8,""ArrowDown,ArrowRight"":27}","false","ArrowUp,ArrowLeft","","","","","","","revaluation","1",""
"html-keyboard-response","296","1206798","0.0-4.0-11.0-1.1","pilot_wm_v1","null","8","null","null","false","","","","","","","null","<div style=""font-size:60px;"">+</div>","null","fixation","","","","","","","","","","","","","",""
"revaluation","297","1207187","0.0-4.0-11.0-0.2","pilot_wm_v1","null","8","null","null","false","","","false","","","","[387.70000000018626]","./assets/img/ocean/animals/octopus.jpg","[""ArrowLeft""]","second stage test","ocean","0","{""ArrowUp,ArrowLeft"":2,""ArrowUp,ArrowRight"":11,""ArrowDown,ArrowLeft"":8,""ArrowDown,ArrowRight"":27}","false","ArrowUp,ArrowLeft","","","","","","","revaluation","1",""
"html-keyboard-response","298","1207690","0.0-4.0-11.0-1.2","pilot_wm_v1","null","8","null","null","false","","","","","","","null","<div style=""font-size:60px;"">+</div>","null","fixation","","","","","","","","","","","","","",""
"revaluation","299","1208051","0.0-4.0-11.0-0.3","pilot_wm_v1","null","8","null","null","false","","","false","","","","[359.59999999962747]","./assets/img/ocean/animals/octopus.jpg","[""ArrowLeft""]","second stage test","ocean","0","{""ArrowUp,ArrowLeft"":2,""ArrowUp,ArrowRight"":11,""ArrowDown,ArrowLeft"":8,""ArrowDown,ArrowRight"":27}","false","ArrowUp,ArrowLeft","","","","","","","revaluation","1",""
