"trial_type","trial_index","time_elapsed","internal_node_id","task_version","subject_id","assigned_condition","age","gender","rest","success","timeout","failed_images","failed_audio","failed_video","browser_interaction","rt","stimulus","response","task_part","environment","score","rewardMap","correct","fullState","isCatch","audioStim","slider_start","answer","error","numberMissed","duration","trial_num","condition","order","bonus"
"pavlovia","0","1927","0.0-0.0","pilot_wm_v1","null","3","null","null","true","","","","","","","","","","","","","","","","","","","","","","","","","",""
"preload","1","12598","0.0-1.0","pilot_wm_v1","null","3","null","null","true","true","false","[]","[]","[]","[{""event"":""fullscreenenter"",""trial"":2,""time"":17995},{""event"":""blur"",""trial"":416,""time"":1706743},{""event"":""focus"",""trial"":417,""time"":1708215}]","","","","","","","","","","","","","","","","","","","",""
"fullscreen","2","18979","0.0-2.0","pilot_wm_v1","null","3","null","null","true","true","","","","","","","","","","","","","","","","","","","","","","","","",""
"audio-button-response","3","20693","0.0-3.0-0.0-0.0","pilot_wm_v1","null","3","null","null","true","","","","","","","1707","./assets/audio/audiotest/turtle.mp3","2","audio_test","","","","","","","","","","","","","","","",""
"learning-instructions","4","33409","0.0-3.0-1.0-0.0","pilot_wm_v1","null","3","null","null","true","","","","","","","5746.20000000298","<p> Welcome! Please remember to stay in fullscreen mode and don't click away from the experiment. </p>","","instructions","","","","","","","","","","","","","","","",""
"learning-instructions","5","43711","0.0-3.0-1.0-0.1","pilot_wm_v1","null","3","null","null","true","","","","","","","1902.6000000089407","<p> Today you will be playing a game to earn treasure. </p>
            <p> At the end of the experiment, you will earn a bonus based on how much treasure you find. </p>
            <img src='./assets/img/instructions/treasure.jpg' class='instructions-image'>","","instructions","","","","","","","","","","","","","","","",""
"learning-instructions","6","55777","0.0-3.0-1.0-0.2","pilot_wm_v1","null","3","null","null","true","","","","","","","3814.7999999970198","<p> Animals have hidden treasure in treasure chests. </p>
            <p> You need to first find an animal and then choose which of their treasure chests to search. </p>
            <img src='./assets/img/space/animals/cat.jpg' class='instructions-image'>","","instructions","","","","","","","","","","","","","","","",""
"learning-instructions","7","70313","0.0-3.0-1.0-0.3","pilot_wm_v1","null","3","null","null","true","","","","","","","1395.2000000029802","<p> In each round, you will search for treasure in a different place. In the real game, there will be two rounds. </p>
            <p> You will begin with a separate, practice round where you will search for treasure in outer space. </p>
            <img src='./assets/img/space/0.jpg' class='instructions-image'>","","instructions","","","","","","","","","","","","","","","",""
"learning-instructions","8","82662","0.0-3.0-1.0-0.4","pilot_wm_v1","null","3","null","null","true","","","","","","","954.7999999970198","<p> On every turn, you will see a picture of the place that you are in, but the specific image may be different each time. </p>
            <p> For example, both of these images mean you are in outer space. </p>
            <img src='./assets/img/instructions/outerspace.jpg' class='instructions-image'>","","instructions","","","","","","","","","","","","","","","",""
"learning-instructions","9","91259","0.0-3.0-1.0-0.5","pilot_wm_v1","null","3","null","null","true","","","","","","","779.5999999940395","<p> You need to decide which direction to travel in. </p>
            <p> You can choose between going <b>up or down</b> by using the arrow keys. </p>
            <img src='./assets/img/instructions/updown.jpg' class='instructions-image'>","","instructions","","","","","","","","","","","","","","","",""
"learning-instructions","10","100826","0.0-3.0-1.0-0.6","pilot_wm_v1","null","3","null","null","true","","","","","","","766.9000000059605","<p> You will have <b>2 seconds</b> to make your choice. </p>
            <p> If you do not make a choice within 2 seconds, you will not find an animal or earn treasure. </p>
            <img src='./assets/img/instructions/2seconds.jpg' class='instructions-image'>","","instructions","","","","","","","","","","","","","","","",""
"learning-instructions","11","108676","0.0-3.0-1.0-0.7","pilot_wm_v1","null","3","null","null","true","","","","","","","824.7000000029802","<p> Let’s try practicing that now! </p>
            <p> When you see a picture of the place you are in, press the <b>up</b> key to travel up. </p>
            <img src='./assets/img/instructions/pressUp.jpg' class='instructions-image'>","","instructions","","","","","","","","","","","","","","","",""
"revaluation","12","112692","0.0-3.0-2.0-0.0","pilot_wm_v1","null","3","null","null","true","","false","","","","","[516.9000000059605]","./assets/img/space/0.jpg","[""ArrowUp""]","first stage practice","space","0","null","null","ArrowUp","false","","","","","","","","","",""
"html-keyboard-response","13","113196","0.0-3.0-2.0-1.0","pilot_wm_v1","null","3","null","null","true","","","","","","","null","<div style=""font-size:60px;"">+</div>","null","fixation","","","","","","","","","","","","","","","",""
"revaluation","14","117205","0.0-3.0-2.0-0.1","pilot_wm_v1","null","3","null","null","true","","false","","","","","[863]","./assets/img/space/1.jpg","[""ArrowUp""]","first stage practice","space","0","null","null","ArrowUp","false","","","","","","","","","",""
"html-keyboard-response","15","117708","0.0-3.0-2.0-1.1","pilot_wm_v1","null","3","null","null","true","","","","","","","null","<div style=""font-size:60px;"">+</div>","null","fixation","","","","","","","","","","","","","","","",""
"revaluation","16","121716","0.0-3.0-2.0-0.2","pilot_wm_v1","null","3","null","null","true","","false","","","","","[251.20000000298023]","./assets/img/space/2.jpg","[""ArrowUp""]","first stage practice","space","0","null","null","ArrowUp","false","","","","","","","","","",""
"html-keyboard-response","17","122219","0.0-3.0-2.0-1.2","pilot_wm_v1","null","3","null","null","true","","","","","","","null","<div style=""font-size:60px;"">+</div>","null","fixation","","","","","","","","","","","","","","","",""
"learning-instructions","18","129464","0.0-3.0-3.0-0.0","pilot_wm_v1","null","3","null","null","true","","","","","","","2545.2999999970198","<p> Great job! Now try pressing the <b>down</b> key to travel down. </p>
            <img src='./assets/img/instructions/pressDown.jpg' class='instructions-image'>","","instructions","","","","","","","","","","","","","","","",""
"revaluation","19","133470","0.0-3.0-4.0-0.0","pilot_wm_v1","null","3","null","null","true","","false","","","","","[503.09999999403954]","./assets/img/space/3.jpg","[""ArrowDown""]","first stage practice","space","0","null","null","ArrowDown","false","","","","","","","","","",""
"html-keyboard-response","20","133973","0.0-3.0-4.0-1.0","pilot_wm_v1","null","3","null","null","true","","","","","","","null","<div style=""font-size:60px;"">+</div>","null","fixation","","","","","","","","","","","","","","","",""
"revaluation","21","137981","0.0-3.0-4.0-0.1","pilot_wm_v1","null","3","null","null","true","","false","","","","","[358.70000000298023]","./assets/img/space/4.jpg","[""ArrowDown""]","first stage practice","space","0","null","null","ArrowDown","false","","","","","","","","","",""
"html-keyboard-response","22","138483","0.0-3.0-4.0-1.1","pilot_wm_v1","null","3","null","null","true","","","","","","","null","<div style=""font-size:60px;"">+</div>","null","fixation","","","","","","","","","","","","","","","",""
"revaluation","23","142492","0.0-3.0-4.0-0.2","pilot_wm_v1","null","3","null","null","true","","false","","","","","[322.80000001192093]","./assets/img/space/5.jpg","[""ArrowDown""]","first stage practice","space","0","null","null","ArrowDown","false","","","","","","","","","",""
"html-keyboard-response","24","142994","0.0-3.0-4.0-1.2","pilot_wm_v1","null","3","null","null","true","","","","","","","null","<div style=""font-size:60px;"">+</div>","null","fixation","","","","","","","","","","","","","","","",""
"learning-instructions","25","154082","0.0-3.0-5.0-0.0","pilot_wm_v1","null","3","null","null","true","","","","","","","1248.7000000029802","<p> The animals don’t move, so the animal in the upper part of a place will stay in the upper part of a place, and the animal in the lower part of a place will stay in the lower part of a place. </p>","","instructions","","","","","","","","","","","","","","","",""
"learning-instructions","26","165827","0.0-3.0-5.0-0.1","pilot_wm_v1","null","3","null","null","true","","","","","","","2626.2000000029802","<p> Each animal has two treasure chests for you to choose from. </p>
            <p> The amount of treasure in each chest can range from <b> 0 to 40 pieces.</b></p>","","instructions","","","","","","","","","","","","","","","",""
"learning-instructions","27","178311","0.0-3.0-5.0-0.2","pilot_wm_v1","null","3","null","null","true","","","","","","","1317","<p> You should decide which chest to search for treasure by using the <b>left</b> and <b>right</b> arrow keys. </p>
            <p><b> Pay attention to which animal is on the screen, as the animals have different treasure chests. </b></p>
            <img src='./assets/img/instructions/leftright.jpg' class='instructions-image'>","","instructions","","","","","","","","","","","","","","","",""
"learning-instructions","28","185661","0.0-3.0-5.0-0.3","pilot_wm_v1","null","3","null","null","true","","","","","","","997.5","<p> Let’s try practicing that now. </p>
            <p> When you see an animal, choose which chest to search for treasure. </p>
            <img src='./assets/img/instructions/chooseChest.jpg' class='instructions-image'>","","instructions","","","","","","","","","","","","","","","",""
"revaluation","29","189667","0.0-3.0-6.0-0.0","pilot_wm_v1","null","3","null","null","true","","false","","","","","[945]","./assets/img/space/animals/rabbit.jpg","[""ArrowLeft""]","second stage practice","space","15","{""ArrowUp,ArrowLeft"":3,""ArrowUp,ArrowRight"":36,""ArrowDown,ArrowLeft"":15,""ArrowDown,ArrowRight"":23}","false","ArrowDown,ArrowLeft","","","","","","","","","","",""
"html-keyboard-response","30","190170","0.0-3.0-6.0-1.0","pilot_wm_v1","null","3","null","null","true","","","","","","","null","<div style=""font-size:60px;"">+</div>","null","fixation","","","","","","","","","","","","","","","",""
"revaluation","31","194178","0.0-3.0-6.0-0.1","pilot_wm_v1","null","3","null","null","true","","false","","","","","[413.5]","./assets/img/space/animals/cat.jpg","[""ArrowRight""]","second stage practice","space","36","{""ArrowUp,ArrowLeft"":3,""ArrowUp,ArrowRight"":36,""ArrowDown,ArrowLeft"":15,""ArrowDown,ArrowRight"":23}","true","ArrowUp,ArrowRight","","","","","","","","","","",""
"html-keyboard-response","32","194681","0.0-3.0-6.0-1.1","pilot_wm_v1","null","3","null","null","true","","","","","","","null","<div style=""font-size:60px;"">+</div>","null","fixation","","","","","","","","","","","","","","","",""
"revaluation","33","198689","0.0-3.0-6.0-0.2","pilot_wm_v1","null","3","null","null","true","","false","","","","","[405.79999999701977]","./assets/img/space/animals/rabbit.jpg","[""ArrowRight""]","second stage practice","space","23","{""ArrowUp,ArrowLeft"":3,""ArrowUp,ArrowRight"":36,""ArrowDown,ArrowLeft"":15,""ArrowDown,ArrowRight"":23}","true","ArrowDown,ArrowRight","","","","","","","","","","",""
"html-keyboard-response","34","199192","0.0-3.0-6.0-1.2","pilot_wm_v1","null","3","null","null","true","","","","","","","null","<div style=""font-size:60px;"">+</div>","null","fixation","","","","","","","","","","","","","","","",""
"revaluation","35","203200","0.0-3.0-6.0-0.3","pilot_wm_v1","null","3","null","null","true","","false","","","","","[380.20000000298023]","./assets/img/space/animals/cat.jpg","[""ArrowLeft""]","second stage practice","space","3","{""ArrowUp,ArrowLeft"":3,""ArrowUp,ArrowRight"":36,""ArrowDown,ArrowLeft"":15,""ArrowDown,ArrowRight"":23}","false","ArrowUp,ArrowLeft","","","","","","","","","","",""
"html-keyboard-response","36","203703","0.0-3.0-6.0-1.3","pilot_wm_v1","null","3","null","null","true","","","","","","","null","<div style=""font-size:60px;"">+</div>","null","fixation","","","","","","","","","","","","","","","",""
"learning-instructions","37","222948","0.0-3.0-7.0-0.0","pilot_wm_v1","null","3","null","null","true","","","","","","","2449.199999988079","<p> Great job. Now let’s try putting it together. </p>
            <p> On each turn, you will first see a picture to remind you of the place you are in, and you need to choose whether to go up or down. </p>
            <p> Then you will see an animal and choose which of its chests to search for treasure. </p>","","instructions","","","","","","","","","","","","","","","",""
"learning-instructions","38","232414","0.0-3.0-7.0-0.1","pilot_wm_v1","null","3","null","null","true","","","","","","","1217","<p> When you choose whether to go up or down, try to go to the animal with the chest with the most treasure. </p>
            <p> Try practicing that now! </p>","","instructions","","","","","","","","","","","","","","","",""
"revaluation","39","238423","0.0-3.0-8.0-0.0","pilot_wm_v1","null","3","null","null","true","","false","","","","","[557.0999999940395,503.80000001192093]","./assets/img/space/6.jpg","[""ArrowUp"",""ArrowRight""]","full practice","space","36","{""ArrowUp,ArrowLeft"":3,""ArrowUp,ArrowRight"":36,""ArrowDown,ArrowLeft"":15,""ArrowDown,ArrowRight"":23}","true","ArrowUp,ArrowRight","false","","","","","","","","","",""
"html-keyboard-response","40","238927","0.0-3.0-8.0-1.0","pilot_wm_v1","null","3","null","null","true","","","","","","","null","<div style=""font-size:60px;"">+</div>","null","fixation","","","","","","","","","","","","","","","",""
"revaluation","41","244936","0.0-3.0-8.0-0.1","pilot_wm_v1","null","3","null","null","true","","false","","","","","[435.40000000596046,829.5]","./assets/img/space/7.jpg","[""ArrowDown"",""ArrowLeft""]","full practice","space","15","{""ArrowUp,ArrowLeft"":3,""ArrowUp,ArrowRight"":36,""ArrowDown,ArrowLeft"":15,""ArrowDown,ArrowRight"":23}","false","ArrowDown,ArrowLeft","false","","","","","","","","","",""
"html-keyboard-response","42","245439","0.0-3.0-8.0-1.1","pilot_wm_v1","null","3","null","null","true","","","","","","","null","<div style=""font-size:60px;"">+</div>","null","fixation","","","","","","","","","","","","","","","",""
"revaluation","43","251449","0.0-3.0-8.0-0.2","pilot_wm_v1","null","3","null","null","true","","false","","","","","[695.2000000029802,418.1000000089407]","./assets/img/space/8.jpg","[""ArrowUp"",""ArrowLeft""]","full practice","space","3","{""ArrowUp,ArrowLeft"":3,""ArrowUp,ArrowRight"":36,""ArrowDown,ArrowLeft"":15,""ArrowDown,ArrowRight"":23}","false","ArrowUp,ArrowLeft","false","","","","","","","","","",""
"html-keyboard-response","44","251952","0.0-3.0-8.0-1.2","pilot_wm_v1","null","3","null","null","true","","","","","","","null","<div style=""font-size:60px;"">+</div>","null","fixation","","","","","","","","","","","","","","","",""
"revaluation","45","257962","0.0-3.0-8.0-0.3","pilot_wm_v1","null","3","null","null","true","","false","","","","","[348.70000000298023,302.5]","./assets/img/space/9.jpg","[""ArrowUp"",""ArrowRight""]","full practice","space","36","{""ArrowUp,ArrowLeft"":3,""ArrowUp,ArrowRight"":36,""ArrowDown,ArrowLeft"":15,""ArrowDown,ArrowRight"":23}","true","ArrowUp,ArrowRight","false","","","","","","","","","",""
"html-keyboard-response","46","258466","0.0-3.0-8.0-1.3","pilot_wm_v1","null","3","null","null","true","","","","","","","null","<div style=""font-size:60px;"">+</div>","null","fixation","","","","","","","","","","","","","","","",""
"revaluation","47","264475","0.0-3.0-8.0-0.4","pilot_wm_v1","null","3","null","null","true","","false","","","","","[427.09999999403954,291.5]","./assets/img/space/10.jpg","[""ArrowUp"",""ArrowRight""]","full practice","space","36","{""ArrowUp,ArrowLeft"":3,""ArrowUp,ArrowRight"":36,""ArrowDown,ArrowLeft"":15,""ArrowDown,ArrowRight"":23}","true","ArrowUp,ArrowRight","false","","","","","","","","","",""
"html-keyboard-response","48","264977","0.0-3.0-8.0-1.4","pilot_wm_v1","null","3","null","null","true","","","","","","","null","<div style=""font-size:60px;"">+</div>","null","fixation","","","","","","","","","","","","","","","",""
"learning-instructions","49","284713","0.0-3.0-9.0-0.0","pilot_wm_v1","null","3","null","null","true","","","","","","","9405.39999999106","<p> One last thing: sometimes, you will see a robber. The robber can be anywhere in the picture. </p>
            <p> If you do not stop them, you will lose treasure. </p>
            <img src='./assets/img/instructions/robber.jpg' class='instructions-image'>","","instructions","","","","","","","","","","","","","","","",""
"learning-instructions","50","293699","0.0-3.0-9.0-0.1","pilot_wm_v1","null","3","null","null","true","","","","","","","1831.2999999970198","<p> If you see the robber, you should <b>press the space bar</b> rather than using the arrow keys. </p>
            <p> Try practicing that now! </p>","","instructions","","","","","","","","","","","","","","","",""
"revaluation","51","297705","0.0-3.0-10.0-0.0","pilot_wm_v1","null","3","null","null","true","","false","","","","","[576.3999999910593]","./assets/img/space/catch/0.jpg","[""spaceBar""]","catch practice","space","0","{""ArrowUp,ArrowLeft"":3,""ArrowUp,ArrowRight"":36,""ArrowDown,ArrowLeft"":15,""ArrowDown,ArrowRight"":23}","true","spaceBar","true","","","","","","","","","",""
"html-keyboard-response","52","298208","0.0-3.0-10.0-1.0","pilot_wm_v1","null","3","null","null","true","","","","","","","null","<div style=""font-size:60px;"">+</div>","null","fixation","","","","","","","","","","","","","","","",""
"revaluation","53","302216","0.0-3.0-10.0-0.1","pilot_wm_v1","null","3","null","null","true","","true","","","","","[]","./assets/img/space/catch/1.jpg","[]","catch practice","space","-5","{""ArrowUp,ArrowLeft"":3,""ArrowUp,ArrowRight"":36,""ArrowDown,ArrowLeft"":15,""ArrowDown,ArrowRight"":23}","false","","true","","","","","","","","","",""
"html-keyboard-response","54","302719","0.0-3.0-10.0-1.1","pilot_wm_v1","null","3","null","null","true","","","","","","","null","<div style=""font-size:60px;"">+</div>","null","fixation","","","","","","","","","","","","","","","",""
"revaluation","55","306727","0.0-3.0-10.0-0.2","pilot_wm_v1","null","3","null","null","true","","false","","","","","[270.70000000298023]","./assets/img/space/catch/2.jpg","[""spaceBar""]","catch practice","space","0","{""ArrowUp,ArrowLeft"":3,""ArrowUp,ArrowRight"":36,""ArrowDown,ArrowLeft"":15,""ArrowDown,ArrowRight"":23}","true","spaceBar","true","","","","","","","","","",""
"html-keyboard-response","56","307231","0.0-3.0-10.0-1.2","pilot_wm_v1","null","3","null","null","true","","","","","","","null","<div style=""font-size:60px;"">+</div>","null","fixation","","","","","","","","","","","","","","","",""
"learning-instructions","57","314349","0.0-3.0-11.0-0.0","pilot_wm_v1","null","3","null","null","true","","","","","","","1573.7999999970198","<p> Sometimes, you will come across a special kind of treasure chest that requires a password. </p>
            <img src='./assets/img/instructions/beep_chest.jpg' class='instructions-image'>","","instructions","","","","","","","","","","","","","","","",""
"learning-instructions","58","338367","0.0-3.0-11.0-0.1","pilot_wm_v1","null","3","null","null","true","","","","","","","2412.2000000029802","<p> Your friend will send you the password using a series of beeps so that you can open the chest and earn treasure. </p>
            <p> You will hear two kinds of beeps, a high beep and a low beep. </p>
            <p> You should report the number of high beeps that you heard before seeing the chest. </p>
            <img src='./assets/img/instructions/listen.jpg' class='instructions-image'>","","instructions","","","","","","","","","","","","","","","",""
"learning-instructions","59","361767","0.0-3.0-11.0-0.2","pilot_wm_v1","null","3","null","null","true","","","","","","","1108.2000000029802","<p> For example, if you hear this series of beeps, you should report 4 as the password using the slider. </p>
            <p> After reporting a password for a chest, you should count the high beeps again starting from 0. </p>
            <p> Let's try practicing that now. </p>","","instructions","","","","","","","","","","","","","","","",""
"audio-button-response","60","369810","0.0-3.0-12.0-0.0-0.0","pilot_wm_v1","null","3","null","null","true","","","","","","","null","./assets/audio/beeps/practice_6.wav","null","","","","","","","","","","","","","","","","",""
"html-slider-response","61","375135","0.0-3.0-12.0-0.0-1.0","pilot_wm_v1","null","3","null","null","true","","","","","","","5317","<div style=""width:500px;"">
        <p>What is the password?</p>
        <img src='./assets/img/instructions/beep_chest.jpg' class='instructions-image'>","6","","","","","false","","","","50","0","6","","","","","",""
"comp-q","62","380986","0.0-3.0-12.0-0.0-2.0","pilot_wm_v1","null","3","null","null","true","","","","","","","1641.2000000029802","<p>Correct! There were 6 high pitched beeps before you saw the chest. </p>","0","beep_answer","","","","","","","","","","","","","","","",""
"audio-button-response","63","390104","0.0-3.0-12.0-0.1-0.1","pilot_wm_v1","null","3","null","null","true","","","","","","","null","./assets/audio/beeps/practice_4.wav","null","","","","","","","","","","","","","","","","",""
"html-slider-response","64","393685","0.0-3.0-12.0-0.1-1.1","pilot_wm_v1","null","3","null","null","true","","","","","","","3578","<div style=""width:500px;"">
        <p>What is the password?</p>
        <img src='./assets/img/instructions/beep_chest.jpg' class='instructions-image'>","4","","","","","false","","","","50","0","4","","","","","",""
"comp-q","65","399384","0.0-3.0-12.0-0.1-2.1","pilot_wm_v1","null","3","null","null","true","","","","","","","1322.7000000029802","<p>Correct! There were 4 high pitched beeps before you saw the chest. </p>","0","beep_answer","","","","","","","","","","","","","","","",""
"learning-instructions","66","412516","0.0-3.0-13.0-0.0","pilot_wm_v1","null","3","null","null","true","","","","","","","2635.4000000059605","<p> Good job! In the real game we will not tell you if you entered the right password. </p>
            <p> Do your best, the treasure you earn from these chests will also give you extra bonus money. </p>","","instructions","","","","","","","","","","","","","","","",""
"learning-instructions","67","427002","0.0-3.0-14.0-0.0-0.0","pilot_wm_v1","null","3","null","null","true","","","","","","","917.6000000089407","<p> After you explore a place to find treasure, it will be time to play a different game. </p>
            <p> During this game, red dots will appear on the screen and fall down slowly. </p>
            <p><b> You must click on them before they reach the bottom. </b></p>
            <img src='./assets/img/instructions/dotGame.jpg' class='instructions-image'>","","instructions","","","","","","","","","","","","","","","",""
"learning-instructions","68","433518","0.0-3.0-14.0-0.0-0.1","pilot_wm_v1","null","3","null","null","true","","","","","","","847.4000000059605","<p> For every dot you click, you will earn additional treasure. </p>
            <p> Let’s try practicing that now. </p>","","instructions","","","","","","","","","","","","","","","",""
"revaluation","69","448526","0.0-3.0-14.0-1.0-0.0","pilot_wm_v1","null","3","null","null","true","","","","","","","[69,73]","","","rest practice","","20","","","","","","","","","0","15000","","","",""
"learning-instructions","70","455203","0.0-3.0-15.0-0.0-0.0","pilot_wm_v1","null","3","null","null","true","","","","","","","1428","<p> Now, you will practice a shortened version of the game to get a sense of how it all fits together. </p>","","instructions","","","","","","","","","","","","","","","",""
"learning-instructions","71","460150","0.0-3.0-15.0-0.0-0.1","pilot_wm_v1","null","3","null","null","true","","","","","","","1762.2999999970198","<p>This time you are searching for treasure in outer space.</p>","","instructions","","","","","","","","","","","","","","","",""
"learning-instructions","72","477903","0.0-3.0-15.0-1.0-0.0","pilot_wm_v1","null","3","null","null","true","","","","","","","3007.6000000089407","<p> Remember, when you see a picture of the place, use the up and down keys to <b>find an animal</b>.</p>
            <p> When you encounter an animal, you should use the left and right keys to <b>select a treasure chest</b>.</p>
            <p> Don't forget to look out for the robber! </p>","","instructions","","","","","","","","","","","","","","","",""
"revaluation","73","483912","0.0-3.0-15.0-2.0-0.0","pilot_wm_v1","null","3","null","null","true","","false","","","","","[867.7999999970198,543.2000000029802]","./assets/img/space/11.jpg","[""ArrowUp"",""ArrowRight""]","practice block","space","36","{""ArrowUp,ArrowLeft"":3,""ArrowUp,ArrowRight"":36,""ArrowDown,ArrowLeft"":15,""ArrowDown,ArrowRight"":23}","true","ArrowUp,ArrowRight","false","","","","","","","","","",""
"html-keyboard-response","74","484416","0.0-3.0-15.0-2.0-1.0","pilot_wm_v1","null","3","null","null","true","","","","","","","null","<div style=""font-size:60px;"">+</div>","null","fixation","","","","","","","","","","","","","","","",""
"revaluation","75","490426","0.0-3.0-15.0-2.0-0.1","pilot_wm_v1","null","3","null","null","true","","false","","","","","[564.7000000029802,399.69999998807907]","./assets/img/space/12.jpg","[""ArrowUp"",""ArrowRight""]","practice block","space","36","{""ArrowUp,ArrowLeft"":3,""ArrowUp,ArrowRight"":36,""ArrowDown,ArrowLeft"":15,""ArrowDown,ArrowRight"":23}","true","ArrowUp,ArrowRight","false","","","","","","","","","",""
"html-keyboard-response","76","490929","0.0-3.0-15.0-2.0-1.1","pilot_wm_v1","null","3","null","null","true","","","","","","","null","<div style=""font-size:60px;"">+</div>","null","fixation","","","","","","","","","","","","","","","",""
"revaluation","77","496938","0.0-3.0-15.0-2.0-0.2","pilot_wm_v1","null","3","null","null","true","","false","","","","","[538.7999999970198,432]","./assets/img/space/13.jpg","[""ArrowUp"",""ArrowRight""]","practice block","space","36","{""ArrowUp,ArrowLeft"":3,""ArrowUp,ArrowRight"":36,""ArrowDown,ArrowLeft"":15,""ArrowDown,ArrowRight"":23}","true","ArrowUp,ArrowRight","false","","","","","","","","","",""
"html-keyboard-response","78","497441","0.0-3.0-15.0-2.0-1.2","pilot_wm_v1","null","3","null","null","true","","","","","","","null","<div style=""font-size:60px;"">+</div>","null","fixation","","","","","","","","","","","","","","","",""
"revaluation","79","503451","0.0-3.0-15.0-2.0-0.3","pilot_wm_v1","null","3","null","null","true","","false","","","","","[393.79999999701977,365.79999999701977]","./assets/img/space/14.jpg","[""ArrowUp"",""ArrowRight""]","practice block","space","36","{""ArrowUp,ArrowLeft"":3,""ArrowUp,ArrowRight"":36,""ArrowDown,ArrowLeft"":15,""ArrowDown,ArrowRight"":23}","true","ArrowUp,ArrowRight","false","","","","","","","","","",""
"html-keyboard-response","80","503954","0.0-3.0-15.0-2.0-1.3","pilot_wm_v1","null","3","null","null","true","","","","","","","null","<div style=""font-size:60px;"">+</div>","null","fixation","","","","","","","","","","","","","","","",""
"revaluation","81","509964","0.0-3.0-15.0-2.0-0.4","pilot_wm_v1","null","3","null","null","true","","false","","","","","[878.5,404]","./assets/img/space/11.jpg","[""ArrowUp"",""ArrowRight""]","practice block","space","36","{""ArrowUp,ArrowLeft"":3,""ArrowUp,ArrowRight"":36,""ArrowDown,ArrowLeft"":15,""ArrowDown,ArrowRight"":23}","true","ArrowUp,ArrowRight","false","","","","","","","","","",""
"html-keyboard-response","82","510467","0.0-3.0-15.0-2.0-1.4","pilot_wm_v1","null","3","null","null","true","","","","","","","null","<div style=""font-size:60px;"">+</div>","null","fixation","","","","","","","","","","","","","","","",""
"revaluation","83","516477","0.0-3.0-15.0-2.0-0.5","pilot_wm_v1","null","3","null","null","true","","false","","","","","[695.5,409.90000000596046]","./assets/img/space/12.jpg","[""ArrowUp"",""ArrowRight""]","practice block","space","36","{""ArrowUp,ArrowLeft"":3,""ArrowUp,ArrowRight"":36,""ArrowDown,ArrowLeft"":15,""ArrowDown,ArrowRight"":23}","true","ArrowUp,ArrowRight","false","","","","","","","","","",""
"html-keyboard-response","84","516979","0.0-3.0-15.0-2.0-1.5","pilot_wm_v1","null","3","null","null","true","","","","","","","null","<div style=""font-size:60px;"">+</div>","null","fixation","","","","","","","","","","","","","","","",""
"revaluation","85","522988","0.0-3.0-15.0-2.0-0.6","pilot_wm_v1","null","3","null","null","true","","false","","","","","[575.4000000059605,241.3999999910593]","./assets/img/space/13.jpg","[""ArrowUp"",""ArrowRight""]","practice block","space","36","{""ArrowUp,ArrowLeft"":3,""ArrowUp,ArrowRight"":36,""ArrowDown,ArrowLeft"":15,""ArrowDown,ArrowRight"":23}","true","ArrowUp,ArrowRight","false","","","","","","","","","",""
"html-keyboard-response","86","523491","0.0-3.0-15.0-2.0-1.6","pilot_wm_v1","null","3","null","null","true","","","","","","","null","<div style=""font-size:60px;"">+</div>","null","fixation","","","","","","","","","","","","","","","",""
"revaluation","87","529501","0.0-3.0-15.0-2.0-0.7","pilot_wm_v1","null","3","null","null","true","","false","","","","","[489.40000000596046,296.80000001192093]","./assets/img/space/14.jpg","[""ArrowUp"",""ArrowRight""]","practice block","space","36","{""ArrowUp,ArrowLeft"":3,""ArrowUp,ArrowRight"":36,""ArrowDown,ArrowLeft"":15,""ArrowDown,ArrowRight"":23}","true","ArrowUp,ArrowRight","false","","","","","","","","","",""
"html-keyboard-response","88","530003","0.0-3.0-15.0-2.0-1.7","pilot_wm_v1","null","3","null","null","true","","","","","","","null","<div style=""font-size:60px;"">+</div>","null","fixation","","","","","","","","","","","","","","","",""
"revaluation","89","534007","0.0-3.0-15.0-2.0-0.8","pilot_wm_v1","null","3","null","null","true","","false","","","","","[580.1000000089407]","./assets/img/space/catch/3.jpg","[""spaceBar""]","practice block","space","0","{""ArrowUp,ArrowLeft"":3,""ArrowUp,ArrowRight"":36,""ArrowDown,ArrowLeft"":15,""ArrowDown,ArrowRight"":23}","true","spaceBar","true","","","","","","","","","",""
"html-keyboard-response","90","534509","0.0-3.0-15.0-2.0-1.8","pilot_wm_v1","null","3","null","null","true","","","","","","","null","<div style=""font-size:60px;"">+</div>","null","fixation","","","","","","","","","","","","","","","",""
"learning-instructions","91","548854","0.0-3.0-15.0-3.0-0.0","pilot_wm_v1","null","3","null","null","true","","","","","","","1408.5","<p> Now, you will travel with a friend who will choose whether you go up or down first. </p>
            <p> On these turns, you will just see the animal that they found. You will still get to choose which chest to search for treasure.</p>","","instructions","","","","","","","","","","","","","","","",""
"learning-instructions","92","561655","0.0-3.0-15.0-3.0-0.1","pilot_wm_v1","null","3","null","null","true","","","","","","","997.7000000029802","<p> In this part, you will also hear beeps from your friend and see special treasure chests that need a password. </p>
            <p> Do your best to count the high beeps <b>and</b> choose between each animals' chests at the same time.</p>
            <img src='./assets/img/instructions/beep_chest.jpg' class='instructions-image'>","","instructions","","","","","","","","","","","","","","","",""
"revaluation","93","565663","0.0-3.0-15.0-4.0-0.0","pilot_wm_v1","null","3","null","null","true","","true","","","","","[]","./assets/img/space/animals/rabbit.jpg","[]","practice block","space","-5","{""ArrowUp,ArrowLeft"":3,""ArrowUp,ArrowRight"":36,""ArrowDown,ArrowLeft"":15,""ArrowDown,ArrowRight"":23}","false","ArrowDown","","[""21_1""]","","","","","","0","","",""
"html-keyboard-response","94","566169","0.0-3.0-15.0-4.0-1.0","pilot_wm_v1","null","3","null","null","true","","","","","","","null","<div style=""font-size:60px;"">+</div>","null","fixation","","","","","","","","","","","","","","","",""
"revaluation","95","570175","0.0-3.0-15.0-4.0-0.1","pilot_wm_v1","null","3","null","null","true","","false","","","","","[1598.199999988079]","./assets/img/space/animals/cat.jpg","[""ArrowRight""]","practice block","space","36","{""ArrowUp,ArrowLeft"":3,""ArrowUp,ArrowRight"":36,""ArrowDown,ArrowLeft"":15,""ArrowDown,ArrowRight"":23}","true","ArrowUp,ArrowRight","","[""19_0""]","","","","","","1","","",""
"html-keyboard-response","96","570678","0.0-3.0-15.0-4.0-1.1","pilot_wm_v1","null","3","null","null","true","","","","","","","null","<div style=""font-size:60px;"">+</div>","null","fixation","","","","","","","","","","","","","","","",""
"revaluation","97","574686","0.0-3.0-15.0-4.0-0.2","pilot_wm_v1","null","3","null","null","true","","false","","","","","[626.8999999910593]","./assets/img/space/animals/cat.jpg","[""ArrowRight""]","practice block","space","36","{""ArrowUp,ArrowLeft"":3,""ArrowUp,ArrowRight"":36,""ArrowDown,ArrowLeft"":15,""ArrowDown,ArrowRight"":23}","true","ArrowUp,ArrowRight","","[""20_0""]","","","","","","2","","",""
"html-keyboard-response","98","575189","0.0-3.0-15.0-4.0-1.2","pilot_wm_v1","null","3","null","null","true","","","","","","","null","<div style=""font-size:60px;"">+</div>","null","fixation","","","","","","","","","","","","","","","",""
"revaluation","99","579198","0.0-3.0-15.0-4.0-0.3","pilot_wm_v1","null","3","null","null","true","","false","","","","","[601.0999999940395]","./assets/img/space/animals/rabbit.jpg","[""ArrowRight""]","practice block","space","23","{""ArrowUp,ArrowLeft"":3,""ArrowUp,ArrowRight"":36,""ArrowDown,ArrowLeft"":15,""ArrowDown,ArrowRight"":23}","true","ArrowDown,ArrowRight","","[""22_3""]","","","","","","3","","",""
"html-keyboard-response","100","579701","0.0-3.0-15.0-4.0-1.3","pilot_wm_v1","null","3","null","null","true","","","","","","","null","<div style=""font-size:60px;"">+</div>","null","fixation","","","","","","","","","","","","","","","",""
"html-slider-response","101","583572","0.0-3.0-15.0-4.0-2.3-0.3","pilot_wm_v1","null","3","null","null","true","","","","","","","3868","<div style=""width:500px;"">
        <p>What is the password?</p>
        <img src='./assets/img/instructions/beep_chest.jpg' class='instructions-image'>","5","","","","","false","","","","50","82","77","","","","","",""
"learning-instructions","102","592788","0.0-3.0-15.0-5.0-0.0-0.0","pilot_wm_v1","null","3","null","null","true","","","","","","","1853.5999999940395","<p> Time to play the dot game! </p>
            <p> For 15 seconds, click the red dots on the following screen as they appear. </p>","","instructions","","","","","","","","","","","","","","","",""
"revaluation","103","607791","0.0-3.0-15.0-5.0-1.0-0.0","pilot_wm_v1","null","3","null","null","true","","","","","","","[67]","","","rest practice","","10","","","","","","","","","0","15000","","","",""
"learning-instructions","104","615906","0.0-3.0-15.0-6.0-0.0","pilot_wm_v1","null","3","null","null","true","","","","","","","null","<p> You have almost finished this part of the game! </p>
            <p> We are going to ask you to make a few more choices. </p>","","instructions","","","","","","","","","","","","","","","",""
"learning-instructions","105","631901","0.0-3.0-15.0-6.0-0.1","pilot_wm_v1","null","3","null","null","true","","","","","","","null","<p> First, you need to decide whether to go up or down. When you see each picture, use the arrow keys to make your choice. </p>
            <p><b>You will not see which animal you found, but try to get to the one that will give you the most treasure.</b></p>","","instructions","","","","","","","","","","","","","","","",""
"html-keyboard-response","106","632903","0.0-3.0-15.0-7.0-0.0","pilot_wm_v1","null","3","null","null","true","","","","","","","null","<div style=""font-size:100px;color:red;"">Starting in...</div>","null","","","","","","","","","","","","","","","","",""
"html-keyboard-response","107","633906","0.0-3.0-15.0-7.0-1.0","pilot_wm_v1","null","3","null","null","true","","","","","","","null","<div style=""font-size:200px;color:red;"">3</div>","null","","","","","","","","","","","","","","","","",""
"html-keyboard-response","108","634908","0.0-3.0-15.0-7.0-2.0","pilot_wm_v1","null","3","null","null","true","","","","","","","null","<div style=""font-size:200px;color:red;"">2</div>","null","","","","","","","","","","","","","","","","",""
"html-keyboard-response","109","635911","0.0-3.0-15.0-7.0-3.0","pilot_wm_v1","null","3","null","null","true","","","","","","","null","<div style=""font-size:200px;color:red;"">1</div>","null","","","","","","","","","","","","","","","","",""
"revaluation","110","636283","0.0-3.0-15.0-8.0","pilot_wm_v1","null","3","null","null","true","","false","","","","","[366.59999999403954]","./assets/img/space/15.jpg","[""ArrowUp""]","practice block","space","0","{""ArrowUp,ArrowLeft"":3,""ArrowUp,ArrowRight"":36,""ArrowDown,ArrowLeft"":15,""ArrowDown,ArrowRight"":23}","true","ArrowUp","false","","","","","","","","","",""
"html-keyboard-response","111","636785","0.0-3.0-15.0-9.0","pilot_wm_v1","null","3","null","null","true","","","","","","","null","<div style=""font-size:60px;"">+</div>","null","fixation","","","","","","","","","","","","","","","",""
"learning-instructions","112","650148","0.0-3.0-15.0-10.0-0.0","pilot_wm_v1","null","3","null","null","true","","","","","","","null","<p> Now you will see the animals again and can search their chests for treasure. </p>
            <p> This time, you will not see how much treasure you earned, but you will earn more bonus money for making better choices. </p>","","instructions","","","","","","","","","","","","","","","",""
"html-keyboard-response","113","651151","0.0-3.0-15.0-11.0-0.0","pilot_wm_v1","null","3","null","null","true","","","","","","","null","<div style=""font-size:100px;color:red;"">Starting in...</div>","null","","","","","","","","","","","","","","","","",""
"html-keyboard-response","114","652154","0.0-3.0-15.0-11.0-1.0","pilot_wm_v1","null","3","null","null","true","","","","","","","null","<div style=""font-size:200px;color:red;"">3</div>","null","","","","","","","","","","","","","","","","",""
"html-keyboard-response","115","653157","0.0-3.0-15.0-11.0-2.0","pilot_wm_v1","null","3","null","null","true","","","","","","","null","<div style=""font-size:200px;color:red;"">2</div>","null","","","","","","","","","","","","","","","","",""
"html-keyboard-response","116","654161","0.0-3.0-15.0-11.0-3.0","pilot_wm_v1","null","3","null","null","true","","","","","","","null","<div style=""font-size:200px;color:red;"">1</div>","null","","","","","","","","","","","","","","","","",""
"revaluation","117","654547","0.0-3.0-15.0-12.0-0.0","pilot_wm_v1","null","3","null","null","true","","false","","","","","[381.70000000298023]","./assets/img/space/animals/cat.jpg","[""ArrowRight""]","practice block","space","0","{""ArrowUp,ArrowLeft"":3,""ArrowUp,ArrowRight"":36,""ArrowDown,ArrowLeft"":15,""ArrowDown,ArrowRight"":23}","true","ArrowUp,ArrowRight","","","","","","","","","","",""
"html-keyboard-response","118","655048","0.0-3.0-15.0-12.0-1.0","pilot_wm_v1","null","3","null","null","true","","","","","","","null","<div style=""font-size:60px;"">+</div>","null","fixation","","","","","","","","","","","","","","","",""
"revaluation","119","655558","0.0-3.0-15.0-12.0-0.1","pilot_wm_v1","null","3","null","null","true","","false","","","","","[504.09999999403954]","./assets/img/space/animals/rabbit.jpg","[""ArrowRight""]","practice block","space","0","{""ArrowUp,ArrowLeft"":3,""ArrowUp,ArrowRight"":36,""ArrowDown,ArrowLeft"":15,""ArrowDown,ArrowRight"":23}","true","ArrowDown,ArrowRight","","","","","","","","","","",""
"html-keyboard-response","120","656060","0.0-3.0-15.0-12.0-1.1","pilot_wm_v1","null","3","null","null","true","","","","","","","null","<div style=""font-size:60px;"">+</div>","null","fixation","","","","","","","","","","","","","","","",""
"learning-instructions","121","662571","0.0-3.0-16.0-0.0","pilot_wm_v1","null","3","null","null","true","","","","","","","1939.2999999970198","<p> Before you start, we're going to ask you a few questions about how the game works. </p>","","instructions","","","","","","","","","","","","","","","",""
"comp-q","122","670004","0.0-3.0-17.0-0.0-0.0","pilot_wm_v1","null","3","null","null","true","","","","","","","1857.8999999910593","<p> <b> True or False? </b> </p>
            <p> There can be 50 pieces of treasure in a given animal's chest. </p>","1","comp_question","","","","true","","","","","","","","","","","",""
"comp-q","123","677875","0.0-3.0-17.0-0.0-1.0","pilot_wm_v1","null","3","null","null","true","","","","","","","1221.7000000029802","<p> <b> That's right! </b> The amount of treasure in each chest can range from 0 to 40 pieces. </p>","0","comp_answer","","","","","","","","","","","","","","","",""
"comp-q","124","686005","0.0-3.0-17.0-0.1-0.1","pilot_wm_v1","null","3","null","null","true","","","","","","","1026.1000000089407","<p> <b> True or False? </b> </p><p> In this game, all animals have the same amount of treasure in their left and right chests. </p>","1","comp_question","","","","true","","","","","","","","","","","",""
"comp-q","125","692673","0.0-3.0-17.0-0.1-1.1","pilot_wm_v1","null","3","null","null","true","","","","","","","1448.9000000059605","<p> <b> That's right! </b> Animals have different amounts of treasure in their treasure chests. </p>","0","comp_answer","","","","","","","","","","","","","","","",""
"comp-q","126","699505","0.0-3.0-17.0-0.2-0.2","pilot_wm_v1","null","3","null","null","true","","","","","","","995.5","<p> <b> True or False? </b> </p><p> The same animal will always be there if you go up in the same place. </p>","0","comp_question","","","","true","","","","","","","","","","","",""
"comp-q","127","707076","0.0-3.0-17.0-0.2-1.2","pilot_wm_v1","null","3","null","null","true","","","","","","","1136.6000000089407","<p> <b> That's right! </b> One animal lives in the upper part and one lives in the lower part of every place. </p>","0","comp_answer","","","","","","","","","","","","","","","",""
"comp-q","128","714955","0.0-3.0-17.0-0.3-0.3","pilot_wm_v1","null","3","null","null","true","","","","","","","2365.5","<p> <b> True or False? </b> </p><p> If you see a different picture, it means you are in a new place. </p>","1","comp_question","","","","true","","","","","","","","","","","",""
"comp-q","129","727722","0.0-3.0-17.0-0.3-1.3","pilot_wm_v1","null","3","null","null","true","","","","","","","1558.9000000059605","<p> <b> That's right! </b> Lots of different images may show the same place. For example,  you may see three different images that all remind you that you are in outer space. </p>","0","comp_answer","","","","","","","","","","","","","","","",""
"learning-instructions","130","739260","0.0-3.0-18.0-0.0","pilot_wm_v1","null","3","null","null","true","","","","","","","1698.7999999970198","<p> Good job. Remember to do your best because the amount of treasure you earn will be converted into bonus money. </p>
            <p> It’s time to start the real game! </p>","","instructions","","","","","","","","","","","","","","","",""
"learning-instructions","131","743706","0.0-4.0-0.0-0.0","pilot_wm_v1","null","3","null","null","true","","","","","","","1686.5","<p> This time you are searching for treasure in the <b>canyon</b>.</p>","","instructions","","","","","","","","","","","","","","","",""
"learning-instructions","132","762044","0.0-4.0-0.0-0.1","pilot_wm_v1","null","3","null","null","true","","","","","","","1068.9000000059605","<p><b>New</b> animals with <b>new</b> treasure chests live here. You need to explore to discover where the animal with the best treasure chest is.</p>
                    <p> Like before, once you figure out which animal has the chest with the most treasure, you should try to get to that animal and select that chest! </p>","","instructions","","","","","","","","","","","","","","","",""
"learning-instructions","133","778176","0.0-4.0-1.0-0.0","pilot_wm_v1","null","3","null","null","true","","","","","","","1403.2000000029802","<p> Remember, when you see a picture of the place, use the up and down keys to <b>find an animal</b>.</p>
            <p> When you encounter an animal, you should use the left and right keys to <b>select a treasure chest</b>.</p>
            <p> Don't forget to look out for the robber! </p>","","instructions","","","","","","","","","","","","","","","",""
"revaluation","134","784185","0.0-4.0-2.0-0.0","pilot_wm_v1","null","3","null","null","true","","false","","","","","[742.7000000029802,471.90000000596046]","./assets/img/canyon/memory/25.jpg","[""ArrowUp"",""ArrowLeft""]","value training","canyon","23","{""ArrowUp,ArrowLeft"":23,""ArrowUp,ArrowRight"":10,""ArrowDown,ArrowLeft"":8,""ArrowDown,ArrowRight"":30}","false","ArrowUp,ArrowLeft","false","","","","","","","0","original","1",""
"html-keyboard-response","135","784691","0.0-4.0-2.0-1.0","pilot_wm_v1","null","3","null","null","true","","","","","","","null","<div style=""font-size:60px;"">+</div>","null","fixation","","","","","","","","","","","","","1","","",""
"revaluation","136","790700","0.0-4.0-2.0-0.1","pilot_wm_v1","null","3","null","null","true","","false","","","","","[297.20000000298023,464.1000000089407]","./assets/img/canyon/memory/3.jpg","[""ArrowUp"",""ArrowRight""]","value training","canyon","10","{""ArrowUp,ArrowLeft"":23,""ArrowUp,ArrowRight"":10,""ArrowDown,ArrowLeft"":8,""ArrowDown,ArrowRight"":30}","false","ArrowUp,ArrowRight","false","","","","","","","2","original","1",""
"html-keyboard-response","137","791203","0.0-4.0-2.0-1.1","pilot_wm_v1","null","3","null","null","true","","","","","","","null","<div style=""font-size:60px;"">+</div>","null","fixation","","","","","","","","","","","","","3","","",""
"revaluation","138","797211","0.0-4.0-2.0-0.2","pilot_wm_v1","null","3","null","null","true","","false","","","","","[403.1000000089407,347.59999999403954]","./assets/img/canyon/memory/24.jpg","[""ArrowDown"",""ArrowLeft""]","value training","canyon","8","{""ArrowUp,ArrowLeft"":23,""ArrowUp,ArrowRight"":10,""ArrowDown,ArrowLeft"":8,""ArrowDown,ArrowRight"":30}","false","ArrowDown,ArrowLeft","false","","","","","","","4","original","1",""
"html-keyboard-response","139","797715","0.0-4.0-2.0-1.2","pilot_wm_v1","null","3","null","null","true","","","","","","","null","<div style=""font-size:60px;"">+</div>","null","fixation","","","","","","","","","","","","","5","","",""
"revaluation","140","803725","0.0-4.0-2.0-0.3","pilot_wm_v1","null","3","null","null","true","","false","","","","","[420.59999999403954,340.09999999403954]","./assets/img/canyon/memory/36.jpg","[""ArrowDown"",""ArrowRight""]","value training","canyon","30","{""ArrowUp,ArrowLeft"":23,""ArrowUp,ArrowRight"":10,""ArrowDown,ArrowLeft"":8,""ArrowDown,ArrowRight"":30}","true","ArrowDown,ArrowRight","false","","","","","","","6","original","1",""
"html-keyboard-response","141","804228","0.0-4.0-2.0-1.3","pilot_wm_v1","null","3","null","null","true","","","","","","","null","<div style=""font-size:60px;"">+</div>","null","fixation","","","","","","","","","","","","","7","","",""
"revaluation","142","810238","0.0-4.0-2.0-0.4","pilot_wm_v1","null","3","null","null","true","","false","","","","","[619.5,313.40000000596046]","./assets/img/canyon/memory/21.jpg","[""ArrowDown"",""ArrowRight""]","value training","canyon","30","{""ArrowUp,ArrowLeft"":23,""ArrowUp,ArrowRight"":10,""ArrowDown,ArrowLeft"":8,""ArrowDown,ArrowRight"":30}","true","ArrowDown,ArrowRight","false","","","","","","","8","original","1",""
"html-keyboard-response","143","810741","0.0-4.0-2.0-1.4","pilot_wm_v1","null","3","null","null","true","","","","","","","null","<div style=""font-size:60px;"">+</div>","null","fixation","","","","","","","","","","","","","9","","",""
"revaluation","144","816753","0.0-4.0-2.0-0.5","pilot_wm_v1","null","3","null","null","true","","false","","","","","[525.2000000029802,298.90000000596046]","./assets/img/canyon/memory/25.jpg","[""ArrowDown"",""ArrowRight""]","value training","canyon","30","{""ArrowUp,ArrowLeft"":23,""ArrowUp,ArrowRight"":10,""ArrowDown,ArrowLeft"":8,""ArrowDown,ArrowRight"":30}","true","ArrowDown,ArrowRight","false","","","","","","","10","original","1",""
"html-keyboard-response","145","817256","0.0-4.0-2.0-1.5","pilot_wm_v1","null","3","null","null","true","","","","","","","null","<div style=""font-size:60px;"">+</div>","null","fixation","","","","","","","","","","","","","11","","",""
"revaluation","146","823266","0.0-4.0-2.0-0.6","pilot_wm_v1","null","3","null","null","true","","false","","","","","[424.29999999701977,321.79999999701977]","./assets/img/canyon/memory/0.jpg","[""ArrowDown"",""ArrowRight""]","value training","canyon","30","{""ArrowUp,ArrowLeft"":23,""ArrowUp,ArrowRight"":10,""ArrowDown,ArrowLeft"":8,""ArrowDown,ArrowRight"":30}","true","ArrowDown,ArrowRight","false","","","","","","","12","original","1",""
"html-keyboard-response","147","823769","0.0-4.0-2.0-1.6","pilot_wm_v1","null","3","null","null","true","","","","","","","null","<div style=""font-size:60px;"">+</div>","null","fixation","","","","","","","","","","","","","13","","",""
"revaluation","148","829779","0.0-4.0-2.0-0.7","pilot_wm_v1","null","3","null","null","true","","false","","","","","[463.79999999701977,337.59999999403954]","./assets/img/canyon/memory/36.jpg","[""ArrowDown"",""ArrowRight""]","value training","canyon","30","{""ArrowUp,ArrowLeft"":23,""ArrowUp,ArrowRight"":10,""ArrowDown,ArrowLeft"":8,""ArrowDown,ArrowRight"":30}","true","ArrowDown,ArrowRight","false","","","","","","","14","original","1",""
"html-keyboard-response","149","830282","0.0-4.0-2.0-1.7","pilot_wm_v1","null","3","null","null","true","","","","","","","null","<div style=""font-size:60px;"">+</div>","null","fixation","","","","","","","","","","","","","15","","",""
"revaluation","150","836290","0.0-4.0-2.0-0.8","pilot_wm_v1","null","3","null","null","true","","false","","","","","[488.70000000298023,292.59999999403954]","./assets/img/canyon/memory/21.jpg","[""ArrowDown"",""ArrowRight""]","value training","canyon","30","{""ArrowUp,ArrowLeft"":23,""ArrowUp,ArrowRight"":10,""ArrowDown,ArrowLeft"":8,""ArrowDown,ArrowRight"":30}","true","ArrowDown,ArrowRight","false","","","","","","","16","original","1",""
"html-keyboard-response","151","836793","0.0-4.0-2.0-1.8","pilot_wm_v1","null","3","null","null","true","","","","","","","null","<div style=""font-size:60px;"">+</div>","null","fixation","","","","","","","","","","","","","17","","",""
"revaluation","152","842803","0.0-4.0-2.0-0.9","pilot_wm_v1","null","3","null","null","true","","false","","","","","[552.5,344.1000000089407]","./assets/img/canyon/memory/27.jpg","[""ArrowDown"",""ArrowRight""]","value training","canyon","30","{""ArrowUp,ArrowLeft"":23,""ArrowUp,ArrowRight"":10,""ArrowDown,ArrowLeft"":8,""ArrowDown,ArrowRight"":30}","true","ArrowDown,ArrowRight","false","","","","","","","18","original","1",""
"html-keyboard-response","153","843306","0.0-4.0-2.0-1.9","pilot_wm_v1","null","3","null","null","true","","","","","","","null","<div style=""font-size:60px;"">+</div>","null","fixation","","","","","","","","","","","","","19","","",""
"revaluation","154","849316","0.0-4.0-2.0-0.10","pilot_wm_v1","null","3","null","null","true","","false","","","","","[550.2999999970198,338.80000001192093]","./assets/img/canyon/memory/28.jpg","[""ArrowDown"",""ArrowRight""]","value training","canyon","30","{""ArrowUp,ArrowLeft"":23,""ArrowUp,ArrowRight"":10,""ArrowDown,ArrowLeft"":8,""ArrowDown,ArrowRight"":30}","true","ArrowDown,ArrowRight","false","","","","","","","20","original","1",""
"html-keyboard-response","155","849820","0.0-4.0-2.0-1.10","pilot_wm_v1","null","3","null","null","true","","","","","","","null","<div style=""font-size:60px;"">+</div>","null","fixation","","","","","","","","","","","","","21","","",""
"revaluation","156","853826","0.0-4.0-2.0-0.11","pilot_wm_v1","null","3","null","null","true","","false","","","","","[535.8000000119209]","./assets/img/canyon/catch/6.jpg","[""spaceBar""]","value training","canyon","0","{""ArrowUp,ArrowLeft"":23,""ArrowUp,ArrowRight"":10,""ArrowDown,ArrowLeft"":8,""ArrowDown,ArrowRight"":30}","true","spaceBar","true","","","","","","","22","original","1",""
"html-keyboard-response","157","854329","0.0-4.0-2.0-1.11","pilot_wm_v1","null","3","null","null","true","","","","","","","null","<div style=""font-size:60px;"">+</div>","null","fixation","","","","","","","","","","","","","23","","",""
"revaluation","158","858337","0.0-4.0-2.0-0.12","pilot_wm_v1","null","3","null","null","true","","false","","","","","[537.7000000029802]","./assets/img/canyon/catch/7.jpg","[""ArrowDown""]","value training","canyon","-10","{""ArrowUp,ArrowLeft"":23,""ArrowUp,ArrowRight"":10,""ArrowDown,ArrowLeft"":8,""ArrowDown,ArrowRight"":30}","false","ArrowDown","true","","","","","","","24","original","1",""
"html-keyboard-response","159","858840","0.0-4.0-2.0-1.12","pilot_wm_v1","null","3","null","null","true","","","","","","","null","<div style=""font-size:60px;"">+</div>","null","fixation","","","","","","","","","","","","","25","","",""
"revaluation","160","864849","0.0-4.0-2.0-0.13","pilot_wm_v1","null","3","null","null","true","","false","","","","","[1068.5,509.70000000298023]","./assets/img/canyon/memory/35.jpg","[""ArrowDown"",""ArrowRight""]","value training","canyon","30","{""ArrowUp,ArrowLeft"":23,""ArrowUp,ArrowRight"":10,""ArrowDown,ArrowLeft"":8,""ArrowDown,ArrowRight"":30}","true","ArrowDown,ArrowRight","false","","","","","","","26","original","1",""
"html-keyboard-response","161","865353","0.0-4.0-2.0-1.13","pilot_wm_v1","null","3","null","null","true","","","","","","","null","<div style=""font-size:60px;"">+</div>","null","fixation","","","","","","","","","","","","","27","","",""
"revaluation","162","871362","0.0-4.0-2.0-0.14","pilot_wm_v1","null","3","null","null","true","","false","","","","","[600.4000000059605,371.09999999403954]","./assets/img/canyon/memory/3.jpg","[""ArrowDown"",""ArrowRight""]","value training","canyon","30","{""ArrowUp,ArrowLeft"":23,""ArrowUp,ArrowRight"":10,""ArrowDown,ArrowLeft"":8,""ArrowDown,ArrowRight"":30}","true","ArrowDown,ArrowRight","false","","","","","","","28","original","1",""
"html-keyboard-response","163","871864","0.0-4.0-2.0-1.14","pilot_wm_v1","null","3","null","null","true","","","","","","","null","<div style=""font-size:60px;"">+</div>","null","fixation","","","","","","","","","","","","","29","","",""
"revaluation","164","877874","0.0-4.0-2.0-0.15","pilot_wm_v1","null","3","null","null","true","","false","","","","","[566.1999999880791,260.5]","./assets/img/canyon/memory/19.jpg","[""ArrowDown"",""ArrowRight""]","value training","canyon","30","{""ArrowUp,ArrowLeft"":23,""ArrowUp,ArrowRight"":10,""ArrowDown,ArrowLeft"":8,""ArrowDown,ArrowRight"":30}","true","ArrowDown,ArrowRight","false","","","","","","","30","original","1",""
"html-keyboard-response","165","878377","0.0-4.0-2.0-1.15","pilot_wm_v1","null","3","null","null","true","","","","","","","null","<div style=""font-size:60px;"">+</div>","null","fixation","","","","","","","","","","","","","31","","",""
"revaluation","166","882384","0.0-4.0-2.0-0.16","pilot_wm_v1","null","3","null","null","true","","false","","","","","[634.7999999970198]","./assets/img/canyon/catch/5.jpg","[""spaceBar""]","value training","canyon","0","{""ArrowUp,ArrowLeft"":23,""ArrowUp,ArrowRight"":10,""ArrowDown,ArrowLeft"":8,""ArrowDown,ArrowRight"":30}","true","spaceBar","true","","","","","","","32","original","1",""
"html-keyboard-response","167","882887","0.0-4.0-2.0-1.16","pilot_wm_v1","null","3","null","null","true","","","","","","","null","<div style=""font-size:60px;"">+</div>","null","fixation","","","","","","","","","","","","","33","","",""
"revaluation","168","888898","0.0-4.0-2.0-0.17","pilot_wm_v1","null","3","null","null","true","","false","","","","","[452.8999999910593,360.1000000089407]","./assets/img/canyon/memory/35.jpg","[""ArrowDown"",""ArrowRight""]","value training","canyon","30","{""ArrowUp,ArrowLeft"":23,""ArrowUp,ArrowRight"":10,""ArrowDown,ArrowLeft"":8,""ArrowDown,ArrowRight"":30}","true","ArrowDown,ArrowRight","false","","","","","","","34","original","1",""
"html-keyboard-response","169","889401","0.0-4.0-2.0-1.17","pilot_wm_v1","null","3","null","null","true","","","","","","","null","<div style=""font-size:60px;"">+</div>","null","fixation","","","","","","","","","","","","","35","","",""
"revaluation","170","895411","0.0-4.0-2.0-0.18","pilot_wm_v1","null","3","null","null","true","","false","","","","","[535,527.7999999970198]","./assets/img/canyon/memory/1.jpg","[""ArrowDown"",""ArrowRight""]","value training","canyon","30","{""ArrowUp,ArrowLeft"":23,""ArrowUp,ArrowRight"":10,""ArrowDown,ArrowLeft"":8,""ArrowDown,ArrowRight"":30}","true","ArrowDown,ArrowRight","false","","","","","","","36","original","1",""
"html-keyboard-response","171","895914","0.0-4.0-2.0-1.18","pilot_wm_v1","null","3","null","null","true","","","","","","","null","<div style=""font-size:60px;"">+</div>","null","fixation","","","","","","","","","","","","","37","","",""
"revaluation","172","901924","0.0-4.0-2.0-0.19","pilot_wm_v1","null","3","null","null","true","","false","","","","","[617.0999999940395,432.5]","./assets/img/canyon/memory/11.jpg","[""ArrowDown"",""ArrowRight""]","value training","canyon","30","{""ArrowUp,ArrowLeft"":23,""ArrowUp,ArrowRight"":10,""ArrowDown,ArrowLeft"":8,""ArrowDown,ArrowRight"":30}","true","ArrowDown,ArrowRight","false","","","","","","","38","original","1",""
"html-keyboard-response","173","902427","0.0-4.0-2.0-1.19","pilot_wm_v1","null","3","null","null","true","","","","","","","null","<div style=""font-size:60px;"">+</div>","null","fixation","","","","","","","","","","","","","39","","",""
"revaluation","174","908437","0.0-4.0-2.0-0.20","pilot_wm_v1","null","3","null","null","true","","false","","","","","[409.79999999701977,314.20000000298023]","./assets/img/canyon/memory/13.jpg","[""ArrowDown"",""ArrowRight""]","value training","canyon","30","{""ArrowUp,ArrowLeft"":23,""ArrowUp,ArrowRight"":10,""ArrowDown,ArrowLeft"":8,""ArrowDown,ArrowRight"":30}","true","ArrowDown,ArrowRight","false","","","","","","","40","original","1",""
"html-keyboard-response","175","908940","0.0-4.0-2.0-1.20","pilot_wm_v1","null","3","null","null","true","","","","","","","null","<div style=""font-size:60px;"">+</div>","null","fixation","","","","","","","","","","","","","41","","",""
"revaluation","176","914950","0.0-4.0-2.0-0.21","pilot_wm_v1","null","3","null","null","true","","false","","","","","[608.7999999970198,337]","./assets/img/canyon/memory/7.jpg","[""ArrowDown"",""ArrowRight""]","value training","canyon","30","{""ArrowUp,ArrowLeft"":23,""ArrowUp,ArrowRight"":10,""ArrowDown,ArrowLeft"":8,""ArrowDown,ArrowRight"":30}","true","ArrowDown,ArrowRight","false","","","","","","","42","original","1",""
"html-keyboard-response","177","915453","0.0-4.0-2.0-1.21","pilot_wm_v1","null","3","null","null","true","","","","","","","null","<div style=""font-size:60px;"">+</div>","null","fixation","","","","","","","","","","","","","43","","",""
"revaluation","178","921462","0.0-4.0-2.0-0.22","pilot_wm_v1","null","3","null","null","true","","false","","","","","[546.7999999970198,271.8999999910593]","./assets/img/canyon/memory/24.jpg","[""ArrowDown"",""ArrowRight""]","value training","canyon","30","{""ArrowUp,ArrowLeft"":23,""ArrowUp,ArrowRight"":10,""ArrowDown,ArrowLeft"":8,""ArrowDown,ArrowRight"":30}","true","ArrowDown,ArrowRight","false","","","","","","","44","original","1",""
"html-keyboard-response","179","921965","0.0-4.0-2.0-1.22","pilot_wm_v1","null","3","null","null","true","","","","","","","null","<div style=""font-size:60px;"">+</div>","null","fixation","","","","","","","","","","","","","45","","",""
"revaluation","180","927976","0.0-4.0-2.0-0.23","pilot_wm_v1","null","3","null","null","true","","false","","","","","[497.80000001192093,327.59999999403954]","./assets/img/canyon/memory/33.jpg","[""ArrowDown"",""ArrowRight""]","value training","canyon","30","{""ArrowUp,ArrowLeft"":23,""ArrowUp,ArrowRight"":10,""ArrowDown,ArrowLeft"":8,""ArrowDown,ArrowRight"":30}","true","ArrowDown,ArrowRight","false","","","","","","","46","original","1",""
"html-keyboard-response","181","928479","0.0-4.0-2.0-1.23","pilot_wm_v1","null","3","null","null","true","","","","","","","null","<div style=""font-size:60px;"">+</div>","null","fixation","","","","","","","","","","","","","47","","",""
"revaluation","182","932486","0.0-4.0-2.0-0.24","pilot_wm_v1","null","3","null","null","true","","false","","","","","[762.1000000089407]","./assets/img/canyon/catch/1.jpg","[""spaceBar""]","value training","canyon","0","{""ArrowUp,ArrowLeft"":23,""ArrowUp,ArrowRight"":10,""ArrowDown,ArrowLeft"":8,""ArrowDown,ArrowRight"":30}","true","spaceBar","true","","","","","","","48","original","1",""
"html-keyboard-response","183","932989","0.0-4.0-2.0-1.24","pilot_wm_v1","null","3","null","null","true","","","","","","","null","<div style=""font-size:60px;"">+</div>","null","fixation","","","","","","","","","","","","","49","","",""
"revaluation","184","938997","0.0-4.0-2.0-0.25","pilot_wm_v1","null","3","null","null","true","","false","","","","","[572.2999999970198,314.09999999403954]","./assets/img/canyon/memory/29.jpg","[""ArrowDown"",""ArrowRight""]","value training","canyon","30","{""ArrowUp,ArrowLeft"":23,""ArrowUp,ArrowRight"":10,""ArrowDown,ArrowLeft"":8,""ArrowDown,ArrowRight"":30}","true","ArrowDown,ArrowRight","false","","","","","","","50","original","1",""
"html-keyboard-response","185","939500","0.0-4.0-2.0-1.25","pilot_wm_v1","null","3","null","null","true","","","","","","","null","<div style=""font-size:60px;"">+</div>","null","fixation","","","","","","","","","","","","","51","","",""
"revaluation","186","943508","0.0-4.0-2.0-0.26","pilot_wm_v1","null","3","null","null","true","","false","","","","","[615.1000000089407]","./assets/img/canyon/catch/3.jpg","[""spaceBar""]","value training","canyon","0","{""ArrowUp,ArrowLeft"":23,""ArrowUp,ArrowRight"":10,""ArrowDown,ArrowLeft"":8,""ArrowDown,ArrowRight"":30}","true","spaceBar","true","","","","","","","52","original","1",""
"html-keyboard-response","187","944011","0.0-4.0-2.0-1.26","pilot_wm_v1","null","3","null","null","true","","","","","","","null","<div style=""font-size:60px;"">+</div>","null","fixation","","","","","","","","","","","","","53","","",""
"revaluation","188","950019","0.0-4.0-2.0-0.27","pilot_wm_v1","null","3","null","null","true","","false","","","","","[524,314.5]","./assets/img/canyon/memory/33.jpg","[""ArrowDown"",""ArrowRight""]","value training","canyon","30","{""ArrowUp,ArrowLeft"":23,""ArrowUp,ArrowRight"":10,""ArrowDown,ArrowLeft"":8,""ArrowDown,ArrowRight"":30}","true","ArrowDown,ArrowRight","false","","","","","","","54","original","1",""
"html-keyboard-response","189","950523","0.0-4.0-2.0-1.27","pilot_wm_v1","null","3","null","null","true","","","","","","","null","<div style=""font-size:60px;"">+</div>","null","fixation","","","","","","","","","","","","","55","","",""
"revaluation","190","956533","0.0-4.0-2.0-0.28","pilot_wm_v1","null","3","null","null","true","","false","","","","","[943.2000000029802,276.5]","./assets/img/canyon/memory/7.jpg","[""ArrowDown"",""ArrowRight""]","value training","canyon","30","{""ArrowUp,ArrowLeft"":23,""ArrowUp,ArrowRight"":10,""ArrowDown,ArrowLeft"":8,""ArrowDown,ArrowRight"":30}","true","ArrowDown,ArrowRight","false","","","","","","","56","original","1",""
"html-keyboard-response","191","957036","0.0-4.0-2.0-1.28","pilot_wm_v1","null","3","null","null","true","","","","","","","null","<div style=""font-size:60px;"">+</div>","null","fixation","","","","","","","","","","","","","57","","",""
"revaluation","192","961045","0.0-4.0-2.0-0.29","pilot_wm_v1","null","3","null","null","true","","false","","","","","[516.2999999970198]","./assets/img/canyon/catch/4.jpg","[""spaceBar""]","value training","canyon","0","{""ArrowUp,ArrowLeft"":23,""ArrowUp,ArrowRight"":10,""ArrowDown,ArrowLeft"":8,""ArrowDown,ArrowRight"":30}","true","spaceBar","true","","","","","","","58","original","1",""
"html-keyboard-response","193","961548","0.0-4.0-2.0-1.29","pilot_wm_v1","null","3","null","null","true","","","","","","","null","<div style=""font-size:60px;"">+</div>","null","fixation","","","","","","","","","","","","","59","","",""
"revaluation","194","967558","0.0-4.0-2.0-0.30","pilot_wm_v1","null","3","null","null","true","","false","","","","","[499.79999999701977,457.79999999701977]","./assets/img/canyon/memory/1.jpg","[""ArrowDown"",""ArrowRight""]","value training","canyon","30","{""ArrowUp,ArrowLeft"":23,""ArrowUp,ArrowRight"":10,""ArrowDown,ArrowLeft"":8,""ArrowDown,ArrowRight"":30}","true","ArrowDown,ArrowRight","false","","","","","","","60","original","1",""
"html-keyboard-response","195","968061","0.0-4.0-2.0-1.30","pilot_wm_v1","null","3","null","null","true","","","","","","","null","<div style=""font-size:60px;"">+</div>","null","fixation","","","","","","","","","","","","","61","","",""
"revaluation","196","974072","0.0-4.0-2.0-0.31","pilot_wm_v1","null","3","null","null","true","","false","","","","","[465.5,383.5]","./assets/img/canyon/memory/19.jpg","[""ArrowDown"",""ArrowRight""]","value training","canyon","30","{""ArrowUp,ArrowLeft"":23,""ArrowUp,ArrowRight"":10,""ArrowDown,ArrowLeft"":8,""ArrowDown,ArrowRight"":30}","true","ArrowDown,ArrowRight","false","","","","","","","62","original","1",""
"html-keyboard-response","197","974575","0.0-4.0-2.0-1.31","pilot_wm_v1","null","3","null","null","true","","","","","","","null","<div style=""font-size:60px;"">+</div>","null","fixation","","","","","","","","","","","","","63","","",""
"revaluation","198","980586","0.0-4.0-2.0-0.32","pilot_wm_v1","null","3","null","null","true","","false","","","","","[570.1000000089407,370.40000000596046]","./assets/img/canyon/memory/29.jpg","[""ArrowDown"",""ArrowRight""]","value training","canyon","30","{""ArrowUp,ArrowLeft"":23,""ArrowUp,ArrowRight"":10,""ArrowDown,ArrowLeft"":8,""ArrowDown,ArrowRight"":30}","true","ArrowDown,ArrowRight","false","","","","","","","64","original","1",""
"html-keyboard-response","199","981089","0.0-4.0-2.0-1.32","pilot_wm_v1","null","3","null","null","true","","","","","","","null","<div style=""font-size:60px;"">+</div>","null","fixation","","","","","","","","","","","","","65","","",""
"revaluation","200","987098","0.0-4.0-2.0-0.33","pilot_wm_v1","null","3","null","null","true","","false","","","","","[646.4000000059605,367.40000000596046]","./assets/img/canyon/memory/32.jpg","[""ArrowDown"",""ArrowRight""]","value training","canyon","30","{""ArrowUp,ArrowLeft"":23,""ArrowUp,ArrowRight"":10,""ArrowDown,ArrowLeft"":8,""ArrowDown,ArrowRight"":30}","true","ArrowDown,ArrowRight","false","","","","","","","66","original","1",""
"html-keyboard-response","201","987601","0.0-4.0-2.0-1.33","pilot_wm_v1","null","3","null","null","true","","","","","","","null","<div style=""font-size:60px;"">+</div>","null","fixation","","","","","","","","","","","","","67","","",""
"revaluation","202","991608","0.0-4.0-2.0-0.34","pilot_wm_v1","null","3","null","null","true","","false","","","","","[557.1000000089407]","./assets/img/canyon/catch/0.jpg","[""spaceBar""]","value training","canyon","0","{""ArrowUp,ArrowLeft"":23,""ArrowUp,ArrowRight"":10,""ArrowDown,ArrowLeft"":8,""ArrowDown,ArrowRight"":30}","true","spaceBar","true","","","","","","","68","original","1",""
"html-keyboard-response","203","992110","0.0-4.0-2.0-1.34","pilot_wm_v1","null","3","null","null","true","","","","","","","null","<div style=""font-size:60px;"">+</div>","null","fixation","","","","","","","","","","","","","69","","",""
"revaluation","204","998119","0.0-4.0-2.0-0.35","pilot_wm_v1","null","3","null","null","true","","false","","","","","[414,309.20000000298023]","./assets/img/canyon/memory/13.jpg","[""ArrowDown"",""ArrowRight""]","value training","canyon","30","{""ArrowUp,ArrowLeft"":23,""ArrowUp,ArrowRight"":10,""ArrowDown,ArrowLeft"":8,""ArrowDown,ArrowRight"":30}","true","ArrowDown,ArrowRight","false","","","","","","","70","original","1",""
"html-keyboard-response","205","998622","0.0-4.0-2.0-1.35","pilot_wm_v1","null","3","null","null","true","","","","","","","null","<div style=""font-size:60px;"">+</div>","null","fixation","","","","","","","","","","","","","71","","",""
"revaluation","206","1004633","0.0-4.0-2.0-0.36","pilot_wm_v1","null","3","null","null","true","","false","","","","","[502.1000000089407,409]","./assets/img/canyon/memory/22.jpg","[""ArrowDown"",""ArrowRight""]","value training","canyon","30","{""ArrowUp,ArrowLeft"":23,""ArrowUp,ArrowRight"":10,""ArrowDown,ArrowLeft"":8,""ArrowDown,ArrowRight"":30}","true","ArrowDown,ArrowRight","false","","","","","","","72","original","1",""
"html-keyboard-response","207","1005135","0.0-4.0-2.0-1.36","pilot_wm_v1","null","3","null","null","true","","","","","","","null","<div style=""font-size:60px;"">+</div>","null","fixation","","","","","","","","","","","","","73","","",""
"revaluation","208","1011144","0.0-4.0-2.0-0.37","pilot_wm_v1","null","3","null","null","true","","false","","","","","[518.2999999970198,255.40000000596046]","./assets/img/canyon/memory/30.jpg","[""ArrowDown"",""ArrowRight""]","value training","canyon","30","{""ArrowUp,ArrowLeft"":23,""ArrowUp,ArrowRight"":10,""ArrowDown,ArrowLeft"":8,""ArrowDown,ArrowRight"":30}","true","ArrowDown,ArrowRight","false","","","","","","","74","original","1",""
"html-keyboard-response","209","1011647","0.0-4.0-2.0-1.37","pilot_wm_v1","null","3","null","null","true","","","","","","","null","<div style=""font-size:60px;"">+</div>","null","fixation","","","","","","","","","","","","","75","","",""
"revaluation","210","1017657","0.0-4.0-2.0-0.38","pilot_wm_v1","null","3","null","null","true","","false","","","","","[560.7000000029802,686.5]","./assets/img/canyon/memory/30.jpg","[""ArrowDown"",""ArrowRight""]","value training","canyon","30","{""ArrowUp,ArrowLeft"":23,""ArrowUp,ArrowRight"":10,""ArrowDown,ArrowLeft"":8,""ArrowDown,ArrowRight"":30}","true","ArrowDown,ArrowRight","false","","","","","","","76","original","1",""
"html-keyboard-response","211","1018160","0.0-4.0-2.0-1.38","pilot_wm_v1","null","3","null","null","true","","","","","","","null","<div style=""font-size:60px;"">+</div>","null","fixation","","","","","","","","","","","","","77","","",""
"revaluation","212","1024170","0.0-4.0-2.0-0.39","pilot_wm_v1","null","3","null","null","true","","false","","","","","[397,387.30000001192093]","./assets/img/canyon/memory/11.jpg","[""ArrowDown"",""ArrowRight""]","value training","canyon","30","{""ArrowUp,ArrowLeft"":23,""ArrowUp,ArrowRight"":10,""ArrowDown,ArrowLeft"":8,""ArrowDown,ArrowRight"":30}","true","ArrowDown,ArrowRight","false","","","","","","","78","original","1",""
"html-keyboard-response","213","1024673","0.0-4.0-2.0-1.39","pilot_wm_v1","null","3","null","null","true","","","","","","","null","<div style=""font-size:60px;"">+</div>","null","fixation","","","","","","","","","","","","","79","","",""
"revaluation","214","1030682","0.0-4.0-2.0-0.40","pilot_wm_v1","null","3","null","null","true","","false","","","","","[384.20000000298023,461.3999999910593]","./assets/img/canyon/memory/27.jpg","[""ArrowDown"",""ArrowRight""]","value training","canyon","30","{""ArrowUp,ArrowLeft"":23,""ArrowUp,ArrowRight"":10,""ArrowDown,ArrowLeft"":8,""ArrowDown,ArrowRight"":30}","true","ArrowDown,ArrowRight","false","","","","","","","80","original","1",""
"html-keyboard-response","215","1031185","0.0-4.0-2.0-1.40","pilot_wm_v1","null","3","null","null","true","","","","","","","null","<div style=""font-size:60px;"">+</div>","null","fixation","","","","","","","","","","","","","81","","",""
"revaluation","216","1037195","0.0-4.0-2.0-0.41","pilot_wm_v1","null","3","null","null","true","","false","","","","","[600.5,526.2000000029802]","./assets/img/canyon/memory/38.jpg","[""ArrowDown"",""ArrowRight""]","value training","canyon","30","{""ArrowUp,ArrowLeft"":23,""ArrowUp,ArrowRight"":10,""ArrowDown,ArrowLeft"":8,""ArrowDown,ArrowRight"":30}","true","ArrowDown,ArrowRight","false","","","","","","","82","original","1",""
"html-keyboard-response","217","1037698","0.0-4.0-2.0-1.41","pilot_wm_v1","null","3","null","null","true","","","","","","","null","<div style=""font-size:60px;"">+</div>","null","fixation","","","","","","","","","","","","","83","","",""
"revaluation","218","1043709","0.0-4.0-2.0-0.42","pilot_wm_v1","null","3","null","null","true","","false","","","","","[514.2999999970198,420.6000000089407]","./assets/img/canyon/memory/38.jpg","[""ArrowDown"",""ArrowRight""]","value training","canyon","30","{""ArrowUp,ArrowLeft"":23,""ArrowUp,ArrowRight"":10,""ArrowDown,ArrowLeft"":8,""ArrowDown,ArrowRight"":30}","true","ArrowDown,ArrowRight","false","","","","","","","84","original","1",""
"html-keyboard-response","219","1044212","0.0-4.0-2.0-1.42","pilot_wm_v1","null","3","null","null","true","","","","","","","null","<div style=""font-size:60px;"">+</div>","null","fixation","","","","","","","","","","","","","85","","",""
"revaluation","220","1050221","0.0-4.0-2.0-0.43","pilot_wm_v1","null","3","null","null","true","","false","","","","","[515.5,279.59999999403954]","./assets/img/canyon/memory/16.jpg","[""ArrowDown"",""ArrowRight""]","value training","canyon","30","{""ArrowUp,ArrowLeft"":23,""ArrowUp,ArrowRight"":10,""ArrowDown,ArrowLeft"":8,""ArrowDown,ArrowRight"":30}","true","ArrowDown,ArrowRight","false","","","","","","","86","original","1",""
"html-keyboard-response","221","1050724","0.0-4.0-2.0-1.43","pilot_wm_v1","null","3","null","null","true","","","","","","","null","<div style=""font-size:60px;"">+</div>","null","fixation","","","","","","","","","","","","","87","","",""
"revaluation","222","1056733","0.0-4.0-2.0-0.44","pilot_wm_v1","null","3","null","null","true","","false","","","","","[510,276.69999998807907]","./assets/img/canyon/memory/0.jpg","[""ArrowDown"",""ArrowRight""]","value training","canyon","30","{""ArrowUp,ArrowLeft"":23,""ArrowUp,ArrowRight"":10,""ArrowDown,ArrowLeft"":8,""ArrowDown,ArrowRight"":30}","true","ArrowDown,ArrowRight","false","","","","","","","88","original","1",""
"html-keyboard-response","223","1057236","0.0-4.0-2.0-1.44","pilot_wm_v1","null","3","null","null","true","","","","","","","null","<div style=""font-size:60px;"">+</div>","null","fixation","","","","","","","","","","","","","89","","",""
"revaluation","224","1063245","0.0-4.0-2.0-0.45","pilot_wm_v1","null","3","null","null","true","","false","","","","","[367.20000000298023,493.6000000089407]","./assets/img/canyon/memory/32.jpg","[""ArrowDown"",""ArrowRight""]","value training","canyon","30","{""ArrowUp,ArrowLeft"":23,""ArrowUp,ArrowRight"":10,""ArrowDown,ArrowLeft"":8,""ArrowDown,ArrowRight"":30}","true","ArrowDown,ArrowRight","false","","","","","","","90","original","1",""
"html-keyboard-response","225","1063749","0.0-4.0-2.0-1.45","pilot_wm_v1","null","3","null","null","true","","","","","","","null","<div style=""font-size:60px;"">+</div>","null","fixation","","","","","","","","","","","","","91","","",""
"revaluation","226","1069758","0.0-4.0-2.0-0.46","pilot_wm_v1","null","3","null","null","true","","false","","","","","[477.90000000596046,380.29999999701977]","./assets/img/canyon/memory/16.jpg","[""ArrowDown"",""ArrowRight""]","value training","canyon","30","{""ArrowUp,ArrowLeft"":23,""ArrowUp,ArrowRight"":10,""ArrowDown,ArrowLeft"":8,""ArrowDown,ArrowRight"":30}","true","ArrowDown,ArrowRight","false","","","","","","","92","original","1",""
"html-keyboard-response","227","1070261","0.0-4.0-2.0-1.46","pilot_wm_v1","null","3","null","null","true","","","","","","","null","<div style=""font-size:60px;"">+</div>","null","fixation","","","","","","","","","","","","","93","","",""
"revaluation","228","1076271","0.0-4.0-2.0-0.47","pilot_wm_v1","null","3","null","null","true","","false","","","","","[487.69999998807907,354.40000000596046]","./assets/img/canyon/memory/28.jpg","[""ArrowDown"",""ArrowRight""]","value training","canyon","30","{""ArrowUp,ArrowLeft"":23,""ArrowUp,ArrowRight"":10,""ArrowDown,ArrowLeft"":8,""ArrowDown,ArrowRight"":30}","true","ArrowDown,ArrowRight","false","","","","","","","94","original","1",""
"html-keyboard-response","229","1076773","0.0-4.0-2.0-1.47","pilot_wm_v1","null","3","null","null","true","","","","","","","null","<div style=""font-size:60px;"">+</div>","null","fixation","","","","","","","","","","","","","95","","",""
"revaluation","230","1082783","0.0-4.0-2.0-0.48","pilot_wm_v1","null","3","null","null","true","","false","","","","","[457.79999999701977,443.5]","./assets/img/canyon/memory/22.jpg","[""ArrowDown"",""ArrowRight""]","value training","canyon","30","{""ArrowUp,ArrowLeft"":23,""ArrowUp,ArrowRight"":10,""ArrowDown,ArrowLeft"":8,""ArrowDown,ArrowRight"":30}","true","ArrowDown,ArrowRight","false","","","","","","","96","original","1",""
"html-keyboard-response","231","1083287","0.0-4.0-2.0-1.48","pilot_wm_v1","null","3","null","null","true","","","","","","","null","<div style=""font-size:60px;"">+</div>","null","fixation","","","","","","","","","","","","","97","","",""
"revaluation","232","1087294","0.0-4.0-2.0-0.49","pilot_wm_v1","null","3","null","null","true","","false","","","","","[773.3999999910593]","./assets/img/canyon/catch/2.jpg","[""spaceBar""]","value training","canyon","0","{""ArrowUp,ArrowLeft"":23,""ArrowUp,ArrowRight"":10,""ArrowDown,ArrowLeft"":8,""ArrowDown,ArrowRight"":30}","true","spaceBar","true","","","","","","","98","original","1",""
"html-keyboard-response","233","1087798","0.0-4.0-2.0-1.49","pilot_wm_v1","null","3","null","null","true","","","","","","","null","<div style=""font-size:60px;"">+</div>","null","fixation","","","","","","","","","","","","","99","","",""
"learning-instructions","234","1102132","0.0-4.0-3.0-0.0","pilot_wm_v1","null","3","null","null","true","","","","","","","1418.5999999940395","<p> Now, you will travel with a friend who will choose whether you go up or down first. </p>
            <p> On these turns, you will just see the animal that they found. You will still get to choose which chest to search for treasure.</p>","","instructions","","","","","","","","","","","","","","","",""
"learning-instructions","235","1115283","0.0-4.0-3.0-0.1","pilot_wm_v1","null","3","null","null","true","","","","","","","1544","<p> In this part, you will also hear beeps from your friend and see special treasure chests that need a password. </p>
            <p> Do your best to count the high beeps <b>and</b> choose between each animals' chests at the same time.</p>
            <img src='./assets/img/instructions/beep_chest.jpg' class='instructions-image'>","","instructions","","","","","","","","","","","","","","","",""
"revaluation","236","1119289","0.0-4.0-4.0-0.0","pilot_wm_v1","null","3","null","null","true","","false","","","","","[718.4000000059605]","./assets/img/canyon/animals/lion.jpg","[""ArrowRight""]","revaluation","canyon","30","{""ArrowUp,ArrowLeft"":23,""ArrowUp,ArrowRight"":10,""ArrowDown,ArrowLeft"":8,""ArrowDown,ArrowRight"":30}","true","ArrowDown,ArrowRight","","18_0","","","","","","0","original","1",""
"html-keyboard-response","237","1119796","0.0-4.0-4.0-1.0","pilot_wm_v1","null","3","null","null","true","","","","","","","null","<div style=""font-size:60px;"">+</div>","null","fixation","","","","","","","","","","","","","","","",""
"revaluation","238","1123804","0.0-4.0-4.0-0.1","pilot_wm_v1","null","3","null","null","true","","false","","","","","[626.2999999970198]","./assets/img/canyon/animals/lion.jpg","[""ArrowLeft""]","revaluation","canyon","8","{""ArrowUp,ArrowLeft"":23,""ArrowUp,ArrowRight"":10,""ArrowDown,ArrowLeft"":8,""ArrowDown,ArrowRight"":30}","false","ArrowDown,ArrowLeft","","11_4","","","","","","1","original","1",""
"html-keyboard-response","239","1124306","0.0-4.0-4.0-1.1","pilot_wm_v1","null","3","null","null","true","","","","","","","null","<div style=""font-size:60px;"">+</div>","null","fixation","","","","","","","","","","","","","","","",""
"revaluation","240","1128314","0.0-4.0-4.0-0.2","pilot_wm_v1","null","3","null","null","true","","false","","","","","[768.9000000059605]","./assets/img/canyon/animals/giraffe.jpg","[""ArrowLeft""]","revaluation","canyon","23","{""ArrowUp,ArrowLeft"":23,""ArrowUp,ArrowRight"":10,""ArrowDown,ArrowLeft"":8,""ArrowDown,ArrowRight"":30}","true","ArrowUp,ArrowLeft","","3_0","","","","","","2","original","1",""
"html-keyboard-response","241","1128818","0.0-4.0-4.0-1.2","pilot_wm_v1","null","3","null","null","true","","","","","","","null","<div style=""font-size:60px;"">+</div>","null","fixation","","","","","","","","","","","","","","","",""
"revaluation","242","1132827","0.0-4.0-4.0-0.3","pilot_wm_v1","null","3","null","null","true","","false","","","","","[623.2999999970198]","./assets/img/canyon/animals/lion.jpg","[""ArrowRight""]","revaluation","canyon","30","{""ArrowUp,ArrowLeft"":23,""ArrowUp,ArrowRight"":10,""ArrowDown,ArrowLeft"":8,""ArrowDown,ArrowRight"":30}","true","ArrowDown,ArrowRight","","10_3","","","","","","3","original","1",""
"html-keyboard-response","243","1133330","0.0-4.0-4.0-1.3","pilot_wm_v1","null","3","null","null","true","","","","","","","null","<div style=""font-size:60px;"">+</div>","null","fixation","","","","","","","","","","","","","","","",""
"html-slider-response","244","1137467","0.0-4.0-4.0-2.3-0.3","pilot_wm_v1","null","3","null","null","true","","","","","","","4133","<div style=""width:500px;"">
        <p>What is the password?</p>
        <img src='./assets/img/instructions/beep_chest.jpg' class='instructions-image'>","7","","","","","true","","","","50","7","0","","","","","",""
"revaluation","245","1141474","0.0-4.0-4.0-0.4","pilot_wm_v1","null","3","null","null","true","","false","","","","","[976.5]","./assets/img/canyon/animals/lion.jpg","[""ArrowRight""]","revaluation","canyon","30","{""ArrowUp,ArrowLeft"":23,""ArrowUp,ArrowRight"":10,""ArrowDown,ArrowLeft"":8,""ArrowDown,ArrowRight"":30}","true","ArrowDown,ArrowRight","","13_2","","","","","","4","original","1",""
"html-keyboard-response","246","1141976","0.0-4.0-4.0-1.4","pilot_wm_v1","null","3","null","null","true","","","","","","","null","<div style=""font-size:60px;"">+</div>","null","fixation","","","","","","","","","","","","","","","",""
"revaluation","247","1145984","0.0-4.0-4.0-0.5","pilot_wm_v1","null","3","null","null","true","","false","","","","","[676.5]","./assets/img/canyon/animals/lion.jpg","[""ArrowRight""]","revaluation","canyon","30","{""ArrowUp,ArrowLeft"":23,""ArrowUp,ArrowRight"":10,""ArrowDown,ArrowLeft"":8,""ArrowDown,ArrowRight"":30}","true","ArrowDown,ArrowRight","","14_4","","","","","","5","original","1",""
"html-keyboard-response","248","1146488","0.0-4.0-4.0-1.5","pilot_wm_v1","null","3","null","null","true","","","","","","","null","<div style=""font-size:60px;"">+</div>","null","fixation","","","","","","","","","","","","","","","",""
"revaluation","249","1150496","0.0-4.0-4.0-0.6","pilot_wm_v1","null","3","null","null","true","","false","","","","","[1232.7999999970198]","./assets/img/canyon/animals/lion.jpg","[""ArrowRight""]","revaluation","canyon","30","{""ArrowUp,ArrowLeft"":23,""ArrowUp,ArrowRight"":10,""ArrowDown,ArrowLeft"":8,""ArrowDown,ArrowRight"":30}","true","ArrowDown,ArrowRight","","12_2","","","","","","6","original","1",""
"html-keyboard-response","250","1150998","0.0-4.0-4.0-1.6","pilot_wm_v1","null","3","null","null","true","","","","","","","null","<div style=""font-size:60px;"">+</div>","null","fixation","","","","","","","","","","","","","","","",""
"revaluation","251","1155006","0.0-4.0-4.0-0.7","pilot_wm_v1","null","3","null","null","true","","false","","","","","[668.2999999970198]","./assets/img/canyon/animals/giraffe.jpg","[""ArrowLeft""]","revaluation","canyon","23","{""ArrowUp,ArrowLeft"":23,""ArrowUp,ArrowRight"":10,""ArrowDown,ArrowLeft"":8,""ArrowDown,ArrowRight"":30}","true","ArrowUp,ArrowLeft","","1_4","","","","","","7","original","1",""
"html-keyboard-response","252","1155510","0.0-4.0-4.0-1.7","pilot_wm_v1","null","3","null","null","true","","","","","","","null","<div style=""font-size:60px;"">+</div>","null","fixation","","","","","","","","","","","","","","","",""
"html-slider-response","253","1159033","0.0-4.0-4.0-2.7-0.7","pilot_wm_v1","null","3","null","null","true","","","","","","","3521","<div style=""width:500px;"">
        <p>What is the password?</p>
        <img src='./assets/img/instructions/beep_chest.jpg' class='instructions-image'>","12","","","","","true","","","","50","12","0","","","","","",""
"revaluation","254","1163040","0.0-4.0-4.0-0.8","pilot_wm_v1","null","3","null","null","true","","false","","","","","[1060.7999999970198]","./assets/img/canyon/animals/giraffe.jpg","[""ArrowLeft""]","revaluation","canyon","23","{""ArrowUp,ArrowLeft"":23,""ArrowUp,ArrowRight"":10,""ArrowDown,ArrowLeft"":8,""ArrowDown,ArrowRight"":30}","true","ArrowUp,ArrowLeft","","4_0","","","","","","8","original","1",""
"html-keyboard-response","255","1163543","0.0-4.0-4.0-1.8","pilot_wm_v1","null","3","null","null","true","","","","","","","null","<div style=""font-size:60px;"">+</div>","null","fixation","","","","","","","","","","","","","","","",""
"revaluation","256","1167551","0.0-4.0-4.0-0.9","pilot_wm_v1","null","3","null","null","true","","false","","","","","[1543.7000000029802]","./assets/img/canyon/animals/giraffe.jpg","[""ArrowLeft""]","revaluation","canyon","23","{""ArrowUp,ArrowLeft"":23,""ArrowUp,ArrowRight"":10,""ArrowDown,ArrowLeft"":8,""ArrowDown,ArrowRight"":30}","true","ArrowUp,ArrowLeft","","9_2","","","","","","9","original","1",""
"html-keyboard-response","257","1168054","0.0-4.0-4.0-1.9","pilot_wm_v1","null","3","null","null","true","","","","","","","null","<div style=""font-size:60px;"">+</div>","null","fixation","","","","","","","","","","","","","","","",""
"revaluation","258","1172062","0.0-4.0-4.0-0.10","pilot_wm_v1","null","3","null","null","true","","false","","","","","[819.2000000029802]","./assets/img/canyon/animals/lion.jpg","[""ArrowRight""]","revaluation","canyon","30","{""ArrowUp,ArrowLeft"":23,""ArrowUp,ArrowRight"":10,""ArrowDown,ArrowLeft"":8,""ArrowDown,ArrowRight"":30}","true","ArrowDown,ArrowRight","","17_1","","","","","","10","original","1",""
"html-keyboard-response","259","1172565","0.0-4.0-4.0-1.10","pilot_wm_v1","null","3","null","null","true","","","","","","","null","<div style=""font-size:60px;"">+</div>","null","fixation","","","","","","","","","","","","","","","",""
"revaluation","260","1176571","0.0-4.0-4.0-0.11","pilot_wm_v1","null","3","null","null","true","","false","","","","","[1181.2000000029802]","./assets/img/canyon/animals/giraffe.jpg","[""ArrowLeft""]","revaluation","canyon","23","{""ArrowUp,ArrowLeft"":23,""ArrowUp,ArrowRight"":10,""ArrowDown,ArrowLeft"":8,""ArrowDown,ArrowRight"":30}","true","ArrowUp,ArrowLeft","","5_4","","","","","","11","original","1",""
"html-keyboard-response","261","1177074","0.0-4.0-4.0-1.11","pilot_wm_v1","null","3","null","null","true","","","","","","","null","<div style=""font-size:60px;"">+</div>","null","fixation","","","","","","","","","","","","","","","",""
"html-slider-response","262","1180334","0.0-4.0-4.0-2.11-0.11","pilot_wm_v1","null","3","null","null","true","","","","","","","3257","<div style=""width:500px;"">
        <p>What is the password?</p>
        <img src='./assets/img/instructions/beep_chest.jpg' class='instructions-image'>","7","","","","","true","","","","50","7","0","","","","","",""
"revaluation","263","1184342","0.0-4.0-4.0-0.12","pilot_wm_v1","null","3","null","null","true","","false","","","","","[904.9000000059605]","./assets/img/canyon/animals/giraffe.jpg","[""ArrowLeft""]","revaluation","canyon","23","{""ArrowUp,ArrowLeft"":23,""ArrowUp,ArrowRight"":10,""ArrowDown,ArrowLeft"":8,""ArrowDown,ArrowRight"":30}","true","ArrowUp,ArrowLeft","","6_3","","","","","","12","original","1",""
"html-keyboard-response","264","1184845","0.0-4.0-4.0-1.12","pilot_wm_v1","null","3","null","null","true","","","","","","","null","<div style=""font-size:60px;"">+</div>","null","fixation","","","","","","","","","","","","","","","",""
"revaluation","265","1188853","0.0-4.0-4.0-0.13","pilot_wm_v1","null","3","null","null","true","","false","","","","","[694.3000000119209]","./assets/img/canyon/animals/giraffe.jpg","[""ArrowLeft""]","revaluation","canyon","23","{""ArrowUp,ArrowLeft"":23,""ArrowUp,ArrowRight"":10,""ArrowDown,ArrowLeft"":8,""ArrowDown,ArrowRight"":30}","true","ArrowUp,ArrowLeft","","8_2","","","","","","13","original","1",""
"html-keyboard-response","266","1189356","0.0-4.0-4.0-1.13","pilot_wm_v1","null","3","null","null","true","","","","","","","null","<div style=""font-size:60px;"">+</div>","null","fixation","","","","","","","","","","","","","","","",""
"revaluation","267","1193364","0.0-4.0-4.0-0.14","pilot_wm_v1","null","3","null","null","true","","false","","","","","[717.1000000089407]","./assets/img/canyon/animals/lion.jpg","[""ArrowRight""]","revaluation","canyon","30","{""ArrowUp,ArrowLeft"":23,""ArrowUp,ArrowRight"":10,""ArrowDown,ArrowLeft"":8,""ArrowDown,ArrowRight"":30}","true","ArrowDown,ArrowRight","","16_0","","","","","","14","original","1",""
"html-keyboard-response","268","1193867","0.0-4.0-4.0-1.14","pilot_wm_v1","null","3","null","null","true","","","","","","","null","<div style=""font-size:60px;"">+</div>","null","fixation","","","","","","","","","","","","","","","",""
"revaluation","269","1197875","0.0-4.0-4.0-0.15","pilot_wm_v1","null","3","null","null","true","","false","","","","","[916.7000000029802]","./assets/img/canyon/animals/giraffe.jpg","[""ArrowLeft""]","revaluation","canyon","23","{""ArrowUp,ArrowLeft"":23,""ArrowUp,ArrowRight"":10,""ArrowDown,ArrowLeft"":8,""ArrowDown,ArrowRight"":30}","true","ArrowUp,ArrowLeft","","2_1","","","","","","15","original","1",""
"html-keyboard-response","270","1198378","0.0-4.0-4.0-1.15","pilot_wm_v1","null","3","null","null","true","","","","","","","null","<div style=""font-size:60px;"">+</div>","null","fixation","","","","","","","","","","","","","","","",""
"html-slider-response","271","1201785","0.0-4.0-4.0-2.15-0.15","pilot_wm_v1","null","3","null","null","true","","","","","","","3403","<div style=""width:500px;"">
        <p>What is the password?</p>
        <img src='./assets/img/instructions/beep_chest.jpg' class='instructions-image'>","6","","","","","true","","","","50","6","0","","","","","",""
"revaluation","272","1205792","0.0-4.0-4.0-0.16","pilot_wm_v1","null","3","null","null","true","","false","","","","","[632.2999999970198]","./assets/img/canyon/animals/lion.jpg","[""ArrowRight""]","revaluation","canyon","30","{""ArrowUp,ArrowLeft"":23,""ArrowUp,ArrowRight"":10,""ArrowDown,ArrowLeft"":8,""ArrowDown,ArrowRight"":30}","true","ArrowDown,ArrowRight","","15_0","","","","","","16","original","1",""
"html-keyboard-response","273","1206294","0.0-4.0-4.0-1.16","pilot_wm_v1","null","3","null","null","true","","","","","","","null","<div style=""font-size:60px;"">+</div>","null","fixation","","","","","","","","","","","","","","","",""
"revaluation","274","1210301","0.0-4.0-4.0-0.17","pilot_wm_v1","null","3","null","null","true","","false","","","","","[813.5999999940395]","./assets/img/canyon/animals/giraffe.jpg","[""ArrowLeft""]","revaluation","canyon","23","{""ArrowUp,ArrowLeft"":23,""ArrowUp,ArrowRight"":10,""ArrowDown,ArrowLeft"":8,""ArrowDown,ArrowRight"":30}","true","ArrowUp,ArrowLeft","","7_4","","","","","","17","original","1",""
"html-keyboard-response","275","1210804","0.0-4.0-4.0-1.17","pilot_wm_v1","null","3","null","null","true","","","","","","","null","<div style=""font-size:60px;"">+</div>","null","fixation","","","","","","","","","","","","","","","",""
"learning-instructions","276","1223568","0.0-4.0-5.0-0.0-0.0","pilot_wm_v1","null","3","null","null","true","","","","","","","1470.9000000059605","<p> Time to play the dot game! </p>
            <p> For one minute, click the red dots on the following screen as they appear. </p>
            <p><b> Don't look away, as you will earn bonus for clicking dots</b>. </p>","","instructions","","","","","","","","","","","","","","","",""
"revaluation","277","1283572","0.0-4.0-5.0-1.0-0.0","pilot_wm_v1","null","3","null","null","true","","","","","","","[93,83,63,64,69,109]","","","rest","","60","","","","","","","","","0","60000","","","",""
"learning-instructions","278","1291673","0.0-4.0-6.0-0.0","pilot_wm_v1","null","3","null","null","true","","","","","","","null","<p> You have almost finished this part of the game! </p>
            <p> We are going to ask you to make a few more choices. </p>","","instructions","","","","","","","","","","","","","","","",""
"learning-instructions","279","1307646","0.0-4.0-6.0-0.1","pilot_wm_v1","null","3","null","null","true","","","","","","","null","<p> First, you need to decide whether to go up or down. When you see each picture, use the arrow keys to make your choice. </p>
            <p><b>You will not see which animal you found, but try to get to the one that will give you the most treasure.</b></p>","","instructions","","","","","","","","","","","","","","","",""
"html-keyboard-response","280","1308650","0.0-4.0-7.0-0.0","pilot_wm_v1","null","3","null","null","true","","","","","","","null","<div style=""font-size:100px;color:red;"">Starting in...</div>","null","","","","","","","","","","","","","","","","",""
"html-keyboard-response","281","1309652","0.0-4.0-7.0-1.0","pilot_wm_v1","null","3","null","null","true","","","","","","","null","<div style=""font-size:200px;color:red;"">3</div>","null","","","","","","","","","","","","","","","","",""
"html-keyboard-response","282","1310654","0.0-4.0-7.0-2.0","pilot_wm_v1","null","3","null","null","true","","","","","","","null","<div style=""font-size:200px;color:red;"">2</div>","null","","","","","","","","","","","","","","","","",""
"html-keyboard-response","283","1311657","0.0-4.0-7.0-3.0","pilot_wm_v1","null","3","null","null","true","","","","","","","null","<div style=""font-size:200px;color:red;"">1</div>","null","","","","","","","","","","","","","","","","",""
"revaluation","284","1312020","0.0-4.0-8.0-0.0","pilot_wm_v1","null","3","null","null","true","","false","","","","","[358.5]","./assets/img/canyon/test/2.jpg","[""ArrowDown""]","first stage test","canyon","0","{""ArrowUp,ArrowLeft"":23,""ArrowUp,ArrowRight"":10,""ArrowDown,ArrowLeft"":8,""ArrowDown,ArrowRight"":30}","true","ArrowDown","false","","","","","","","","original","1",""
"html-keyboard-response","285","1312523","0.0-4.0-8.0-1.0","pilot_wm_v1","null","3","null","null","true","","","","","","","null","<div style=""font-size:60px;"">+</div>","null","fixation","","","","","","","","","","","","","","","",""
"revaluation","286","1313424","0.0-4.0-8.0-0.1","pilot_wm_v1","null","3","null","null","true","","false","","","","","[896.8999999910593]","./assets/img/canyon/test/1.jpg","[""ArrowDown""]","first stage test","canyon","0","{""ArrowUp,ArrowLeft"":23,""ArrowUp,ArrowRight"":10,""ArrowDown,ArrowLeft"":8,""ArrowDown,ArrowRight"":30}","true","ArrowDown","false","","","","","","","","original","1",""
"html-keyboard-response","287","1313926","0.0-4.0-8.0-1.1","pilot_wm_v1","null","3","null","null","true","","","","","","","null","<div style=""font-size:60px;"">+</div>","null","fixation","","","","","","","","","","","","","","","",""
"revaluation","288","1314321","0.0-4.0-8.0-0.2","pilot_wm_v1","null","3","null","null","true","","false","","","","","[390.5]","./assets/img/canyon/test/0.jpg","[""ArrowDown""]","first stage test","canyon","0","{""ArrowUp,ArrowLeft"":23,""ArrowUp,ArrowRight"":10,""ArrowDown,ArrowLeft"":8,""ArrowDown,ArrowRight"":30}","true","ArrowDown","false","","","","","","","","original","1",""
"html-keyboard-response","289","1314824","0.0-4.0-8.0-1.2","pilot_wm_v1","null","3","null","null","true","","","","","","","null","<div style=""font-size:60px;"">+</div>","null","fixation","","","","","","","","","","","","","","","",""
"revaluation","290","1315147","0.0-4.0-8.0-0.3","pilot_wm_v1","null","3","null","null","true","","false","","","","","[317.5]","./assets/img/canyon/test/3.jpg","[""ArrowDown""]","first stage test","canyon","0","{""ArrowUp,ArrowLeft"":23,""ArrowUp,ArrowRight"":10,""ArrowDown,ArrowLeft"":8,""ArrowDown,ArrowRight"":30}","true","ArrowDown","false","","","","","","","","original","1",""
"html-keyboard-response","291","1315648","0.0-4.0-8.0-1.3","pilot_wm_v1","null","3","null","null","true","","","","","","","null","<div style=""font-size:60px;"">+</div>","null","fixation","","","","","","","","","","","","","","","",""
"learning-instructions","292","1328990","0.0-4.0-9.0-0.0","pilot_wm_v1","null","3","null","null","true","","","","","","","null","<p> Now you will see the animals again and can search their chests for treasure. </p>
            <p> This time, you will not see how much treasure you earned, but you will earn more bonus money for making better choices. </p>","","instructions","","","","","","","","","","","","","","","",""
"html-keyboard-response","293","1329993","0.0-4.0-10.0-0.0","pilot_wm_v1","null","3","null","null","true","","","","","","","null","<div style=""font-size:100px;color:red;"">Starting in...</div>","null","","","","","","","","","","","","","","","","",""
"html-keyboard-response","294","1330995","0.0-4.0-10.0-1.0","pilot_wm_v1","null","3","null","null","true","","","","","","","null","<div style=""font-size:200px;color:red;"">3</div>","null","","","","","","","","","","","","","","","","",""
"html-keyboard-response","295","1331998","0.0-4.0-10.0-2.0","pilot_wm_v1","null","3","null","null","true","","","","","","","null","<div style=""font-size:200px;color:red;"">2</div>","null","","","","","","","","","","","","","","","","",""
"html-keyboard-response","296","1333001","0.0-4.0-10.0-3.0","pilot_wm_v1","null","3","null","null","true","","","","","","","null","<div style=""font-size:200px;color:red;"">1</div>","null","","","","","","","","","","","","","","","","",""
"revaluation","297","1333802","0.0-4.0-11.0-0.0","pilot_wm_v1","null","3","null","null","true","","false","","","","","[796.5]","./assets/img/canyon/animals/giraffe.jpg","[""ArrowLeft""]","second stage test","canyon","0","{""ArrowUp,ArrowLeft"":23,""ArrowUp,ArrowRight"":10,""ArrowDown,ArrowLeft"":8,""ArrowDown,ArrowRight"":30}","true","ArrowUp,ArrowLeft","","","","","","","","","original","1",""
