"trial_type","trial_index","time_elapsed","internal_node_id","task_version","subject_id","assigned_condition","age","gender","rest","success","timeout","failed_images","failed_audio","failed_video","browser_interaction","rt","stimulus","response","task_part","environment","score","rewardMap","correct","fullState","isCatch","audioStim","slider_start","answer","error","numberMissed","duration","trial_num","condition","order","bonus"
"pavlovia","0","1241","0.0-0.0","pilot_wm_v1","null","4","null","null","true","","","","","","","","","","","","","","","","","","","","","","","","","",""
"preload","1","20916","0.0-1.0","pilot_wm_v1","null","4","null","null","true","true","false","[]","[]","[]","[{""event"":""fullscreenenter"",""trial"":2,""time"":24430}]","","","","","","","","","","","","","","","","","","","",""
"fullscreen","2","25363","0.0-2.0","pilot_wm_v1","null","4","null","null","true","true","","","","","","","","","","","","","","","","","","","","","","","","",""
"audio-button-response","3","27654","0.0-3.0-0.0-0.0","pilot_wm_v1","null","4","null","null","true","","","","","","","1556","./assets/audio/audiotest/turtle.mp3","2","audio_test","","","","","","","","","","","","","","","",""
"learning-instructions","4","36439","0.0-3.0-1.0-0.0","pilot_wm_v1","null","4","null","null","true","","","","","","","1678.2000000178814","<p> Welcome! Please remember to stay in fullscreen mode and don't click away from the experiment. </p>","","instructions","","","","","","","","","","","","","","","",""
"learning-instructions","5","48406","0.0-3.0-1.0-0.1","pilot_wm_v1","null","4","null","null","true","","","","","","","3353.7999999821186","<p> Today you will be playing a game to earn treasure. </p>
            <p> At the end of the experiment, you will earn a bonus based on how much treasure you find. </p>
            <img src='./assets/img/instructions/treasure.jpg' class='instructions-image'>","","instructions","","","","","","","","","","","","","","","",""
"learning-instructions","6","58188","0.0-3.0-1.0-0.2","pilot_wm_v1","null","4","null","null","true","","","","","","","1299.699999988079","<p> Animals have hidden treasure in treasure chests. </p>
            <p> You need to first find an animal and then choose which of their treasure chests to search. </p>
            <img src='./assets/img/space/animals/cat.jpg' class='instructions-image'>","","instructions","","","","","","","","","","","","","","","",""
"learning-instructions","7","72563","0.0-3.0-1.0-0.3","pilot_wm_v1","null","4","null","null","true","","","","","","","965.1999999880791","<p> In each round, you will search for treasure in a different place. In the real game, there will be two rounds. </p>
            <p> You will begin with a separate, practice round where you will search for treasure in outer space. </p>
            <img src='./assets/img/space/0.jpg' class='instructions-image'>","","instructions","","","","","","","","","","","","","","","",""
"learning-instructions","8","85237","0.0-3.0-1.0-0.4","pilot_wm_v1","null","4","null","null","true","","","","","","","1042.8999999761581","<p> On every turn, you will see a picture of the place that you are in, but the specific image may be different each time. </p>
            <p> For example, both of these images mean you are in outer space. </p>
            <img src='./assets/img/instructions/outerspace.jpg' class='instructions-image'>","","instructions","","","","","","","","","","","","","","","",""
"learning-instructions","9","94232","0.0-3.0-1.0-0.5","pilot_wm_v1","null","4","null","null","true","","","","","","","1022.6000000238419","<p> You need to decide which direction to travel in. </p>
            <p> You can choose between going <b>up or down</b> by using the arrow keys. </p>
            <img src='./assets/img/instructions/updown.jpg' class='instructions-image'>","","instructions","","","","","","","","","","","","","","","",""
"learning-instructions","10","104300","0.0-3.0-1.0-0.6","pilot_wm_v1","null","4","null","null","true","","","","","","","1055","<p> You will have <b>2 seconds</b> to make your choice. </p>
            <p> If you do not make a choice within 2 seconds, you will not find an animal or earn treasure. </p>
            <img src='./assets/img/instructions/2seconds.jpg' class='instructions-image'>","","instructions","","","","","","","","","","","","","","","",""
"learning-instructions","11","114650","0.0-3.0-1.0-0.7","pilot_wm_v1","null","4","null","null","true","","","","","","","3161.899999976158","<p> Let’s try practicing that now! </p>
            <p> When you see a picture of the place you are in, press the <b>up</b> key to travel up. </p>
            <img src='./assets/img/instructions/pressUp.jpg' class='instructions-image'>","","instructions","","","","","","","","","","","","","","","",""
"revaluation","12","118664","0.0-3.0-2.0-0.0","pilot_wm_v1","null","4","null","null","true","","false","","","","","[969]","./assets/img/space/0.jpg","[""ArrowUp""]","first stage practice","space","0","null","null","ArrowUp","false","","","","","","","","","",""
"html-keyboard-response","13","119166","0.0-3.0-2.0-1.0","pilot_wm_v1","null","4","null","null","true","","","","","","","null","<div style=""font-size:60px;"">+</div>","null","fixation","","","","","","","","","","","","","","","",""
"revaluation","14","123170","0.0-3.0-2.0-0.1","pilot_wm_v1","null","4","null","null","true","","false","","","","","[1186.199999988079]","./assets/img/space/1.jpg","[""ArrowUp""]","first stage practice","space","0","null","null","ArrowUp","false","","","","","","","","","",""
"html-keyboard-response","15","123672","0.0-3.0-2.0-1.1","pilot_wm_v1","null","4","null","null","true","","","","","","","null","<div style=""font-size:60px;"">+</div>","null","fixation","","","","","","","","","","","","","","","",""
"revaluation","16","127676","0.0-3.0-2.0-0.2","pilot_wm_v1","null","4","null","null","true","","false","","","","","[904.2999999821186]","./assets/img/space/2.jpg","[""ArrowUp""]","first stage practice","space","0","null","null","ArrowUp","false","","","","","","","","","",""
"html-keyboard-response","17","128177","0.0-3.0-2.0-1.2","pilot_wm_v1","null","4","null","null","true","","","","","","","null","<div style=""font-size:60px;"">+</div>","null","fixation","","","","","","","","","","","","","","","",""
"learning-instructions","18","135313","0.0-3.0-3.0-0.0","pilot_wm_v1","null","4","null","null","true","","","","","","","2277.800000011921","<p> Great job! Now try pressing the <b>down</b> key to travel down. </p>
            <img src='./assets/img/instructions/pressDown.jpg' class='instructions-image'>","","instructions","","","","","","","","","","","","","","","",""
"revaluation","19","139318","0.0-3.0-4.0-0.0","pilot_wm_v1","null","4","null","null","true","","false","","","","","[555]","./assets/img/space/3.jpg","[""ArrowDown""]","first stage practice","space","0","null","null","ArrowDown","false","","","","","","","","","",""
"html-keyboard-response","20","139819","0.0-3.0-4.0-1.0","pilot_wm_v1","null","4","null","null","true","","","","","","","null","<div style=""font-size:60px;"">+</div>","null","fixation","","","","","","","","","","","","","","","",""
"revaluation","21","143824","0.0-3.0-4.0-0.1","pilot_wm_v1","null","4","null","null","true","","false","","","","","[658.5]","./assets/img/space/4.jpg","[""ArrowDown""]","first stage practice","space","0","null","null","ArrowDown","false","","","","","","","","","",""
"html-keyboard-response","22","144325","0.0-3.0-4.0-1.1","pilot_wm_v1","null","4","null","null","true","","","","","","","null","<div style=""font-size:60px;"">+</div>","null","fixation","","","","","","","","","","","","","","","",""
"revaluation","23","148329","0.0-3.0-4.0-0.2","pilot_wm_v1","null","4","null","null","true","","false","","","","","[682.7999999821186]","./assets/img/space/5.jpg","[""ArrowDown""]","first stage practice","space","0","null","null","ArrowDown","false","","","","","","","","","",""
"html-keyboard-response","24","148832","0.0-3.0-4.0-1.2","pilot_wm_v1","null","4","null","null","true","","","","","","","null","<div style=""font-size:60px;"">+</div>","null","fixation","","","","","","","","","","","","","","","",""
"learning-instructions","25","159326","0.0-3.0-5.0-0.0","pilot_wm_v1","null","4","null","null","true","","","","","","","425.30000001192093","<p> The animals don’t move, so the animal in the upper part of a place will stay in the upper part of a place, and the animal in the lower part of a place will stay in the lower part of a place. </p>","","instructions","","","","","","","","","","","","","","","",""
"learning-instructions","26","170852","0.0-3.0-5.0-0.1","pilot_wm_v1","null","4","null","null","true","","","","","","","2239.5","<p> Each animal has two treasure chests for you to choose from. </p>
            <p> The amount of treasure in each chest can range from <b> 0 to 40 pieces.</b></p>","","instructions","","","","","","","","","","","","","","","",""
"learning-instructions","27","184097","0.0-3.0-5.0-0.2","pilot_wm_v1","null","4","null","null","true","","","","","","","1831.9000000059605","<p> You should decide which chest to search for treasure by using the <b>left</b> and <b>right</b> arrow keys. </p>
            <p><b> Pay attention to which animal is on the screen, as the animals have different treasure chests. </b></p>
            <img src='./assets/img/instructions/leftright.jpg' class='instructions-image'>","","instructions","","","","","","","","","","","","","","","",""
"learning-instructions","28","191019","0.0-3.0-5.0-0.3","pilot_wm_v1","null","4","null","null","true","","","","","","","418","<p> Let’s try practicing that now. </p>
            <p> When you see an animal, choose which chest to search for treasure. </p>
            <img src='./assets/img/instructions/chooseChest.jpg' class='instructions-image'>","","instructions","","","","","","","","","","","","","","","",""
"revaluation","29","195023","0.0-3.0-6.0-0.0","pilot_wm_v1","null","4","null","null","true","","false","","","","","[561]","./assets/img/space/animals/cat.jpg","[""ArrowRight""]","second stage practice","space","36","{""ArrowUp,ArrowLeft"":3,""ArrowUp,ArrowRight"":36,""ArrowDown,ArrowLeft"":15,""ArrowDown,ArrowRight"":23}","true","ArrowUp,ArrowRight","","","","","","","","","","",""
"html-keyboard-response","30","195525","0.0-3.0-6.0-1.0","pilot_wm_v1","null","4","null","null","true","","","","","","","null","<div style=""font-size:60px;"">+</div>","null","fixation","","","","","","","","","","","","","","","",""
"revaluation","31","199530","0.0-3.0-6.0-0.1","pilot_wm_v1","null","4","null","null","true","","false","","","","","[513.0999999940395]","./assets/img/space/animals/rabbit.jpg","[""ArrowRight""]","second stage practice","space","23","{""ArrowUp,ArrowLeft"":3,""ArrowUp,ArrowRight"":36,""ArrowDown,ArrowLeft"":15,""ArrowDown,ArrowRight"":23}","true","ArrowDown,ArrowRight","","","","","","","","","","",""
"html-keyboard-response","32","200031","0.0-3.0-6.0-1.1","pilot_wm_v1","null","4","null","null","true","","","","","","","null","<div style=""font-size:60px;"">+</div>","null","fixation","","","","","","","","","","","","","","","",""
"revaluation","33","204035","0.0-3.0-6.0-0.2","pilot_wm_v1","null","4","null","null","true","","false","","","","","[565.1999999880791]","./assets/img/space/animals/cat.jpg","[""ArrowLeft""]","second stage practice","space","3","{""ArrowUp,ArrowLeft"":3,""ArrowUp,ArrowRight"":36,""ArrowDown,ArrowLeft"":15,""ArrowDown,ArrowRight"":23}","false","ArrowUp,ArrowLeft","","","","","","","","","","",""
"html-keyboard-response","34","204537","0.0-3.0-6.0-1.2","pilot_wm_v1","null","4","null","null","true","","","","","","","null","<div style=""font-size:60px;"">+</div>","null","fixation","","","","","","","","","","","","","","","",""
"revaluation","35","208542","0.0-3.0-6.0-0.3","pilot_wm_v1","null","4","null","null","true","","false","","","","","[322.30000001192093]","./assets/img/space/animals/rabbit.jpg","[""ArrowLeft""]","second stage practice","space","15","{""ArrowUp,ArrowLeft"":3,""ArrowUp,ArrowRight"":36,""ArrowDown,ArrowLeft"":15,""ArrowDown,ArrowRight"":23}","false","ArrowDown,ArrowLeft","","","","","","","","","","",""
"html-keyboard-response","36","209044","0.0-3.0-6.0-1.3","pilot_wm_v1","null","4","null","null","true","","","","","","","null","<div style=""font-size:60px;"">+</div>","null","fixation","","","","","","","","","","","","","","","",""
"learning-instructions","37","227519","0.0-3.0-7.0-0.0","pilot_wm_v1","null","4","null","null","true","","","","","","","1369.4000000059605","<p> Great job. Now let’s try putting it together. </p>
            <p> On each turn, you will first see a picture to remind you of the place you are in, and you need to choose whether to go up or down. </p>
            <p> Then you will see an animal and choose which of its chests to search for treasure. </p>","","instructions","","","","","","","","","","","","","","","",""
"learning-instructions","38","236707","0.0-3.0-7.0-0.1","pilot_wm_v1","null","4","null","null","true","","","","","","","771.5","<p> When you choose whether to go up or down, try to go to the animal with the chest with the most treasure. </p>
            <p> Try practicing that now! </p>","","instructions","","","","","","","","","","","","","","","",""
"revaluation","39","242712","0.0-3.0-8.0-0.0","pilot_wm_v1","null","4","null","null","true","","false","","","","","[597,709.5]","./assets/img/space/6.jpg","[""ArrowUp"",""ArrowRight""]","full practice","space","36","{""ArrowUp,ArrowLeft"":3,""ArrowUp,ArrowRight"":36,""ArrowDown,ArrowLeft"":15,""ArrowDown,ArrowRight"":23}","true","ArrowUp,ArrowRight","false","","","","","","","","","",""
"html-keyboard-response","40","243215","0.0-3.0-8.0-1.0","pilot_wm_v1","null","4","null","null","true","","","","","","","null","<div style=""font-size:60px;"">+</div>","null","fixation","","","","","","","","","","","","","","","",""
"revaluation","41","249220","0.0-3.0-8.0-0.1","pilot_wm_v1","null","4","null","null","true","","false","","","","","[728.5999999940395,1005.2999999821186]","./assets/img/space/7.jpg","[""ArrowDown"",""ArrowRight""]","full practice","space","23","{""ArrowUp,ArrowLeft"":3,""ArrowUp,ArrowRight"":36,""ArrowDown,ArrowLeft"":15,""ArrowDown,ArrowRight"":23}","false","ArrowDown,ArrowRight","false","","","","","","","","","",""
"html-keyboard-response","42","249721","0.0-3.0-8.0-1.1","pilot_wm_v1","null","4","null","null","true","","","","","","","null","<div style=""font-size:60px;"">+</div>","null","fixation","","","","","","","","","","","","","","","",""
"revaluation","43","255726","0.0-3.0-8.0-0.2","pilot_wm_v1","null","4","null","null","true","","false","","","","","[526.6999999880791,490.40000000596046]","./assets/img/space/8.jpg","[""ArrowDown"",""ArrowRight""]","full practice","space","23","{""ArrowUp,ArrowLeft"":3,""ArrowUp,ArrowRight"":36,""ArrowDown,ArrowLeft"":15,""ArrowDown,ArrowRight"":23}","false","ArrowDown,ArrowRight","false","","","","","","","","","",""
"html-keyboard-response","44","256228","0.0-3.0-8.0-1.2","pilot_wm_v1","null","4","null","null","true","","","","","","","null","<div style=""font-size:60px;"">+</div>","null","fixation","","","","","","","","","","","","","","","",""
"revaluation","45","262234","0.0-3.0-8.0-0.3","pilot_wm_v1","null","4","null","null","true","","false","","","","","[751.8000000119209,386.40000000596046]","./assets/img/space/9.jpg","[""ArrowUp"",""ArrowRight""]","full practice","space","36","{""ArrowUp,ArrowLeft"":3,""ArrowUp,ArrowRight"":36,""ArrowDown,ArrowLeft"":15,""ArrowDown,ArrowRight"":23}","true","ArrowUp,ArrowRight","false","","","","","","","","","",""
"html-keyboard-response","46","262735","0.0-3.0-8.0-1.3","pilot_wm_v1","null","4","null","null","true","","","","","","","null","<div style=""font-size:60px;"">+</div>","null","fixation","","","","","","","","","","","","","","","",""
"revaluation","47","268740","0.0-3.0-8.0-0.4","pilot_wm_v1","null","4","null","null","true","","false","","","","","[890.2999999821186,704.0999999940395]","./assets/img/space/10.jpg","[""ArrowDown"",""ArrowRight""]","full practice","space","23","{""ArrowUp,ArrowLeft"":3,""ArrowUp,ArrowRight"":36,""ArrowDown,ArrowLeft"":15,""ArrowDown,ArrowRight"":23}","false","ArrowDown,ArrowRight","false","","","","","","","","","",""
"html-keyboard-response","48","269242","0.0-3.0-8.0-1.4","pilot_wm_v1","null","4","null","null","true","","","","","","","null","<div style=""font-size:60px;"">+</div>","null","fixation","","","","","","","","","","","","","","","",""
"learning-instructions","49","280556","0.0-3.0-9.0-0.0","pilot_wm_v1","null","4","null","null","true","","","","","","","819","<p> One last thing: sometimes, you will see a robber. The robber can be anywhere in the picture. </p>
            <p> If you do not stop them, you will lose treasure. </p>
            <img src='./assets/img/instructions/robber.jpg' class='instructions-image'>","","instructions","","","","","","","","","","","","","","","",""
"learning-instructions","50","288610","0.0-3.0-9.0-0.1","pilot_wm_v1","null","4","null","null","true","","","","","","","746.9000000059605","<p> If you see the robber, you should <b>press the space bar</b> rather than using the arrow keys. </p>
            <p> Try practicing that now! </p>","","instructions","","","","","","","","","","","","","","","",""
"revaluation","51","292615","0.0-3.0-10.0-0.0","pilot_wm_v1","null","4","null","null","true","","false","","","","","[1479.800000011921]","./assets/img/space/catch/0.jpg","[""spaceBar""]","catch practice","space","0","{""ArrowUp,ArrowLeft"":3,""ArrowUp,ArrowRight"":36,""ArrowDown,ArrowLeft"":15,""ArrowDown,ArrowRight"":23}","true","spaceBar","true","","","","","","","","","",""
"html-keyboard-response","52","293116","0.0-3.0-10.0-1.0","pilot_wm_v1","null","4","null","null","true","","","","","","","null","<div style=""font-size:60px;"">+</div>","null","fixation","","","","","","","","","","","","","","","",""
"revaluation","53","297121","0.0-3.0-10.0-0.1","pilot_wm_v1","null","4","null","null","true","","false","","","","","[713.9000000059605]","./assets/img/space/catch/1.jpg","[""spaceBar""]","catch practice","space","0","{""ArrowUp,ArrowLeft"":3,""ArrowUp,ArrowRight"":36,""ArrowDown,ArrowLeft"":15,""ArrowDown,ArrowRight"":23}","true","spaceBar","true","","","","","","","","","",""
"html-keyboard-response","54","297622","0.0-3.0-10.0-1.1","pilot_wm_v1","null","4","null","null","true","","","","","","","null","<div style=""font-size:60px;"">+</div>","null","fixation","","","","","","","","","","","","","","","",""
"revaluation","55","301628","0.0-3.0-10.0-0.2","pilot_wm_v1","null","4","null","null","true","","false","","","","","[746.2999999821186]","./assets/img/space/catch/2.jpg","[""spaceBar""]","catch practice","space","0","{""ArrowUp,ArrowLeft"":3,""ArrowUp,ArrowRight"":36,""ArrowDown,ArrowLeft"":15,""ArrowDown,ArrowRight"":23}","true","spaceBar","true","","","","","","","","","",""
"html-keyboard-response","56","302130","0.0-3.0-10.0-1.2","pilot_wm_v1","null","4","null","null","true","","","","","","","null","<div style=""font-size:60px;"">+</div>","null","fixation","","","","","","","","","","","","","","","",""
"learning-instructions","57","308917","0.0-3.0-11.0-0.0","pilot_wm_v1","null","4","null","null","true","","","","","","","1073.300000011921","<p> Sometimes, you will come across a special kind of treasure chest that requires a password. </p>
            <img src='./assets/img/instructions/beep_chest.jpg' class='instructions-image'>","","instructions","","","","","","","","","","","","","","","",""
"learning-instructions","58","332177","0.0-3.0-11.0-0.1","pilot_wm_v1","null","4","null","null","true","","","","","","","1381.300000011921","<p> Your friend will send you the password using a series of beeps so that you can open the chest and earn treasure. </p>
            <p> You will hear two kinds of beeps, a high beep and a low beep. </p>
            <p> You should report the number of high beeps that you heard before seeing the chest. </p>
            <img src='./assets/img/instructions/listen.jpg' class='instructions-image'>","","instructions","","","","","","","","","","","","","","","",""
"learning-instructions","59","355514","0.0-3.0-11.0-0.2","pilot_wm_v1","null","4","null","null","true","","","","","","","756.7999999821186","<p> For example, if you hear this series of beeps, you should report 4 as the password using the slider. </p>
            <p> After reporting a password for a chest, you should count the high beeps again starting from 0. </p>
            <p> Let's try practicing that now. </p>","","instructions","","","","","","","","","","","","","","","",""
"audio-button-response","60","363673","0.0-3.0-12.0-0.0-0.0","pilot_wm_v1","null","4","null","null","true","","","","","","","null","./assets/audio/beeps/practice_6.wav","null","","","","","","","","","","","","","","","","",""
"html-slider-response","61","367483","0.0-3.0-12.0-0.0-1.0","pilot_wm_v1","null","4","null","null","true","","","","","","","3806","<div style=""width:500px;"">
        <p>What is the password?</p>
        <img src='./assets/img/instructions/beep_chest.jpg' class='instructions-image'>","6","","","","","false","","","","50","0","6","","","","","",""
"comp-q","62","373180","0.0-3.0-12.0-0.0-2.0","pilot_wm_v1","null","4","null","null","true","","","","","","","1389.7000000178814","<p>Correct! There were 6 high pitched beeps before you saw the chest. </p>","0","beep_answer","","","","","","","","","","","","","","","",""
"audio-button-response","63","381378","0.0-3.0-12.0-0.1-0.1","pilot_wm_v1","null","4","null","null","true","","","","","","","null","./assets/audio/beeps/practice_4.wav","null","","","","","","","","","","","","","","","","",""
"html-slider-response","64","384890","0.0-3.0-12.0-0.1-1.1","pilot_wm_v1","null","4","null","null","true","","","","","","","3511","<div style=""width:500px;"">
        <p>What is the password?</p>
        <img src='./assets/img/instructions/beep_chest.jpg' class='instructions-image'>","4","","","","","false","","","","50","0","4","","","","","",""
"comp-q","65","391300","0.0-3.0-12.0-0.1-2.1","pilot_wm_v1","null","4","null","null","true","","","","","","","2003.699999988079","<p>Correct! There were 4 high pitched beeps before you saw the chest. </p>","0","beep_answer","","","","","","","","","","","","","","","",""
"learning-instructions","66","403125","0.0-3.0-13.0-0.0","pilot_wm_v1","null","4","null","null","true","","","","","","","1267.7000000178814","<p> Good job! In the real game we will not tell you if you entered the right password. </p>
            <p> Do your best, the treasure you earn from these chests will also give you extra bonus money. </p>","","instructions","","","","","","","","","","","","","","","",""
"learning-instructions","67","417899","0.0-3.0-14.0-0.0-0.0","pilot_wm_v1","null","4","null","null","true","","","","","","","861.1000000238419","<p> After you explore a place to find treasure, it will be time to play a different game. </p>
            <p> During this game, red dots will appear on the screen and fall down slowly. </p>
            <p><b> You must click on them before they reach the bottom. </b></p>
            <img src='./assets/img/instructions/dotGame.jpg' class='instructions-image'>","","instructions","","","","","","","","","","","","","","","",""
"learning-instructions","68","424781","0.0-3.0-14.0-0.0-0.1","pilot_wm_v1","null","4","null","null","true","","","","","","","1161.2000000178814","<p> For every dot you click, you will earn additional treasure. </p>
            <p> Let’s try practicing that now. </p>","","instructions","","","","","","","","","","","","","","","",""
"revaluation","69","439785","0.0-3.0-14.0-1.0-0.0","pilot_wm_v1","null","4","null","null","true","","","","","","","[89,56]","","","rest practice","","20","","","","","","","","","0","15000","","","",""
"learning-instructions","70","446377","0.0-3.0-15.0-0.0-0.0","pilot_wm_v1","null","4","null","null","true","","","","","","","1175.5999999940395","<p> Now, you will practice a shortened version of the game to get a sense of how it all fits together. </p>","","instructions","","","","","","","","","","","","","","","",""
"learning-instructions","71","451017","0.0-3.0-15.0-0.0-0.1","pilot_wm_v1","null","4","null","null","true","","","","","","","1317.1000000238419","<p>This time you are searching for treasure in outer space.</p>","","instructions","","","","","","","","","","","","","","","",""
"learning-instructions","72","467141","0.0-3.0-15.0-1.0-0.0","pilot_wm_v1","null","4","null","null","true","","","","","","","1030.199999988079","<p> Remember, when you see a picture of the place, use the up and down keys to <b>find an animal</b>.</p>
            <p> When you encounter an animal, you should use the left and right keys to <b>select a treasure chest</b>.</p>
            <p> Don't forget to look out for the robber! </p>","","instructions","","","","","","","","","","","","","","","",""
"revaluation","73","473146","0.0-3.0-15.0-2.0-0.0","pilot_wm_v1","null","4","null","null","true","","false","","","","","[1068.800000011921,576.5]","./assets/img/space/11.jpg","[""ArrowUp"",""ArrowRight""]","practice block","space","36","{""ArrowUp,ArrowLeft"":3,""ArrowUp,ArrowRight"":36,""ArrowDown,ArrowLeft"":15,""ArrowDown,ArrowRight"":23}","true","ArrowUp,ArrowRight","false","","","","","","","","","",""
"html-keyboard-response","74","473648","0.0-3.0-15.0-2.0-1.0","pilot_wm_v1","null","4","null","null","true","","","","","","","null","<div style=""font-size:60px;"">+</div>","null","fixation","","","","","","","","","","","","","","","",""
"revaluation","75","479653","0.0-3.0-15.0-2.0-0.1","pilot_wm_v1","null","4","null","null","true","","false","","","","","[854.2999999821186,457.59999999403954]","./assets/img/space/12.jpg","[""ArrowDown"",""ArrowRight""]","practice block","space","23","{""ArrowUp,ArrowLeft"":3,""ArrowUp,ArrowRight"":36,""ArrowDown,ArrowLeft"":15,""ArrowDown,ArrowRight"":23}","false","ArrowDown,ArrowRight","false","","","","","","","","","",""
"html-keyboard-response","76","480154","0.0-3.0-15.0-2.0-1.1","pilot_wm_v1","null","4","null","null","true","","","","","","","null","<div style=""font-size:60px;"">+</div>","null","fixation","","","","","","","","","","","","","","","",""
"revaluation","77","486159","0.0-3.0-15.0-2.0-0.2","pilot_wm_v1","null","4","null","null","true","","false","","","","","[1178,352.30000001192093]","./assets/img/space/13.jpg","[""ArrowUp"",""ArrowRight""]","practice block","space","36","{""ArrowUp,ArrowLeft"":3,""ArrowUp,ArrowRight"":36,""ArrowDown,ArrowLeft"":15,""ArrowDown,ArrowRight"":23}","true","ArrowUp,ArrowRight","false","","","","","","","","","",""
"html-keyboard-response","78","486661","0.0-3.0-15.0-2.0-1.2","pilot_wm_v1","null","4","null","null","true","","","","","","","null","<div style=""font-size:60px;"">+</div>","null","fixation","","","","","","","","","","","","","","","",""
"revaluation","79","492666","0.0-3.0-15.0-2.0-0.3","pilot_wm_v1","null","4","null","null","true","","false","","","","","[750,369.7999999821186]","./assets/img/space/14.jpg","[""ArrowUp"",""ArrowRight""]","practice block","space","36","{""ArrowUp,ArrowLeft"":3,""ArrowUp,ArrowRight"":36,""ArrowDown,ArrowLeft"":15,""ArrowDown,ArrowRight"":23}","true","ArrowUp,ArrowRight","false","","","","","","","","","",""
"html-keyboard-response","80","493168","0.0-3.0-15.0-2.0-1.3","pilot_wm_v1","null","4","null","null","true","","","","","","","null","<div style=""font-size:60px;"">+</div>","null","fixation","","","","","","","","","","","","","","","",""
"revaluation","81","499175","0.0-3.0-15.0-2.0-0.4","pilot_wm_v1","null","4","null","null","true","","false","","","","","[979.8000000119209,713.6999999880791]","./assets/img/space/11.jpg","[""ArrowDown"",""ArrowRight""]","practice block","space","23","{""ArrowUp,ArrowLeft"":3,""ArrowUp,ArrowRight"":36,""ArrowDown,ArrowLeft"":15,""ArrowDown,ArrowRight"":23}","false","ArrowDown,ArrowRight","false","","","","","","","","","",""
"html-keyboard-response","82","499677","0.0-3.0-15.0-2.0-1.4","pilot_wm_v1","null","4","null","null","true","","","","","","","null","<div style=""font-size:60px;"">+</div>","null","fixation","","","","","","","","","","","","","","","",""
"revaluation","83","505683","0.0-3.0-15.0-2.0-0.5","pilot_wm_v1","null","4","null","null","true","","false","","","","","[1026.300000011921,588.5]","./assets/img/space/12.jpg","[""ArrowUp"",""ArrowLeft""]","practice block","space","3","{""ArrowUp,ArrowLeft"":3,""ArrowUp,ArrowRight"":36,""ArrowDown,ArrowLeft"":15,""ArrowDown,ArrowRight"":23}","false","ArrowUp,ArrowLeft","false","","","","","","","","","",""
"html-keyboard-response","84","506184","0.0-3.0-15.0-2.0-1.5","pilot_wm_v1","null","4","null","null","true","","","","","","","null","<div style=""font-size:60px;"">+</div>","null","fixation","","","","","","","","","","","","","","","",""
"revaluation","85","512189","0.0-3.0-15.0-2.0-0.6","pilot_wm_v1","null","4","null","null","true","","false","","","","","[1126.0999999940395,439]","./assets/img/space/13.jpg","[""ArrowUp"",""ArrowLeft""]","practice block","space","3","{""ArrowUp,ArrowLeft"":3,""ArrowUp,ArrowRight"":36,""ArrowDown,ArrowLeft"":15,""ArrowDown,ArrowRight"":23}","false","ArrowUp,ArrowLeft","false","","","","","","","","","",""
"html-keyboard-response","86","512691","0.0-3.0-15.0-2.0-1.6","pilot_wm_v1","null","4","null","null","true","","","","","","","null","<div style=""font-size:60px;"">+</div>","null","fixation","","","","","","","","","","","","","","","",""
"revaluation","87","518699","0.0-3.0-15.0-2.0-0.7","pilot_wm_v1","null","4","null","null","true","","false","","","","","[841.9000000059605,434]","./assets/img/space/14.jpg","[""ArrowDown"",""ArrowLeft""]","practice block","space","15","{""ArrowUp,ArrowLeft"":3,""ArrowUp,ArrowRight"":36,""ArrowDown,ArrowLeft"":15,""ArrowDown,ArrowRight"":23}","false","ArrowDown,ArrowLeft","false","","","","","","","","","",""
"html-keyboard-response","88","519201","0.0-3.0-15.0-2.0-1.7","pilot_wm_v1","null","4","null","null","true","","","","","","","null","<div style=""font-size:60px;"">+</div>","null","fixation","","","","","","","","","","","","","","","",""
"revaluation","89","523205","0.0-3.0-15.0-2.0-0.8","pilot_wm_v1","null","4","null","null","true","","false","","","","","[827]","./assets/img/space/catch/3.jpg","[""spaceBar""]","practice block","space","0","{""ArrowUp,ArrowLeft"":3,""ArrowUp,ArrowRight"":36,""ArrowDown,ArrowLeft"":15,""ArrowDown,ArrowRight"":23}","true","spaceBar","true","","","","","","","","","",""
"html-keyboard-response","90","523707","0.0-3.0-15.0-2.0-1.8","pilot_wm_v1","null","4","null","null","true","","","","","","","null","<div style=""font-size:60px;"">+</div>","null","fixation","","","","","","","","","","","","","","","",""
"learning-instructions","91","539260","0.0-3.0-15.0-3.0-0.0","pilot_wm_v1","null","4","null","null","true","","","","","","","2342.5","<p> Now, you will travel with a friend who will choose whether you go up or down first. </p>
            <p> On these turns, you will just see the animal that they found. You will still get to choose which chest to search for treasure.</p>","","instructions","","","","","","","","","","","","","","","",""
"learning-instructions","92","552176","0.0-3.0-15.0-3.0-0.1","pilot_wm_v1","null","4","null","null","true","","","","","","","1065.0999999940395","<p> In this part, you will also hear beeps from your friend and see special treasure chests that need a password. </p>
            <p> Do your best to count the high beeps <b>and</b> choose between each animals' chests at the same time.</p>
            <img src='./assets/img/instructions/beep_chest.jpg' class='instructions-image'>","","instructions","","","","","","","","","","","","","","","",""
"revaluation","93","556229","0.0-3.0-15.0-4.0-0.0","pilot_wm_v1","null","4","null","null","true","","false","","","","","[1621.9000000059605]","./assets/img/space/animals/rabbit.jpg","[""ArrowRight""]","practice block","space","23","{""ArrowUp,ArrowLeft"":3,""ArrowUp,ArrowRight"":36,""ArrowDown,ArrowLeft"":15,""ArrowDown,ArrowRight"":23}","true","ArrowDown,ArrowRight","","[""22_3""]","","","","","","0","","",""
"html-keyboard-response","94","556733","0.0-3.0-15.0-4.0-1.0","pilot_wm_v1","null","4","null","null","true","","","","","","","null","<div style=""font-size:60px;"">+</div>","null","fixation","","","","","","","","","","","","","","","",""
"revaluation","95","560738","0.0-3.0-15.0-4.0-0.1","pilot_wm_v1","null","4","null","null","true","","false","","","","","[1357.4000000059605]","./assets/img/space/animals/cat.jpg","[""ArrowRight""]","practice block","space","36","{""ArrowUp,ArrowLeft"":3,""ArrowUp,ArrowRight"":36,""ArrowDown,ArrowLeft"":15,""ArrowDown,ArrowRight"":23}","true","ArrowUp,ArrowRight","","[""20_0""]","","","","","","1","","",""
"html-keyboard-response","96","561240","0.0-3.0-15.0-4.0-1.1","pilot_wm_v1","null","4","null","null","true","","","","","","","null","<div style=""font-size:60px;"">+</div>","null","fixation","","","","","","","","","","","","","","","",""
"revaluation","97","565243","0.0-3.0-15.0-4.0-0.2","pilot_wm_v1","null","4","null","null","true","","false","","","","","[1359.9000000059605]","./assets/img/space/animals/cat.jpg","[""ArrowRight""]","practice block","space","36","{""ArrowUp,ArrowLeft"":3,""ArrowUp,ArrowRight"":36,""ArrowDown,ArrowLeft"":15,""ArrowDown,ArrowRight"":23}","true","ArrowUp,ArrowRight","","[""19_0""]","","","","","","2","","",""
"html-keyboard-response","98","565745","0.0-3.0-15.0-4.0-1.2","pilot_wm_v1","null","4","null","null","true","","","","","","","null","<div style=""font-size:60px;"">+</div>","null","fixation","","","","","","","","","","","","","","","",""
"revaluation","99","569750","0.0-3.0-15.0-4.0-0.3","pilot_wm_v1","null","4","null","null","true","","false","","","","","[1316.199999988079]","./assets/img/space/animals/rabbit.jpg","[""ArrowLeft""]","practice block","space","15","{""ArrowUp,ArrowLeft"":3,""ArrowUp,ArrowRight"":36,""ArrowDown,ArrowLeft"":15,""ArrowDown,ArrowRight"":23}","false","ArrowDown,ArrowLeft","","[""21_1""]","","","","","","3","","",""
"html-keyboard-response","100","570251","0.0-3.0-15.0-4.0-1.3","pilot_wm_v1","null","4","null","null","true","","","","","","","null","<div style=""font-size:60px;"">+</div>","null","fixation","","","","","","","","","","","","","","","",""
"html-slider-response","101","573839","0.0-3.0-15.0-4.0-2.3-0.3","pilot_wm_v1","null","4","null","null","true","","","","","","","3587","<div style=""width:500px;"">
        <p>What is the password?</p>
        <img src='./assets/img/instructions/beep_chest.jpg' class='instructions-image'>","4","","","","","false","","","","50","82","78","","","","","",""
"learning-instructions","102","583485","0.0-3.0-15.0-5.0-0.0-0.0","pilot_wm_v1","null","4","null","null","true","","","","","","","2084.9000000059605","<p> Time to play the dot game! </p>
            <p> For 15 seconds, click the red dots on the following screen as they appear. </p>","","instructions","","","","","","","","","","","","","","","",""
"revaluation","103","598487","0.0-3.0-15.0-5.0-1.0-0.0","pilot_wm_v1","null","4","null","null","true","","","","","","","[39,96]","","","rest practice","","20","","","","","","","","","0","15000","","","",""
"learning-instructions","104","606782","0.0-3.0-15.0-6.0-0.0","pilot_wm_v1","null","4","null","null","true","","","","","","","null","<p> You have almost finished this part of the game! </p>
            <p> We are going to ask you to make a few more choices. </p>","","instructions","","","","","","","","","","","","","","","",""
"learning-instructions","105","623007","0.0-3.0-15.0-6.0-0.1","pilot_wm_v1","null","4","null","null","true","","","","","","","null","<p> First, you need to decide whether to go up or down. When you see each picture, use the arrow keys to make your choice. </p>
            <p><b>You will not see which animal you found, but try to get to the one that will give you the most treasure.</b></p>","","instructions","","","","","","","","","","","","","","","",""
"html-keyboard-response","106","624009","0.0-3.0-15.0-7.0-0.0","pilot_wm_v1","null","4","null","null","true","","","","","","","null","<div style=""font-size:100px;color:red;"">Starting in...</div>","null","","","","","","","","","","","","","","","","",""
"html-keyboard-response","107","625011","0.0-3.0-15.0-7.0-1.0","pilot_wm_v1","null","4","null","null","true","","","","","","","null","<div style=""font-size:200px;color:red;"">3</div>","null","","","","","","","","","","","","","","","","",""
"html-keyboard-response","108","626012","0.0-3.0-15.0-7.0-2.0","pilot_wm_v1","null","4","null","null","true","","","","","","","null","<div style=""font-size:200px;color:red;"">2</div>","null","","","","","","","","","","","","","","","","",""
"html-keyboard-response","109","627013","0.0-3.0-15.0-7.0-3.0","pilot_wm_v1","null","4","null","null","true","","","","","","","null","<div style=""font-size:200px;color:red;"">1</div>","null","","","","","","","","","","","","","","","","",""
"revaluation","110","627564","0.0-3.0-15.0-8.0","pilot_wm_v1","null","4","null","null","true","","false","","","","","[549.3000000119209]","./assets/img/space/15.jpg","[""ArrowUp""]","practice block","space","0","{""ArrowUp,ArrowLeft"":3,""ArrowUp,ArrowRight"":36,""ArrowDown,ArrowLeft"":15,""ArrowDown,ArrowRight"":23}","true","ArrowUp","false","","","","","","","","","",""
"html-keyboard-response","111","628066","0.0-3.0-15.0-9.0","pilot_wm_v1","null","4","null","null","true","","","","","","","null","<div style=""font-size:60px;"">+</div>","null","fixation","","","","","","","","","","","","","","","",""
"learning-instructions","112","641676","0.0-3.0-15.0-10.0-0.0","pilot_wm_v1","null","4","null","null","true","","","","","","","null","<p> Now you will see the animals again and can search their chests for treasure. </p>
            <p> This time, you will not see how much treasure you earned, but you will earn more bonus money for making better choices. </p>","","instructions","","","","","","","","","","","","","","","",""
"html-keyboard-response","113","642678","0.0-3.0-15.0-11.0-0.0","pilot_wm_v1","null","4","null","null","true","","","","","","","null","<div style=""font-size:100px;color:red;"">Starting in...</div>","null","","","","","","","","","","","","","","","","",""
"html-keyboard-response","114","643679","0.0-3.0-15.0-11.0-1.0","pilot_wm_v1","null","4","null","null","true","","","","","","","null","<div style=""font-size:200px;color:red;"">3</div>","null","","","","","","","","","","","","","","","","",""
"html-keyboard-response","115","644681","0.0-3.0-15.0-11.0-2.0","pilot_wm_v1","null","4","null","null","true","","","","","","","null","<div style=""font-size:200px;color:red;"">2</div>","null","","","","","","","","","","","","","","","","",""
"html-keyboard-response","116","645682","0.0-3.0-15.0-11.0-3.0","pilot_wm_v1","null","4","null","null","true","","","","","","","null","<div style=""font-size:200px;color:red;"">1</div>","null","","","","","","","","","","","","","","","","",""
"revaluation","117","646280","0.0-3.0-15.0-12.0-0.0","pilot_wm_v1","null","4","null","null","true","","false","","","","","[596.6999999880791]","./assets/img/space/animals/cat.jpg","[""ArrowRight""]","practice block","space","0","{""ArrowUp,ArrowLeft"":3,""ArrowUp,ArrowRight"":36,""ArrowDown,ArrowLeft"":15,""ArrowDown,ArrowRight"":23}","true","ArrowUp,ArrowRight","","","","","","","","","","",""
"html-keyboard-response","118","646782","0.0-3.0-15.0-12.0-1.0","pilot_wm_v1","null","4","null","null","true","","","","","","","null","<div style=""font-size:60px;"">+</div>","null","fixation","","","","","","","","","","","","","","","",""
"revaluation","119","647628","0.0-3.0-15.0-12.0-0.1","pilot_wm_v1","null","4","null","null","true","","false","","","","","[844.0999999940395]","./assets/img/space/animals/rabbit.jpg","[""ArrowRight""]","practice block","space","0","{""ArrowUp,ArrowLeft"":3,""ArrowUp,ArrowRight"":36,""ArrowDown,ArrowLeft"":15,""ArrowDown,ArrowRight"":23}","true","ArrowDown,ArrowRight","","","","","","","","","","",""
"html-keyboard-response","120","648130","0.0-3.0-15.0-12.0-1.1","pilot_wm_v1","null","4","null","null","true","","","","","","","null","<div style=""font-size:60px;"">+</div>","null","fixation","","","","","","","","","","","","","","","",""
"learning-instructions","121","653990","0.0-3.0-16.0-0.0","pilot_wm_v1","null","4","null","null","true","","","","","","","1122.0999999940395","<p> Before you start, we're going to ask you a few questions about how the game works. </p>","","instructions","","","","","","","","","","","","","","","",""
"comp-q","122","661232","0.0-3.0-17.0-0.0-0.0","pilot_wm_v1","null","4","null","null","true","","","","","","","1484.9000000059605","<p> <b> True or False? </b> </p>
            <p> There can be 50 pieces of treasure in a given animal's chest. </p>","1","comp_question","","","","true","","","","","","","","","","","",""
"comp-q","123","668847","0.0-3.0-17.0-0.0-1.0","pilot_wm_v1","null","4","null","null","true","","","","","","","782.3000000119209","<p> <b> That's right! </b> The amount of treasure in each chest can range from 0 to 40 pieces. </p>","0","comp_answer","","","","","","","","","","","","","","","",""
"comp-q","124","676969","0.0-3.0-17.0-0.1-0.1","pilot_wm_v1","null","4","null","null","true","","","","","","","829.3000000119209","<p> <b> True or False? </b> </p><p> In this game, all animals have the same amount of treasure in their left and right chests. </p>","1","comp_question","","","","true","","","","","","","","","","","",""
"comp-q","125","683239","0.0-3.0-17.0-0.1-1.1","pilot_wm_v1","null","4","null","null","true","","","","","","","818.8000000119209","<p> <b> That's right! </b> Animals have different amounts of treasure in their treasure chests. </p>","0","comp_answer","","","","","","","","","","","","","","","",""
"comp-q","126","690145","0.0-3.0-17.0-0.2-0.2","pilot_wm_v1","null","4","null","null","true","","","","","","","932.4000000059605","<p> <b> True or False? </b> </p><p> The same animal will always be there if you go up in the same place. </p>","1","comp_question","","","","false","","","","","","","","","","","",""
"comp-q","127","697436","0.0-3.0-17.0-0.2-1.2","pilot_wm_v1","null","4","null","null","true","","","","","","","834.8000000119209","<p> <b>Incorrect.</b> One animal lives in the upper part and one lives in the lower part of every place. </p>","0","comp_answer","","","","","","","","","","","","","","","",""
"comp-q","128","703918","0.0-3.0-17.0-0.3-0.3","pilot_wm_v1","null","4","null","null","true","","","","","","","658.5999999940395","<p> <b> True or False? </b> </p><p> The same animal will always be there if you go up in the same place. </p>","0","comp_question","","","","true","","","","","","","","","","","",""
"comp-q","129","711876","0.0-3.0-17.0-0.3-1.3","pilot_wm_v1","null","4","null","null","true","","","","","","","1366.2999999821186","<p> <b> That's right! </b> One animal lives in the upper part and one lives in the lower part of every place. </p>","0","comp_answer","","","","","","","","","","","","","","","",""
"comp-q","130","718362","0.0-3.0-17.0-0.4-0.4","pilot_wm_v1","null","4","null","null","true","","","","","","","723.3000000119209","<p> <b> True or False? </b> </p><p> If you see a different picture, it means you are in a new place. </p>","0","comp_question","","","","false","","","","","","","","","","","",""
"comp-q","131","730559","0.0-3.0-17.0-0.4-1.4","pilot_wm_v1","null","4","null","null","true","","","","","","","812.5","<p> <b>Incorrect.</b> Lots of different images may show the same place. For example,  you may see three different images that all remind you that you are in outer space. </p>","0","comp_answer","","","","","","","","","","","","","","","",""
"comp-q","132","736721","0.0-3.0-17.0-0.5-0.5","pilot_wm_v1","null","4","null","null","true","","","","","","","658.9000000059605","<p> <b> True or False? </b> </p><p> If you see a different picture, it means you are in a new place. </p>","1","comp_question","","","","true","","","","","","","","","","","",""
"comp-q","133","749027","0.0-3.0-17.0-0.5-1.5","pilot_wm_v1","null","4","null","null","true","","","","","","","861.3000000119209","<p> <b> That's right! </b> Lots of different images may show the same place. For example,  you may see three different images that all remind you that you are in outer space. </p>","0","comp_answer","","","","","","","","","","","","","","","",""
"learning-instructions","134","761152","0.0-3.0-18.0-0.0","pilot_wm_v1","null","4","null","null","true","","","","","","","2044.7000000178814","<p> Good job. Remember to do your best because the amount of treasure you earn will be converted into bonus money. </p>
            <p> It’s time to start the real game! </p>","","instructions","","","","","","","","","","","","","","","",""
"learning-instructions","135","767186","0.0-4.0-0.0-0.0","pilot_wm_v1","null","4","null","null","true","","","","","","","3208.199999988079","<p> This time you are searching for treasure in the <b>ocean</b>.</p>","","instructions","","","","","","","","","","","","","","","",""
"learning-instructions","136","785405","0.0-4.0-0.0-0.1","pilot_wm_v1","null","4","null","null","true","","","","","","","803.3000000119209","<p><b>New</b> animals with <b>new</b> treasure chests live here. You need to explore to discover where the animal with the best treasure chest is.</p>
                    <p> Like before, once you figure out which animal has the chest with the most treasure, you should try to get to that animal and select that chest! </p>","","instructions","","","","","","","","","","","","","","","",""
"learning-instructions","137","800897","0.0-4.0-1.0-0.0","pilot_wm_v1","null","4","null","null","true","","","","","","","761.2000000178814","<p> Remember, when you see a picture of the place, use the up and down keys to <b>find an animal</b>.</p>
            <p> When you encounter an animal, you should use the left and right keys to <b>select a treasure chest</b>.</p>
            <p> Don't forget to look out for the robber! </p>","","instructions","","","","","","","","","","","","","","","",""
"revaluation","138","806902","0.0-4.0-2.0-0.0","pilot_wm_v1","null","4","null","null","true","","false","","","","","[924.9000000059605,827.3000000119209]","./assets/img/ocean/memory/7.jpg","[""ArrowUp"",""ArrowRight""]","value training","ocean","10","{""ArrowUp,ArrowLeft"":26,""ArrowUp,ArrowRight"":10,""ArrowDown,ArrowLeft"":5,""ArrowDown,ArrowRight"":17}","false","ArrowUp,ArrowRight","false","","","","","","","0","revaluation","1",""
"html-keyboard-response","139","807406","0.0-4.0-2.0-1.0","pilot_wm_v1","null","4","null","null","true","","","","","","","null","<div style=""font-size:60px;"">+</div>","null","fixation","","","","","","","","","","","","","1","","",""
"revaluation","140","811410","0.0-4.0-2.0-0.1","pilot_wm_v1","null","4","null","null","true","","false","","","","","[645.9000000059605]","./assets/img/ocean/catch/4.jpg","[""ArrowUp""]","value training","ocean","-10","{""ArrowUp,ArrowLeft"":26,""ArrowUp,ArrowRight"":10,""ArrowDown,ArrowLeft"":5,""ArrowDown,ArrowRight"":17}","false","ArrowUp","true","","","","","","","2","revaluation","1",""
"html-keyboard-response","141","811911","0.0-4.0-2.0-1.1","pilot_wm_v1","null","4","null","null","true","","","","","","","null","<div style=""font-size:60px;"">+</div>","null","fixation","","","","","","","","","","","","","3","","",""
"revaluation","142","815917","0.0-4.0-2.0-0.2","pilot_wm_v1","null","4","null","null","true","","false","","","","","[986.8000000119209]","./assets/img/ocean/catch/2.jpg","[""spaceBar""]","value training","ocean","0","{""ArrowUp,ArrowLeft"":26,""ArrowUp,ArrowRight"":10,""ArrowDown,ArrowLeft"":5,""ArrowDown,ArrowRight"":17}","true","spaceBar","true","","","","","","","4","revaluation","1",""
"html-keyboard-response","143","816419","0.0-4.0-2.0-1.2","pilot_wm_v1","null","4","null","null","true","","","","","","","null","<div style=""font-size:60px;"">+</div>","null","fixation","","","","","","","","","","","","","5","","",""
"revaluation","144","822425","0.0-4.0-2.0-0.3","pilot_wm_v1","null","4","null","null","true","","false","","","","","[690.3000000119209,448.5]","./assets/img/ocean/memory/7.jpg","[""ArrowUp"",""ArrowLeft""]","value training","ocean","26","{""ArrowUp,ArrowLeft"":26,""ArrowUp,ArrowRight"":10,""ArrowDown,ArrowLeft"":5,""ArrowDown,ArrowRight"":17}","true","ArrowUp,ArrowLeft","false","","","","","","","6","revaluation","1",""
"html-keyboard-response","145","822927","0.0-4.0-2.0-1.3","pilot_wm_v1","null","4","null","null","true","","","","","","","null","<div style=""font-size:60px;"">+</div>","null","fixation","","","","","","","","","","","","","7","","",""
"revaluation","146","828933","0.0-4.0-2.0-0.4","pilot_wm_v1","null","4","null","null","true","","false","","","","","[1036.699999988079,636.3999999761581]","./assets/img/ocean/memory/23.jpg","[""ArrowDown"",""ArrowLeft""]","value training","ocean","5","{""ArrowUp,ArrowLeft"":26,""ArrowUp,ArrowRight"":10,""ArrowDown,ArrowLeft"":5,""ArrowDown,ArrowRight"":17}","false","ArrowDown,ArrowLeft","false","","","","","","","8","revaluation","1",""
"html-keyboard-response","147","829435","0.0-4.0-2.0-1.4","pilot_wm_v1","null","4","null","null","true","","","","","","","null","<div style=""font-size:60px;"">+</div>","null","fixation","","","","","","","","","","","","","9","","",""
"revaluation","148","833441","0.0-4.0-2.0-0.5","pilot_wm_v1","null","4","null","null","true","","false","","","","","[539.2999999821186]","./assets/img/ocean/catch/0.jpg","[""spaceBar""]","value training","ocean","0","{""ArrowUp,ArrowLeft"":26,""ArrowUp,ArrowRight"":10,""ArrowDown,ArrowLeft"":5,""ArrowDown,ArrowRight"":17}","true","spaceBar","true","","","","","","","10","revaluation","1",""
"html-keyboard-response","149","833943","0.0-4.0-2.0-1.5","pilot_wm_v1","null","4","null","null","true","","","","","","","null","<div style=""font-size:60px;"">+</div>","null","fixation","","","","","","","","","","","","","11","","",""
"revaluation","150","839949","0.0-4.0-2.0-0.6","pilot_wm_v1","null","4","null","null","true","","false","","","","","[881,558.0999999940395]","./assets/img/ocean/memory/39.jpg","[""ArrowDown"",""ArrowRight""]","value training","ocean","17","{""ArrowUp,ArrowLeft"":26,""ArrowUp,ArrowRight"":10,""ArrowDown,ArrowLeft"":5,""ArrowDown,ArrowRight"":17}","false","ArrowDown,ArrowRight","false","","","","","","","12","revaluation","1",""
"html-keyboard-response","151","840450","0.0-4.0-2.0-1.6","pilot_wm_v1","null","4","null","null","true","","","","","","","null","<div style=""font-size:60px;"">+</div>","null","fixation","","","","","","","","","","","","","13","","",""
"revaluation","152","846458","0.0-4.0-2.0-0.7","pilot_wm_v1","null","4","null","null","true","","false","","","","","[760.6999999880791,584]","./assets/img/ocean/memory/41.jpg","[""ArrowUp"",""ArrowLeft""]","value training","ocean","26","{""ArrowUp,ArrowLeft"":26,""ArrowUp,ArrowRight"":10,""ArrowDown,ArrowLeft"":5,""ArrowDown,ArrowRight"":17}","true","ArrowUp,ArrowLeft","false","","","","","","","14","revaluation","1",""
"html-keyboard-response","153","846959","0.0-4.0-2.0-1.7","pilot_wm_v1","null","4","null","null","true","","","","","","","null","<div style=""font-size:60px;"">+</div>","null","fixation","","","","","","","","","","","","","15","","",""
"revaluation","154","852964","0.0-4.0-2.0-0.8","pilot_wm_v1","null","4","null","null","true","","false","","","","","[882.3000000119209,575.1999999880791]","./assets/img/ocean/memory/27.jpg","[""ArrowUp"",""ArrowLeft""]","value training","ocean","26","{""ArrowUp,ArrowLeft"":26,""ArrowUp,ArrowRight"":10,""ArrowDown,ArrowLeft"":5,""ArrowDown,ArrowRight"":17}","true","ArrowUp,ArrowLeft","false","","","","","","","16","revaluation","1",""
"html-keyboard-response","155","853466","0.0-4.0-2.0-1.8","pilot_wm_v1","null","4","null","null","true","","","","","","","null","<div style=""font-size:60px;"">+</div>","null","fixation","","","","","","","","","","","","","17","","",""
"revaluation","156","859473","0.0-4.0-2.0-0.9","pilot_wm_v1","null","4","null","null","true","","false","","","","","[887.2999999821186,607.6000000238419]","./assets/img/ocean/memory/34.jpg","[""ArrowUp"",""ArrowLeft""]","value training","ocean","26","{""ArrowUp,ArrowLeft"":26,""ArrowUp,ArrowRight"":10,""ArrowDown,ArrowLeft"":5,""ArrowDown,ArrowRight"":17}","true","ArrowUp,ArrowLeft","false","","","","","","","18","revaluation","1",""
"html-keyboard-response","157","859975","0.0-4.0-2.0-1.9","pilot_wm_v1","null","4","null","null","true","","","","","","","null","<div style=""font-size:60px;"">+</div>","null","fixation","","","","","","","","","","","","","19","","",""
"revaluation","158","865984","0.0-4.0-2.0-0.10","pilot_wm_v1","null","4","null","null","true","","false","","","","","[970.7999999821186,431.40000000596046]","./assets/img/ocean/memory/35.jpg","[""ArrowUp"",""ArrowLeft""]","value training","ocean","26","{""ArrowUp,ArrowLeft"":26,""ArrowUp,ArrowRight"":10,""ArrowDown,ArrowLeft"":5,""ArrowDown,ArrowRight"":17}","true","ArrowUp,ArrowLeft","false","","","","","","","20","revaluation","1",""
"html-keyboard-response","159","866486","0.0-4.0-2.0-1.10","pilot_wm_v1","null","4","null","null","true","","","","","","","null","<div style=""font-size:60px;"">+</div>","null","fixation","","","","","","","","","","","","","21","","",""
"revaluation","160","872492","0.0-4.0-2.0-0.11","pilot_wm_v1","null","4","null","null","true","","false","","","","","[964.9000000059605,530.1999999880791]","./assets/img/ocean/memory/29.jpg","[""ArrowUp"",""ArrowLeft""]","value training","ocean","26","{""ArrowUp,ArrowLeft"":26,""ArrowUp,ArrowRight"":10,""ArrowDown,ArrowLeft"":5,""ArrowDown,ArrowRight"":17}","true","ArrowUp,ArrowLeft","false","","","","","","","22","revaluation","1",""
"html-keyboard-response","161","872994","0.0-4.0-2.0-1.11","pilot_wm_v1","null","4","null","null","true","","","","","","","null","<div style=""font-size:60px;"">+</div>","null","fixation","","","","","","","","","","","","","23","","",""
"revaluation","162","876997","0.0-4.0-2.0-0.12","pilot_wm_v1","null","4","null","null","true","","false","","","","","[979.0999999940395]","./assets/img/ocean/catch/5.jpg","[""ArrowUp""]","value training","ocean","-10","{""ArrowUp,ArrowLeft"":26,""ArrowUp,ArrowRight"":10,""ArrowDown,ArrowLeft"":5,""ArrowDown,ArrowRight"":17}","false","ArrowUp","true","","","","","","","24","revaluation","1",""
"html-keyboard-response","163","877500","0.0-4.0-2.0-1.12","pilot_wm_v1","null","4","null","null","true","","","","","","","null","<div style=""font-size:60px;"">+</div>","null","fixation","","","","","","","","","","","","","25","","",""
"revaluation","164","883505","0.0-4.0-2.0-0.13","pilot_wm_v1","null","4","null","null","true","","false","","","","","[1549.199999988079,514.3000000119209]","./assets/img/ocean/memory/5.jpg","[""ArrowUp"",""ArrowLeft""]","value training","ocean","26","{""ArrowUp,ArrowLeft"":26,""ArrowUp,ArrowRight"":10,""ArrowDown,ArrowLeft"":5,""ArrowDown,ArrowRight"":17}","true","ArrowUp,ArrowLeft","false","","","","","","","26","revaluation","1",""
"html-keyboard-response","165","884006","0.0-4.0-2.0-1.13","pilot_wm_v1","null","4","null","null","true","","","","","","","null","<div style=""font-size:60px;"">+</div>","null","fixation","","","","","","","","","","","","","27","","",""
"revaluation","166","890012","0.0-4.0-2.0-0.14","pilot_wm_v1","null","4","null","null","true","","false","","","","","[1058.300000011921,507.90000000596046]","./assets/img/ocean/memory/30.jpg","[""ArrowUp"",""ArrowLeft""]","value training","ocean","26","{""ArrowUp,ArrowLeft"":26,""ArrowUp,ArrowRight"":10,""ArrowDown,ArrowLeft"":5,""ArrowDown,ArrowRight"":17}","true","ArrowUp,ArrowLeft","false","","","","","","","28","revaluation","1",""
"html-keyboard-response","167","890514","0.0-4.0-2.0-1.14","pilot_wm_v1","null","4","null","null","true","","","","","","","null","<div style=""font-size:60px;"">+</div>","null","fixation","","","","","","","","","","","","","29","","",""
"revaluation","168","896521","0.0-4.0-2.0-0.15","pilot_wm_v1","null","4","null","null","true","","false","","","","","[952,433.2999999821186]","./assets/img/ocean/memory/6.jpg","[""ArrowUp"",""ArrowLeft""]","value training","ocean","26","{""ArrowUp,ArrowLeft"":26,""ArrowUp,ArrowRight"":10,""ArrowDown,ArrowLeft"":5,""ArrowDown,ArrowRight"":17}","true","ArrowUp,ArrowLeft","false","","","","","","","30","revaluation","1",""
"html-keyboard-response","169","897023","0.0-4.0-2.0-1.15","pilot_wm_v1","null","4","null","null","true","","","","","","","null","<div style=""font-size:60px;"">+</div>","null","fixation","","","","","","","","","","","","","31","","",""
"revaluation","170","903029","0.0-4.0-2.0-0.16","pilot_wm_v1","null","4","null","null","true","","false","","","","","[1052.800000011921,497.7999999821186]","./assets/img/ocean/memory/3.jpg","[""ArrowUp"",""ArrowLeft""]","value training","ocean","26","{""ArrowUp,ArrowLeft"":26,""ArrowUp,ArrowRight"":10,""ArrowDown,ArrowLeft"":5,""ArrowDown,ArrowRight"":17}","true","ArrowUp,ArrowLeft","false","","","","","","","32","revaluation","1",""
"html-keyboard-response","171","903530","0.0-4.0-2.0-1.16","pilot_wm_v1","null","4","null","null","true","","","","","","","null","<div style=""font-size:60px;"">+</div>","null","fixation","","","","","","","","","","","","","33","","",""
"revaluation","172","909537","0.0-4.0-2.0-0.17","pilot_wm_v1","null","4","null","null","true","","false","","","","","[967.7000000178814,640.4000000059605]","./assets/img/ocean/memory/28.jpg","[""ArrowUp"",""ArrowLeft""]","value training","ocean","26","{""ArrowUp,ArrowLeft"":26,""ArrowUp,ArrowRight"":10,""ArrowDown,ArrowLeft"":5,""ArrowDown,ArrowRight"":17}","true","ArrowUp,ArrowLeft","false","","","","","","","34","revaluation","1",""
"html-keyboard-response","173","910038","0.0-4.0-2.0-1.17","pilot_wm_v1","null","4","null","null","true","","","","","","","null","<div style=""font-size:60px;"">+</div>","null","fixation","","","","","","","","","","","","","35","","",""
"revaluation","174","916044","0.0-4.0-2.0-0.18","pilot_wm_v1","null","4","null","null","true","","false","","","","","[1441.4000000059605,583.2999999821186]","./assets/img/ocean/memory/38.jpg","[""ArrowUp"",""ArrowLeft""]","value training","ocean","26","{""ArrowUp,ArrowLeft"":26,""ArrowUp,ArrowRight"":10,""ArrowDown,ArrowLeft"":5,""ArrowDown,ArrowRight"":17}","true","ArrowUp,ArrowLeft","false","","","","","","","36","revaluation","1",""
"html-keyboard-response","175","916545","0.0-4.0-2.0-1.18","pilot_wm_v1","null","4","null","null","true","","","","","","","null","<div style=""font-size:60px;"">+</div>","null","fixation","","","","","","","","","","","","","37","","",""
"revaluation","176","922551","0.0-4.0-2.0-0.19","pilot_wm_v1","null","4","null","null","true","","false","","","","","[1088.300000011921,416.90000000596046]","./assets/img/ocean/memory/39.jpg","[""ArrowUp"",""ArrowLeft""]","value training","ocean","26","{""ArrowUp,ArrowLeft"":26,""ArrowUp,ArrowRight"":10,""ArrowDown,ArrowLeft"":5,""ArrowDown,ArrowRight"":17}","true","ArrowUp,ArrowLeft","false","","","","","","","38","revaluation","1",""
"html-keyboard-response","177","923052","0.0-4.0-2.0-1.19","pilot_wm_v1","null","4","null","null","true","","","","","","","null","<div style=""font-size:60px;"">+</div>","null","fixation","","","","","","","","","","","","","39","","",""
"revaluation","178","929059","0.0-4.0-2.0-0.20","pilot_wm_v1","null","4","null","null","true","","false","","","","","[1120.7000000178814,442.59999999403954]","./assets/img/ocean/memory/0.jpg","[""ArrowUp"",""ArrowLeft""]","value training","ocean","26","{""ArrowUp,ArrowLeft"":26,""ArrowUp,ArrowRight"":10,""ArrowDown,ArrowLeft"":5,""ArrowDown,ArrowRight"":17}","true","ArrowUp,ArrowLeft","false","","","","","","","40","revaluation","1",""
"html-keyboard-response","179","929561","0.0-4.0-2.0-1.20","pilot_wm_v1","null","4","null","null","true","","","","","","","null","<div style=""font-size:60px;"">+</div>","null","fixation","","","","","","","","","","","","","41","","",""
"revaluation","180","935567","0.0-4.0-2.0-0.21","pilot_wm_v1","null","4","null","null","true","","false","","","","","[1598.8999999761581,938.2000000178814]","./assets/img/ocean/memory/13.jpg","[""ArrowUp"",""ArrowRight""]","value training","ocean","10","{""ArrowUp,ArrowLeft"":26,""ArrowUp,ArrowRight"":10,""ArrowDown,ArrowLeft"":5,""ArrowDown,ArrowRight"":17}","false","ArrowUp,ArrowRight","false","","","","","","","42","revaluation","1",""
"html-keyboard-response","181","936069","0.0-4.0-2.0-1.21","pilot_wm_v1","null","4","null","null","true","","","","","","","null","<div style=""font-size:60px;"">+</div>","null","fixation","","","","","","","","","","","","","43","","",""
"revaluation","182","940074","0.0-4.0-2.0-0.22","pilot_wm_v1","null","4","null","null","true","","false","","","","","[702.6999999880791]","./assets/img/ocean/catch/6.jpg","[""spaceBar""]","value training","ocean","0","{""ArrowUp,ArrowLeft"":26,""ArrowUp,ArrowRight"":10,""ArrowDown,ArrowLeft"":5,""ArrowDown,ArrowRight"":17}","true","spaceBar","true","","","","","","","44","revaluation","1",""
"html-keyboard-response","183","940576","0.0-4.0-2.0-1.22","pilot_wm_v1","null","4","null","null","true","","","","","","","null","<div style=""font-size:60px;"">+</div>","null","fixation","","","","","","","","","","","","","45","","",""
"revaluation","184","946583","0.0-4.0-2.0-0.23","pilot_wm_v1","null","4","null","null","true","","false","","","","","[899.6999999880791,312.40000000596046]","./assets/img/ocean/memory/5.jpg","[""ArrowUp"",""ArrowLeft""]","value training","ocean","26","{""ArrowUp,ArrowLeft"":26,""ArrowUp,ArrowRight"":10,""ArrowDown,ArrowLeft"":5,""ArrowDown,ArrowRight"":17}","true","ArrowUp,ArrowLeft","false","","","","","","","46","revaluation","1",""
"html-keyboard-response","185","947084","0.0-4.0-2.0-1.23","pilot_wm_v1","null","4","null","null","true","","","","","","","null","<div style=""font-size:60px;"">+</div>","null","fixation","","","","","","","","","","","","","47","","",""
"revaluation","186","953092","0.0-4.0-2.0-0.24","pilot_wm_v1","null","4","null","null","true","","false","","","","","[1194.699999988079,503.59999999403954]","./assets/img/ocean/memory/23.jpg","[""ArrowUp"",""ArrowLeft""]","value training","ocean","26","{""ArrowUp,ArrowLeft"":26,""ArrowUp,ArrowRight"":10,""ArrowDown,ArrowLeft"":5,""ArrowDown,ArrowRight"":17}","true","ArrowUp,ArrowLeft","false","","","","","","","48","revaluation","1",""
"html-keyboard-response","187","953594","0.0-4.0-2.0-1.24","pilot_wm_v1","null","4","null","null","true","","","","","","","null","<div style=""font-size:60px;"">+</div>","null","fixation","","","","","","","","","","","","","49","","",""
"revaluation","188","959599","0.0-4.0-2.0-0.25","pilot_wm_v1","null","4","null","null","true","","false","","","","","[1107,496.40000000596046]","./assets/img/ocean/memory/38.jpg","[""ArrowUp"",""ArrowLeft""]","value training","ocean","26","{""ArrowUp,ArrowLeft"":26,""ArrowUp,ArrowRight"":10,""ArrowDown,ArrowLeft"":5,""ArrowDown,ArrowRight"":17}","true","ArrowUp,ArrowLeft","false","","","","","","","50","revaluation","1",""
"html-keyboard-response","189","960101","0.0-4.0-2.0-1.25","pilot_wm_v1","null","4","null","null","true","","","","","","","null","<div style=""font-size:60px;"">+</div>","null","fixation","","","","","","","","","","","","","51","","",""
"revaluation","190","966106","0.0-4.0-2.0-0.26","pilot_wm_v1","null","4","null","null","true","","false","","","","","[1008.1000000238419,396.59999999403954]","./assets/img/ocean/memory/9.jpg","[""ArrowUp"",""ArrowLeft""]","value training","ocean","26","{""ArrowUp,ArrowLeft"":26,""ArrowUp,ArrowRight"":10,""ArrowDown,ArrowLeft"":5,""ArrowDown,ArrowRight"":17}","true","ArrowUp,ArrowLeft","false","","","","","","","52","revaluation","1",""
"html-keyboard-response","191","966609","0.0-4.0-2.0-1.26","pilot_wm_v1","null","4","null","null","true","","","","","","","null","<div style=""font-size:60px;"">+</div>","null","fixation","","","","","","","","","","","","","53","","",""
"revaluation","192","972616","0.0-4.0-2.0-0.27","pilot_wm_v1","null","4","null","null","true","","false","","","","","[1189.7999999821186,494.69999998807907]","./assets/img/ocean/memory/20.jpg","[""ArrowUp"",""ArrowLeft""]","value training","ocean","26","{""ArrowUp,ArrowLeft"":26,""ArrowUp,ArrowRight"":10,""ArrowDown,ArrowLeft"":5,""ArrowDown,ArrowRight"":17}","true","ArrowUp,ArrowLeft","false","","","","","","","54","revaluation","1",""
"html-keyboard-response","193","973119","0.0-4.0-2.0-1.27","pilot_wm_v1","null","4","null","null","true","","","","","","","null","<div style=""font-size:60px;"">+</div>","null","fixation","","","","","","","","","","","","","55","","",""
"revaluation","194","979123","0.0-4.0-2.0-0.28","pilot_wm_v1","null","4","null","null","true","","false","","","","","[985.5999999940395,349.30000001192093]","./assets/img/ocean/memory/15.jpg","[""ArrowUp"",""ArrowLeft""]","value training","ocean","26","{""ArrowUp,ArrowLeft"":26,""ArrowUp,ArrowRight"":10,""ArrowDown,ArrowLeft"":5,""ArrowDown,ArrowRight"":17}","true","ArrowUp,ArrowLeft","false","","","","","","","56","revaluation","1",""
"html-keyboard-response","195","979625","0.0-4.0-2.0-1.28","pilot_wm_v1","null","4","null","null","true","","","","","","","null","<div style=""font-size:60px;"">+</div>","null","fixation","","","","","","","","","","","","","57","","",""
"revaluation","196","985630","0.0-4.0-2.0-0.29","pilot_wm_v1","null","4","null","null","true","","false","","","","","[711.3000000119209,371.69999998807907]","./assets/img/ocean/memory/6.jpg","[""ArrowUp"",""ArrowLeft""]","value training","ocean","26","{""ArrowUp,ArrowLeft"":26,""ArrowUp,ArrowRight"":10,""ArrowDown,ArrowLeft"":5,""ArrowDown,ArrowRight"":17}","true","ArrowUp,ArrowLeft","false","","","","","","","58","revaluation","1",""
"html-keyboard-response","197","986132","0.0-4.0-2.0-1.29","pilot_wm_v1","null","4","null","null","true","","","","","","","null","<div style=""font-size:60px;"">+</div>","null","fixation","","","","","","","","","","","","","59","","",""
"revaluation","198","990137","0.0-4.0-2.0-0.30","pilot_wm_v1","null","4","null","null","true","","false","","","","","[659.5999999940395]","./assets/img/ocean/catch/1.jpg","[""spaceBar""]","value training","ocean","0","{""ArrowUp,ArrowLeft"":26,""ArrowUp,ArrowRight"":10,""ArrowDown,ArrowLeft"":5,""ArrowDown,ArrowRight"":17}","true","spaceBar","true","","","","","","","60","revaluation","1",""
"html-keyboard-response","199","990639","0.0-4.0-2.0-1.30","pilot_wm_v1","null","4","null","null","true","","","","","","","null","<div style=""font-size:60px;"">+</div>","null","fixation","","","","","","","","","","","","","61","","",""
"revaluation","200","994644","0.0-4.0-2.0-0.31","pilot_wm_v1","null","4","null","null","true","","false","","","","","[754.5]","./assets/img/ocean/catch/3.jpg","[""spaceBar""]","value training","ocean","0","{""ArrowUp,ArrowLeft"":26,""ArrowUp,ArrowRight"":10,""ArrowDown,ArrowLeft"":5,""ArrowDown,ArrowRight"":17}","true","spaceBar","true","","","","","","","62","revaluation","1",""
"html-keyboard-response","201","995145","0.0-4.0-2.0-1.31","pilot_wm_v1","null","4","null","null","true","","","","","","","null","<div style=""font-size:60px;"">+</div>","null","fixation","","","","","","","","","","","","","63","","",""
"revaluation","202","1001150","0.0-4.0-2.0-0.32","pilot_wm_v1","null","4","null","null","true","","false","","","","","[769.3000000119209,300]","./assets/img/ocean/memory/41.jpg","[""ArrowUp"",""ArrowLeft""]","value training","ocean","26","{""ArrowUp,ArrowLeft"":26,""ArrowUp,ArrowRight"":10,""ArrowDown,ArrowLeft"":5,""ArrowDown,ArrowRight"":17}","true","ArrowUp,ArrowLeft","false","","","","","","","64","revaluation","1",""
"html-keyboard-response","203","1001652","0.0-4.0-2.0-1.32","pilot_wm_v1","null","4","null","null","true","","","","","","","null","<div style=""font-size:60px;"">+</div>","null","fixation","","","","","","","","","","","","","65","","",""
"revaluation","204","1007657","0.0-4.0-2.0-0.33","pilot_wm_v1","null","4","null","null","true","","false","","","","","[741.1999999880791,359.5]","./assets/img/ocean/memory/27.jpg","[""ArrowUp"",""ArrowLeft""]","value training","ocean","26","{""ArrowUp,ArrowLeft"":26,""ArrowUp,ArrowRight"":10,""ArrowDown,ArrowLeft"":5,""ArrowDown,ArrowRight"":17}","true","ArrowUp,ArrowLeft","false","","","","","","","66","revaluation","1",""
"html-keyboard-response","205","1008160","0.0-4.0-2.0-1.33","pilot_wm_v1","null","4","null","null","true","","","","","","","null","<div style=""font-size:60px;"">+</div>","null","fixation","","","","","","","","","","","","","67","","",""
"revaluation","206","1012165","0.0-4.0-2.0-0.34","pilot_wm_v1","null","4","null","null","true","","false","","","","","[791.3000000119209]","./assets/img/ocean/catch/7.jpg","[""spaceBar""]","value training","ocean","0","{""ArrowUp,ArrowLeft"":26,""ArrowUp,ArrowRight"":10,""ArrowDown,ArrowLeft"":5,""ArrowDown,ArrowRight"":17}","true","spaceBar","true","","","","","","","68","revaluation","1",""
"html-keyboard-response","207","1012666","0.0-4.0-2.0-1.34","pilot_wm_v1","null","4","null","null","true","","","","","","","null","<div style=""font-size:60px;"">+</div>","null","fixation","","","","","","","","","","","","","69","","",""
"revaluation","208","1018673","0.0-4.0-2.0-0.35","pilot_wm_v1","null","4","null","null","true","","false","","","","","[868.0999999940395,323.69999998807907]","./assets/img/ocean/memory/9.jpg","[""ArrowUp"",""ArrowLeft""]","value training","ocean","26","{""ArrowUp,ArrowLeft"":26,""ArrowUp,ArrowRight"":10,""ArrowDown,ArrowLeft"":5,""ArrowDown,ArrowRight"":17}","true","ArrowUp,ArrowLeft","false","","","","","","","70","revaluation","1",""
"html-keyboard-response","209","1019175","0.0-4.0-2.0-1.35","pilot_wm_v1","null","4","null","null","true","","","","","","","null","<div style=""font-size:60px;"">+</div>","null","fixation","","","","","","","","","","","","","71","","",""
"revaluation","210","1025182","0.0-4.0-2.0-0.36","pilot_wm_v1","null","4","null","null","true","","false","","","","","[738.4000000059605,271.40000000596046]","./assets/img/ocean/memory/34.jpg","[""ArrowDown"",""ArrowRight""]","value training","ocean","17","{""ArrowUp,ArrowLeft"":26,""ArrowUp,ArrowRight"":10,""ArrowDown,ArrowLeft"":5,""ArrowDown,ArrowRight"":17}","false","ArrowDown,ArrowRight","false","","","","","","","72","revaluation","1",""
"html-keyboard-response","211","1025683","0.0-4.0-2.0-1.36","pilot_wm_v1","null","4","null","null","true","","","","","","","null","<div style=""font-size:60px;"">+</div>","null","fixation","","","","","","","","","","","","","73","","",""
"revaluation","212","1029688","0.0-4.0-2.0-0.37","pilot_wm_v1","null","4","null","null","true","","true","","","","","[]","./assets/img/ocean/memory/13.jpg","[]","value training","ocean","-5","{""ArrowUp,ArrowLeft"":26,""ArrowUp,ArrowRight"":10,""ArrowDown,ArrowLeft"":5,""ArrowDown,ArrowRight"":17}","false","","false","","","","","","","74","revaluation","1",""
"html-keyboard-response","213","1030190","0.0-4.0-2.0-1.37","pilot_wm_v1","null","4","null","null","true","","","","","","","null","<div style=""font-size:60px;"">+</div>","null","fixation","","","","","","","","","","","","","75","","",""
"revaluation","214","1036198","0.0-4.0-2.0-0.38","pilot_wm_v1","null","4","null","null","true","","false","","","","","[939.4000000059605,263.80000001192093]","./assets/img/ocean/memory/20.jpg","[""ArrowDown"",""ArrowLeft""]","value training","ocean","5","{""ArrowUp,ArrowLeft"":26,""ArrowUp,ArrowRight"":10,""ArrowDown,ArrowLeft"":5,""ArrowDown,ArrowRight"":17}","false","ArrowDown,ArrowLeft","false","","","","","","","76","revaluation","1",""
"html-keyboard-response","215","1036700","0.0-4.0-2.0-1.38","pilot_wm_v1","null","4","null","null","true","","","","","","","null","<div style=""font-size:60px;"">+</div>","null","fixation","","","","","","","","","","","","","77","","",""
"revaluation","216","1042706","0.0-4.0-2.0-0.39","pilot_wm_v1","null","4","null","null","true","","false","","","","","[808.7000000178814,436.2000000178814]","./assets/img/ocean/memory/35.jpg","[""ArrowUp"",""ArrowLeft""]","value training","ocean","26","{""ArrowUp,ArrowLeft"":26,""ArrowUp,ArrowRight"":10,""ArrowDown,ArrowLeft"":5,""ArrowDown,ArrowRight"":17}","true","ArrowUp,ArrowLeft","false","","","","","","","78","revaluation","1",""
"html-keyboard-response","217","1043208","0.0-4.0-2.0-1.39","pilot_wm_v1","null","4","null","null","true","","","","","","","null","<div style=""font-size:60px;"">+</div>","null","fixation","","","","","","","","","","","","","79","","",""
"revaluation","218","1049215","0.0-4.0-2.0-0.40","pilot_wm_v1","null","4","null","null","true","","false","","","","","[840.5,406.7000000178814]","./assets/img/ocean/memory/0.jpg","[""ArrowUp"",""ArrowLeft""]","value training","ocean","26","{""ArrowUp,ArrowLeft"":26,""ArrowUp,ArrowRight"":10,""ArrowDown,ArrowLeft"":5,""ArrowDown,ArrowRight"":17}","true","ArrowUp,ArrowLeft","false","","","","","","","80","revaluation","1",""
"html-keyboard-response","219","1049717","0.0-4.0-2.0-1.40","pilot_wm_v1","null","4","null","null","true","","","","","","","null","<div style=""font-size:60px;"">+</div>","null","fixation","","","","","","","","","","","","","81","","",""
"revaluation","220","1055723","0.0-4.0-2.0-0.41","pilot_wm_v1","null","4","null","null","true","","false","","","","","[680.9000000059605,435.90000000596046]","./assets/img/ocean/memory/10.jpg","[""ArrowUp"",""ArrowLeft""]","value training","ocean","26","{""ArrowUp,ArrowLeft"":26,""ArrowUp,ArrowRight"":10,""ArrowDown,ArrowLeft"":5,""ArrowDown,ArrowRight"":17}","true","ArrowUp,ArrowLeft","false","","","","","","","82","revaluation","1",""
"html-keyboard-response","221","1056225","0.0-4.0-2.0-1.41","pilot_wm_v1","null","4","null","null","true","","","","","","","null","<div style=""font-size:60px;"">+</div>","null","fixation","","","","","","","","","","","","","83","","",""
"revaluation","222","1062232","0.0-4.0-2.0-0.42","pilot_wm_v1","null","4","null","null","true","","false","","","","","[851.1999999880791,456.59999999403954]","./assets/img/ocean/memory/1.jpg","[""ArrowUp"",""ArrowLeft""]","value training","ocean","26","{""ArrowUp,ArrowLeft"":26,""ArrowUp,ArrowRight"":10,""ArrowDown,ArrowLeft"":5,""ArrowDown,ArrowRight"":17}","true","ArrowUp,ArrowLeft","false","","","","","","","84","revaluation","1",""
"html-keyboard-response","223","1062734","0.0-4.0-2.0-1.42","pilot_wm_v1","null","4","null","null","true","","","","","","","null","<div style=""font-size:60px;"">+</div>","null","fixation","","","","","","","","","","","","","85","","",""
"revaluation","224","1068740","0.0-4.0-2.0-0.43","pilot_wm_v1","null","4","null","null","true","","false","","","","","[748.6999999880791,417.80000001192093]","./assets/img/ocean/memory/28.jpg","[""ArrowUp"",""ArrowLeft""]","value training","ocean","26","{""ArrowUp,ArrowLeft"":26,""ArrowUp,ArrowRight"":10,""ArrowDown,ArrowLeft"":5,""ArrowDown,ArrowRight"":17}","true","ArrowUp,ArrowLeft","false","","","","","","","86","revaluation","1",""
"html-keyboard-response","225","1069242","0.0-4.0-2.0-1.43","pilot_wm_v1","null","4","null","null","true","","","","","","","null","<div style=""font-size:60px;"">+</div>","null","fixation","","","","","","","","","","","","","87","","",""
"revaluation","226","1075248","0.0-4.0-2.0-0.44","pilot_wm_v1","null","4","null","null","true","","false","","","","","[861.5999999940395,514.5999999940395]","./assets/img/ocean/memory/3.jpg","[""ArrowUp"",""ArrowLeft""]","value training","ocean","26","{""ArrowUp,ArrowLeft"":26,""ArrowUp,ArrowRight"":10,""ArrowDown,ArrowLeft"":5,""ArrowDown,ArrowRight"":17}","true","ArrowUp,ArrowLeft","false","","","","","","","88","revaluation","1",""
"html-keyboard-response","227","1075750","0.0-4.0-2.0-1.44","pilot_wm_v1","null","4","null","null","true","","","","","","","null","<div style=""font-size:60px;"">+</div>","null","fixation","","","","","","","","","","","","","89","","",""
"revaluation","228","1081755","0.0-4.0-2.0-0.45","pilot_wm_v1","null","4","null","null","true","","false","","","","","[634.5999999940395,396.80000001192093]","./assets/img/ocean/memory/29.jpg","[""ArrowUp"",""ArrowLeft""]","value training","ocean","26","{""ArrowUp,ArrowLeft"":26,""ArrowUp,ArrowRight"":10,""ArrowDown,ArrowLeft"":5,""ArrowDown,ArrowRight"":17}","true","ArrowUp,ArrowLeft","false","","","","","","","90","revaluation","1",""
"html-keyboard-response","229","1082257","0.0-4.0-2.0-1.45","pilot_wm_v1","null","4","null","null","true","","","","","","","null","<div style=""font-size:60px;"">+</div>","null","fixation","","","","","","","","","","","","","91","","",""
"revaluation","230","1088262","0.0-4.0-2.0-0.46","pilot_wm_v1","null","4","null","null","true","","false","","","","","[744.5999999940395,385.09999999403954]","./assets/img/ocean/memory/15.jpg","[""ArrowUp"",""ArrowLeft""]","value training","ocean","26","{""ArrowUp,ArrowLeft"":26,""ArrowUp,ArrowRight"":10,""ArrowDown,ArrowLeft"":5,""ArrowDown,ArrowRight"":17}","true","ArrowUp,ArrowLeft","false","","","","","","","92","revaluation","1",""
"html-keyboard-response","231","1088764","0.0-4.0-2.0-1.46","pilot_wm_v1","null","4","null","null","true","","","","","","","null","<div style=""font-size:60px;"">+</div>","null","fixation","","","","","","","","","","","","","93","","",""
"revaluation","232","1094770","0.0-4.0-2.0-0.47","pilot_wm_v1","null","4","null","null","true","","false","","","","","[766.4000000059605,563.5]","./assets/img/ocean/memory/30.jpg","[""ArrowUp"",""ArrowLeft""]","value training","ocean","26","{""ArrowUp,ArrowLeft"":26,""ArrowUp,ArrowRight"":10,""ArrowDown,ArrowLeft"":5,""ArrowDown,ArrowRight"":17}","true","ArrowUp,ArrowLeft","false","","","","","","","94","revaluation","1",""
"html-keyboard-response","233","1095271","0.0-4.0-2.0-1.47","pilot_wm_v1","null","4","null","null","true","","","","","","","null","<div style=""font-size:60px;"">+</div>","null","fixation","","","","","","","","","","","","","95","","",""
"revaluation","234","1101276","0.0-4.0-2.0-0.48","pilot_wm_v1","null","4","null","null","true","","false","","","","","[578.5,361.30000001192093]","./assets/img/ocean/memory/10.jpg","[""ArrowUp"",""ArrowLeft""]","value training","ocean","26","{""ArrowUp,ArrowLeft"":26,""ArrowUp,ArrowRight"":10,""ArrowDown,ArrowLeft"":5,""ArrowDown,ArrowRight"":17}","true","ArrowUp,ArrowLeft","false","","","","","","","96","revaluation","1",""
"html-keyboard-response","235","1101777","0.0-4.0-2.0-1.48","pilot_wm_v1","null","4","null","null","true","","","","","","","null","<div style=""font-size:60px;"">+</div>","null","fixation","","","","","","","","","","","","","97","","",""
"revaluation","236","1107783","0.0-4.0-2.0-0.49","pilot_wm_v1","null","4","null","null","true","","false","","","","","[599.2000000178814,430.90000000596046]","./assets/img/ocean/memory/1.jpg","[""ArrowUp"",""ArrowLeft""]","value training","ocean","26","{""ArrowUp,ArrowLeft"":26,""ArrowUp,ArrowRight"":10,""ArrowDown,ArrowLeft"":5,""ArrowDown,ArrowRight"":17}","true","ArrowUp,ArrowLeft","false","","","","","","","98","revaluation","1",""
"html-keyboard-response","237","1108285","0.0-4.0-2.0-1.49","pilot_wm_v1","null","4","null","null","true","","","","","","","null","<div style=""font-size:60px;"">+</div>","null","fixation","","","","","","","","","","","","","99","","",""
"learning-instructions","238","1133361","0.0-4.0-3.0-0.0","pilot_wm_v1","null","4","null","null","true","","","","","","","11482.40000000596","<p> Now, you will travel with a friend who will choose whether you go up or down first. </p>
            <p> On these turns, you will just see the animal that they found. You will still get to choose which chest to search for treasure.</p>","","instructions","","","","","","","","","","","","","","","",""
"learning-instructions","239","1145427","0.0-4.0-3.0-0.1","pilot_wm_v1","null","4","null","null","true","","","","","","","463.59999999403954","<p> In this part, you will also hear beeps from your friend and see special treasure chests that need a password. </p>
            <p> Do your best to count the high beeps <b>and</b> choose between each animals' chests at the same time.</p>
            <img src='./assets/img/instructions/beep_chest.jpg' class='instructions-image'>","","instructions","","","","","","","","","","","","","","","",""
"revaluation","240","1149431","0.0-4.0-4.0-0.0","pilot_wm_v1","null","4","null","null","true","","false","","","","","[856.5999999940395]","./assets/img/ocean/animals/octopus.jpg","[""ArrowLeft""]","revaluation","ocean","2","{""ArrowUp,ArrowLeft"":2,""ArrowUp,ArrowRight"":11,""ArrowDown,ArrowLeft"":8,""ArrowDown,ArrowRight"":27}","false","ArrowUp,ArrowLeft","","2_1","","","","","","0","revaluation","1",""
"html-keyboard-response","241","1149934","0.0-4.0-4.0-1.0","pilot_wm_v1","null","4","null","null","true","","","","","","","null","<div style=""font-size:60px;"">+</div>","null","fixation","","","","","","","","","","","","","","","",""
"revaluation","242","1153937","0.0-4.0-4.0-0.1","pilot_wm_v1","null","4","null","null","true","","false","","","","","[1024.5]","./assets/img/ocean/animals/seahorse.jpg","[""ArrowLeft""]","revaluation","ocean","8","{""ArrowUp,ArrowLeft"":2,""ArrowUp,ArrowRight"":11,""ArrowDown,ArrowLeft"":8,""ArrowDown,ArrowRight"":27}","false","ArrowDown,ArrowLeft","","11_4","","","","","","1","revaluation","1",""
"html-keyboard-response","243","1154440","0.0-4.0-4.0-1.1","pilot_wm_v1","null","4","null","null","true","","","","","","","null","<div style=""font-size:60px;"">+</div>","null","fixation","","","","","","","","","","","","","","","",""
"revaluation","244","1158444","0.0-4.0-4.0-0.2","pilot_wm_v1","null","4","null","null","true","","false","","","","","[1715.4000000059605]","./assets/img/ocean/animals/octopus.jpg","[""ArrowLeft""]","revaluation","ocean","2","{""ArrowUp,ArrowLeft"":2,""ArrowUp,ArrowRight"":11,""ArrowDown,ArrowLeft"":8,""ArrowDown,ArrowRight"":27}","false","ArrowUp,ArrowLeft","","9_2","","","","","","2","revaluation","1",""
"html-keyboard-response","245","1158945","0.0-4.0-4.0-1.2","pilot_wm_v1","null","4","null","null","true","","","","","","","null","<div style=""font-size:60px;"">+</div>","null","fixation","","","","","","","","","","","","","","","",""
"revaluation","246","1162949","0.0-4.0-4.0-0.3","pilot_wm_v1","null","4","null","null","true","","false","","","","","[803.4000000059605]","./assets/img/ocean/animals/seahorse.jpg","[""ArrowRight""]","revaluation","ocean","27","{""ArrowUp,ArrowLeft"":2,""ArrowUp,ArrowRight"":11,""ArrowDown,ArrowLeft"":8,""ArrowDown,ArrowRight"":27}","true","ArrowDown,ArrowRight","","13_2","","","","","","3","revaluation","1",""
"html-keyboard-response","247","1163451","0.0-4.0-4.0-1.3","pilot_wm_v1","null","4","null","null","true","","","","","","","null","<div style=""font-size:60px;"">+</div>","null","fixation","","","","","","","","","","","","","","","",""
"html-slider-response","248","1170385","0.0-4.0-4.0-2.3-0.3","pilot_wm_v1","null","4","null","null","true","","","","","","","6933","<div style=""width:500px;"">
        <p>What is the password?</p>
        <img src='./assets/img/instructions/beep_chest.jpg' class='instructions-image'>","9","","","","","true","","","","50","9","0","","","","","",""
"revaluation","249","1174389","0.0-4.0-4.0-0.4","pilot_wm_v1","null","4","null","null","true","","false","","","","","[1186.699999988079]","./assets/img/ocean/animals/seahorse.jpg","[""ArrowRight""]","revaluation","ocean","27","{""ArrowUp,ArrowLeft"":2,""ArrowUp,ArrowRight"":11,""ArrowDown,ArrowLeft"":8,""ArrowDown,ArrowRight"":27}","true","ArrowDown,ArrowRight","","17_1","","","","","","4","revaluation","1",""
"html-keyboard-response","250","1174891","0.0-4.0-4.0-1.4","pilot_wm_v1","null","4","null","null","true","","","","","","","null","<div style=""font-size:60px;"">+</div>","null","fixation","","","","","","","","","","","","","","","",""
"revaluation","251","1178895","0.0-4.0-4.0-0.5","pilot_wm_v1","null","4","null","null","true","","false","","","","","[572.2000000178814]","./assets/img/ocean/animals/octopus.jpg","[""ArrowRight""]","revaluation","ocean","11","{""ArrowUp,ArrowLeft"":2,""ArrowUp,ArrowRight"":11,""ArrowDown,ArrowLeft"":8,""ArrowDown,ArrowRight"":27}","true","ArrowUp,ArrowRight","","8_2","","","","","","5","revaluation","1",""
"html-keyboard-response","252","1179396","0.0-4.0-4.0-1.5","pilot_wm_v1","null","4","null","null","true","","","","","","","null","<div style=""font-size:60px;"">+</div>","null","fixation","","","","","","","","","","","","","","","",""
"revaluation","253","1183399","0.0-4.0-4.0-0.6","pilot_wm_v1","null","4","null","null","true","","false","","","","","[688.0999999940395]","./assets/img/ocean/animals/seahorse.jpg","[""ArrowRight""]","revaluation","ocean","27","{""ArrowUp,ArrowLeft"":2,""ArrowUp,ArrowRight"":11,""ArrowDown,ArrowLeft"":8,""ArrowDown,ArrowRight"":27}","true","ArrowDown,ArrowRight","","14_4","","","","","","6","revaluation","1",""
"html-keyboard-response","254","1183901","0.0-4.0-4.0-1.6","pilot_wm_v1","null","4","null","null","true","","","","","","","null","<div style=""font-size:60px;"">+</div>","null","fixation","","","","","","","","","","","","","","","",""
"revaluation","255","1187904","0.0-4.0-4.0-0.7","pilot_wm_v1","null","4","null","null","true","","false","","","","","[631.0999999940395]","./assets/img/ocean/animals/seahorse.jpg","[""ArrowRight""]","revaluation","ocean","27","{""ArrowUp,ArrowLeft"":2,""ArrowUp,ArrowRight"":11,""ArrowDown,ArrowLeft"":8,""ArrowDown,ArrowRight"":27}","true","ArrowDown,ArrowRight","","16_0","","","","","","7","revaluation","1",""
"html-keyboard-response","256","1188407","0.0-4.0-4.0-1.7","pilot_wm_v1","null","4","null","null","true","","","","","","","null","<div style=""font-size:60px;"">+</div>","null","fixation","","","","","","","","","","","","","","","",""
"html-slider-response","257","1191706","0.0-4.0-4.0-2.7-0.7","pilot_wm_v1","null","4","null","null","true","","","","","","","3298","<div style=""width:500px;"">
        <p>What is the password?</p>
        <img src='./assets/img/instructions/beep_chest.jpg' class='instructions-image'>","7","","","","","true","","","","50","7","0","","","","","",""
"revaluation","258","1195710","0.0-4.0-4.0-0.8","pilot_wm_v1","null","4","null","null","true","","false","","","","","[1486.699999988079]","./assets/img/ocean/animals/octopus.jpg","[""ArrowRight""]","revaluation","ocean","11","{""ArrowUp,ArrowLeft"":2,""ArrowUp,ArrowRight"":11,""ArrowDown,ArrowLeft"":8,""ArrowDown,ArrowRight"":27}","true","ArrowUp,ArrowRight","","6_3","","","","","","8","revaluation","1",""
"html-keyboard-response","259","1196211","0.0-4.0-4.0-1.8","pilot_wm_v1","null","4","null","null","true","","","","","","","null","<div style=""font-size:60px;"">+</div>","null","fixation","","","","","","","","","","","","","","","",""
"revaluation","260","1200215","0.0-4.0-4.0-0.9","pilot_wm_v1","null","4","null","null","true","","false","","","","","[651.2000000178814]","./assets/img/ocean/animals/seahorse.jpg","[""ArrowRight""]","revaluation","ocean","27","{""ArrowUp,ArrowLeft"":2,""ArrowUp,ArrowRight"":11,""ArrowDown,ArrowLeft"":8,""ArrowDown,ArrowRight"":27}","true","ArrowDown,ArrowRight","","12_2","","","","","","9","revaluation","1",""
"html-keyboard-response","261","1200717","0.0-4.0-4.0-1.9","pilot_wm_v1","null","4","null","null","true","","","","","","","null","<div style=""font-size:60px;"">+</div>","null","fixation","","","","","","","","","","","","","","","",""
"revaluation","262","1204721","0.0-4.0-4.0-0.10","pilot_wm_v1","null","4","null","null","true","","false","","","","","[656.5]","./assets/img/ocean/animals/octopus.jpg","[""ArrowRight""]","revaluation","ocean","11","{""ArrowUp,ArrowLeft"":2,""ArrowUp,ArrowRight"":11,""ArrowDown,ArrowLeft"":8,""ArrowDown,ArrowRight"":27}","true","ArrowUp,ArrowRight","","3_0","","","","","","10","revaluation","1",""
"html-keyboard-response","263","1205222","0.0-4.0-4.0-1.10","pilot_wm_v1","null","4","null","null","true","","","","","","","null","<div style=""font-size:60px;"">+</div>","null","fixation","","","","","","","","","","","","","","","",""
"revaluation","264","1209225","0.0-4.0-4.0-0.11","pilot_wm_v1","null","4","null","null","true","","false","","","","","[510.69999998807907]","./assets/img/ocean/animals/octopus.jpg","[""ArrowRight""]","revaluation","ocean","11","{""ArrowUp,ArrowLeft"":2,""ArrowUp,ArrowRight"":11,""ArrowDown,ArrowLeft"":8,""ArrowDown,ArrowRight"":27}","true","ArrowUp,ArrowRight","","1_4","","","","","","11","revaluation","1",""
"html-keyboard-response","265","1209727","0.0-4.0-4.0-1.11","pilot_wm_v1","null","4","null","null","true","","","","","","","null","<div style=""font-size:60px;"">+</div>","null","fixation","","","","","","","","","","","","","","","",""
"html-slider-response","266","1212989","0.0-4.0-4.0-2.11-0.11","pilot_wm_v1","null","4","null","null","true","","","","","","","3261","<div style=""width:500px;"">
        <p>What is the password?</p>
        <img src='./assets/img/instructions/beep_chest.jpg' class='instructions-image'>","9","","","","","true","","","","50","9","0","","","","","",""
"revaluation","267","1216993","0.0-4.0-4.0-0.12","pilot_wm_v1","null","4","null","null","true","","false","","","","","[1827]","./assets/img/ocean/animals/seahorse.jpg","[""ArrowRight""]","revaluation","ocean","27","{""ArrowUp,ArrowLeft"":2,""ArrowUp,ArrowRight"":11,""ArrowDown,ArrowLeft"":8,""ArrowDown,ArrowRight"":27}","true","ArrowDown,ArrowRight","","18_0","","","","","","12","revaluation","1",""
"html-keyboard-response","268","1217495","0.0-4.0-4.0-1.12","pilot_wm_v1","null","4","null","null","true","","","","","","","null","<div style=""font-size:60px;"">+</div>","null","fixation","","","","","","","","","","","","","","","",""
"revaluation","269","1221499","0.0-4.0-4.0-0.13","pilot_wm_v1","null","4","null","null","true","","false","","","","","[863.7000000178814]","./assets/img/ocean/animals/octopus.jpg","[""ArrowRight""]","revaluation","ocean","11","{""ArrowUp,ArrowLeft"":2,""ArrowUp,ArrowRight"":11,""ArrowDown,ArrowLeft"":8,""ArrowDown,ArrowRight"":27}","true","ArrowUp,ArrowRight","","7_4","","","","","","13","revaluation","1",""
"html-keyboard-response","270","1222001","0.0-4.0-4.0-1.13","pilot_wm_v1","null","4","null","null","true","","","","","","","null","<div style=""font-size:60px;"">+</div>","null","fixation","","","","","","","","","","","","","","","",""
"revaluation","271","1226004","0.0-4.0-4.0-0.14","pilot_wm_v1","null","4","null","null","true","","false","","","","","[1769]","./assets/img/ocean/animals/octopus.jpg","[""ArrowRight""]","revaluation","ocean","11","{""ArrowUp,ArrowLeft"":2,""ArrowUp,ArrowRight"":11,""ArrowDown,ArrowLeft"":8,""ArrowDown,ArrowRight"":27}","true","ArrowUp,ArrowRight","","5_4","","","","","","14","revaluation","1",""
"html-keyboard-response","272","1226507","0.0-4.0-4.0-1.14","pilot_wm_v1","null","4","null","null","true","","","","","","","null","<div style=""font-size:60px;"">+</div>","null","fixation","","","","","","","","","","","","","","","",""
"revaluation","273","1230511","0.0-4.0-4.0-0.15","pilot_wm_v1","null","4","null","null","true","","false","","","","","[366.59999999403954]","./assets/img/ocean/animals/seahorse.jpg","[""ArrowRight""]","revaluation","ocean","27","{""ArrowUp,ArrowLeft"":2,""ArrowUp,ArrowRight"":11,""ArrowDown,ArrowLeft"":8,""ArrowDown,ArrowRight"":27}","true","ArrowDown,ArrowRight","","10_3","","","","","","15","revaluation","1",""
"html-keyboard-response","274","1231012","0.0-4.0-4.0-1.15","pilot_wm_v1","null","4","null","null","true","","","","","","","null","<div style=""font-size:60px;"">+</div>","null","fixation","","","","","","","","","","","","","","","",""
"html-slider-response","275","1233873","0.0-4.0-4.0-2.15-0.15","pilot_wm_v1","null","4","null","null","true","","","","","","","2859","<div style=""width:500px;"">
        <p>What is the password?</p>
        <img src='./assets/img/instructions/beep_chest.jpg' class='instructions-image'>","11","","","","","true","","","","50","11","0","","","","","",""
"revaluation","276","1237875","0.0-4.0-4.0-0.16","pilot_wm_v1","null","4","null","null","true","","false","","","","","[1988.9000000059605]","./assets/img/ocean/animals/octopus.jpg","[""ArrowRight""]","revaluation","ocean","11","{""ArrowUp,ArrowLeft"":2,""ArrowUp,ArrowRight"":11,""ArrowDown,ArrowLeft"":8,""ArrowDown,ArrowRight"":27}","true","ArrowUp,ArrowRight","","4_0","","","","","","16","revaluation","1",""
"html-keyboard-response","277","1238377","0.0-4.0-4.0-1.16","pilot_wm_v1","null","4","null","null","true","","","","","","","null","<div style=""font-size:60px;"">+</div>","null","fixation","","","","","","","","","","","","","","","",""
"revaluation","278","1242381","0.0-4.0-4.0-0.17","pilot_wm_v1","null","4","null","null","true","","false","","","","","[1488.5]","./assets/img/ocean/animals/seahorse.jpg","[""ArrowRight""]","revaluation","ocean","27","{""ArrowUp,ArrowLeft"":2,""ArrowUp,ArrowRight"":11,""ArrowDown,ArrowLeft"":8,""ArrowDown,ArrowRight"":27}","true","ArrowDown,ArrowRight","","15_0","","","","","","17","revaluation","1",""
"html-keyboard-response","279","1242883","0.0-4.0-4.0-1.17","pilot_wm_v1","null","4","null","null","true","","","","","","","null","<div style=""font-size:60px;"">+</div>","null","fixation","","","","","","","","","","","","","","","",""
"learning-instructions","280","1255459","0.0-4.0-5.0-0.0-0.0","pilot_wm_v1","null","4","null","null","true","","","","","","","1168.2000000178814","<p> Time to play the dot game! </p>
            <p> For one minute, click the red dots on the following screen as they appear. </p>
            <p><b> Don't look away, as you will earn bonus for clicking dots</b>. </p>","","instructions","","","","","","","","","","","","","","","",""
"revaluation","281","1315462","0.0-4.0-5.0-1.0-0.0","pilot_wm_v1","null","4","null","null","true","","","","","","","[67,60,71,59,69,49,59]","","","rest","","70","","","","","","","","","0","60000","","","",""
"learning-instructions","282","1323569","0.0-4.0-6.0-0.0","pilot_wm_v1","null","4","null","null","true","","","","","","","null","<p> You have almost finished this part of the game! </p>
            <p> We are going to ask you to make a few more choices. </p>","","instructions","","","","","","","","","","","","","","","",""
"learning-instructions","283","1339538","0.0-4.0-6.0-0.1","pilot_wm_v1","null","4","null","null","true","","","","","","","null","<p> First, you need to decide whether to go up or down. When you see each picture, use the arrow keys to make your choice. </p>
            <p><b>You will not see which animal you found, but try to get to the one that will give you the most treasure.</b></p>","","instructions","","","","","","","","","","","","","","","",""
"html-keyboard-response","284","1340540","0.0-4.0-7.0-0.0","pilot_wm_v1","null","4","null","null","true","","","","","","","null","<div style=""font-size:100px;color:red;"">Starting in...</div>","null","","","","","","","","","","","","","","","","",""
"html-keyboard-response","285","1341542","0.0-4.0-7.0-1.0","pilot_wm_v1","null","4","null","null","true","","","","","","","null","<div style=""font-size:200px;color:red;"">3</div>","null","","","","","","","","","","","","","","","","",""
"html-keyboard-response","286","1342544","0.0-4.0-7.0-2.0","pilot_wm_v1","null","4","null","null","true","","","","","","","null","<div style=""font-size:200px;color:red;"">2</div>","null","","","","","","","","","","","","","","","","",""
"html-keyboard-response","287","1343546","0.0-4.0-7.0-3.0","pilot_wm_v1","null","4","null","null","true","","","","","","","null","<div style=""font-size:200px;color:red;"">1</div>","null","","","","","","","","","","","","","","","","",""
"revaluation","288","1344150","0.0-4.0-8.0-0.0","pilot_wm_v1","null","4","null","null","true","","false","","","","","[602.5]","./assets/img/ocean/test/3.jpg","[""ArrowUp""]","first stage test","ocean","0","{""ArrowUp,ArrowLeft"":2,""ArrowUp,ArrowRight"":11,""ArrowDown,ArrowLeft"":8,""ArrowDown,ArrowRight"":27}","false","ArrowUp","false","","","","","","","","revaluation","1",""
"html-keyboard-response","289","1344651","0.0-4.0-8.0-1.0","pilot_wm_v1","null","4","null","null","true","","","","","","","null","<div style=""font-size:60px;"">+</div>","null","fixation","","","","","","","","","","","","","","","",""
"revaluation","290","1345404","0.0-4.0-8.0-0.1","pilot_wm_v1","null","4","null","null","true","","false","","","","","[750.3000000119209]","./assets/img/ocean/test/1.jpg","[""ArrowUp""]","first stage test","ocean","0","{""ArrowUp,ArrowLeft"":2,""ArrowUp,ArrowRight"":11,""ArrowDown,ArrowLeft"":8,""ArrowDown,ArrowRight"":27}","false","ArrowUp","false","","","","","","","","revaluation","1",""
"html-keyboard-response","291","1345905","0.0-4.0-8.0-1.1","pilot_wm_v1","null","4","null","null","true","","","","","","","null","<div style=""font-size:60px;"">+</div>","null","fixation","","","","","","","","","","","","","","","",""
"revaluation","292","1346469","0.0-4.0-8.0-0.2","pilot_wm_v1","null","4","null","null","true","","false","","","","","[563.3000000119209]","./assets/img/ocean/test/0.jpg","[""ArrowUp""]","first stage test","ocean","0","{""ArrowUp,ArrowLeft"":2,""ArrowUp,ArrowRight"":11,""ArrowDown,ArrowLeft"":8,""ArrowDown,ArrowRight"":27}","false","ArrowUp","false","","","","","","","","revaluation","1",""
"html-keyboard-response","293","1346970","0.0-4.0-8.0-1.2","pilot_wm_v1","null","4","null","null","true","","","","","","","null","<div style=""font-size:60px;"">+</div>","null","fixation","","","","","","","","","","","","","","","",""
"revaluation","294","1347610","0.0-4.0-8.0-0.3","pilot_wm_v1","null","4","null","null","true","","false","","","","","[638.1999999880791]","./assets/img/ocean/test/2.jpg","[""ArrowUp""]","first stage test","ocean","0","{""ArrowUp,ArrowLeft"":2,""ArrowUp,ArrowRight"":11,""ArrowDown,ArrowLeft"":8,""ArrowDown,ArrowRight"":27}","false","ArrowUp","false","","","","","","","","revaluation","1",""
"html-keyboard-response","295","1348111","0.0-4.0-8.0-1.3","pilot_wm_v1","null","4","null","null","true","","","","","","","null","<div style=""font-size:60px;"">+</div>","null","fixation","","","","","","","","","","","","","","","",""
"learning-instructions","296","1361452","0.0-4.0-9.0-0.0","pilot_wm_v1","null","4","null","null","true","","","","","","","null","<p> Now you will see the animals again and can search their chests for treasure. </p>
            <p> This time, you will not see how much treasure you earned, but you will earn more bonus money for making better choices. </p>","","instructions","","","","","","","","","","","","","","","",""
"html-keyboard-response","297","1362454","0.0-4.0-10.0-0.0","pilot_wm_v1","null","4","null","null","true","","","","","","","null","<div style=""font-size:100px;color:red;"">Starting in...</div>","null","","","","","","","","","","","","","","","","",""
