"trial_type","trial_index","time_elapsed","internal_node_id","task_version","subject_id","assigned_condition","age","gender","rest","success","timeout","failed_images","failed_audio","failed_video","browser_interaction","rt","stimulus","response","task_part","environment","score","rewardMap","correct","fullState","isCatch","audioStim","slider_start","answer","error","numberMissed","duration","trial_num","condition","order","bonus"
"pavlovia","0","2760","0.0-0.0","pilot_wm_v1","65e862f844f1b7a803bb3c5a","4","null","null","true","","","","","","","","","","","","","","","","","","","","","","","","","",""
"preload","1","56016","0.0-1.0","pilot_wm_v1","65e862f844f1b7a803bb3c5a","4","null","null","true","true","false","[]","[]","[]","[{""event"":""fullscreenenter"",""trial"":2,""time"":200428}]","","","","","","","","","","","","","","","","","","","",""
"fullscreen","2","201303","0.0-2.0","pilot_wm_v1","65e862f844f1b7a803bb3c5a","4","null","null","true","true","","","","","","","","","","","","","","","","","","","","","","","","",""
"audio-button-response","3","210732","0.0-3.0-0.0-0.0","pilot_wm_v1","65e862f844f1b7a803bb3c5a","4","null","null","true","","","","","","","8189","./assets/audio/audiotest/turtle.mp3","4","audio_test","","","","","","","","","","","","","","","",""
"audio-button-response","4","214977","0.0-3.0-0.1-0.1","pilot_wm_v1","65e862f844f1b7a803bb3c5a","4","null","null","true","","","","","","","3219","./assets/audio/audiotest/turtle.mp3","2","audio_test","","","","","","","","","","","","","","","",""
"learning-instructions","5","333290","0.0-3.0-1.0-0.0","pilot_wm_v1","65e862f844f1b7a803bb3c5a","4","null","null","true","","","","","","","111294","<p> Welcome! Please remember to stay in fullscreen mode and don't click away from the experiment. </p>","","instructions","","","","","","","","","","","","","","","",""
"learning-instructions","6","344477","0.0-3.0-1.0-0.1","pilot_wm_v1","65e862f844f1b7a803bb3c5a","4","null","null","true","","","","","","","2484.5","<p> Today you will be playing a game to earn treasure. </p>
            <p> At the end of the experiment, you will earn a bonus based on how much treasure you find. </p>
            <img src='./assets/img/instructions/treasure.jpg' class='instructions-image'>","","instructions","","","","","","","","","","","","","","","",""
"learning-instructions","7","354366","0.0-3.0-1.0-0.2","pilot_wm_v1","65e862f844f1b7a803bb3c5a","4","null","null","true","","","","","","","1625.7999999970198","<p> Animals have hidden treasure in treasure chests. </p>
            <p> You need to first find an animal and then choose which of their treasure chests to search. </p>
            <img src='./assets/img/space/animals/cat.jpg' class='instructions-image'>","","instructions","","","","","","","","","","","","","","","",""
"learning-instructions","8","369492","0.0-3.0-1.0-0.3","pilot_wm_v1","65e862f844f1b7a803bb3c5a","4","null","null","true","","","","","","","1970.9000000059605","<p> In each round, you will search for treasure in a different place. In the real game, there will be two rounds. </p>
            <p> You will begin with a separate, practice round where you will search for treasure in outer space. </p>
            <img src='./assets/img/space/0.jpg' class='instructions-image'>","","instructions","","","","","","","","","","","","","","","",""
"learning-instructions","9","382508","0.0-3.0-1.0-0.4","pilot_wm_v1","65e862f844f1b7a803bb3c5a","4","null","null","true","","","","","","","1597.7999999970198","<p> On every turn, you will see a picture of the place that you are in, but the specific image may be different each time. </p>
            <p> For example, both of these images mean you are in outer space. </p>
            <img src='./assets/img/instructions/outerspace.jpg' class='instructions-image'>","","instructions","","","","","","","","","","","","","","","",""
"learning-instructions","10","392531","0.0-3.0-1.0-0.5","pilot_wm_v1","65e862f844f1b7a803bb3c5a","4","null","null","true","","","","","","","2197.2999999970198","<p> You need to decide which direction to travel in. </p>
            <p> You can choose between going <b>up or down</b> by using the arrow keys. </p>
            <img src='./assets/img/instructions/updown.jpg' class='instructions-image'>","","instructions","","","","","","","","","","","","","","","",""
"learning-instructions","11","404173","0.0-3.0-1.0-0.6","pilot_wm_v1","65e862f844f1b7a803bb3c5a","4","null","null","true","","","","","","","2829.2000000029802","<p> You will have <b>2 seconds</b> to make your choice. </p>
            <p> If you do not make a choice within 2 seconds, you will not find an animal or earn treasure. </p>
            <img src='./assets/img/instructions/2seconds.jpg' class='instructions-image'>","","instructions","","","","","","","","","","","","","","","",""
"learning-instructions","12","414715","0.0-3.0-1.0-0.7","pilot_wm_v1","65e862f844f1b7a803bb3c5a","4","null","null","true","","","","","","","3481.5999999940395","<p> Let’s try practicing that now! </p>
            <p> When you see a picture of the place you are in, press the <b>up</b> key to travel up. </p>
            <img src='./assets/img/instructions/pressUp.jpg' class='instructions-image'>","","instructions","","","","","","","","","","","","","","","",""
"revaluation","13","418742","0.0-3.0-2.0-0.0","pilot_wm_v1","65e862f844f1b7a803bb3c5a","4","null","null","true","","true","","","","","[]","./assets/img/space/0.jpg","[]","first stage practice","space","-5","null","null","","false","","","","","","","","","",""
"html-keyboard-response","14","419259","0.0-3.0-2.0-1.0","pilot_wm_v1","65e862f844f1b7a803bb3c5a","4","null","null","true","","","","","","","null","<div style=""font-size:60px;"">+</div>","null","fixation","","","","","","","","","","","","","","","",""
"revaluation","15","423301","0.0-3.0-2.0-0.1","pilot_wm_v1","65e862f844f1b7a803bb3c5a","4","null","null","true","","false","","","","","[917.2999999970198]","./assets/img/space/1.jpg","[""ArrowUp""]","first stage practice","space","0","null","null","ArrowUp","false","","","","","","","","","",""
"html-keyboard-response","16","423819","0.0-3.0-2.0-1.1","pilot_wm_v1","65e862f844f1b7a803bb3c5a","4","null","null","true","","","","","","","null","<div style=""font-size:60px;"">+</div>","null","fixation","","","","","","","","","","","","","","","",""
"revaluation","17","427861","0.0-3.0-2.0-0.2","pilot_wm_v1","65e862f844f1b7a803bb3c5a","4","null","null","true","","true","","","","","[]","./assets/img/space/2.jpg","[]","first stage practice","space","-5","null","null","","false","","","","","","","","","",""
"html-keyboard-response","18","428380","0.0-3.0-2.0-1.2","pilot_wm_v1","65e862f844f1b7a803bb3c5a","4","null","null","true","","","","","","","null","<div style=""font-size:60px;"">+</div>","null","fixation","","","","","","","","","","","","","","","",""
"learning-instructions","19","436480","0.0-3.0-3.0-0.0","pilot_wm_v1","65e862f844f1b7a803bb3c5a","4","null","null","true","","","","","","","3375.800000011921","<p> Great job! Now try pressing the <b>down</b> key to travel down. </p>
            <img src='./assets/img/instructions/pressDown.jpg' class='instructions-image'>","","instructions","","","","","","","","","","","","","","","",""
"revaluation","20","440510","0.0-3.0-4.0-0.0","pilot_wm_v1","65e862f844f1b7a803bb3c5a","4","null","null","true","","false","","","","","[823.5]","./assets/img/space/3.jpg","[""ArrowDown""]","first stage practice","space","0","null","null","ArrowDown","false","","","","","","","","","",""
"html-keyboard-response","21","441030","0.0-3.0-4.0-1.0","pilot_wm_v1","65e862f844f1b7a803bb3c5a","4","null","null","true","","","","","","","null","<div style=""font-size:60px;"">+</div>","null","fixation","","","","","","","","","","","","","","","",""
"revaluation","22","445061","0.0-3.0-4.0-0.1","pilot_wm_v1","65e862f844f1b7a803bb3c5a","4","null","null","true","","false","","","","","[832.0999999940395]","./assets/img/space/4.jpg","[""ArrowDown""]","first stage practice","space","0","null","null","ArrowDown","false","","","","","","","","","",""
"html-keyboard-response","23","445580","0.0-3.0-4.0-1.1","pilot_wm_v1","65e862f844f1b7a803bb3c5a","4","null","null","true","","","","","","","null","<div style=""font-size:60px;"">+</div>","null","fixation","","","","","","","","","","","","","","","",""
"revaluation","24","449630","0.0-3.0-4.0-0.2","pilot_wm_v1","65e862f844f1b7a803bb3c5a","4","null","null","true","","false","","","","","[926.0999999940395]","./assets/img/space/5.jpg","[""ArrowDown""]","first stage practice","space","0","null","null","ArrowDown","false","","","","","","","","","",""
"html-keyboard-response","25","450140","0.0-3.0-4.0-1.2","pilot_wm_v1","65e862f844f1b7a803bb3c5a","4","null","null","true","","","","","","","null","<div style=""font-size:60px;"">+</div>","null","fixation","","","","","","","","","","","","","","","",""
"learning-instructions","26","463653","0.0-3.0-5.0-0.0","pilot_wm_v1","65e862f844f1b7a803bb3c5a","4","null","null","true","","","","","","","3630.1000000089407","<p> The animals don’t move, so the animal in the upper part of a place will stay in the upper part of a place, and the animal in the lower part of a place will stay in the lower part of a place. </p>","","instructions","","","","","","","","","","","","","","","",""
"learning-instructions","27","475901","0.0-3.0-5.0-0.1","pilot_wm_v1","65e862f844f1b7a803bb3c5a","4","null","null","true","","","","","","","3117.8999999910593","<p> Each animal has two treasure chests for you to choose from. </p>
            <p> The amount of treasure in each chest can range from <b> 0 to 40 pieces.</b></p>","","instructions","","","","","","","","","","","","","","","",""
"learning-instructions","28","489762","0.0-3.0-5.0-0.2","pilot_wm_v1","65e862f844f1b7a803bb3c5a","4","null","null","true","","","","","","","2678","<p> You should decide which chest to search for treasure by using the <b>left</b> and <b>right</b> arrow keys. </p>
            <p><b> Pay attention to which animal is on the screen, as the animals have different treasure chests. </b></p>
            <img src='./assets/img/instructions/leftright.jpg' class='instructions-image'>","","instructions","","","","","","","","","","","","","","","",""
"learning-instructions","29","497967","0.0-3.0-5.0-0.3","pilot_wm_v1","65e862f844f1b7a803bb3c5a","4","null","null","true","","","","","","","1843.1000000089407","<p> Let’s try practicing that now. </p>
            <p> When you see an animal, choose which chest to search for treasure. </p>
            <img src='./assets/img/instructions/chooseChest.jpg' class='instructions-image'>","","instructions","","","","","","","","","","","","","","","",""
"revaluation","30","502007","0.0-3.0-6.0-0.0","pilot_wm_v1","65e862f844f1b7a803bb3c5a","4","null","null","true","","false","","","","","[1203]","./assets/img/space/animals/cat.jpg","[""ArrowRight""]","second stage practice","space","36","{""ArrowUp,ArrowLeft"":3,""ArrowUp,ArrowRight"":36,""ArrowDown,ArrowLeft"":15,""ArrowDown,ArrowRight"":23}","true","ArrowUp,ArrowRight","","","","","","","","","","",""
"html-keyboard-response","31","502510","0.0-3.0-6.0-1.0","pilot_wm_v1","65e862f844f1b7a803bb3c5a","4","null","null","true","","","","","","","null","<div style=""font-size:60px;"">+</div>","null","fixation","","","","","","","","","","","","","","","",""
"revaluation","32","506541","0.0-3.0-6.0-0.1","pilot_wm_v1","65e862f844f1b7a803bb3c5a","4","null","null","true","","false","","","","","[841.2999999970198]","./assets/img/space/animals/rabbit.jpg","[""ArrowLeft""]","second stage practice","space","15","{""ArrowUp,ArrowLeft"":3,""ArrowUp,ArrowRight"":36,""ArrowDown,ArrowLeft"":15,""ArrowDown,ArrowRight"":23}","false","ArrowDown,ArrowLeft","","","","","","","","","","",""
"html-keyboard-response","33","507060","0.0-3.0-6.0-1.1","pilot_wm_v1","65e862f844f1b7a803bb3c5a","4","null","null","true","","","","","","","null","<div style=""font-size:60px;"">+</div>","null","fixation","","","","","","","","","","","","","","","",""
"revaluation","34","511081","0.0-3.0-6.0-0.2","pilot_wm_v1","65e862f844f1b7a803bb3c5a","4","null","null","true","","false","","","","","[911.5]","./assets/img/space/animals/rabbit.jpg","[""ArrowRight""]","second stage practice","space","23","{""ArrowUp,ArrowLeft"":3,""ArrowUp,ArrowRight"":36,""ArrowDown,ArrowLeft"":15,""ArrowDown,ArrowRight"":23}","true","ArrowDown,ArrowRight","","","","","","","","","","",""
"html-keyboard-response","35","511599","0.0-3.0-6.0-1.2","pilot_wm_v1","65e862f844f1b7a803bb3c5a","4","null","null","true","","","","","","","null","<div style=""font-size:60px;"">+</div>","null","fixation","","","","","","","","","","","","","","","",""
"revaluation","36","515630","0.0-3.0-6.0-0.3","pilot_wm_v1","65e862f844f1b7a803bb3c5a","4","null","null","true","","false","","","","","[474.29999999701977]","./assets/img/space/animals/cat.jpg","[""ArrowLeft""]","second stage practice","space","3","{""ArrowUp,ArrowLeft"":3,""ArrowUp,ArrowRight"":36,""ArrowDown,ArrowLeft"":15,""ArrowDown,ArrowRight"":23}","false","ArrowUp,ArrowLeft","","","","","","","","","","",""
"html-keyboard-response","37","516150","0.0-3.0-6.0-1.3","pilot_wm_v1","65e862f844f1b7a803bb3c5a","4","null","null","true","","","","","","","null","<div style=""font-size:60px;"">+</div>","null","fixation","","","","","","","","","","","","","","","",""
"learning-instructions","38","534278","0.0-3.0-7.0-0.0","pilot_wm_v1","65e862f844f1b7a803bb3c5a","4","null","null","true","","","","","","","1284.2000000029802","<p> Great job. Now let’s try putting it together. </p>
            <p> On each turn, you will first see a picture to remind you of the place you are in, and you need to choose whether to go up or down. </p>
            <p> Then you will see an animal and choose which of its chests to search for treasure. </p>","","instructions","","","","","","","","","","","","","","","",""
"learning-instructions","39","543458","0.0-3.0-7.0-0.1","pilot_wm_v1","65e862f844f1b7a803bb3c5a","4","null","null","true","","","","","","","855.5","<p> When you choose whether to go up or down, try to go to the animal with the chest with the most treasure. </p>
            <p> Try practicing that now! </p>","","instructions","","","","","","","","","","","","","","","",""
"revaluation","40","549510","0.0-3.0-8.0-0.0","pilot_wm_v1","65e862f844f1b7a803bb3c5a","4","null","null","true","","false","","","","","[1263.3999999910593,1728.2999999970198]","./assets/img/space/6.jpg","[""ArrowDown"",""ArrowRight""]","full practice","space","23","{""ArrowUp,ArrowLeft"":3,""ArrowUp,ArrowRight"":36,""ArrowDown,ArrowLeft"":15,""ArrowDown,ArrowRight"":23}","false","ArrowDown,ArrowRight","false","","","","","","","","","",""
"html-keyboard-response","41","550020","0.0-3.0-8.0-1.0","pilot_wm_v1","65e862f844f1b7a803bb3c5a","4","null","null","true","","","","","","","null","<div style=""font-size:60px;"">+</div>","null","fixation","","","","","","","","","","","","","","","",""
"revaluation","42","556080","0.0-3.0-8.0-0.1","pilot_wm_v1","65e862f844f1b7a803bb3c5a","4","null","null","true","","false","","","","","[1337.699999988079,1629.699999988079]","./assets/img/space/7.jpg","[""ArrowDown"",""ArrowLeft""]","full practice","space","15","{""ArrowUp,ArrowLeft"":3,""ArrowUp,ArrowRight"":36,""ArrowDown,ArrowLeft"":15,""ArrowDown,ArrowRight"":23}","false","ArrowDown,ArrowLeft","false","","","","","","","","","",""
"html-keyboard-response","43","556600","0.0-3.0-8.0-1.1","pilot_wm_v1","65e862f844f1b7a803bb3c5a","4","null","null","true","","","","","","","null","<div style=""font-size:60px;"">+</div>","null","fixation","","","","","","","","","","","","","","","",""
"revaluation","44","562630","0.0-3.0-8.0-0.2","pilot_wm_v1","65e862f844f1b7a803bb3c5a","4","null","null","true","","false","","","","","[1960.6000000089407,1790.5]","./assets/img/space/8.jpg","[""ArrowDown"",""ArrowLeft""]","full practice","space","15","{""ArrowUp,ArrowLeft"":3,""ArrowUp,ArrowRight"":36,""ArrowDown,ArrowLeft"":15,""ArrowDown,ArrowRight"":23}","false","ArrowDown,ArrowLeft","false","","","","","","","","","",""
"html-keyboard-response","45","563150","0.0-3.0-8.0-1.2","pilot_wm_v1","65e862f844f1b7a803bb3c5a","4","null","null","true","","","","","","","null","<div style=""font-size:60px;"">+</div>","null","fixation","","","","","","","","","","","","","","","",""
"revaluation","46","569210","0.0-3.0-8.0-0.3","pilot_wm_v1","65e862f844f1b7a803bb3c5a","4","null","null","true","","false","","","","","[1337.5,1619.4000000059605]","./assets/img/space/9.jpg","[""ArrowUp"",""ArrowLeft""]","full practice","space","3","{""ArrowUp,ArrowLeft"":3,""ArrowUp,ArrowRight"":36,""ArrowDown,ArrowLeft"":15,""ArrowDown,ArrowRight"":23}","false","ArrowUp,ArrowLeft","false","","","","","","","","","",""
"html-keyboard-response","47","569720","0.0-3.0-8.0-1.3","pilot_wm_v1","65e862f844f1b7a803bb3c5a","4","null","null","true","","","","","","","null","<div style=""font-size:60px;"">+</div>","null","fixation","","","","","","","","","","","","","","","",""
"revaluation","48","573734","0.0-3.0-8.0-0.4","pilot_wm_v1","65e862f844f1b7a803bb3c5a","4","null","null","true","","true","","","","","[]","./assets/img/space/10.jpg","[]","full practice","space","-5","{""ArrowUp,ArrowLeft"":3,""ArrowUp,ArrowRight"":36,""ArrowDown,ArrowLeft"":15,""ArrowDown,ArrowRight"":23}","false","","false","","","","","","","","","",""
"html-keyboard-response","49","574242","0.0-3.0-8.0-1.4","pilot_wm_v1","65e862f844f1b7a803bb3c5a","4","null","null","true","","","","","","","null","<div style=""font-size:60px;"">+</div>","null","fixation","","","","","","","","","","","","","","","",""
"learning-instructions","50","586609","0.0-3.0-9.0-0.0","pilot_wm_v1","65e862f844f1b7a803bb3c5a","4","null","null","true","","","","","","","1957.9000000059605","<p> One last thing: sometimes, you will see a robber. The robber can be anywhere in the picture. </p>
            <p> If you do not stop them, you will lose treasure. </p>
            <img src='./assets/img/instructions/robber.jpg' class='instructions-image'>","","instructions","","","","","","","","","","","","","","","",""
"learning-instructions","51","595358","0.0-3.0-9.0-0.1","pilot_wm_v1","65e862f844f1b7a803bb3c5a","4","null","null","true","","","","","","","1586.3999999910593","<p> If you see the robber, you should <b>press the space bar</b> rather than using the arrow keys. </p>
            <p> Try practicing that now! </p>","","instructions","","","","","","","","","","","","","","","",""
"revaluation","52","599378","0.0-3.0-10.0-0.0","pilot_wm_v1","65e862f844f1b7a803bb3c5a","4","null","null","true","","false","","","","","[1789.2000000029802]","./assets/img/space/catch/0.jpg","[""ArrowDown""]","catch practice","space","-10","{""ArrowUp,ArrowLeft"":3,""ArrowUp,ArrowRight"":36,""ArrowDown,ArrowLeft"":15,""ArrowDown,ArrowRight"":23}","false","ArrowDown","true","","","","","","","","","",""
"html-keyboard-response","53","599897","0.0-3.0-10.0-1.0","pilot_wm_v1","65e862f844f1b7a803bb3c5a","4","null","null","true","","","","","","","null","<div style=""font-size:60px;"">+</div>","null","fixation","","","","","","","","","","","","","","","",""
"revaluation","54","603929","0.0-3.0-10.0-0.1","pilot_wm_v1","65e862f844f1b7a803bb3c5a","4","null","null","true","","false","","","","","[883.7000000029802]","./assets/img/space/catch/1.jpg","[""spaceBar""]","catch practice","space","0","{""ArrowUp,ArrowLeft"":3,""ArrowUp,ArrowRight"":36,""ArrowDown,ArrowLeft"":15,""ArrowDown,ArrowRight"":23}","true","spaceBar","true","","","","","","","","","",""
"html-keyboard-response","55","604449","0.0-3.0-10.0-1.1","pilot_wm_v1","65e862f844f1b7a803bb3c5a","4","null","null","true","","","","","","","null","<div style=""font-size:60px;"">+</div>","null","fixation","","","","","","","","","","","","","","","",""
"revaluation","56","608478","0.0-3.0-10.0-0.2","pilot_wm_v1","65e862f844f1b7a803bb3c5a","4","null","null","true","","false","","","","","[1348.0999999940395]","./assets/img/space/catch/2.jpg","[""ArrowUp""]","catch practice","space","-10","{""ArrowUp,ArrowLeft"":3,""ArrowUp,ArrowRight"":36,""ArrowDown,ArrowLeft"":15,""ArrowDown,ArrowRight"":23}","false","ArrowUp","true","","","","","","","","","",""
"html-keyboard-response","57","608988","0.0-3.0-10.0-1.2","pilot_wm_v1","65e862f844f1b7a803bb3c5a","4","null","null","true","","","","","","","null","<div style=""font-size:60px;"">+</div>","null","fixation","","","","","","","","","","","","","","","",""
"learning-instructions","58","616035","0.0-3.0-11.0-0.0","pilot_wm_v1","65e862f844f1b7a803bb3c5a","4","null","null","true","","","","","","","1513.0999999940395","<p> Sometimes, you will come across a special kind of treasure chest that requires a password. </p>
            <img src='./assets/img/instructions/beep_chest.jpg' class='instructions-image'>","","instructions","","","","","","","","","","","","","","","",""
"learning-instructions","59","639486","0.0-3.0-11.0-0.1","pilot_wm_v1","65e862f844f1b7a803bb3c5a","4","null","null","true","","","","","","","1833.2000000029802","<p> Your friend will send you the password using a series of beeps so that you can open the chest and earn treasure. </p>
            <p> You will hear two kinds of beeps, a high beep and a low beep. </p>
            <p> You should report the number of high beeps that you heard before seeing the chest. </p>
            <img src='./assets/img/instructions/listen.jpg' class='instructions-image'>","","instructions","","","","","","","","","","","","","","","",""
"learning-instructions","60","662475","0.0-3.0-11.0-0.2","pilot_wm_v1","65e862f844f1b7a803bb3c5a","4","null","null","true","","","","","","","692","<p> For example, if you hear this series of beeps, you should report 4 as the password using the slider. </p>
            <p> After reporting a password for a chest, you should count the high beeps again starting from 0. </p>
            <p> Let's try practicing that now. </p>","","instructions","","","","","","","","","","","","","","","",""
"audio-button-response","61","670523","0.0-3.0-12.0-0.0-0.0","pilot_wm_v1","65e862f844f1b7a803bb3c5a","4","null","null","true","","","","","","","null","./assets/audio/beeps/practice_6.wav","null","","","","","","","","","","","","","","","","",""
"html-slider-response","62","687750","0.0-3.0-12.0-0.0-1.0","pilot_wm_v1","65e862f844f1b7a803bb3c5a","4","null","null","true","","","","","","","17151","<div style=""width:500px;"">
        <p>What is the password?</p>
        <img src='./assets/img/instructions/beep_chest.jpg' class='instructions-image'>","4","beep chest","","","","false","","","","50","0","4","","","","","",""
"comp-q","63","695751","0.0-3.0-12.0-0.0-2.0","pilot_wm_v1","65e862f844f1b7a803bb3c5a","4","null","null","true","","","","","","","2642","<p>Incorrect! Please try again. Remember to count the number of high pitched beeps only. </p>","0","beep answer","","","","","","","","","","","","","","","",""
"audio-button-response","64","703752","0.0-3.0-12.0-0.1-0.1","pilot_wm_v1","65e862f844f1b7a803bb3c5a","4","null","null","true","","","","","","","null","./assets/audio/beeps/practice_6.wav","null","","","","","","","","","","","","","","","","",""
"html-slider-response","65","729427","0.0-3.0-12.0-0.1-1.1","pilot_wm_v1","65e862f844f1b7a803bb3c5a","4","null","null","true","","","","","","","25674","<div style=""width:500px;"">
        <p>What is the password?</p>
        <img src='./assets/img/instructions/beep_chest.jpg' class='instructions-image'>","0","beep chest","","","","true","","","","50","0","0","","","","","",""
"comp-q","66","736561","0.0-3.0-12.0-0.1-2.1","pilot_wm_v1","65e862f844f1b7a803bb3c5a","4","null","null","true","","","","","","","1797.7999999970198","<p>Incorrect! Please try again. Remember to count the number of high pitched beeps only. </p>","0","beep answer","","","","","","","","","","","","","","","",""
"audio-button-response","67","744561","0.0-3.0-12.0-0.2-0.2","pilot_wm_v1","65e862f844f1b7a803bb3c5a","4","null","null","true","","","","","","","null","./assets/audio/beeps/practice_6.wav","null","","","","","","","","","","","","","","","","",""
"html-slider-response","68","752657","0.0-3.0-12.0-0.2-1.2","pilot_wm_v1","65e862f844f1b7a803bb3c5a","4","null","null","true","","","","","","","8092","<div style=""width:500px;"">
        <p>What is the password?</p>
        <img src='./assets/img/instructions/beep_chest.jpg' class='instructions-image'>","6","beep chest","","","","false","","","","50","0","6","","","","","",""
"comp-q","69","759821","0.0-3.0-12.0-0.2-2.2","pilot_wm_v1","65e862f844f1b7a803bb3c5a","4","null","null","true","","","","","","","2949.7999999970198","<p>Correct! There were 6 high pitched beeps before you saw the chest. </p>","0","beep answer","","","","","","","","","","","","","","","",""
"audio-button-response","70","767861","0.0-3.0-12.0-0.3-0.3","pilot_wm_v1","65e862f844f1b7a803bb3c5a","4","null","null","true","","","","","","","null","./assets/audio/beeps/practice_4.wav","null","","","","","","","","","","","","","","","","",""
"html-slider-response","71","775418","0.0-3.0-12.0-0.3-1.3","pilot_wm_v1","65e862f844f1b7a803bb3c5a","4","null","null","true","","","","","","","7554","<div style=""width:500px;"">
        <p>What is the password?</p>
        <img src='./assets/img/instructions/beep_chest.jpg' class='instructions-image'>","5","beep chest","","","","false","","","","50","0","5","","","","","",""
"comp-q","72","783789","0.0-3.0-12.0-0.3-2.3","pilot_wm_v1","65e862f844f1b7a803bb3c5a","4","null","null","true","","","","","","","3035","<p>Incorrect! Please try again. Remember to count the number of high pitched beeps only. </p>","0","beep answer","","","","","","","","","","","","","","","",""
"audio-button-response","73","791783","0.0-3.0-12.0-0.4-0.4","pilot_wm_v1","65e862f844f1b7a803bb3c5a","4","null","null","true","","","","","","","null","./assets/audio/beeps/practice_4.wav","null","","","","","","","","","","","","","","","","",""
"html-slider-response","74","797673","0.0-3.0-12.0-0.4-1.4","pilot_wm_v1","65e862f844f1b7a803bb3c5a","4","null","null","true","","","","","","","5887","<div style=""width:500px;"">
        <p>What is the password?</p>
        <img src='./assets/img/instructions/beep_chest.jpg' class='instructions-image'>","4","beep chest","","","","false","","","","50","0","4","","","","","",""
"comp-q","75","805287","0.0-3.0-12.0-0.4-2.4","pilot_wm_v1","65e862f844f1b7a803bb3c5a","4","null","null","true","","","","","","","3422.6000000089407","<p>Correct! There were 4 high pitched beeps before you saw the chest. </p>","0","beep answer","","","","","","","","","","","","","","","",""
"learning-instructions","76","818484","0.0-3.0-13.0-0.0","pilot_wm_v1","65e862f844f1b7a803bb3c5a","4","null","null","true","","","","","","","2879.5999999940395","<p> Good job! In the real game we will not tell you if you entered the right password. </p>
            <p> Do your best, the treasure you earn from these chests will also give you extra bonus money. </p>","","instructions","","","","","","","","","","","","","","","",""
"learning-instructions","77","833896","0.0-3.0-14.0-0.0-0.0","pilot_wm_v1","65e862f844f1b7a803bb3c5a","4","null","null","true","","","","","","","1820.6000000089407","<p> After you explore a place to find treasure, it will be time to play a different game. </p>
            <p> During this game, red dots will appear on the screen and fall down slowly. </p>
            <p><b> You must click on them before they reach the bottom. </b></p>
            <img src='./assets/img/instructions/dotGame.jpg' class='instructions-image'>","","instructions","","","","","","","","","","","","","","","",""
"learning-instructions","78","840847","0.0-3.0-14.0-0.0-0.1","pilot_wm_v1","65e862f844f1b7a803bb3c5a","4","null","null","true","","","","","","","1283.2000000029802","<p> For every dot you click, you will earn additional treasure. </p>
            <p> Let’s try practicing that now. </p>","","instructions","","","","","","","","","","","","","","","",""
"revaluation","79","855860","0.0-3.0-14.0-1.0-0.0","pilot_wm_v1","65e862f844f1b7a803bb3c5a","4","null","null","true","","","","","","","[112]","","","rest practice","","10","","","","","","","","","0","15000","","","",""
"learning-instructions","80","862631","0.0-3.0-15.0-0.0-0.0","pilot_wm_v1","65e862f844f1b7a803bb3c5a","4","null","null","true","","","","","","","1476.800000011921","<p> Now, you will practice a shortened version of the game to get a sense of how it all fits together. </p>","","instructions","","","","","","","","","","","","","","","",""
"learning-instructions","81","872280","0.0-3.0-15.0-0.0-0.1","pilot_wm_v1","65e862f844f1b7a803bb3c5a","4","null","null","true","","","","","","","6465.5","<p>This time you are searching for treasure in outer space.</p>","","instructions","","","","","","","","","","","","","","","",""
"learning-instructions","82","888709","0.0-3.0-15.0-1.0-0.0","pilot_wm_v1","65e862f844f1b7a803bb3c5a","4","null","null","true","","","","","","","1664.6000000089407","<p> Remember, when you see a picture of the place, use the up and down keys to <b>find an animal</b>.</p>
            <p> When you encounter an animal, you should use the left and right keys to <b>select a treasure chest</b>.</p>
            <p> Don't forget to look out for the robber! </p>","","instructions","","","","","","","","","","","","","","","",""
"revaluation","83","894732","0.0-3.0-15.0-2.0-0.0","pilot_wm_v1","65e862f844f1b7a803bb3c5a","4","null","null","true","","false","","","","","[1701.2000000029802,1284.2000000029802]","./assets/img/space/11.jpg","[""ArrowUp"",""ArrowRight""]","practice block","space","36","{""ArrowUp,ArrowLeft"":3,""ArrowUp,ArrowRight"":36,""ArrowDown,ArrowLeft"":15,""ArrowDown,ArrowRight"":23}","true","ArrowUp,ArrowRight","false","","","","","","","","","",""
"html-keyboard-response","84","895251","0.0-3.0-15.0-2.0-1.0","pilot_wm_v1","65e862f844f1b7a803bb3c5a","4","null","null","true","","","","","","","null","<div style=""font-size:60px;"">+</div>","null","fixation","","","","","","","","","","","","","","","",""
"revaluation","85","901311","0.0-3.0-15.0-2.0-0.1","pilot_wm_v1","65e862f844f1b7a803bb3c5a","4","null","null","true","","false","","","","","[1438.6000000089407,1084.2999999970198]","./assets/img/space/12.jpg","[""ArrowDown"",""ArrowLeft""]","practice block","space","15","{""ArrowUp,ArrowLeft"":3,""ArrowUp,ArrowRight"":36,""ArrowDown,ArrowLeft"":15,""ArrowDown,ArrowRight"":23}","false","ArrowDown,ArrowLeft","false","","","","","","","","","",""
"html-keyboard-response","86","901831","0.0-3.0-15.0-2.0-1.1","pilot_wm_v1","65e862f844f1b7a803bb3c5a","4","null","null","true","","","","","","","null","<div style=""font-size:60px;"">+</div>","null","fixation","","","","","","","","","","","","","","","",""
"revaluation","87","907841","0.0-3.0-15.0-2.0-0.2","pilot_wm_v1","65e862f844f1b7a803bb3c5a","4","null","null","true","","false","","","","","[875.6999999880791,1469.1000000089407]","./assets/img/space/13.jpg","[""ArrowDown"",""ArrowRight""]","practice block","space","23","{""ArrowUp,ArrowLeft"":3,""ArrowUp,ArrowRight"":36,""ArrowDown,ArrowLeft"":15,""ArrowDown,ArrowRight"":23}","false","ArrowDown,ArrowRight","false","","","","","","","","","",""
"html-keyboard-response","88","908361","0.0-3.0-15.0-2.0-1.2","pilot_wm_v1","65e862f844f1b7a803bb3c5a","4","null","null","true","","","","","","","null","<div style=""font-size:60px;"">+</div>","null","fixation","","","","","","","","","","","","","","","",""
"revaluation","89","914402","0.0-3.0-15.0-2.0-0.3","pilot_wm_v1","65e862f844f1b7a803bb3c5a","4","null","null","true","","false","","","","","[943.6000000089407,702.5999999940395]","./assets/img/space/14.jpg","[""ArrowDown"",""ArrowLeft""]","practice block","space","15","{""ArrowUp,ArrowLeft"":3,""ArrowUp,ArrowRight"":36,""ArrowDown,ArrowLeft"":15,""ArrowDown,ArrowRight"":23}","false","ArrowDown,ArrowLeft","false","","","","","","","","","",""
"html-keyboard-response","90","914921","0.0-3.0-15.0-2.0-1.3","pilot_wm_v1","65e862f844f1b7a803bb3c5a","4","null","null","true","","","","","","","null","<div style=""font-size:60px;"">+</div>","null","fixation","","","","","","","","","","","","","","","",""
"revaluation","91","920952","0.0-3.0-15.0-2.0-0.4","pilot_wm_v1","65e862f844f1b7a803bb3c5a","4","null","null","true","","false","","","","","[958.1000000089407,981.9000000059605]","./assets/img/space/11.jpg","[""ArrowDown"",""ArrowLeft""]","practice block","space","15","{""ArrowUp,ArrowLeft"":3,""ArrowUp,ArrowRight"":36,""ArrowDown,ArrowLeft"":15,""ArrowDown,ArrowRight"":23}","false","ArrowDown,ArrowLeft","false","","","","","","","","","",""
"html-keyboard-response","92","921457","0.0-3.0-15.0-2.0-1.4","pilot_wm_v1","65e862f844f1b7a803bb3c5a","4","null","null","true","","","","","","","null","<div style=""font-size:60px;"">+</div>","null","fixation","","","","","","","","","","","","","","","",""
"revaluation","93","927482","0.0-3.0-15.0-2.0-0.5","pilot_wm_v1","65e862f844f1b7a803bb3c5a","4","null","null","true","","false","","","","","[1308.800000011921,1605.1000000089407]","./assets/img/space/12.jpg","[""ArrowUp"",""ArrowRight""]","practice block","space","36","{""ArrowUp,ArrowLeft"":3,""ArrowUp,ArrowRight"":36,""ArrowDown,ArrowLeft"":15,""ArrowDown,ArrowRight"":23}","true","ArrowUp,ArrowRight","false","","","","","","","","","",""
"html-keyboard-response","94","927992","0.0-3.0-15.0-2.0-1.5","pilot_wm_v1","65e862f844f1b7a803bb3c5a","4","null","null","true","","","","","","","null","<div style=""font-size:60px;"">+</div>","null","fixation","","","","","","","","","","","","","","","",""
"revaluation","95","934014","0.0-3.0-15.0-2.0-0.6","pilot_wm_v1","65e862f844f1b7a803bb3c5a","4","null","null","true","","false","","","","","[925.7000000029802,752.1000000089407]","./assets/img/space/13.jpg","[""ArrowDown"",""ArrowLeft""]","practice block","space","15","{""ArrowUp,ArrowLeft"":3,""ArrowUp,ArrowRight"":36,""ArrowDown,ArrowLeft"":15,""ArrowDown,ArrowRight"":23}","false","ArrowDown,ArrowLeft","false","","","","","","","","","",""
"html-keyboard-response","96","934527","0.0-3.0-15.0-2.0-1.6","pilot_wm_v1","65e862f844f1b7a803bb3c5a","4","null","null","true","","","","","","","null","<div style=""font-size:60px;"">+</div>","null","fixation","","","","","","","","","","","","","","","",""
"revaluation","97","940548","0.0-3.0-15.0-2.0-0.7","pilot_wm_v1","65e862f844f1b7a803bb3c5a","4","null","null","true","","false","","","","","[1863,920.5999999940395]","./assets/img/space/14.jpg","[""ArrowDown"",""ArrowRight""]","practice block","space","23","{""ArrowUp,ArrowLeft"":3,""ArrowUp,ArrowRight"":36,""ArrowDown,ArrowLeft"":15,""ArrowDown,ArrowRight"":23}","false","ArrowDown,ArrowRight","false","","","","","","","","","",""
"html-keyboard-response","98","941051","0.0-3.0-15.0-2.0-1.7","pilot_wm_v1","65e862f844f1b7a803bb3c5a","4","null","null","true","","","","","","","null","<div style=""font-size:60px;"">+</div>","null","fixation","","","","","","","","","","","","","","","",""
"revaluation","99","945074","0.0-3.0-15.0-2.0-0.8","pilot_wm_v1","65e862f844f1b7a803bb3c5a","4","null","null","true","","false","","","","","[1082.7000000029802]","./assets/img/space/catch/3.jpg","[""spaceBar""]","practice block","space","0","{""ArrowUp,ArrowLeft"":3,""ArrowUp,ArrowRight"":36,""ArrowDown,ArrowLeft"":15,""ArrowDown,ArrowRight"":23}","true","spaceBar","true","","","","","","","","","",""
"html-keyboard-response","100","945587","0.0-3.0-15.0-2.0-1.8","pilot_wm_v1","65e862f844f1b7a803bb3c5a","4","null","null","true","","","","","","","null","<div style=""font-size:60px;"">+</div>","null","fixation","","","","","","","","","","","","","","","",""
"learning-instructions","101","960613","0.0-3.0-15.0-3.0-0.0","pilot_wm_v1","65e862f844f1b7a803bb3c5a","4","null","null","true","","","","","","","1742.9000000059605","<p> Now, you will travel with a friend who will choose whether you go up or down first. </p>
            <p> On these turns, you will just see the animal that they found. You will still get to choose which chest to search for treasure.</p>","","instructions","","","","","","","","","","","","","","","",""
"learning-instructions","102","973436","0.0-3.0-15.0-3.0-0.1","pilot_wm_v1","65e862f844f1b7a803bb3c5a","4","null","null","true","","","","","","","1195.6000000089407","<p> In this part, you will also hear beeps from your friend and see special treasure chests that need a password. </p>
            <p> Do your best to count the high beeps <b>and</b> choose between each animals' chests at the same time.</p>
            <img src='./assets/img/instructions/beep_chest.jpg' class='instructions-image'>","","instructions","","","","","","","","","","","","","","","",""
"revaluation","103","977514","0.0-3.0-15.0-4.0-0.0","pilot_wm_v1","65e862f844f1b7a803bb3c5a","4","null","null","true","","false","","","","","[959.1999999880791]","./assets/img/space/animals/rabbit.jpg","[""ArrowLeft""]","practice block","space","15","{""ArrowUp,ArrowLeft"":3,""ArrowUp,ArrowRight"":36,""ArrowDown,ArrowLeft"":15,""ArrowDown,ArrowRight"":23}","false","ArrowDown,ArrowLeft","","[""21_1""]","","","","","","0","","",""
"html-keyboard-response","104","978046","0.0-3.0-15.0-4.0-1.0","pilot_wm_v1","65e862f844f1b7a803bb3c5a","4","null","null","true","","","","","","","null","<div style=""font-size:60px;"">+</div>","null","fixation","","","","","","","","","","","","","","","",""
"revaluation","105","982068","0.0-3.0-15.0-4.0-0.1","pilot_wm_v1","65e862f844f1b7a803bb3c5a","4","null","null","true","","false","","","","","[1258.4000000059605]","./assets/img/space/animals/rabbit.jpg","[""ArrowRight""]","practice block","space","23","{""ArrowUp,ArrowLeft"":3,""ArrowUp,ArrowRight"":36,""ArrowDown,ArrowLeft"":15,""ArrowDown,ArrowRight"":23}","true","ArrowDown,ArrowRight","","[""22_3""]","","","","","","1","","",""
"html-keyboard-response","106","982586","0.0-3.0-15.0-4.0-1.1","pilot_wm_v1","65e862f844f1b7a803bb3c5a","4","null","null","true","","","","","","","null","<div style=""font-size:60px;"">+</div>","null","fixation","","","","","","","","","","","","","","","",""
"revaluation","107","986627","0.0-3.0-15.0-4.0-0.2","pilot_wm_v1","65e862f844f1b7a803bb3c5a","4","null","null","true","","false","","","","","[579.2000000029802]","./assets/img/space/animals/cat.jpg","[""ArrowLeft""]","practice block","space","3","{""ArrowUp,ArrowLeft"":3,""ArrowUp,ArrowRight"":36,""ArrowDown,ArrowLeft"":15,""ArrowDown,ArrowRight"":23}","false","ArrowUp,ArrowLeft","","[""20_0""]","","","","","","2","","",""
"html-keyboard-response","108","987146","0.0-3.0-15.0-4.0-1.2","pilot_wm_v1","65e862f844f1b7a803bb3c5a","4","null","null","true","","","","","","","null","<div style=""font-size:60px;"">+</div>","null","fixation","","","","","","","","","","","","","","","",""
"revaluation","109","991178","0.0-3.0-15.0-4.0-0.3","pilot_wm_v1","65e862f844f1b7a803bb3c5a","4","null","null","true","","false","","","","","[412.3999999910593]","./assets/img/space/animals/cat.jpg","[""ArrowRight""]","practice block","space","36","{""ArrowUp,ArrowLeft"":3,""ArrowUp,ArrowRight"":36,""ArrowDown,ArrowLeft"":15,""ArrowDown,ArrowRight"":23}","true","ArrowUp,ArrowRight","","[""19_0""]","","","","","","3","","",""
"html-keyboard-response","110","991696","0.0-3.0-15.0-4.0-1.3","pilot_wm_v1","65e862f844f1b7a803bb3c5a","4","null","null","true","","","","","","","null","<div style=""font-size:60px;"">+</div>","null","fixation","","","","","","","","","","","","","","","",""
"html-slider-response","111","997548","0.0-3.0-15.0-4.0-2.3-0.3","pilot_wm_v1","65e862f844f1b7a803bb3c5a","4","null","null","true","","","","","","","5849","<div style=""width:500px;"">
        <p>What is the password?</p>
        <img src='./assets/img/instructions/beep_chest.jpg' class='instructions-image'>","6","beep chest","","","","false","","","","50","82","76","","","","","",""
"learning-instructions","112","1006921","0.0-3.0-15.0-5.0-0.0-0.0","pilot_wm_v1","65e862f844f1b7a803bb3c5a","4","null","null","true","","","","","","","2012.9000000059605","<p> Time to play the dot game! </p>
            <p> For 15 seconds, click the red dots on the following screen as they appear. </p>","","instructions","","","","","","","","","","","","","","","",""
"revaluation","113","1021923","0.0-3.0-15.0-5.0-1.0-0.0","pilot_wm_v1","65e862f844f1b7a803bb3c5a","4","null","null","true","","","","","","","[100]","","","rest practice","","10","","","","","","","","","0","15000","","","",""
"learning-instructions","114","1030073","0.0-3.0-15.0-6.0-0.0","pilot_wm_v1","65e862f844f1b7a803bb3c5a","4","null","null","true","","","","","","","null","<p> You have almost finished this part of the game! </p>
            <p> We are going to ask you to make a few more choices. </p>","","instructions","","","","","","","","","","","","","","","",""
"learning-instructions","115","1046097","0.0-3.0-15.0-6.0-0.1","pilot_wm_v1","65e862f844f1b7a803bb3c5a","4","null","null","true","","","","","","","null","<p> First, you need to decide whether to go up or down. When you see each picture, use the arrow keys to make your choice. </p>
            <p><b>You will not see which animal you found, but try to get to the one that will give you the most treasure.</b></p>","","instructions","","","","","","","","","","","","","","","",""
"html-keyboard-response","116","1047107","0.0-3.0-15.0-7.0-0.0","pilot_wm_v1","65e862f844f1b7a803bb3c5a","4","null","null","true","","","","","","","null","<div style=""font-size:100px;color:red;"">Starting in...</div>","null","","","","","","","","","","","","","","","","",""
"html-keyboard-response","117","1048127","0.0-3.0-15.0-7.0-1.0","pilot_wm_v1","65e862f844f1b7a803bb3c5a","4","null","null","true","","","","","","","null","<div style=""font-size:200px;color:red;"">3</div>","null","","","","","","","","","","","","","","","","",""
"html-keyboard-response","118","1049147","0.0-3.0-15.0-7.0-2.0","pilot_wm_v1","65e862f844f1b7a803bb3c5a","4","null","null","true","","","","","","","null","<div style=""font-size:200px;color:red;"">2</div>","null","","","","","","","","","","","","","","","","",""
"html-keyboard-response","119","1050157","0.0-3.0-15.0-7.0-3.0","pilot_wm_v1","65e862f844f1b7a803bb3c5a","4","null","null","true","","","","","","","null","<div style=""font-size:200px;color:red;"">1</div>","null","","","","","","","","","","","","","","","","",""
"revaluation","120","1051099","0.0-3.0-15.0-8.0","pilot_wm_v1","65e862f844f1b7a803bb3c5a","4","null","null","true","","false","","","","","[936.6999999880791]","./assets/img/space/15.jpg","[""ArrowDown""]","practice block","space","0","{""ArrowUp,ArrowLeft"":3,""ArrowUp,ArrowRight"":36,""ArrowDown,ArrowLeft"":15,""ArrowDown,ArrowRight"":23}","false","ArrowDown","false","","","","","","","","","",""
"html-keyboard-response","121","1051617","0.0-3.0-15.0-9.0","pilot_wm_v1","65e862f844f1b7a803bb3c5a","4","null","null","true","","","","","","","null","<div style=""font-size:60px;"">+</div>","null","fixation","","","","","","","","","","","","","","","",""
"learning-instructions","122","1065027","0.0-3.0-15.0-10.0-0.0","pilot_wm_v1","65e862f844f1b7a803bb3c5a","4","null","null","true","","","","","","","null","<p> Now you will see the animals again and can search their chests for treasure. </p>
            <p> This time, you will not see how much treasure you earned, but you will earn more bonus money for making better choices. </p>","","instructions","","","","","","","","","","","","","","","",""
"html-keyboard-response","123","1066037","0.0-3.0-15.0-11.0-0.0","pilot_wm_v1","65e862f844f1b7a803bb3c5a","4","null","null","true","","","","","","","null","<div style=""font-size:100px;color:red;"">Starting in...</div>","null","","","","","","","","","","","","","","","","",""
"html-keyboard-response","124","1067047","0.0-3.0-15.0-11.0-1.0","pilot_wm_v1","65e862f844f1b7a803bb3c5a","4","null","null","true","","","","","","","null","<div style=""font-size:200px;color:red;"">3</div>","null","","","","","","","","","","","","","","","","",""
"html-keyboard-response","125","1068057","0.0-3.0-15.0-11.0-2.0","pilot_wm_v1","65e862f844f1b7a803bb3c5a","4","null","null","true","","","","","","","null","<div style=""font-size:200px;color:red;"">2</div>","null","","","","","","","","","","","","","","","","",""
"html-keyboard-response","126","1069077","0.0-3.0-15.0-11.0-3.0","pilot_wm_v1","65e862f844f1b7a803bb3c5a","4","null","null","true","","","","","","","null","<div style=""font-size:200px;color:red;"">1</div>","null","","","","","","","","","","","","","","","","",""
"revaluation","127","1069708","0.0-3.0-15.0-12.0-0.0","pilot_wm_v1","65e862f844f1b7a803bb3c5a","4","null","null","true","","false","","","","","[624.7000000029802]","./assets/img/space/animals/cat.jpg","[""ArrowRight""]","practice block","space","0","{""ArrowUp,ArrowLeft"":3,""ArrowUp,ArrowRight"":36,""ArrowDown,ArrowLeft"":15,""ArrowDown,ArrowRight"":23}","true","ArrowUp,ArrowRight","","","","","","","","","","",""
"html-keyboard-response","128","1070216","0.0-3.0-15.0-12.0-1.0","pilot_wm_v1","65e862f844f1b7a803bb3c5a","4","null","null","true","","","","","","","null","<div style=""font-size:60px;"">+</div>","null","fixation","","","","","","","","","","","","","","","",""
"revaluation","129","1070849","0.0-3.0-15.0-12.0-0.1","pilot_wm_v1","65e862f844f1b7a803bb3c5a","4","null","null","true","","false","","","","","[624.9000000059605]","./assets/img/space/animals/rabbit.jpg","[""ArrowLeft""]","practice block","space","0","{""ArrowUp,ArrowLeft"":3,""ArrowUp,ArrowRight"":36,""ArrowDown,ArrowLeft"":15,""ArrowDown,ArrowRight"":23}","false","ArrowDown,ArrowLeft","","","","","","","","","","",""
"html-keyboard-response","130","1071357","0.0-3.0-15.0-12.0-1.1","pilot_wm_v1","65e862f844f1b7a803bb3c5a","4","null","null","true","","","","","","","null","<div style=""font-size:60px;"">+</div>","null","fixation","","","","","","","","","","","","","","","",""
"learning-instructions","131","1078200","0.0-3.0-16.0-0.0","pilot_wm_v1","65e862f844f1b7a803bb3c5a","4","null","null","true","","","","","","","2249.5999999940395","<p> Before you start, we're going to ask you a few questions about how the game works. </p>","","instructions","","","","","","","","","","","","","","","",""
"comp-q","132","1088383","0.0-3.0-17.0-0.0-0.0","pilot_wm_v1","65e862f844f1b7a803bb3c5a","4","null","null","true","","","","","","","4602","<p> <b> True or False? </b> </p>
            <p> There can be 50 pieces of treasure in a given animal's chest. </p>","0","comp_question","","","","false","","","","","","","","","","","",""
"comp-q","133","1096312","0.0-3.0-17.0-0.0-1.0","pilot_wm_v1","65e862f844f1b7a803bb3c5a","4","null","null","true","","","","","","","1413.0999999940395","<p> <b>Incorrect.</b> The amount of treasure in each chest can range from 0 to 40 pieces. </p>","0","comp_answer","","","","","","","","","","","","","","","",""
"comp-q","134","1103372","0.0-3.0-17.0-0.1-0.1","pilot_wm_v1","65e862f844f1b7a803bb3c5a","4","null","null","true","","","","","","","1501","<p> <b> True or False? </b> </p>
            <p> There can be 50 pieces of treasure in a given animal's chest. </p>","1","comp_question","","","","true","","","","","","","","","","","",""
"comp-q","135","1111465","0.0-3.0-17.0-0.1-1.1","pilot_wm_v1","65e862f844f1b7a803bb3c5a","4","null","null","true","","","","","","","1434.7000000029802","<p> <b> That's right! </b> The amount of treasure in each chest can range from 0 to 40 pieces. </p>","0","comp_answer","","","","","","","","","","","","","","","",""
"comp-q","136","1120296","0.0-3.0-17.0-0.2-0.2","pilot_wm_v1","65e862f844f1b7a803bb3c5a","4","null","null","true","","","","","","","1725.2999999970198","<p> <b> True or False? </b> </p><p> In this game, all animals have the same amount of treasure in their left and right chests. </p>","0","comp_question","","","","false","","","","","","","","","","","",""
"comp-q","137","1127910","0.0-3.0-17.0-0.2-1.2","pilot_wm_v1","65e862f844f1b7a803bb3c5a","4","null","null","true","","","","","","","2518.800000011921","<p> <b>Incorrect.</b> Animals have different amounts of treasure in their treasure chests. </p>","0","comp_answer","","","","","","","","","","","","","","","",""
"comp-q","138","1136311","0.0-3.0-17.0-0.3-0.3","pilot_wm_v1","65e862f844f1b7a803bb3c5a","4","null","null","true","","","","","","","1299.2999999970198","<p> <b> True or False? </b> </p><p> In this game, all animals have the same amount of treasure in their left and right chests. </p>","1","comp_question","","","","true","","","","","","","","","","","",""
"comp-q","139","1143209","0.0-3.0-17.0-0.3-1.3","pilot_wm_v1","65e862f844f1b7a803bb3c5a","4","null","null","true","","","","","","","1668.2000000029802","<p> <b> That's right! </b> Animals have different amounts of treasure in their treasure chests. </p>","0","comp_answer","","","","","","","","","","","","","","","",""
"comp-q","140","1150914","0.0-3.0-17.0-0.4-0.4","pilot_wm_v1","65e862f844f1b7a803bb3c5a","4","null","null","true","","","","","","","1862.9000000059605","<p> <b> True or False? </b> </p><p> The same animal will always be there if you go up in the same place. </p>","0","comp_question","","","","true","","","","","","","","","","","",""
"comp-q","141","1158875","0.0-3.0-17.0-0.4-1.4","pilot_wm_v1","65e862f844f1b7a803bb3c5a","4","null","null","true","","","","","","","1523.699999988079","<p> <b> That's right! </b> One animal lives in the upper part and one lives in the lower part of every place. </p>","0","comp_answer","","","","","","","","","","","","","","","",""
"comp-q","142","1165700","0.0-3.0-17.0-0.5-0.5","pilot_wm_v1","65e862f844f1b7a803bb3c5a","4","null","null","true","","","","","","","1308.6000000089407","<p> <b> True or False? </b> </p><p> If you see a different picture, it means you are in a new place. </p>","1","comp_question","","","","true","","","","","","","","","","","",""
"comp-q","143","1178551","0.0-3.0-17.0-0.5-1.5","pilot_wm_v1","65e862f844f1b7a803bb3c5a","4","null","null","true","","","","","","","1620","<p> <b> That's right! </b> Lots of different images may show the same place. For example,  you may see three different images that all remind you that you are in outer space. </p>","0","comp_answer","","","","","","","","","","","","","","","",""
"learning-instructions","144","1190428","0.0-3.0-18.0-0.0","pilot_wm_v1","65e862f844f1b7a803bb3c5a","4","null","null","true","","","","","","","2036.8999999910593","<p> Good job. Remember to do your best because the amount of treasure you earn will be converted into bonus money. </p>
            <p> It’s time to start the real game! </p>","","instructions","","","","","","","","","","","","","","","",""
"learning-instructions","145","1194489","0.0-4.0-0.0-0.0","pilot_wm_v1","65e862f844f1b7a803bb3c5a","4","null","null","true","","","","","","","1297.5","<p> This time you are searching for treasure in the <b>canyon</b>.</p>","","instructions","","","","","","","","","","","","","","","",""
"learning-instructions","146","1213899","0.0-4.0-0.0-0.1","pilot_wm_v1","65e862f844f1b7a803bb3c5a","4","null","null","true","","","","","","","2126.7999999970198","<p><b>New</b> animals with <b>new</b> treasure chests live here. You need to explore to discover where the animal with the best treasure chest is.</p>
                    <p> Like before, once you figure out which animal has the chest with the most treasure, you should try to get to that animal and select that chest! </p>","","instructions","","","","","","","","","","","","","","","",""
"learning-instructions","147","1230156","0.0-4.0-1.0-0.0","pilot_wm_v1","65e862f844f1b7a803bb3c5a","4","null","null","true","","","","","","","1523.7000000029802","<p> Remember, when you see a picture of the place, use the up and down keys to <b>find an animal</b>.</p>
            <p> When you encounter an animal, you should use the left and right keys to <b>select a treasure chest</b>.</p>
            <p> Don't forget to look out for the robber! </p>","","instructions","","","","","","","","","","","","","","","",""
"revaluation","148","1236199","0.0-4.0-2.0-0.0","pilot_wm_v1","65e862f844f1b7a803bb3c5a","4","null","null","true","","false","","","","","[1278.7000000029802,1211.7999999970198]","./assets/img/canyon/memory/16.jpg","[""ArrowUp"",""ArrowRight""]","value training","canyon","10","{""ArrowUp,ArrowLeft"":26,""ArrowUp,ArrowRight"":10,""ArrowDown,ArrowLeft"":5,""ArrowDown,ArrowRight"":17}","false","ArrowUp,ArrowRight","false","","","","","","","0","revaluation","1",""
"html-keyboard-response","149","1236728","0.0-4.0-2.0-1.0","pilot_wm_v1","65e862f844f1b7a803bb3c5a","4","null","null","true","","","","","","","null","<div style=""font-size:60px;"">+</div>","null","fixation","","","","","","","","","","","","","1","","",""
"revaluation","150","1242764","0.0-4.0-2.0-0.1","pilot_wm_v1","65e862f844f1b7a803bb3c5a","4","null","null","true","","false","","","","","[1302.2999999970198,949]","./assets/img/canyon/memory/20.jpg","[""ArrowDown"",""ArrowRight""]","value training","canyon","17","{""ArrowUp,ArrowLeft"":26,""ArrowUp,ArrowRight"":10,""ArrowDown,ArrowLeft"":5,""ArrowDown,ArrowRight"":17}","false","ArrowDown,ArrowRight","false","","","","","","","2","revaluation","1",""
"html-keyboard-response","151","1243284","0.0-4.0-2.0-1.1","pilot_wm_v1","65e862f844f1b7a803bb3c5a","4","null","null","true","","","","","","","null","<div style=""font-size:60px;"">+</div>","null","fixation","","","","","","","","","","","","","3","","",""
"revaluation","152","1249335","0.0-4.0-2.0-0.2","pilot_wm_v1","65e862f844f1b7a803bb3c5a","4","null","null","true","","false","","","","","[969,963.5]","./assets/img/canyon/memory/6.jpg","[""ArrowUp"",""ArrowLeft""]","value training","canyon","26","{""ArrowUp,ArrowLeft"":26,""ArrowUp,ArrowRight"":10,""ArrowDown,ArrowLeft"":5,""ArrowDown,ArrowRight"":17}","true","ArrowUp,ArrowLeft","false","","","","","","","4","revaluation","1",""
"html-keyboard-response","153","1249854","0.0-4.0-2.0-1.2","pilot_wm_v1","65e862f844f1b7a803bb3c5a","4","null","null","true","","","","","","","null","<div style=""font-size:60px;"">+</div>","null","fixation","","","","","","","","","","","","","5","","",""
"revaluation","154","1255904","0.0-4.0-2.0-0.3","pilot_wm_v1","65e862f844f1b7a803bb3c5a","4","null","null","true","","false","","","","","[1218.699999988079,902.7000000029802]","./assets/img/canyon/memory/24.jpg","[""ArrowUp"",""ArrowLeft""]","value training","canyon","26","{""ArrowUp,ArrowLeft"":26,""ArrowUp,ArrowRight"":10,""ArrowDown,ArrowLeft"":5,""ArrowDown,ArrowRight"":17}","true","ArrowUp,ArrowLeft","false","","","","","","","6","revaluation","1",""
"html-keyboard-response","155","1256424","0.0-4.0-2.0-1.3","pilot_wm_v1","65e862f844f1b7a803bb3c5a","4","null","null","true","","","","","","","null","<div style=""font-size:60px;"">+</div>","null","fixation","","","","","","","","","","","","","7","","",""
"revaluation","156","1260442","0.0-4.0-2.0-0.4","pilot_wm_v1","65e862f844f1b7a803bb3c5a","4","null","null","true","","false","","","","","[1435.0999999940395]","./assets/img/canyon/catch/5.jpg","[""spaceBar""]","value training","canyon","0","{""ArrowUp,ArrowLeft"":26,""ArrowUp,ArrowRight"":10,""ArrowDown,ArrowLeft"":5,""ArrowDown,ArrowRight"":17}","true","spaceBar","true","","","","","","","8","revaluation","1",""
"html-keyboard-response","157","1260950","0.0-4.0-2.0-1.4","pilot_wm_v1","65e862f844f1b7a803bb3c5a","4","null","null","true","","","","","","","null","<div style=""font-size:60px;"">+</div>","null","fixation","","","","","","","","","","","","","9","","",""
"revaluation","158","1266979","0.0-4.0-2.0-0.5","pilot_wm_v1","65e862f844f1b7a803bb3c5a","4","null","null","true","","false","","","","","[865.6999999880791,811.5999999940395]","./assets/img/canyon/memory/35.jpg","[""ArrowUp"",""ArrowRight""]","value training","canyon","10","{""ArrowUp,ArrowLeft"":26,""ArrowUp,ArrowRight"":10,""ArrowDown,ArrowLeft"":5,""ArrowDown,ArrowRight"":17}","false","ArrowUp,ArrowRight","false","","","","","","","10","revaluation","1",""
"html-keyboard-response","159","1267484","0.0-4.0-2.0-1.5","pilot_wm_v1","65e862f844f1b7a803bb3c5a","4","null","null","true","","","","","","","null","<div style=""font-size:60px;"">+</div>","null","fixation","","","","","","","","","","","","","11","","",""
"revaluation","160","1273513","0.0-4.0-2.0-0.6","pilot_wm_v1","65e862f844f1b7a803bb3c5a","4","null","null","true","","false","","","","","[1109.7000000029802,891.7999999970198]","./assets/img/canyon/memory/4.jpg","[""ArrowUp"",""ArrowLeft""]","value training","canyon","26","{""ArrowUp,ArrowLeft"":26,""ArrowUp,ArrowRight"":10,""ArrowDown,ArrowLeft"":5,""ArrowDown,ArrowRight"":17}","true","ArrowUp,ArrowLeft","false","","","","","","","12","revaluation","1",""
"html-keyboard-response","161","1274028","0.0-4.0-2.0-1.6","pilot_wm_v1","65e862f844f1b7a803bb3c5a","4","null","null","true","","","","","","","null","<div style=""font-size:60px;"">+</div>","null","fixation","","","","","","","","","","","","","13","","",""
"revaluation","162","1280045","0.0-4.0-2.0-0.7","pilot_wm_v1","65e862f844f1b7a803bb3c5a","4","null","null","true","","false","","","","","[1211,701]","./assets/img/canyon/memory/2.jpg","[""ArrowUp"",""ArrowLeft""]","value training","canyon","26","{""ArrowUp,ArrowLeft"":26,""ArrowUp,ArrowRight"":10,""ArrowDown,ArrowLeft"":5,""ArrowDown,ArrowRight"":17}","true","ArrowUp,ArrowLeft","false","","","","","","","14","revaluation","1",""
"html-keyboard-response","163","1280550","0.0-4.0-2.0-1.7","pilot_wm_v1","65e862f844f1b7a803bb3c5a","4","null","null","true","","","","","","","null","<div style=""font-size:60px;"">+</div>","null","fixation","","","","","","","","","","","","","15","","",""
"revaluation","164","1286573","0.0-4.0-2.0-0.8","pilot_wm_v1","65e862f844f1b7a803bb3c5a","4","null","null","true","","false","","","","","[773.2000000029802,688.5]","./assets/img/canyon/memory/35.jpg","[""ArrowUp"",""ArrowLeft""]","value training","canyon","26","{""ArrowUp,ArrowLeft"":26,""ArrowUp,ArrowRight"":10,""ArrowDown,ArrowLeft"":5,""ArrowDown,ArrowRight"":17}","true","ArrowUp,ArrowLeft","false","","","","","","","16","revaluation","1",""
"html-keyboard-response","165","1287089","0.0-4.0-2.0-1.8","pilot_wm_v1","65e862f844f1b7a803bb3c5a","4","null","null","true","","","","","","","null","<div style=""font-size:60px;"">+</div>","null","fixation","","","","","","","","","","","","","17","","",""
"revaluation","166","1293101","0.0-4.0-2.0-0.9","pilot_wm_v1","65e862f844f1b7a803bb3c5a","4","null","null","true","","false","","","","","[667.2999999970198,724.0999999940395]","./assets/img/canyon/memory/33.jpg","[""ArrowUp"",""ArrowLeft""]","value training","canyon","26","{""ArrowUp,ArrowLeft"":26,""ArrowUp,ArrowRight"":10,""ArrowDown,ArrowLeft"":5,""ArrowDown,ArrowRight"":17}","true","ArrowUp,ArrowLeft","false","","","","","","","18","revaluation","1",""
"html-keyboard-response","167","1293611","0.0-4.0-2.0-1.9","pilot_wm_v1","65e862f844f1b7a803bb3c5a","4","null","null","true","","","","","","","null","<div style=""font-size:60px;"">+</div>","null","fixation","","","","","","","","","","","","","19","","",""
"revaluation","168","1299630","0.0-4.0-2.0-0.10","pilot_wm_v1","65e862f844f1b7a803bb3c5a","4","null","null","true","","false","","","","","[929.2999999970198,586.5]","./assets/img/canyon/memory/30.jpg","[""ArrowUp"",""ArrowLeft""]","value training","canyon","26","{""ArrowUp,ArrowLeft"":26,""ArrowUp,ArrowRight"":10,""ArrowDown,ArrowLeft"":5,""ArrowDown,ArrowRight"":17}","true","ArrowUp,ArrowLeft","false","","","","","","","20","revaluation","1",""
"html-keyboard-response","169","1300131","0.0-4.0-2.0-1.10","pilot_wm_v1","65e862f844f1b7a803bb3c5a","4","null","null","true","","","","","","","null","<div style=""font-size:60px;"">+</div>","null","fixation","","","","","","","","","","","","","21","","",""
"revaluation","170","1306159","0.0-4.0-2.0-0.11","pilot_wm_v1","65e862f844f1b7a803bb3c5a","4","null","null","true","","false","","","","","[649,475.5]","./assets/img/canyon/memory/7.jpg","[""ArrowUp"",""ArrowLeft""]","value training","canyon","26","{""ArrowUp,ArrowLeft"":26,""ArrowUp,ArrowRight"":10,""ArrowDown,ArrowLeft"":5,""ArrowDown,ArrowRight"":17}","true","ArrowUp,ArrowLeft","false","","","","","","","22","revaluation","1",""
"html-keyboard-response","171","1306677","0.0-4.0-2.0-1.11","pilot_wm_v1","65e862f844f1b7a803bb3c5a","4","null","null","true","","","","","","","null","<div style=""font-size:60px;"">+</div>","null","fixation","","","","","","","","","","","","","23","","",""
"revaluation","172","1312702","0.0-4.0-2.0-0.12","pilot_wm_v1","65e862f844f1b7a803bb3c5a","4","null","null","true","","false","","","","","[623.7999999970198,464.5]","./assets/img/canyon/memory/40.jpg","[""ArrowUp"",""ArrowLeft""]","value training","canyon","26","{""ArrowUp,ArrowLeft"":26,""ArrowUp,ArrowRight"":10,""ArrowDown,ArrowLeft"":5,""ArrowDown,ArrowRight"":17}","true","ArrowUp,ArrowLeft","false","","","","","","","24","revaluation","1",""
"html-keyboard-response","173","1313208","0.0-4.0-2.0-1.12","pilot_wm_v1","65e862f844f1b7a803bb3c5a","4","null","null","true","","","","","","","null","<div style=""font-size:60px;"">+</div>","null","fixation","","","","","","","","","","","","","25","","",""
"revaluation","174","1317225","0.0-4.0-2.0-0.13","pilot_wm_v1","65e862f844f1b7a803bb3c5a","4","null","null","true","","false","","","","","[1571.2000000029802]","./assets/img/canyon/catch/1.jpg","[""spaceBar""]","value training","canyon","0","{""ArrowUp,ArrowLeft"":26,""ArrowUp,ArrowRight"":10,""ArrowDown,ArrowLeft"":5,""ArrowDown,ArrowRight"":17}","true","spaceBar","true","","","","","","","26","revaluation","1",""
"html-keyboard-response","175","1317733","0.0-4.0-2.0-1.13","pilot_wm_v1","65e862f844f1b7a803bb3c5a","4","null","null","true","","","","","","","null","<div style=""font-size:60px;"">+</div>","null","fixation","","","","","","","","","","","","","27","","",""
"revaluation","176","1323750","0.0-4.0-2.0-0.14","pilot_wm_v1","65e862f844f1b7a803bb3c5a","4","null","null","true","","false","","","","","[935.2000000029802,630.5]","./assets/img/canyon/memory/23.jpg","[""ArrowUp"",""ArrowLeft""]","value training","canyon","26","{""ArrowUp,ArrowLeft"":26,""ArrowUp,ArrowRight"":10,""ArrowDown,ArrowLeft"":5,""ArrowDown,ArrowRight"":17}","true","ArrowUp,ArrowLeft","false","","","","","","","28","revaluation","1",""
"html-keyboard-response","177","1324258","0.0-4.0-2.0-1.14","pilot_wm_v1","65e862f844f1b7a803bb3c5a","4","null","null","true","","","","","","","null","<div style=""font-size:60px;"">+</div>","null","fixation","","","","","","","","","","","","","29","","",""
"revaluation","178","1330286","0.0-4.0-2.0-0.15","pilot_wm_v1","65e862f844f1b7a803bb3c5a","4","null","null","true","","false","","","","","[806.7999999970198,842.8999999910593]","./assets/img/canyon/memory/21.jpg","[""ArrowUp"",""ArrowLeft""]","value training","canyon","26","{""ArrowUp,ArrowLeft"":26,""ArrowUp,ArrowRight"":10,""ArrowDown,ArrowLeft"":5,""ArrowDown,ArrowRight"":17}","true","ArrowUp,ArrowLeft","false","","","","","","","30","revaluation","1",""
"html-keyboard-response","179","1330793","0.0-4.0-2.0-1.15","pilot_wm_v1","65e862f844f1b7a803bb3c5a","4","null","null","true","","","","","","","null","<div style=""font-size:60px;"">+</div>","null","fixation","","","","","","","","","","","","","31","","",""
"revaluation","180","1336819","0.0-4.0-2.0-0.16","pilot_wm_v1","65e862f844f1b7a803bb3c5a","4","null","null","true","","false","","","","","[761.2999999970198,626.5]","./assets/img/canyon/memory/6.jpg","[""ArrowUp"",""ArrowLeft""]","value training","canyon","26","{""ArrowUp,ArrowLeft"":26,""ArrowUp,ArrowRight"":10,""ArrowDown,ArrowLeft"":5,""ArrowDown,ArrowRight"":17}","true","ArrowUp,ArrowLeft","false","","","","","","","32","revaluation","1",""
"html-keyboard-response","181","1337322","0.0-4.0-2.0-1.16","pilot_wm_v1","65e862f844f1b7a803bb3c5a","4","null","null","true","","","","","","","null","<div style=""font-size:60px;"">+</div>","null","fixation","","","","","","","","","","","","","33","","",""
"revaluation","182","1343348","0.0-4.0-2.0-0.17","pilot_wm_v1","65e862f844f1b7a803bb3c5a","4","null","null","true","","false","","","","","[1518.5,821.4000000059605]","./assets/img/canyon/memory/30.jpg","[""ArrowDown"",""ArrowLeft""]","value training","canyon","5","{""ArrowUp,ArrowLeft"":26,""ArrowUp,ArrowRight"":10,""ArrowDown,ArrowLeft"":5,""ArrowDown,ArrowRight"":17}","false","ArrowDown,ArrowLeft","false","","","","","","","34","revaluation","1",""
"html-keyboard-response","183","1343866","0.0-4.0-2.0-1.17","pilot_wm_v1","65e862f844f1b7a803bb3c5a","4","null","null","true","","","","","","","null","<div style=""font-size:60px;"">+</div>","null","fixation","","","","","","","","","","","","","35","","",""
"revaluation","184","1347880","0.0-4.0-2.0-0.18","pilot_wm_v1","65e862f844f1b7a803bb3c5a","4","null","null","true","","false","","","","","[1399]","./assets/img/canyon/catch/7.jpg","[""spaceBar""]","value training","canyon","0","{""ArrowUp,ArrowLeft"":26,""ArrowUp,ArrowRight"":10,""ArrowDown,ArrowLeft"":5,""ArrowDown,ArrowRight"":17}","true","spaceBar","true","","","","","","","36","revaluation","1",""
"html-keyboard-response","185","1348392","0.0-4.0-2.0-1.18","pilot_wm_v1","65e862f844f1b7a803bb3c5a","4","null","null","true","","","","","","","null","<div style=""font-size:60px;"">+</div>","null","fixation","","","","","","","","","","","","","37","","",""
"revaluation","186","1354422","0.0-4.0-2.0-0.19","pilot_wm_v1","65e862f844f1b7a803bb3c5a","4","null","null","true","","false","","","","","[1107.199999988079,595.8000000119209]","./assets/img/canyon/memory/17.jpg","[""ArrowUp"",""ArrowRight""]","value training","canyon","10","{""ArrowUp,ArrowLeft"":26,""ArrowUp,ArrowRight"":10,""ArrowDown,ArrowLeft"":5,""ArrowDown,ArrowRight"":17}","false","ArrowUp,ArrowRight","false","","","","","","","38","revaluation","1",""
"html-keyboard-response","187","1354933","0.0-4.0-2.0-1.19","pilot_wm_v1","65e862f844f1b7a803bb3c5a","4","null","null","true","","","","","","","null","<div style=""font-size:60px;"">+</div>","null","fixation","","","","","","","","","","","","","39","","",""
"revaluation","188","1360957","0.0-4.0-2.0-0.20","pilot_wm_v1","65e862f844f1b7a803bb3c5a","4","null","null","true","","false","","","","","[1025.5999999940395,623.1999999880791]","./assets/img/canyon/memory/32.jpg","[""ArrowUp"",""ArrowLeft""]","value training","canyon","26","{""ArrowUp,ArrowLeft"":26,""ArrowUp,ArrowRight"":10,""ArrowDown,ArrowLeft"":5,""ArrowDown,ArrowRight"":17}","true","ArrowUp,ArrowLeft","false","","","","","","","40","revaluation","1",""
"html-keyboard-response","189","1361475","0.0-4.0-2.0-1.20","pilot_wm_v1","65e862f844f1b7a803bb3c5a","4","null","null","true","","","","","","","null","<div style=""font-size:60px;"">+</div>","null","fixation","","","","","","","","","","","","","41","","",""
"revaluation","190","1367500","0.0-4.0-2.0-0.21","pilot_wm_v1","65e862f844f1b7a803bb3c5a","4","null","null","true","","false","","","","","[1087.4000000059605,583.5999999940395]","./assets/img/canyon/memory/37.jpg","[""ArrowUp"",""ArrowLeft""]","value training","canyon","26","{""ArrowUp,ArrowLeft"":26,""ArrowUp,ArrowRight"":10,""ArrowDown,ArrowLeft"":5,""ArrowDown,ArrowRight"":17}","true","ArrowUp,ArrowLeft","false","","","","","","","42","revaluation","1",""
"html-keyboard-response","191","1368005","0.0-4.0-2.0-1.21","pilot_wm_v1","65e862f844f1b7a803bb3c5a","4","null","null","true","","","","","","","null","<div style=""font-size:60px;"">+</div>","null","fixation","","","","","","","","","","","","","43","","",""
"revaluation","192","1374029","0.0-4.0-2.0-0.22","pilot_wm_v1","65e862f844f1b7a803bb3c5a","4","null","null","true","","false","","","","","[1235.199999988079,415.5]","./assets/img/canyon/memory/40.jpg","[""ArrowUp"",""ArrowLeft""]","value training","canyon","26","{""ArrowUp,ArrowLeft"":26,""ArrowUp,ArrowRight"":10,""ArrowDown,ArrowLeft"":5,""ArrowDown,ArrowRight"":17}","true","ArrowUp,ArrowLeft","false","","","","","","","44","revaluation","1",""
"html-keyboard-response","193","1374535","0.0-4.0-2.0-1.22","pilot_wm_v1","65e862f844f1b7a803bb3c5a","4","null","null","true","","","","","","","null","<div style=""font-size:60px;"">+</div>","null","fixation","","","","","","","","","","","","","45","","",""
"revaluation","194","1380565","0.0-4.0-2.0-0.23","pilot_wm_v1","65e862f844f1b7a803bb3c5a","4","null","null","true","","false","","","","","[902.5,372.09999999403954]","./assets/img/canyon/memory/17.jpg","[""ArrowUp"",""ArrowLeft""]","value training","canyon","26","{""ArrowUp,ArrowLeft"":26,""ArrowUp,ArrowRight"":10,""ArrowDown,ArrowLeft"":5,""ArrowDown,ArrowRight"":17}","true","ArrowUp,ArrowLeft","false","","","","","","","46","revaluation","1",""
"html-keyboard-response","195","1381072","0.0-4.0-2.0-1.23","pilot_wm_v1","65e862f844f1b7a803bb3c5a","4","null","null","true","","","","","","","null","<div style=""font-size:60px;"">+</div>","null","fixation","","","","","","","","","","","","","47","","",""
"revaluation","196","1387094","0.0-4.0-2.0-0.24","pilot_wm_v1","65e862f844f1b7a803bb3c5a","4","null","null","true","","false","","","","","[670.9000000059605,512.5]","./assets/img/canyon/memory/2.jpg","[""ArrowUp"",""ArrowLeft""]","value training","canyon","26","{""ArrowUp,ArrowLeft"":26,""ArrowUp,ArrowRight"":10,""ArrowDown,ArrowLeft"":5,""ArrowDown,ArrowRight"":17}","true","ArrowUp,ArrowLeft","false","","","","","","","48","revaluation","1",""
"html-keyboard-response","197","1387599","0.0-4.0-2.0-1.24","pilot_wm_v1","65e862f844f1b7a803bb3c5a","4","null","null","true","","","","","","","null","<div style=""font-size:60px;"">+</div>","null","fixation","","","","","","","","","","","","","49","","",""
"revaluation","198","1393620","0.0-4.0-2.0-0.25","pilot_wm_v1","65e862f844f1b7a803bb3c5a","4","null","null","true","","false","","","","","[616.0999999940395,622.1000000089407]","./assets/img/canyon/memory/20.jpg","[""ArrowUp"",""ArrowLeft""]","value training","canyon","26","{""ArrowUp,ArrowLeft"":26,""ArrowUp,ArrowRight"":10,""ArrowDown,ArrowLeft"":5,""ArrowDown,ArrowRight"":17}","true","ArrowUp,ArrowLeft","false","","","","","","","50","revaluation","1",""
"html-keyboard-response","199","1394132","0.0-4.0-2.0-1.25","pilot_wm_v1","65e862f844f1b7a803bb3c5a","4","null","null","true","","","","","","","null","<div style=""font-size:60px;"">+</div>","null","fixation","","","","","","","","","","","","","51","","",""
"revaluation","200","1400153","0.0-4.0-2.0-0.26","pilot_wm_v1","65e862f844f1b7a803bb3c5a","4","null","null","true","","false","","","","","[537,445.29999999701977]","./assets/img/canyon/memory/22.jpg","[""ArrowUp"",""ArrowLeft""]","value training","canyon","26","{""ArrowUp,ArrowLeft"":26,""ArrowUp,ArrowRight"":10,""ArrowDown,ArrowLeft"":5,""ArrowDown,ArrowRight"":17}","true","ArrowUp,ArrowLeft","false","","","","","","","52","revaluation","1",""
"html-keyboard-response","201","1400664","0.0-4.0-2.0-1.26","pilot_wm_v1","65e862f844f1b7a803bb3c5a","4","null","null","true","","","","","","","null","<div style=""font-size:60px;"">+</div>","null","fixation","","","","","","","","","","","","","53","","",""
"revaluation","202","1406682","0.0-4.0-2.0-0.27","pilot_wm_v1","65e862f844f1b7a803bb3c5a","4","null","null","true","","false","","","","","[1890,683.6000000089407]","./assets/img/canyon/memory/7.jpg","[""ArrowUp"",""ArrowLeft""]","value training","canyon","26","{""ArrowUp,ArrowLeft"":26,""ArrowUp,ArrowRight"":10,""ArrowDown,ArrowLeft"":5,""ArrowDown,ArrowRight"":17}","true","ArrowUp,ArrowLeft","false","","","","","","","54","revaluation","1",""
"html-keyboard-response","203","1407188","0.0-4.0-2.0-1.27","pilot_wm_v1","65e862f844f1b7a803bb3c5a","4","null","null","true","","","","","","","null","<div style=""font-size:60px;"">+</div>","null","fixation","","","","","","","","","","","","","55","","",""
"revaluation","204","1413204","0.0-4.0-2.0-0.28","pilot_wm_v1","65e862f844f1b7a803bb3c5a","4","null","null","true","","false","","","","","[928.4000000059605,513.7000000029802]","./assets/img/canyon/memory/37.jpg","[""ArrowUp"",""ArrowLeft""]","value training","canyon","26","{""ArrowUp,ArrowLeft"":26,""ArrowUp,ArrowRight"":10,""ArrowDown,ArrowLeft"":5,""ArrowDown,ArrowRight"":17}","true","ArrowUp,ArrowLeft","false","","","","","","","56","revaluation","1",""
"html-keyboard-response","205","1413715","0.0-4.0-2.0-1.28","pilot_wm_v1","65e862f844f1b7a803bb3c5a","4","null","null","true","","","","","","","null","<div style=""font-size:60px;"">+</div>","null","fixation","","","","","","","","","","","","","57","","",""
"revaluation","206","1417742","0.0-4.0-2.0-0.29","pilot_wm_v1","65e862f844f1b7a803bb3c5a","4","null","null","true","","false","","","","","[1020.2999999970198]","./assets/img/canyon/catch/6.jpg","[""spaceBar""]","value training","canyon","0","{""ArrowUp,ArrowLeft"":26,""ArrowUp,ArrowRight"":10,""ArrowDown,ArrowLeft"":5,""ArrowDown,ArrowRight"":17}","true","spaceBar","true","","","","","","","58","revaluation","1",""
"html-keyboard-response","207","1418247","0.0-4.0-2.0-1.29","pilot_wm_v1","65e862f844f1b7a803bb3c5a","4","null","null","true","","","","","","","null","<div style=""font-size:60px;"">+</div>","null","fixation","","","","","","","","","","","","","59","","",""
"revaluation","208","1424265","0.0-4.0-2.0-0.30","pilot_wm_v1","65e862f844f1b7a803bb3c5a","4","null","null","true","","false","","","","","[921.5,533.8999999910593]","./assets/img/canyon/memory/11.jpg","[""ArrowUp"",""ArrowLeft""]","value training","canyon","26","{""ArrowUp,ArrowLeft"":26,""ArrowUp,ArrowRight"":10,""ArrowDown,ArrowLeft"":5,""ArrowDown,ArrowRight"":17}","true","ArrowUp,ArrowLeft","false","","","","","","","60","revaluation","1",""
"html-keyboard-response","209","1424773","0.0-4.0-2.0-1.30","pilot_wm_v1","65e862f844f1b7a803bb3c5a","4","null","null","true","","","","","","","null","<div style=""font-size:60px;"">+</div>","null","fixation","","","","","","","","","","","","","61","","",""
"revaluation","210","1430796","0.0-4.0-2.0-0.31","pilot_wm_v1","65e862f844f1b7a803bb3c5a","4","null","null","true","","false","","","","","[1121.7999999970198,538]","./assets/img/canyon/memory/24.jpg","[""ArrowUp"",""ArrowLeft""]","value training","canyon","26","{""ArrowUp,ArrowLeft"":26,""ArrowUp,ArrowRight"":10,""ArrowDown,ArrowLeft"":5,""ArrowDown,ArrowRight"":17}","true","ArrowUp,ArrowLeft","false","","","","","","","62","revaluation","1",""
"html-keyboard-response","211","1431298","0.0-4.0-2.0-1.31","pilot_wm_v1","65e862f844f1b7a803bb3c5a","4","null","null","true","","","","","","","null","<div style=""font-size:60px;"">+</div>","null","fixation","","","","","","","","","","","","","63","","",""
"revaluation","212","1437329","0.0-4.0-2.0-0.32","pilot_wm_v1","65e862f844f1b7a803bb3c5a","4","null","null","true","","false","","","","","[1093.4000000059605,724.5999999940395]","./assets/img/canyon/memory/15.jpg","[""ArrowUp"",""ArrowLeft""]","value training","canyon","26","{""ArrowUp,ArrowLeft"":26,""ArrowUp,ArrowRight"":10,""ArrowDown,ArrowLeft"":5,""ArrowDown,ArrowRight"":17}","true","ArrowUp,ArrowLeft","false","","","","","","","64","revaluation","1",""
"html-keyboard-response","213","1437839","0.0-4.0-2.0-1.32","pilot_wm_v1","65e862f844f1b7a803bb3c5a","4","null","null","true","","","","","","","null","<div style=""font-size:60px;"">+</div>","null","fixation","","","","","","","","","","","","","65","","",""
"revaluation","214","1443859","0.0-4.0-2.0-0.33","pilot_wm_v1","65e862f844f1b7a803bb3c5a","4","null","null","true","","false","","","","","[906.7000000029802,570.0999999940395]","./assets/img/canyon/memory/33.jpg","[""ArrowUp"",""ArrowLeft""]","value training","canyon","26","{""ArrowUp,ArrowLeft"":26,""ArrowUp,ArrowRight"":10,""ArrowDown,ArrowLeft"":5,""ArrowDown,ArrowRight"":17}","true","ArrowUp,ArrowLeft","false","","","","","","","66","revaluation","1",""
"html-keyboard-response","215","1444365","0.0-4.0-2.0-1.33","pilot_wm_v1","65e862f844f1b7a803bb3c5a","4","null","null","true","","","","","","","null","<div style=""font-size:60px;"">+</div>","null","fixation","","","","","","","","","","","","","67","","",""
"revaluation","216","1450381","0.0-4.0-2.0-0.34","pilot_wm_v1","65e862f844f1b7a803bb3c5a","4","null","null","true","","false","","","","","[1131.7999999970198,726]","./assets/img/canyon/memory/12.jpg","[""ArrowDown"",""ArrowLeft""]","value training","canyon","5","{""ArrowUp,ArrowLeft"":26,""ArrowUp,ArrowRight"":10,""ArrowDown,ArrowLeft"":5,""ArrowDown,ArrowRight"":17}","false","ArrowDown,ArrowLeft","false","","","","","","","68","revaluation","1",""
"html-keyboard-response","217","1450899","0.0-4.0-2.0-1.34","pilot_wm_v1","65e862f844f1b7a803bb3c5a","4","null","null","true","","","","","","","null","<div style=""font-size:60px;"">+</div>","null","fixation","","","","","","","","","","","","","69","","",""
"revaluation","218","1456931","0.0-4.0-2.0-0.35","pilot_wm_v1","65e862f844f1b7a803bb3c5a","4","null","null","true","","false","","","","","[1041.7000000029802,635.9000000059605]","./assets/img/canyon/memory/32.jpg","[""ArrowUp"",""ArrowLeft""]","value training","canyon","26","{""ArrowUp,ArrowLeft"":26,""ArrowUp,ArrowRight"":10,""ArrowDown,ArrowLeft"":5,""ArrowDown,ArrowRight"":17}","true","ArrowUp,ArrowLeft","false","","","","","","","70","revaluation","1",""
"html-keyboard-response","219","1457434","0.0-4.0-2.0-1.35","pilot_wm_v1","65e862f844f1b7a803bb3c5a","4","null","null","true","","","","","","","null","<div style=""font-size:60px;"">+</div>","null","fixation","","","","","","","","","","","","","71","","",""
"revaluation","220","1463461","0.0-4.0-2.0-0.36","pilot_wm_v1","65e862f844f1b7a803bb3c5a","4","null","null","true","","false","","","","","[981.7999999970198,474.70000000298023]","./assets/img/canyon/memory/22.jpg","[""ArrowUp"",""ArrowLeft""]","value training","canyon","26","{""ArrowUp,ArrowLeft"":26,""ArrowUp,ArrowRight"":10,""ArrowDown,ArrowLeft"":5,""ArrowDown,ArrowRight"":17}","true","ArrowUp,ArrowLeft","false","","","","","","","72","revaluation","1",""
"html-keyboard-response","221","1463964","0.0-4.0-2.0-1.36","pilot_wm_v1","65e862f844f1b7a803bb3c5a","4","null","null","true","","","","","","","null","<div style=""font-size:60px;"">+</div>","null","fixation","","","","","","","","","","","","","73","","",""
"revaluation","222","1469990","0.0-4.0-2.0-0.37","pilot_wm_v1","65e862f844f1b7a803bb3c5a","4","null","null","true","","false","","","","","[882.2000000029802,372.29999999701977]","./assets/img/canyon/memory/16.jpg","[""ArrowDown"",""ArrowRight""]","value training","canyon","17","{""ArrowUp,ArrowLeft"":26,""ArrowUp,ArrowRight"":10,""ArrowDown,ArrowLeft"":5,""ArrowDown,ArrowRight"":17}","false","ArrowDown,ArrowRight","false","","","","","","","74","revaluation","1",""
"html-keyboard-response","223","1470502","0.0-4.0-2.0-1.37","pilot_wm_v1","65e862f844f1b7a803bb3c5a","4","null","null","true","","","","","","","null","<div style=""font-size:60px;"">+</div>","null","fixation","","","","","","","","","","","","","75","","",""
"revaluation","224","1476517","0.0-4.0-2.0-0.38","pilot_wm_v1","65e862f844f1b7a803bb3c5a","4","null","null","true","","false","","","","","[976,705.2000000029802]","./assets/img/canyon/memory/15.jpg","[""ArrowUp"",""ArrowLeft""]","value training","canyon","26","{""ArrowUp,ArrowLeft"":26,""ArrowUp,ArrowRight"":10,""ArrowDown,ArrowLeft"":5,""ArrowDown,ArrowRight"":17}","true","ArrowUp,ArrowLeft","false","","","","","","","76","revaluation","1",""
"html-keyboard-response","225","1477023","0.0-4.0-2.0-1.38","pilot_wm_v1","65e862f844f1b7a803bb3c5a","4","null","null","true","","","","","","","null","<div style=""font-size:60px;"">+</div>","null","fixation","","","","","","","","","","","","","77","","",""
"revaluation","226","1483052","0.0-4.0-2.0-0.39","pilot_wm_v1","65e862f844f1b7a803bb3c5a","4","null","null","true","","false","","","","","[1316,608.6999999880791]","./assets/img/canyon/memory/21.jpg","[""ArrowUp"",""ArrowLeft""]","value training","canyon","26","{""ArrowUp,ArrowLeft"":26,""ArrowUp,ArrowRight"":10,""ArrowDown,ArrowLeft"":5,""ArrowDown,ArrowRight"":17}","true","ArrowUp,ArrowLeft","false","","","","","","","78","revaluation","1",""
"html-keyboard-response","227","1483557","0.0-4.0-2.0-1.39","pilot_wm_v1","65e862f844f1b7a803bb3c5a","4","null","null","true","","","","","","","null","<div style=""font-size:60px;"">+</div>","null","fixation","","","","","","","","","","","","","79","","",""
"revaluation","228","1489583","0.0-4.0-2.0-0.40","pilot_wm_v1","65e862f844f1b7a803bb3c5a","4","null","null","true","","false","","","","","[1038.2999999970198,632]","./assets/img/canyon/memory/39.jpg","[""ArrowUp"",""ArrowLeft""]","value training","canyon","26","{""ArrowUp,ArrowLeft"":26,""ArrowUp,ArrowRight"":10,""ArrowDown,ArrowLeft"":5,""ArrowDown,ArrowRight"":17}","true","ArrowUp,ArrowLeft","false","","","","","","","80","revaluation","1",""
"html-keyboard-response","229","1490098","0.0-4.0-2.0-1.40","pilot_wm_v1","65e862f844f1b7a803bb3c5a","4","null","null","true","","","","","","","null","<div style=""font-size:60px;"">+</div>","null","fixation","","","","","","","","","","","","","81","","",""
"revaluation","230","1496126","0.0-4.0-2.0-0.41","pilot_wm_v1","65e862f844f1b7a803bb3c5a","4","null","null","true","","false","","","","","[1387.2000000029802,496.29999999701977]","./assets/img/canyon/memory/39.jpg","[""ArrowUp"",""ArrowLeft""]","value training","canyon","26","{""ArrowUp,ArrowLeft"":26,""ArrowUp,ArrowRight"":10,""ArrowDown,ArrowLeft"":5,""ArrowDown,ArrowRight"":17}","true","ArrowUp,ArrowLeft","false","","","","","","","82","revaluation","1",""
"html-keyboard-response","231","1496635","0.0-4.0-2.0-1.41","pilot_wm_v1","65e862f844f1b7a803bb3c5a","4","null","null","true","","","","","","","null","<div style=""font-size:60px;"">+</div>","null","fixation","","","","","","","","","","","","","83","","",""
"revaluation","232","1500654","0.0-4.0-2.0-0.42","pilot_wm_v1","65e862f844f1b7a803bb3c5a","4","null","null","true","","false","","","","","[1261.9000000059605]","./assets/img/canyon/catch/4.jpg","[""spaceBar""]","value training","canyon","0","{""ArrowUp,ArrowLeft"":26,""ArrowUp,ArrowRight"":10,""ArrowDown,ArrowLeft"":5,""ArrowDown,ArrowRight"":17}","true","spaceBar","true","","","","","","","84","revaluation","1",""
"html-keyboard-response","233","1501156","0.0-4.0-2.0-1.42","pilot_wm_v1","65e862f844f1b7a803bb3c5a","4","null","null","true","","","","","","","null","<div style=""font-size:60px;"">+</div>","null","fixation","","","","","","","","","","","","","85","","",""
"revaluation","234","1505175","0.0-4.0-2.0-0.43","pilot_wm_v1","65e862f844f1b7a803bb3c5a","4","null","null","true","","false","","","","","[792.5]","./assets/img/canyon/catch/3.jpg","[""spaceBar""]","value training","canyon","0","{""ArrowUp,ArrowLeft"":26,""ArrowUp,ArrowRight"":10,""ArrowDown,ArrowLeft"":5,""ArrowDown,ArrowRight"":17}","true","spaceBar","true","","","","","","","86","revaluation","1",""
"html-keyboard-response","235","1505684","0.0-4.0-2.0-1.43","pilot_wm_v1","65e862f844f1b7a803bb3c5a","4","null","null","true","","","","","","","null","<div style=""font-size:60px;"">+</div>","null","fixation","","","","","","","","","","","","","87","","",""
"revaluation","236","1509701","0.0-4.0-2.0-0.44","pilot_wm_v1","65e862f844f1b7a803bb3c5a","4","null","null","true","","false","","","","","[902.7000000029802]","./assets/img/canyon/catch/0.jpg","[""spaceBar""]","value training","canyon","0","{""ArrowUp,ArrowLeft"":26,""ArrowUp,ArrowRight"":10,""ArrowDown,ArrowLeft"":5,""ArrowDown,ArrowRight"":17}","true","spaceBar","true","","","","","","","88","revaluation","1",""
"html-keyboard-response","237","1510204","0.0-4.0-2.0-1.44","pilot_wm_v1","65e862f844f1b7a803bb3c5a","4","null","null","true","","","","","","","null","<div style=""font-size:60px;"">+</div>","null","fixation","","","","","","","","","","","","","89","","",""
"revaluation","238","1516224","0.0-4.0-2.0-0.45","pilot_wm_v1","65e862f844f1b7a803bb3c5a","4","null","null","true","","false","","","","","[899.6000000089407,421.70000000298023]","./assets/img/canyon/memory/11.jpg","[""ArrowUp"",""ArrowLeft""]","value training","canyon","26","{""ArrowUp,ArrowLeft"":26,""ArrowUp,ArrowRight"":10,""ArrowDown,ArrowLeft"":5,""ArrowDown,ArrowRight"":17}","true","ArrowUp,ArrowLeft","false","","","","","","","90","revaluation","1",""
"html-keyboard-response","239","1516734","0.0-4.0-2.0-1.45","pilot_wm_v1","65e862f844f1b7a803bb3c5a","4","null","null","true","","","","","","","null","<div style=""font-size:60px;"">+</div>","null","fixation","","","","","","","","","","","","","91","","",""
"revaluation","240","1522750","0.0-4.0-2.0-0.46","pilot_wm_v1","65e862f844f1b7a803bb3c5a","4","null","null","true","","false","","","","","[787.7000000029802,687]","./assets/img/canyon/memory/12.jpg","[""ArrowUp"",""ArrowLeft""]","value training","canyon","26","{""ArrowUp,ArrowLeft"":26,""ArrowUp,ArrowRight"":10,""ArrowDown,ArrowLeft"":5,""ArrowDown,ArrowRight"":17}","true","ArrowUp,ArrowLeft","false","","","","","","","92","revaluation","1",""
"html-keyboard-response","241","1523260","0.0-4.0-2.0-1.46","pilot_wm_v1","65e862f844f1b7a803bb3c5a","4","null","null","true","","","","","","","null","<div style=""font-size:60px;"">+</div>","null","fixation","","","","","","","","","","","","","93","","",""
"revaluation","242","1527275","0.0-4.0-2.0-0.47","pilot_wm_v1","65e862f844f1b7a803bb3c5a","4","null","null","true","","false","","","","","[672.3999999910593]","./assets/img/canyon/catch/2.jpg","[""ArrowUp""]","value training","canyon","-10","{""ArrowUp,ArrowLeft"":26,""ArrowUp,ArrowRight"":10,""ArrowDown,ArrowLeft"":5,""ArrowDown,ArrowRight"":17}","false","ArrowUp","true","","","","","","","94","revaluation","1",""
"html-keyboard-response","243","1527783","0.0-4.0-2.0-1.47","pilot_wm_v1","65e862f844f1b7a803bb3c5a","4","null","null","true","","","","","","","null","<div style=""font-size:60px;"">+</div>","null","fixation","","","","","","","","","","","","","95","","",""
"revaluation","244","1533806","0.0-4.0-2.0-0.48","pilot_wm_v1","65e862f844f1b7a803bb3c5a","4","null","null","true","","false","","","","","[1056.0999999940395,599.3000000119209]","./assets/img/canyon/memory/23.jpg","[""ArrowUp"",""ArrowLeft""]","value training","canyon","26","{""ArrowUp,ArrowLeft"":26,""ArrowUp,ArrowRight"":10,""ArrowDown,ArrowLeft"":5,""ArrowDown,ArrowRight"":17}","true","ArrowUp,ArrowLeft","false","","","","","","","96","revaluation","1",""
"html-keyboard-response","245","1534317","0.0-4.0-2.0-1.48","pilot_wm_v1","65e862f844f1b7a803bb3c5a","4","null","null","true","","","","","","","null","<div style=""font-size:60px;"">+</div>","null","fixation","","","","","","","","","","","","","97","","",""
"revaluation","246","1540330","0.0-4.0-2.0-0.49","pilot_wm_v1","65e862f844f1b7a803bb3c5a","4","null","null","true","","false","","","","","[750.0999999940395,575]","./assets/img/canyon/memory/4.jpg","[""ArrowUp"",""ArrowLeft""]","value training","canyon","26","{""ArrowUp,ArrowLeft"":26,""ArrowUp,ArrowRight"":10,""ArrowDown,ArrowLeft"":5,""ArrowDown,ArrowRight"":17}","true","ArrowUp,ArrowLeft","false","","","","","","","98","revaluation","1",""
"html-keyboard-response","247","1540837","0.0-4.0-2.0-1.49","pilot_wm_v1","65e862f844f1b7a803bb3c5a","4","null","null","true","","","","","","","null","<div style=""font-size:60px;"">+</div>","null","fixation","","","","","","","","","","","","","99","","",""
"learning-instructions","248","1556160","0.0-4.0-3.0-0.0","pilot_wm_v1","65e862f844f1b7a803bb3c5a","4","null","null","true","","","","","","","2100.2999999970198","<p> Now, you will travel with a friend who will choose whether you go up or down first. </p>
            <p> On these turns, you will just see the animal that they found. You will still get to choose which chest to search for treasure.</p>","","instructions","","","","","","","","","","","","","","","",""
"learning-instructions","249","1569289","0.0-4.0-3.0-0.1","pilot_wm_v1","65e862f844f1b7a803bb3c5a","4","null","null","true","","","","","","","1519.1000000089407","<p> In this part, you will also hear beeps from your friend and see special treasure chests that need a password. </p>
            <p> Do your best to count the high beeps <b>and</b> choose between each animals' chests at the same time.</p>
            <img src='./assets/img/instructions/beep_chest.jpg' class='instructions-image'>","","instructions","","","","","","","","","","","","","","","",""
"revaluation","250","1573327","0.0-4.0-4.0-0.0","pilot_wm_v1","65e862f844f1b7a803bb3c5a","4","null","null","true","","true","","","","","[]","./assets/img/canyon/animals/giraffe.jpg","[]","revaluation","canyon","-5","{""ArrowUp,ArrowLeft"":2,""ArrowUp,ArrowRight"":11,""ArrowDown,ArrowLeft"":8,""ArrowDown,ArrowRight"":27}","false","ArrowUp","","3_0","","","","","","0","revaluation","1",""
"html-keyboard-response","251","1573855","0.0-4.0-4.0-1.0","pilot_wm_v1","65e862f844f1b7a803bb3c5a","4","null","null","true","","","","","","","null","<div style=""font-size:60px;"">+</div>","null","fixation","","","","","","","","","","","","","","","",""
"revaluation","252","1577898","0.0-4.0-4.0-0.1","pilot_wm_v1","65e862f844f1b7a803bb3c5a","4","null","null","true","","false","","","","","[761.1000000089407]","./assets/img/canyon/animals/lion.jpg","[""ArrowLeft""]","revaluation","canyon","8","{""ArrowUp,ArrowLeft"":2,""ArrowUp,ArrowRight"":11,""ArrowDown,ArrowLeft"":8,""ArrowDown,ArrowRight"":27}","false","ArrowDown,ArrowLeft","","12_2","","","","","","1","revaluation","1",""
"html-keyboard-response","253","1578416","0.0-4.0-4.0-1.1","pilot_wm_v1","65e862f844f1b7a803bb3c5a","4","null","null","true","","","","","","","null","<div style=""font-size:60px;"">+</div>","null","fixation","","","","","","","","","","","","","","","",""
"revaluation","254","1582468","0.0-4.0-4.0-0.2","pilot_wm_v1","65e862f844f1b7a803bb3c5a","4","null","null","true","","false","","","","","[914.1999999880791]","./assets/img/canyon/animals/lion.jpg","[""ArrowLeft""]","revaluation","canyon","8","{""ArrowUp,ArrowLeft"":2,""ArrowUp,ArrowRight"":11,""ArrowDown,ArrowLeft"":8,""ArrowDown,ArrowRight"":27}","false","ArrowDown,ArrowLeft","","17_1","","","","","","2","revaluation","1",""
"html-keyboard-response","255","1582986","0.0-4.0-4.0-1.2","pilot_wm_v1","65e862f844f1b7a803bb3c5a","4","null","null","true","","","","","","","null","<div style=""font-size:60px;"">+</div>","null","fixation","","","","","","","","","","","","","","","",""
"revaluation","256","1587003","0.0-4.0-4.0-0.3","pilot_wm_v1","65e862f844f1b7a803bb3c5a","4","null","null","true","","false","","","","","[1099.4000000059605]","./assets/img/canyon/animals/giraffe.jpg","[""ArrowRight""]","revaluation","canyon","11","{""ArrowUp,ArrowLeft"":2,""ArrowUp,ArrowRight"":11,""ArrowDown,ArrowLeft"":8,""ArrowDown,ArrowRight"":27}","true","ArrowUp,ArrowRight","","9_2","","","","","","3","revaluation","1",""
"html-keyboard-response","257","1587506","0.0-4.0-4.0-1.3","pilot_wm_v1","65e862f844f1b7a803bb3c5a","4","null","null","true","","","","","","","null","<div style=""font-size:60px;"">+</div>","null","fixation","","","","","","","","","","","","","","","",""
"html-slider-response","258","1592084","0.0-4.0-4.0-2.3-0.3","pilot_wm_v1","65e862f844f1b7a803bb3c5a","4","null","null","true","","","","","","","4576","<div style=""width:500px;"">
        <p>What is the password?</p>
        <img src='./assets/img/instructions/beep_chest.jpg' class='instructions-image'>","5","beep chest","","","","true","","","","50","5","0","","","","","",""
"revaluation","259","1596127","0.0-4.0-4.0-0.4","pilot_wm_v1","65e862f844f1b7a803bb3c5a","4","null","null","true","","false","","","","","[1801.4000000059605]","./assets/img/canyon/animals/giraffe.jpg","[""ArrowLeft""]","revaluation","canyon","2","{""ArrowUp,ArrowLeft"":2,""ArrowUp,ArrowRight"":11,""ArrowDown,ArrowLeft"":8,""ArrowDown,ArrowRight"":27}","false","ArrowUp,ArrowLeft","","6_3","","","","","","4","revaluation","1",""
"html-keyboard-response","260","1596641","0.0-4.0-4.0-1.4","pilot_wm_v1","65e862f844f1b7a803bb3c5a","4","null","null","true","","","","","","","null","<div style=""font-size:60px;"">+</div>","null","fixation","","","","","","","","","","","","","","","",""
"revaluation","261","1600668","0.0-4.0-4.0-0.5","pilot_wm_v1","65e862f844f1b7a803bb3c5a","4","null","null","true","","true","","","","","[]","./assets/img/canyon/animals/giraffe.jpg","[]","revaluation","canyon","-5","{""ArrowUp,ArrowLeft"":2,""ArrowUp,ArrowRight"":11,""ArrowDown,ArrowLeft"":8,""ArrowDown,ArrowRight"":27}","false","ArrowUp","","1_4","","","","","","5","revaluation","1",""
"html-keyboard-response","262","1601176","0.0-4.0-4.0-1.5","pilot_wm_v1","65e862f844f1b7a803bb3c5a","4","null","null","true","","","","","","","null","<div style=""font-size:60px;"">+</div>","null","fixation","","","","","","","","","","","","","","","",""
"revaluation","263","1605198","0.0-4.0-4.0-0.6","pilot_wm_v1","65e862f844f1b7a803bb3c5a","4","null","null","true","","false","","","","","[470.79999999701977]","./assets/img/canyon/animals/giraffe.jpg","[""ArrowRight""]","revaluation","canyon","11","{""ArrowUp,ArrowLeft"":2,""ArrowUp,ArrowRight"":11,""ArrowDown,ArrowLeft"":8,""ArrowDown,ArrowRight"":27}","true","ArrowUp,ArrowRight","","8_2","","","","","","6","revaluation","1",""
"html-keyboard-response","264","1605706","0.0-4.0-4.0-1.6","pilot_wm_v1","65e862f844f1b7a803bb3c5a","4","null","null","true","","","","","","","null","<div style=""font-size:60px;"">+</div>","null","fixation","","","","","","","","","","","","","","","",""
"revaluation","265","1609727","0.0-4.0-4.0-0.7","pilot_wm_v1","65e862f844f1b7a803bb3c5a","4","null","null","true","","false","","","","","[1070.8999999910593]","./assets/img/canyon/animals/lion.jpg","[""ArrowRight""]","revaluation","canyon","27","{""ArrowUp,ArrowLeft"":2,""ArrowUp,ArrowRight"":11,""ArrowDown,ArrowLeft"":8,""ArrowDown,ArrowRight"":27}","true","ArrowDown,ArrowRight","","10_3","","","","","","7","revaluation","1",""
"html-keyboard-response","266","1610236","0.0-4.0-4.0-1.7","pilot_wm_v1","65e862f844f1b7a803bb3c5a","4","null","null","true","","","","","","","null","<div style=""font-size:60px;"">+</div>","null","fixation","","","","","","","","","","","","","","","",""
"html-slider-response","267","1614784","0.0-4.0-4.0-2.7-0.7","pilot_wm_v1","65e862f844f1b7a803bb3c5a","4","null","null","true","","","","","","","4547","<div style=""width:500px;"">
        <p>What is the password?</p>
        <img src='./assets/img/instructions/beep_chest.jpg' class='instructions-image'>","8","beep chest","","","","false","","","","50","12","4","","","","","",""
"revaluation","268","1618805","0.0-4.0-4.0-0.8","pilot_wm_v1","65e862f844f1b7a803bb3c5a","4","null","null","true","","true","","","","","[]","./assets/img/canyon/animals/lion.jpg","[]","revaluation","canyon","-5","{""ArrowUp,ArrowLeft"":2,""ArrowUp,ArrowRight"":11,""ArrowDown,ArrowLeft"":8,""ArrowDown,ArrowRight"":27}","false","ArrowDown","","18_0","","","","","","8","revaluation","1",""
"html-keyboard-response","269","1619314","0.0-4.0-4.0-1.8","pilot_wm_v1","65e862f844f1b7a803bb3c5a","4","null","null","true","","","","","","","null","<div style=""font-size:60px;"">+</div>","null","fixation","","","","","","","","","","","","","","","",""
"revaluation","270","1623345","0.0-4.0-4.0-0.9","pilot_wm_v1","65e862f844f1b7a803bb3c5a","4","null","null","true","","false","","","","","[413.6000000089407]","./assets/img/canyon/animals/giraffe.jpg","[""ArrowRight""]","revaluation","canyon","11","{""ArrowUp,ArrowLeft"":2,""ArrowUp,ArrowRight"":11,""ArrowDown,ArrowLeft"":8,""ArrowDown,ArrowRight"":27}","true","ArrowUp,ArrowRight","","2_1","","","","","","9","revaluation","1",""
"html-keyboard-response","271","1623854","0.0-4.0-4.0-1.9","pilot_wm_v1","65e862f844f1b7a803bb3c5a","4","null","null","true","","","","","","","null","<div style=""font-size:60px;"">+</div>","null","fixation","","","","","","","","","","","","","","","",""
"revaluation","272","1627876","0.0-4.0-4.0-0.10","pilot_wm_v1","65e862f844f1b7a803bb3c5a","4","null","null","true","","false","","","","","[687.3000000119209]","./assets/img/canyon/animals/lion.jpg","[""ArrowRight""]","revaluation","canyon","27","{""ArrowUp,ArrowLeft"":2,""ArrowUp,ArrowRight"":11,""ArrowDown,ArrowLeft"":8,""ArrowDown,ArrowRight"":27}","true","ArrowDown,ArrowRight","","13_2","","","","","","10","revaluation","1",""
"html-keyboard-response","273","1628394","0.0-4.0-4.0-1.10","pilot_wm_v1","65e862f844f1b7a803bb3c5a","4","null","null","true","","","","","","","null","<div style=""font-size:60px;"">+</div>","null","fixation","","","","","","","","","","","","","","","",""
"revaluation","274","1632426","0.0-4.0-4.0-0.11","pilot_wm_v1","65e862f844f1b7a803bb3c5a","4","null","null","true","","false","","","","","[1667.7000000029802]","./assets/img/canyon/animals/lion.jpg","[""ArrowRight""]","revaluation","canyon","27","{""ArrowUp,ArrowLeft"":2,""ArrowUp,ArrowRight"":11,""ArrowDown,ArrowLeft"":8,""ArrowDown,ArrowRight"":27}","true","ArrowDown,ArrowRight","","15_0","","","","","","11","revaluation","1",""
"html-keyboard-response","275","1632944","0.0-4.0-4.0-1.11","pilot_wm_v1","65e862f844f1b7a803bb3c5a","4","null","null","true","","","","","","","null","<div style=""font-size:60px;"">+</div>","null","fixation","","","","","","","","","","","","","","","",""
"html-slider-response","276","1640156","0.0-4.0-4.0-2.11-0.11","pilot_wm_v1","65e862f844f1b7a803bb3c5a","4","null","null","true","","","","","","","7209","<div style=""width:500px;"">
        <p>What is the password?</p>
        <img src='./assets/img/instructions/beep_chest.jpg' class='instructions-image'>","3","beep chest","","","","true","","","","50","3","0","","","","","",""
"revaluation","277","1644186","0.0-4.0-4.0-0.12","pilot_wm_v1","65e862f844f1b7a803bb3c5a","4","null","null","true","","false","","","","","[1387.7000000029802]","./assets/img/canyon/animals/lion.jpg","[""ArrowLeft""]","revaluation","canyon","8","{""ArrowUp,ArrowLeft"":2,""ArrowUp,ArrowRight"":11,""ArrowDown,ArrowLeft"":8,""ArrowDown,ArrowRight"":27}","false","ArrowDown,ArrowLeft","","11_4","","","","","","12","revaluation","1",""
"html-keyboard-response","278","1644694","0.0-4.0-4.0-1.12","pilot_wm_v1","65e862f844f1b7a803bb3c5a","4","null","null","true","","","","","","","null","<div style=""font-size:60px;"">+</div>","null","fixation","","","","","","","","","","","","","","","",""
"revaluation","279","1648726","0.0-4.0-4.0-0.13","pilot_wm_v1","65e862f844f1b7a803bb3c5a","4","null","null","true","","true","","","","","[]","./assets/img/canyon/animals/lion.jpg","[]","revaluation","canyon","-5","{""ArrowUp,ArrowLeft"":2,""ArrowUp,ArrowRight"":11,""ArrowDown,ArrowLeft"":8,""ArrowDown,ArrowRight"":27}","false","ArrowDown","","16_0","","","","","","13","revaluation","1",""
"html-keyboard-response","280","1649234","0.0-4.0-4.0-1.13","pilot_wm_v1","65e862f844f1b7a803bb3c5a","4","null","null","true","","","","","","","null","<div style=""font-size:60px;"">+</div>","null","fixation","","","","","","","","","","","","","","","",""
