"trial_type","trial_index","time_elapsed","internal_node_id","task_version","subject_id","assigned_condition","age","gender","rest","success","timeout","failed_images","failed_audio","failed_video","browser_interaction","rt","stimulus","response","task_part","environment","score","rewardMap","correct","fullState","isCatch","audioStim","slider_start","answer","error","trial_num","condition","order","bonus"
"pavlovia","0","1178","0.0-0.0","pilot_wm_v1","65f5a84b838dcc1ac14602f2","5","null","null","false","","","","","","","","","","","","","","","","","","","","","","","",""
"preload","1","6729","0.0-1.0","pilot_wm_v1","65f5a84b838dcc1ac14602f2","5","null","null","false","true","false","[]","[]","[]","[{""event"":""fullscreenenter"",""trial"":2,""time"":18253}]","","","","","","","","","","","","","","","","","",""
"fullscreen","2","19223","0.0-2.0","pilot_wm_v1","65f5a84b838dcc1ac14602f2","5","null","null","false","true","","","","","","","","","","","","","","","","","","","","","","",""
"audio-button-response","3","20905","0.0-3.0-0.0-0.0","pilot_wm_v1","65f5a84b838dcc1ac14602f2","5","null","null","false","","","","","","","1501","./assets/audio/audiotest/turtle.mp3","2","audio_test","","","","","","","","","","","","","",""
"learning-instructions","4","32251","0.0-3.0-1.0-0.0","pilot_wm_v1","65f5a84b838dcc1ac14602f2","5","null","null","false","","","","","","","4362.899999976158","<p> Welcome! Please remember to stay in fullscreen mode and don't click away from the experiment. </p>","","instructions","","","","","","","","","","","","","",""
"learning-instructions","5","45802","0.0-3.0-1.0-0.1","pilot_wm_v1","65f5a84b838dcc1ac14602f2","5","null","null","false","","","","","","","5145.700000047684","<p> Today you will be playing a game to earn treasure. </p>
            <p> At the end of the experiment, you will earn a bonus based on how much treasure you find. </p>
            <img src='./assets/img/instructions/treasure.jpg' class='instructions-image'>","","instructions","","","","","","","","","","","","","",""
"learning-instructions","6","55291","0.0-3.0-1.0-0.2","pilot_wm_v1","65f5a84b838dcc1ac14602f2","5","null","null","false","","","","","","","1225.1000000238419","<p> Animals have hidden treasure in treasure chests. </p>
            <p> You need to first find an animal and then choose which of their treasure chests to search. </p>
            <img src='./assets/img/space/animals/cat.jpg' class='instructions-image'>","","instructions","","","","","","","","","","","","","",""
"learning-instructions","7","73821","0.0-3.0-1.0-0.3","pilot_wm_v1","65f5a84b838dcc1ac14602f2","5","null","null","false","","","","","","","5395.899999976158","<p> In each round, you will search for treasure in a different place. In the real game, there will be two rounds. </p>
            <p> You will begin with a separate, practice round where you will search for treasure in outer space. </p>
            <img src='./assets/img/space/0.jpg' class='instructions-image'>","","instructions","","","","","","","","","","","","","",""
"learning-instructions","8","86971","0.0-3.0-1.0-0.4","pilot_wm_v1","65f5a84b838dcc1ac14602f2","5","null","null","false","","","","","","","1745","<p> On every turn, you will see a picture of the place that you are in, but the specific image may be different each time. </p>
            <p> For example, both of these images mean you are in outer space. </p>
            <img src='./assets/img/instructions/outerspace.jpg' class='instructions-image'>","","instructions","","","","","","","","","","","","","",""
"learning-instructions","9","96176","0.0-3.0-1.0-0.5","pilot_wm_v1","65f5a84b838dcc1ac14602f2","5","null","null","false","","","","","","","1389.8999999761581","<p> You need to decide which direction to travel in. </p>
            <p> You can choose between going <b>up or down</b> by using the arrow keys. </p>
            <img src='./assets/img/instructions/updown.jpg' class='instructions-image'>","","instructions","","","","","","","","","","","","","",""
"learning-instructions","10","106626","0.0-3.0-1.0-0.6","pilot_wm_v1","65f5a84b838dcc1ac14602f2","5","null","null","false","","","","","","","1650.3999999761581","<p> You will have <b>2 seconds</b> to make your choice. </p>
            <p> If you do not make a choice within 2 seconds, you will not find an animal or earn treasure. </p>
            <img src='./assets/img/instructions/2seconds.jpg' class='instructions-image'>","","instructions","","","","","","","","","","","","","",""
"learning-instructions","11","115944","0.0-3.0-1.0-0.7","pilot_wm_v1","65f5a84b838dcc1ac14602f2","5","null","null","false","","","","","","","2287.6999999284744","<p> Let’s try practicing that now! </p>
            <p> When you see a picture of the place you are in, press the <b>up</b> key to travel up. </p>
            <img src='./assets/img/instructions/pressUp.jpg' class='instructions-image'>","","instructions","","","","","","","","","","","","","",""
"revaluation","12","119975","0.0-3.0-2.0-0.0","pilot_wm_v1","65f5a84b838dcc1ac14602f2","5","null","null","false","","false","","","","","[890]","./assets/img/space/0.jpg","[""ArrowUp""]","first stage practice","space","0","null","null","ArrowUp","false","","","","","","","",""
"html-keyboard-response","13","120478","0.0-3.0-2.0-1.0","pilot_wm_v1","65f5a84b838dcc1ac14602f2","5","null","null","false","","","","","","","null","<div style=""font-size:60px;"">+</div>","null","fixation","","","","","","","","","","","","","",""
"revaluation","14","124496","0.0-3.0-2.0-0.1","pilot_wm_v1","65f5a84b838dcc1ac14602f2","5","null","null","false","","true","","","","","[]","./assets/img/space/1.jpg","[]","first stage practice","space","-5","null","null","","false","","","","","","","",""
"html-keyboard-response","15","125007","0.0-3.0-2.0-1.1","pilot_wm_v1","65f5a84b838dcc1ac14602f2","5","null","null","false","","","","","","","null","<div style=""font-size:60px;"">+</div>","null","fixation","","","","","","","","","","","","","",""
"revaluation","16","129029","0.0-3.0-2.0-0.2","pilot_wm_v1","65f5a84b838dcc1ac14602f2","5","null","null","false","","false","","","","","[506.39999997615814]","./assets/img/space/2.jpg","[""ArrowUp""]","first stage practice","space","0","null","null","ArrowUp","false","","","","","","","",""
"html-keyboard-response","17","129535","0.0-3.0-2.0-1.2","pilot_wm_v1","65f5a84b838dcc1ac14602f2","5","null","null","false","","","","","","","null","<div style=""font-size:60px;"">+</div>","null","fixation","","","","","","","","","","","","","",""
"learning-instructions","18","135462","0.0-3.0-3.0-0.0","pilot_wm_v1","65f5a84b838dcc1ac14602f2","5","null","null","false","","","","","","","1227","<p> Great job! Now try pressing the <b>down</b> key to travel down. </p>
            <img src='./assets/img/instructions/pressDown.jpg' class='instructions-image'>","","instructions","","","","","","","","","","","","","",""
"revaluation","19","139479","0.0-3.0-4.0-0.0","pilot_wm_v1","65f5a84b838dcc1ac14602f2","5","null","null","false","","false","","","","","[338.39999997615814]","./assets/img/space/3.jpg","[""ArrowDown""]","first stage practice","space","0","null","null","ArrowDown","false","","","","","","","",""
"html-keyboard-response","20","139985","0.0-3.0-4.0-1.0","pilot_wm_v1","65f5a84b838dcc1ac14602f2","5","null","null","false","","","","","","","null","<div style=""font-size:60px;"">+</div>","null","fixation","","","","","","","","","","","","","",""
"revaluation","21","144008","0.0-3.0-4.0-0.1","pilot_wm_v1","65f5a84b838dcc1ac14602f2","5","null","null","false","","false","","","","","[753.8000000715256]","./assets/img/space/4.jpg","[""ArrowDown""]","first stage practice","space","0","null","null","ArrowDown","false","","","","","","","",""
"html-keyboard-response","22","144511","0.0-3.0-4.0-1.1","pilot_wm_v1","65f5a84b838dcc1ac14602f2","5","null","null","false","","","","","","","null","<div style=""font-size:60px;"">+</div>","null","fixation","","","","","","","","","","","","","",""
"revaluation","23","148537","0.0-3.0-4.0-0.2","pilot_wm_v1","65f5a84b838dcc1ac14602f2","5","null","null","false","","false","","","","","[821]","./assets/img/space/5.jpg","[""ArrowDown""]","first stage practice","space","0","null","null","ArrowDown","false","","","","","","","",""
"html-keyboard-response","24","149039","0.0-3.0-4.0-1.2","pilot_wm_v1","65f5a84b838dcc1ac14602f2","5","null","null","false","","","","","","","null","<div style=""font-size:60px;"">+</div>","null","fixation","","","","","","","","","","","","","",""
"learning-instructions","25","159616","0.0-3.0-5.0-0.0","pilot_wm_v1","65f5a84b838dcc1ac14602f2","5","null","null","false","","","","","","","721.0999999046326","<p> The animals don’t move, so the animal in the upper part of a place will stay in the upper part of a place, and the animal in the lower part of a place will stay in the lower part of a place. </p>","","instructions","","","","","","","","","","","","","",""
"learning-instructions","26","172444","0.0-3.0-5.0-0.1","pilot_wm_v1","65f5a84b838dcc1ac14602f2","5","null","null","false","","","","","","","3708.600000023842","<p> Each animal has two treasure chests for you to choose from. </p>
            <p> The amount of treasure in each chest can range from <b> 0 to 40 pieces.</b></p>","","instructions","","","","","","","","","","","","","",""
"learning-instructions","27","184904","0.0-3.0-5.0-0.2","pilot_wm_v1","65f5a84b838dcc1ac14602f2","5","null","null","false","","","","","","","1279.1000000238419","<p> You should decide which chest to search for treasure by using the <b>left</b> and <b>right</b> arrow keys. </p>
            <p><b> Pay attention to which animal is on the screen, as the animals have different treasure chests. </b></p>
            <img src='./assets/img/instructions/leftright.jpg' class='instructions-image'>","","instructions","","","","","","","","","","","","","",""
"learning-instructions","28","193126","0.0-3.0-5.0-0.3","pilot_wm_v1","65f5a84b838dcc1ac14602f2","5","null","null","false","","","","","","","1861.1000000238419","<p> Let’s try practicing that now. </p>
            <p> When you see an animal, choose which chest to search for treasure. </p>
            <img src='./assets/img/instructions/chooseChest.jpg' class='instructions-image'>","","instructions","","","","","","","","","","","","","",""
"revaluation","29","197147","0.0-3.0-6.0-0.0","pilot_wm_v1","65f5a84b838dcc1ac14602f2","5","null","null","false","","false","","","","","[855.3000000715256]","./assets/img/space/animals/cat.jpg","[""ArrowLeft""]","second stage practice","space","3","{""ArrowUp,ArrowLeft"":3,""ArrowUp,ArrowRight"":36,""ArrowDown,ArrowLeft"":15,""ArrowDown,ArrowRight"":23}","false","ArrowUp,ArrowLeft","","","","","","","","",""
"html-keyboard-response","30","197662","0.0-3.0-6.0-1.0","pilot_wm_v1","65f5a84b838dcc1ac14602f2","5","null","null","false","","","","","","","null","<div style=""font-size:60px;"">+</div>","null","fixation","","","","","","","","","","","","","",""
"revaluation","31","201694","0.0-3.0-6.0-0.1","pilot_wm_v1","65f5a84b838dcc1ac14602f2","5","null","null","false","","false","","","","","[1128.4000000953674]","./assets/img/space/animals/rabbit.jpg","[""ArrowRight""]","second stage practice","space","23","{""ArrowUp,ArrowLeft"":3,""ArrowUp,ArrowRight"":36,""ArrowDown,ArrowLeft"":15,""ArrowDown,ArrowRight"":23}","true","ArrowDown,ArrowRight","","","","","","","","",""
"html-keyboard-response","32","202198","0.0-3.0-6.0-1.1","pilot_wm_v1","65f5a84b838dcc1ac14602f2","5","null","null","false","","","","","","","null","<div style=""font-size:60px;"">+</div>","null","fixation","","","","","","","","","","","","","",""
"revaluation","33","206223","0.0-3.0-6.0-0.2","pilot_wm_v1","65f5a84b838dcc1ac14602f2","5","null","null","false","","false","","","","","[1151.9000000953674]","./assets/img/space/animals/cat.jpg","[""ArrowRight""]","second stage practice","space","36","{""ArrowUp,ArrowLeft"":3,""ArrowUp,ArrowRight"":36,""ArrowDown,ArrowLeft"":15,""ArrowDown,ArrowRight"":23}","true","ArrowUp,ArrowRight","","","","","","","","",""
"html-keyboard-response","34","206727","0.0-3.0-6.0-1.2","pilot_wm_v1","65f5a84b838dcc1ac14602f2","5","null","null","false","","","","","","","null","<div style=""font-size:60px;"">+</div>","null","fixation","","","","","","","","","","","","","",""
"revaluation","35","210742","0.0-3.0-6.0-0.3","pilot_wm_v1","65f5a84b838dcc1ac14602f2","5","null","null","false","","false","","","","","[951.8999999761581]","./assets/img/space/animals/rabbit.jpg","[""ArrowLeft""]","second stage practice","space","15","{""ArrowUp,ArrowLeft"":3,""ArrowUp,ArrowRight"":36,""ArrowDown,ArrowLeft"":15,""ArrowDown,ArrowRight"":23}","false","ArrowDown,ArrowLeft","","","","","","","","",""
"html-keyboard-response","36","211247","0.0-3.0-6.0-1.3","pilot_wm_v1","65f5a84b838dcc1ac14602f2","5","null","null","false","","","","","","","null","<div style=""font-size:60px;"">+</div>","null","fixation","","","","","","","","","","","","","",""
"learning-instructions","37","229763","0.0-3.0-7.0-0.0","pilot_wm_v1","65f5a84b838dcc1ac14602f2","5","null","null","false","","","","","","","1718.1000000238419","<p> Great job. Now let’s try putting it together. </p>
            <p> On each turn, you will first see a picture to remind you of the place you are in, and you need to choose whether to go up or down. </p>
            <p> Then you will see an animal and choose which of its chests to search for treasure. </p>","","instructions","","","","","","","","","","","","","",""
"learning-instructions","38","239136","0.0-3.0-7.0-0.1","pilot_wm_v1","65f5a84b838dcc1ac14602f2","5","null","null","false","","","","","","","1121.7999999523163","<p> When you choose whether to go up or down, try to go to the animal with the chest with the most treasure. </p>
            <p> Try practicing that now! </p>","","instructions","","","","","","","","","","","","","",""
"revaluation","39","245162","0.0-3.0-8.0-0.0","pilot_wm_v1","65f5a84b838dcc1ac14602f2","5","null","null","false","","false","","","","","[487.89999997615814,454.2000000476837]","./assets/img/space/6.jpg","[""ArrowDown"",""ArrowRight""]","full practice","space","23","{""ArrowUp,ArrowLeft"":3,""ArrowUp,ArrowRight"":36,""ArrowDown,ArrowLeft"":15,""ArrowDown,ArrowRight"":23}","false","ArrowDown,ArrowRight","false","","","","","","","",""
"html-keyboard-response","40","245679","0.0-3.0-8.0-1.0","pilot_wm_v1","65f5a84b838dcc1ac14602f2","5","null","null","false","","","","","","","null","<div style=""font-size:60px;"">+</div>","null","fixation","","","","","","","","","","","","","",""
"revaluation","41","251714","0.0-3.0-8.0-0.1","pilot_wm_v1","65f5a84b838dcc1ac14602f2","5","null","null","false","","false","","","","","[371.3000000715256,314]","./assets/img/space/7.jpg","[""ArrowDown"",""ArrowLeft""]","full practice","space","15","{""ArrowUp,ArrowLeft"":3,""ArrowUp,ArrowRight"":36,""ArrowDown,ArrowLeft"":15,""ArrowDown,ArrowRight"":23}","false","ArrowDown,ArrowLeft","false","","","","","","","",""
"html-keyboard-response","42","252219","0.0-3.0-8.0-1.1","pilot_wm_v1","65f5a84b838dcc1ac14602f2","5","null","null","false","","","","","","","null","<div style=""font-size:60px;"">+</div>","null","fixation","","","","","","","","","","","","","",""
"revaluation","43","258253","0.0-3.0-8.0-0.2","pilot_wm_v1","65f5a84b838dcc1ac14602f2","5","null","null","false","","false","","","","","[476.8000000715256,356.89999997615814]","./assets/img/space/8.jpg","[""ArrowUp"",""ArrowRight""]","full practice","space","36","{""ArrowUp,ArrowLeft"":3,""ArrowUp,ArrowRight"":36,""ArrowDown,ArrowLeft"":15,""ArrowDown,ArrowRight"":23}","true","ArrowUp,ArrowRight","false","","","","","","","",""
"html-keyboard-response","44","258762","0.0-3.0-8.0-1.2","pilot_wm_v1","65f5a84b838dcc1ac14602f2","5","null","null","false","","","","","","","null","<div style=""font-size:60px;"">+</div>","null","fixation","","","","","","","","","","","","","",""
"revaluation","45","264802","0.0-3.0-8.0-0.3","pilot_wm_v1","65f5a84b838dcc1ac14602f2","5","null","null","false","","false","","","","","[356.7999999523163,314.6999999284744]","./assets/img/space/9.jpg","[""ArrowDown"",""ArrowRight""]","full practice","space","23","{""ArrowUp,ArrowLeft"":3,""ArrowUp,ArrowRight"":36,""ArrowDown,ArrowLeft"":15,""ArrowDown,ArrowRight"":23}","false","ArrowDown,ArrowRight","false","","","","","","","",""
"html-keyboard-response","46","265312","0.0-3.0-8.0-1.3","pilot_wm_v1","65f5a84b838dcc1ac14602f2","5","null","null","false","","","","","","","null","<div style=""font-size:60px;"">+</div>","null","fixation","","","","","","","","","","","","","",""
"revaluation","47","271339","0.0-3.0-8.0-0.4","pilot_wm_v1","65f5a84b838dcc1ac14602f2","5","null","null","false","","false","","","","","[568.3999999761581,340.5]","./assets/img/space/10.jpg","[""ArrowUp"",""ArrowLeft""]","full practice","space","3","{""ArrowUp,ArrowLeft"":3,""ArrowUp,ArrowRight"":36,""ArrowDown,ArrowLeft"":15,""ArrowDown,ArrowRight"":23}","false","ArrowUp,ArrowLeft","false","","","","","","","",""
"html-keyboard-response","48","271844","0.0-3.0-8.0-1.4","pilot_wm_v1","65f5a84b838dcc1ac14602f2","5","null","null","false","","","","","","","null","<div style=""font-size:60px;"">+</div>","null","fixation","","","","","","","","","","","","","",""
"learning-instructions","49","284196","0.0-3.0-9.0-0.0","pilot_wm_v1","65f5a84b838dcc1ac14602f2","5","null","null","false","","","","","","","1891.3999999761581","<p> One last thing: sometimes, you will see a robber. The robber can be anywhere in the picture. </p>
            <p> If you do not stop them, you will lose treasure. </p>
            <img src='./assets/img/instructions/robber.jpg' class='instructions-image'>","","instructions","","","","","","","","","","","","","",""
"learning-instructions","50","291997","0.0-3.0-9.0-0.1","pilot_wm_v1","65f5a84b838dcc1ac14602f2","5","null","null","false","","","","","","","633.8999999761581","<p> If you see the robber, you should <b>press the space bar</b> rather than using the arrow keys. </p>
            <p> Try practicing that now! </p>","","instructions","","","","","","","","","","","","","",""
"revaluation","51","296018","0.0-3.0-10.0-0.0","pilot_wm_v1","65f5a84b838dcc1ac14602f2","5","null","null","false","","false","","","","","[829.1999999284744]","./assets/img/space/catch/0.jpg","[""spaceBar""]","catch practice","space","0","{""ArrowUp,ArrowLeft"":3,""ArrowUp,ArrowRight"":36,""ArrowDown,ArrowLeft"":15,""ArrowDown,ArrowRight"":23}","true","spaceBar","true","","","","","","","",""
"html-keyboard-response","52","296520","0.0-3.0-10.0-1.0","pilot_wm_v1","65f5a84b838dcc1ac14602f2","5","null","null","false","","","","","","","null","<div style=""font-size:60px;"">+</div>","null","fixation","","","","","","","","","","","","","",""
"revaluation","53","300546","0.0-3.0-10.0-0.1","pilot_wm_v1","65f5a84b838dcc1ac14602f2","5","null","null","false","","false","","","","","[487.89999997615814]","./assets/img/space/catch/1.jpg","[""spaceBar""]","catch practice","space","0","{""ArrowUp,ArrowLeft"":3,""ArrowUp,ArrowRight"":36,""ArrowDown,ArrowLeft"":15,""ArrowDown,ArrowRight"":23}","true","spaceBar","true","","","","","","","",""
"html-keyboard-response","54","301062","0.0-3.0-10.0-1.1","pilot_wm_v1","65f5a84b838dcc1ac14602f2","5","null","null","false","","","","","","","null","<div style=""font-size:60px;"">+</div>","null","fixation","","","","","","","","","","","","","",""
"revaluation","55","305083","0.0-3.0-10.0-0.2","pilot_wm_v1","65f5a84b838dcc1ac14602f2","5","null","null","false","","false","","","","","[413.60000002384186]","./assets/img/space/catch/2.jpg","[""spaceBar""]","catch practice","space","0","{""ArrowUp,ArrowLeft"":3,""ArrowUp,ArrowRight"":36,""ArrowDown,ArrowLeft"":15,""ArrowDown,ArrowRight"":23}","true","spaceBar","true","","","","","","","",""
"html-keyboard-response","56","305595","0.0-3.0-10.0-1.2","pilot_wm_v1","65f5a84b838dcc1ac14602f2","5","null","null","false","","","","","","","null","<div style=""font-size:60px;"">+</div>","null","fixation","","","","","","","","","","","","","",""
"learning-instructions","57","312799","0.0-3.0-11.0-0.0","pilot_wm_v1","65f5a84b838dcc1ac14602f2","5","null","null","false","","","","","","","1694.7999999523163","<p> Sometimes, you will come across a special kind of treasure chest that requires a password. </p>
            <img src='./assets/img/instructions/beep_chest.jpg' class='instructions-image'>","","instructions","","","","","","","","","","","","","",""
"learning-instructions","58","337126","0.0-3.0-11.0-0.1","pilot_wm_v1","65f5a84b838dcc1ac14602f2","5","null","null","false","","","","","","","2722","<p> Your friend will send you the password using a series of beeps so that you can open the chest and earn treasure. </p>
            <p> You will hear two kinds of beeps, a high beep and a low beep. </p>
            <p> You should report the number of high beeps that you heard before seeing the chest. </p>
            <img src='./assets/img/instructions/listen.jpg' class='instructions-image'>","","instructions","","","","","","","","","","","","","",""
"learning-instructions","59","361645","0.0-3.0-11.0-0.2","pilot_wm_v1","65f5a84b838dcc1ac14602f2","5","null","null","false","","","","","","","2239.7000000476837","<p> For example, if you hear this series of beeps, you should report 4 as the password using the slider. </p>
            <p> After reporting a password for a chest, you should count the high beeps again starting from 0. </p>
            <p> Let's try practicing that now. </p>","","instructions","","","","","","","","","","","","","",""
"audio-button-response","60","369674","0.0-3.0-12.0-0.0-0.0","pilot_wm_v1","65f5a84b838dcc1ac14602f2","5","null","null","false","","","","","","","null","./assets/audio/beeps/practice_6.wav","null","","","","","","","","","","","","","","",""
"html-slider-response","61","375631","0.0-3.0-12.0-0.0-1.0","pilot_wm_v1","65f5a84b838dcc1ac14602f2","5","null","null","false","","","","","","","5950","<div style=""width:500px;"">
        <p>What is the password?</p>
        <img src='./assets/img/instructions/beep_chest.jpg' class='instructions-image'>","6","beep chest","","","","false","","","","50","0","6","","","",""
"comp-q","62","382328","0.0-3.0-12.0-0.0-2.0","pilot_wm_v1","65f5a84b838dcc1ac14602f2","5","null","null","false","","","","","","","2469.5","<p>Correct! There were 6 high pitched beeps before you saw the chest. </p>","0","beep answer","","","","","","","","","","","","","",""
"audio-button-response","63","390364","0.0-3.0-12.0-0.1-0.1","pilot_wm_v1","65f5a84b838dcc1ac14602f2","5","null","null","false","","","","","","","null","./assets/audio/beeps/practice_4.wav","null","","","","","","","","","","","","","","",""
"html-slider-response","64","395654","0.0-3.0-12.0-0.1-1.1","pilot_wm_v1","65f5a84b838dcc1ac14602f2","5","null","null","false","","","","","","","5287","<div style=""width:500px;"">
        <p>What is the password?</p>
        <img src='./assets/img/instructions/beep_chest.jpg' class='instructions-image'>","4","beep chest","","","","false","","","","50","0","4","","","",""
"comp-q","65","401433","0.0-3.0-12.0-0.1-2.1","pilot_wm_v1","65f5a84b838dcc1ac14602f2","5","null","null","false","","","","","","","1599","<p>Correct! There were 4 high pitched beeps before you saw the chest. </p>","0","beep answer","","","","","","","","","","","","","",""
"learning-instructions","66","412996","0.0-3.0-13.0-0.0","pilot_wm_v1","65f5a84b838dcc1ac14602f2","5","null","null","false","","","","","","","1252.0999999046326","<p> Good job! In the real game we will not tell you if you entered the right password. </p>
            <p> Do your best, the treasure you earn from these chests will also give you extra bonus money. </p>","","instructions","","","","","","","","","","","","","",""
"learning-instructions","67","421376","0.0-3.0-15.0-0.0-0.0","pilot_wm_v1","65f5a84b838dcc1ac14602f2","5","null","null","false","","","","","","","3131.5","<p> Now, you will practice a shortened version of the game to get a sense of how it all fits together. </p>","","instructions","","","","","","","","","","","","","",""
"learning-instructions","68","427893","0.0-3.0-15.0-0.0-0.1","pilot_wm_v1","65f5a84b838dcc1ac14602f2","5","null","null","false","","","","","","","3328.4000000953674","<p>This time you are searching for treasure in outer space.</p>","","instructions","","","","","","","","","","","","","",""
"learning-instructions","69","445109","0.0-3.0-15.0-1.0-0.0","pilot_wm_v1","65f5a84b838dcc1ac14602f2","5","null","null","false","","","","","","","2454.0999999046326","<p> Remember, when you see a picture of the place, use the up and down keys to <b>find an animal</b>.</p>
            <p> When you encounter an animal, you should use the left and right keys to <b>select a treasure chest</b>.</p>
            <p> Don't forget to look out for the robber! </p>","","instructions","","","","","","","","","","","","","",""
"revaluation","70","451147","0.0-3.0-15.0-2.0-0.0","pilot_wm_v1","65f5a84b838dcc1ac14602f2","5","null","null","false","","false","","","","","[1114.1000000238419,498]","./assets/img/space/11.jpg","[""ArrowUp"",""ArrowRight""]","practice block","space","36","{""ArrowUp,ArrowLeft"":3,""ArrowUp,ArrowRight"":36,""ArrowDown,ArrowLeft"":15,""ArrowDown,ArrowRight"":23}","true","ArrowUp,ArrowRight","false","","","","","","","",""
"html-keyboard-response","71","451663","0.0-3.0-15.0-2.0-1.0","pilot_wm_v1","65f5a84b838dcc1ac14602f2","5","null","null","false","","","","","","","null","<div style=""font-size:60px;"">+</div>","null","fixation","","","","","","","","","","","","","",""
"revaluation","72","457683","0.0-3.0-15.0-2.0-0.1","pilot_wm_v1","65f5a84b838dcc1ac14602f2","5","null","null","false","","false","","","","","[1192.3999999761581,848.3999999761581]","./assets/img/space/12.jpg","[""ArrowDown"",""ArrowRight""]","practice block","space","23","{""ArrowUp,ArrowLeft"":3,""ArrowUp,ArrowRight"":36,""ArrowDown,ArrowLeft"":15,""ArrowDown,ArrowRight"":23}","false","ArrowDown,ArrowRight","false","","","","","","","",""
"html-keyboard-response","73","458187","0.0-3.0-15.0-2.0-1.1","pilot_wm_v1","65f5a84b838dcc1ac14602f2","5","null","null","false","","","","","","","null","<div style=""font-size:60px;"">+</div>","null","fixation","","","","","","","","","","","","","",""
"revaluation","74","464214","0.0-3.0-15.0-2.0-0.2","pilot_wm_v1","65f5a84b838dcc1ac14602f2","5","null","null","false","","false","","","","","[1061.6999999284744,302.5]","./assets/img/space/13.jpg","[""ArrowUp"",""ArrowRight""]","practice block","space","36","{""ArrowUp,ArrowLeft"":3,""ArrowUp,ArrowRight"":36,""ArrowDown,ArrowLeft"":15,""ArrowDown,ArrowRight"":23}","true","ArrowUp,ArrowRight","false","","","","","","","",""
"html-keyboard-response","75","464717","0.0-3.0-15.0-2.0-1.2","pilot_wm_v1","65f5a84b838dcc1ac14602f2","5","null","null","false","","","","","","","null","<div style=""font-size:60px;"">+</div>","null","fixation","","","","","","","","","","","","","",""
"revaluation","76","470741","0.0-3.0-15.0-2.0-0.3","pilot_wm_v1","65f5a84b838dcc1ac14602f2","5","null","null","false","","false","","","","","[811.6999999284744,435.7000000476837]","./assets/img/space/14.jpg","[""ArrowDown"",""ArrowRight""]","practice block","space","23","{""ArrowUp,ArrowLeft"":3,""ArrowUp,ArrowRight"":36,""ArrowDown,ArrowLeft"":15,""ArrowDown,ArrowRight"":23}","false","ArrowDown,ArrowRight","false","","","","","","","",""
"html-keyboard-response","77","471244","0.0-3.0-15.0-2.0-1.3","pilot_wm_v1","65f5a84b838dcc1ac14602f2","5","null","null","false","","","","","","","null","<div style=""font-size:60px;"">+</div>","null","fixation","","","","","","","","","","","","","",""
"revaluation","78","477277","0.0-3.0-15.0-2.0-0.4","pilot_wm_v1","65f5a84b838dcc1ac14602f2","5","null","null","false","","false","","","","","[993.8999999761581,319.59999990463257]","./assets/img/space/11.jpg","[""ArrowUp"",""ArrowRight""]","practice block","space","36","{""ArrowUp,ArrowLeft"":3,""ArrowUp,ArrowRight"":36,""ArrowDown,ArrowLeft"":15,""ArrowDown,ArrowRight"":23}","true","ArrowUp,ArrowRight","false","","","","","","","",""
"html-keyboard-response","79","477779","0.0-3.0-15.0-2.0-1.4","pilot_wm_v1","65f5a84b838dcc1ac14602f2","5","null","null","false","","","","","","","null","<div style=""font-size:60px;"">+</div>","null","fixation","","","","","","","","","","","","","",""
"revaluation","80","483809","0.0-3.0-15.0-2.0-0.5","pilot_wm_v1","65f5a84b838dcc1ac14602f2","5","null","null","false","","false","","","","","[995.2999999523163,318.3000000715256]","./assets/img/space/12.jpg","[""ArrowUp"",""ArrowRight""]","practice block","space","36","{""ArrowUp,ArrowLeft"":3,""ArrowUp,ArrowRight"":36,""ArrowDown,ArrowLeft"":15,""ArrowDown,ArrowRight"":23}","true","ArrowUp,ArrowRight","false","","","","","","","",""
"html-keyboard-response","81","484310","0.0-3.0-15.0-2.0-1.5","pilot_wm_v1","65f5a84b838dcc1ac14602f2","5","null","null","false","","","","","","","null","<div style=""font-size:60px;"">+</div>","null","fixation","","","","","","","","","","","","","",""
"revaluation","82","490336","0.0-3.0-15.0-2.0-0.6","pilot_wm_v1","65f5a84b838dcc1ac14602f2","5","null","null","false","","false","","","","","[915.2999999523163,387.2000000476837]","./assets/img/space/13.jpg","[""ArrowUp"",""ArrowRight""]","practice block","space","36","{""ArrowUp,ArrowLeft"":3,""ArrowUp,ArrowRight"":36,""ArrowDown,ArrowLeft"":15,""ArrowDown,ArrowRight"":23}","true","ArrowUp,ArrowRight","false","","","","","","","",""
"html-keyboard-response","83","490845","0.0-3.0-15.0-2.0-1.6","pilot_wm_v1","65f5a84b838dcc1ac14602f2","5","null","null","false","","","","","","","null","<div style=""font-size:60px;"">+</div>","null","fixation","","","","","","","","","","","","","",""
"revaluation","84","496855","0.0-3.0-15.0-2.0-0.7","pilot_wm_v1","65f5a84b838dcc1ac14602f2","5","null","null","false","","false","","","","","[899.3999999761581,336.59999990463257]","./assets/img/space/14.jpg","[""ArrowUp"",""ArrowRight""]","practice block","space","36","{""ArrowUp,ArrowLeft"":3,""ArrowUp,ArrowRight"":36,""ArrowDown,ArrowLeft"":15,""ArrowDown,ArrowRight"":23}","true","ArrowUp,ArrowRight","false","","","","","","","",""
"html-keyboard-response","85","497361","0.0-3.0-15.0-2.0-1.7","pilot_wm_v1","65f5a84b838dcc1ac14602f2","5","null","null","false","","","","","","","null","<div style=""font-size:60px;"">+</div>","null","fixation","","","","","","","","","","","","","",""
"revaluation","86","501385","0.0-3.0-15.0-2.0-0.8","pilot_wm_v1","65f5a84b838dcc1ac14602f2","5","null","null","false","","false","","","","","[918.7999999523163]","./assets/img/space/catch/3.jpg","[""spaceBar""]","practice block","space","0","{""ArrowUp,ArrowLeft"":3,""ArrowUp,ArrowRight"":36,""ArrowDown,ArrowLeft"":15,""ArrowDown,ArrowRight"":23}","true","spaceBar","true","","","","","","","",""
"html-keyboard-response","87","501891","0.0-3.0-15.0-2.0-1.8","pilot_wm_v1","65f5a84b838dcc1ac14602f2","5","null","null","false","","","","","","","null","<div style=""font-size:60px;"">+</div>","null","fixation","","","","","","","","","","","","","",""
"learning-instructions","88","516172","0.0-3.0-15.0-3.0-0.0","pilot_wm_v1","65f5a84b838dcc1ac14602f2","5","null","null","false","","","","","","","901.8999999761581","<p> Now, you will travel with a friend who will choose whether you go up or down first. </p>
            <p> On these turns, you will just see the animal that they found. You will still get to choose which chest to search for treasure.</p>","","instructions","","","","","","","","","","","","","",""
"learning-instructions","89","528564","0.0-3.0-15.0-3.0-0.1","pilot_wm_v1","65f5a84b838dcc1ac14602f2","5","null","null","false","","","","","","","763.5","<p> In this part, you will also hear beeps from your friend and see special treasure chests that need a password. </p>
            <p> Do your best to count the high beeps <b>and</b> choose between each animals' chests at the same time.</p>
            <img src='./assets/img/instructions/beep_chest.jpg' class='instructions-image'>","","instructions","","","","","","","","","","","","","",""
"revaluation","90","532587","0.0-3.0-15.0-4.0-0.0","pilot_wm_v1","65f5a84b838dcc1ac14602f2","5","null","null","false","","false","","","","","[1836.1000000238419]","./assets/img/space/animals/rabbit.jpg","[""ArrowRight""]","practice block","space","23","{""ArrowUp,ArrowLeft"":3,""ArrowUp,ArrowRight"":36,""ArrowDown,ArrowLeft"":15,""ArrowDown,ArrowRight"":23}","true","ArrowDown,ArrowRight","","[""22_3""]","","","","0","","",""
"html-keyboard-response","91","533109","0.0-3.0-15.0-4.0-1.0","pilot_wm_v1","65f5a84b838dcc1ac14602f2","5","null","null","false","","","","","","","null","<div style=""font-size:60px;"">+</div>","null","fixation","","","","","","","","","","","","","",""
"revaluation","92","537130","0.0-3.0-15.0-4.0-0.1","pilot_wm_v1","65f5a84b838dcc1ac14602f2","5","null","null","false","","true","","","","","[]","./assets/img/space/animals/cat.jpg","[]","practice block","space","-5","{""ArrowUp,ArrowLeft"":3,""ArrowUp,ArrowRight"":36,""ArrowDown,ArrowLeft"":15,""ArrowDown,ArrowRight"":23}","false","ArrowUp","","[""19_0""]","","","","1","","",""
"html-keyboard-response","93","537637","0.0-3.0-15.0-4.0-1.1","pilot_wm_v1","65f5a84b838dcc1ac14602f2","5","null","null","false","","","","","","","null","<div style=""font-size:60px;"">+</div>","null","fixation","","","","","","","","","","","","","",""
"revaluation","94","541648","0.0-3.0-15.0-4.0-0.2","pilot_wm_v1","65f5a84b838dcc1ac14602f2","5","null","null","false","","false","","","","","[642]","./assets/img/space/animals/rabbit.jpg","[""ArrowLeft""]","practice block","space","15","{""ArrowUp,ArrowLeft"":3,""ArrowUp,ArrowRight"":36,""ArrowDown,ArrowLeft"":15,""ArrowDown,ArrowRight"":23}","false","ArrowDown,ArrowLeft","","[""21_1""]","","","","2","","",""
"html-keyboard-response","95","542150","0.0-3.0-15.0-4.0-1.2","pilot_wm_v1","65f5a84b838dcc1ac14602f2","5","null","null","false","","","","","","","null","<div style=""font-size:60px;"">+</div>","null","fixation","","","","","","","","","","","","","",""
"revaluation","96","546173","0.0-3.0-15.0-4.0-0.3","pilot_wm_v1","65f5a84b838dcc1ac14602f2","5","null","null","false","","false","","","","","[496.1999999284744]","./assets/img/space/animals/cat.jpg","[""ArrowRight""]","practice block","space","36","{""ArrowUp,ArrowLeft"":3,""ArrowUp,ArrowRight"":36,""ArrowDown,ArrowLeft"":15,""ArrowDown,ArrowRight"":23}","true","ArrowUp,ArrowRight","","[""20_0""]","","","","3","","",""
"html-keyboard-response","97","546689","0.0-3.0-15.0-4.0-1.3","pilot_wm_v1","65f5a84b838dcc1ac14602f2","5","null","null","false","","","","","","","null","<div style=""font-size:60px;"">+</div>","null","fixation","","","","","","","","","","","","","",""
"html-slider-response","98","551657","0.0-3.0-15.0-4.0-2.3-0.3","pilot_wm_v1","65f5a84b838dcc1ac14602f2","5","null","null","false","","","","","","","4965","<div style=""width:500px;"">
        <p>What is the password?</p>
        <img src='./assets/img/instructions/beep_chest.jpg' class='instructions-image'>","5","beep chest","","","","false","","","","50","82","77","","","",""
"learning-instructions","99","559784","0.0-3.0-15.0-6.0-0.0","pilot_wm_v1","65f5a84b838dcc1ac14602f2","5","null","null","false","","","","","","","null","<p> You have almost finished this part of the game! </p>
            <p> We are going to ask you to make a few more choices. </p>","","instructions","","","","","","","","","","","","","",""
"learning-instructions","100","575781","0.0-3.0-15.0-6.0-0.1","pilot_wm_v1","65f5a84b838dcc1ac14602f2","5","null","null","false","","","","","","","null","<p> First, you need to decide whether to go up or down. When you see each picture, use the arrow keys to make your choice. </p>
            <p><b>You will not see which animal you found, but try to get to the one that will give you the most treasure.</b></p>","","instructions","","","","","","","","","","","","","",""
"html-keyboard-response","101","576788","0.0-3.0-15.0-7.0-0.0","pilot_wm_v1","65f5a84b838dcc1ac14602f2","5","null","null","false","","","","","","","null","<div style=""font-size:100px;color:red;"">Starting in...</div>","null","","","","","","","","","","","","","","",""
"html-keyboard-response","102","577802","0.0-3.0-15.0-7.0-1.0","pilot_wm_v1","65f5a84b838dcc1ac14602f2","5","null","null","false","","","","","","","null","<div style=""font-size:200px;color:red;"">3</div>","null","","","","","","","","","","","","","","",""
"html-keyboard-response","103","578814","0.0-3.0-15.0-7.0-2.0","pilot_wm_v1","65f5a84b838dcc1ac14602f2","5","null","null","false","","","","","","","null","<div style=""font-size:200px;color:red;"">2</div>","null","","","","","","","","","","","","","","",""
"html-keyboard-response","104","579827","0.0-3.0-15.0-7.0-3.0","pilot_wm_v1","65f5a84b838dcc1ac14602f2","5","null","null","false","","","","","","","null","<div style=""font-size:200px;color:red;"">1</div>","null","","","","","","","","","","","","","","",""
"revaluation","105","580450","0.0-3.0-15.0-8.0","pilot_wm_v1","65f5a84b838dcc1ac14602f2","5","null","null","false","","false","","","","","[617.8000000715256]","./assets/img/space/15.jpg","[""ArrowUp""]","practice block","space","0","{""ArrowUp,ArrowLeft"":3,""ArrowUp,ArrowRight"":36,""ArrowDown,ArrowLeft"":15,""ArrowDown,ArrowRight"":23}","true","ArrowUp","false","","","","","","","",""
"html-keyboard-response","106","580952","0.0-3.0-15.0-9.0","pilot_wm_v1","65f5a84b838dcc1ac14602f2","5","null","null","false","","","","","","","null","<div style=""font-size:60px;"">+</div>","null","fixation","","","","","","","","","","","","","",""
"learning-instructions","107","594330","0.0-3.0-15.0-10.0-0.0","pilot_wm_v1","65f5a84b838dcc1ac14602f2","5","null","null","false","","","","","","","null","<p> Now you will see the animals again and can search their chests for treasure. </p>
            <p> This time, you will not see how much treasure you earned, but you will earn more bonus money for making better choices. </p>","","instructions","","","","","","","","","","","","","",""
"html-keyboard-response","108","595343","0.0-3.0-15.0-11.0-0.0","pilot_wm_v1","65f5a84b838dcc1ac14602f2","5","null","null","false","","","","","","","null","<div style=""font-size:100px;color:red;"">Starting in...</div>","null","","","","","","","","","","","","","","",""
"html-keyboard-response","109","596359","0.0-3.0-15.0-11.0-1.0","pilot_wm_v1","65f5a84b838dcc1ac14602f2","5","null","null","false","","","","","","","null","<div style=""font-size:200px;color:red;"">3</div>","null","","","","","","","","","","","","","","",""
"html-keyboard-response","110","597363","0.0-3.0-15.0-11.0-2.0","pilot_wm_v1","65f5a84b838dcc1ac14602f2","5","null","null","false","","","","","","","null","<div style=""font-size:200px;color:red;"">2</div>","null","","","","","","","","","","","","","","",""
"html-keyboard-response","111","598365","0.0-3.0-15.0-11.0-3.0","pilot_wm_v1","65f5a84b838dcc1ac14602f2","5","null","null","false","","","","","","","null","<div style=""font-size:200px;color:red;"">1</div>","null","","","","","","","","","","","","","","",""
"revaluation","112","599094","0.0-3.0-15.0-12.0-0.0","pilot_wm_v1","65f5a84b838dcc1ac14602f2","5","null","null","false","","false","","","","","[722.6999999284744]","./assets/img/space/animals/cat.jpg","[""ArrowRight""]","practice block","space","0","{""ArrowUp,ArrowLeft"":3,""ArrowUp,ArrowRight"":36,""ArrowDown,ArrowLeft"":15,""ArrowDown,ArrowRight"":23}","true","ArrowUp,ArrowRight","","","","","","","","",""
"html-keyboard-response","113","599608","0.0-3.0-15.0-12.0-1.0","pilot_wm_v1","65f5a84b838dcc1ac14602f2","5","null","null","false","","","","","","","null","<div style=""font-size:60px;"">+</div>","null","fixation","","","","","","","","","","","","","",""
"revaluation","114","600259","0.0-3.0-15.0-12.0-0.1","pilot_wm_v1","65f5a84b838dcc1ac14602f2","5","null","null","false","","false","","","","","[647.1000000238419]","./assets/img/space/animals/rabbit.jpg","[""ArrowRight""]","practice block","space","0","{""ArrowUp,ArrowLeft"":3,""ArrowUp,ArrowRight"":36,""ArrowDown,ArrowLeft"":15,""ArrowDown,ArrowRight"":23}","true","ArrowDown,ArrowRight","","","","","","","","",""
"html-keyboard-response","115","600769","0.0-3.0-15.0-12.0-1.1","pilot_wm_v1","65f5a84b838dcc1ac14602f2","5","null","null","false","","","","","","","null","<div style=""font-size:60px;"">+</div>","null","fixation","","","","","","","","","","","","","",""
"learning-instructions","116","607407","0.0-3.0-16.0-0.0","pilot_wm_v1","65f5a84b838dcc1ac14602f2","5","null","null","false","","","","","","","2058.100000023842","<p> Before you start, we're going to ask you a few questions about how the game works. </p>","","instructions","","","","","","","","","","","","","",""
"comp-q","117","615556","0.0-3.0-17.0-0.0-0.0","pilot_wm_v1","65f5a84b838dcc1ac14602f2","5","null","null","false","","","","","","","2577.100000023842","<p> <b> True or False? </b> </p>
            <p> There can be 50 pieces of treasure in a given animal's chest. </p>","0","comp_question","","","","false","","","","","","","","","",""
"comp-q","118","623815","0.0-3.0-17.0-0.0-1.0","pilot_wm_v1","65f5a84b838dcc1ac14602f2","5","null","null","false","","","","","","","1725.2999999523163","<p> <b>Incorrect.</b> The amount of treasure in each chest can range from 0 to 40 pieces. </p>","0","comp_answer","","","","","","","","","","","","","",""
"comp-q","119","630714","0.0-3.0-17.0-0.1-0.1","pilot_wm_v1","65f5a84b838dcc1ac14602f2","5","null","null","false","","","","","","","1334.6999999284744","<p> <b> True or False? </b> </p>
            <p> There can be 50 pieces of treasure in a given animal's chest. </p>","1","comp_question","","","","true","","","","","","","","","",""
"comp-q","120","640322","0.0-3.0-17.0-0.1-1.1","pilot_wm_v1","65f5a84b838dcc1ac14602f2","5","null","null","false","","","","","","","2951.600000023842","<p> <b> That's right! </b> The amount of treasure in each chest can range from 0 to 40 pieces. </p>","0","comp_answer","","","","","","","","","","","","","",""
"comp-q","121","649135","0.0-3.0-17.0-0.2-0.2","pilot_wm_v1","65f5a84b838dcc1ac14602f2","5","null","null","false","","","","","","","1695.7000000476837","<p> <b> True or False? </b> </p><p> In this game, all animals have the same amount of treasure in their left and right chests. </p>","1","comp_question","","","","true","","","","","","","","","",""
"comp-q","122","656118","0.0-3.0-17.0-0.2-1.2","pilot_wm_v1","65f5a84b838dcc1ac14602f2","5","null","null","false","","","","","","","1748.3999999761581","<p> <b> That's right! </b> Animals have different amounts of treasure in their treasure chests. </p>","0","comp_answer","","","","","","","","","","","","","",""
"comp-q","123","663287","0.0-3.0-17.0-0.3-0.3","pilot_wm_v1","65f5a84b838dcc1ac14602f2","5","null","null","false","","","","","","","1317.1999999284744","<p> <b> True or False? </b> </p><p> The same animal will always be there if you go up in the same place. </p>","0","comp_question","","","","true","","","","","","","","","",""
"comp-q","124","672255","0.0-3.0-17.0-0.3-1.3","pilot_wm_v1","65f5a84b838dcc1ac14602f2","5","null","null","false","","","","","","","2524.899999976158","<p> <b> That's right! </b> One animal lives in the upper part and one lives in the lower part of every place. </p>","0","comp_answer","","","","","","","","","","","","","",""
"comp-q","125","679066","0.0-3.0-17.0-0.4-0.4","pilot_wm_v1","65f5a84b838dcc1ac14602f2","5","null","null","false","","","","","","","1286.5","<p> <b> True or False? </b> </p><p> If you see a different picture, it means you are in a new place. </p>","0","comp_question","","","","false","","","","","","","","","",""
"comp-q","126","692222","0.0-3.0-17.0-0.4-1.4","pilot_wm_v1","65f5a84b838dcc1ac14602f2","5","null","null","false","","","","","","","2061.8000000715256","<p> <b>Incorrect.</b> Lots of different images may show the same place. For example,  you may see three different images that all remind you that you are in outer space. </p>","0","comp_answer","","","","","","","","","","","","","",""
"comp-q","127","699579","0.0-3.0-17.0-0.5-0.5","pilot_wm_v1","65f5a84b838dcc1ac14602f2","5","null","null","false","","","","","","","1852.5","<p> <b> True or False? </b> </p><p> If you see a different picture, it means you are in a new place. </p>","1","comp_question","","","","true","","","","","","","","","",""
"comp-q","128","714676","0.0-3.0-17.0-0.5-1.5","pilot_wm_v1","65f5a84b838dcc1ac14602f2","5","null","null","false","","","","","","","3870.6999999284744","<p> <b> That's right! </b> Lots of different images may show the same place. For example,  you may see three different images that all remind you that you are in outer space. </p>","0","comp_answer","","","","","","","","","","","","","",""
"learning-instructions","129","725732","0.0-3.0-18.0-0.0","pilot_wm_v1","65f5a84b838dcc1ac14602f2","5","null","null","false","","","","","","","1205.7999999523163","<p> Good job. Remember to do your best because the amount of treasure you earn will be converted into bonus money. </p>
            <p> It’s time to start the real game! </p>","","instructions","","","","","","","","","","","","","",""
"learning-instructions","130","730669","0.0-4.0-0.0-0.0","pilot_wm_v1","65f5a84b838dcc1ac14602f2","5","null","null","false","","","","","","","2232.7999999523163","<p> This time you are searching for treasure in the <b>ocean</b>.</p>","","instructions","","","","","","","","","","","","","",""
"learning-instructions","131","749848","0.0-4.0-0.0-0.1","pilot_wm_v1","65f5a84b838dcc1ac14602f2","5","null","null","false","","","","","","","1892.5999999046326","<p><b>New</b> animals with <b>new</b> treasure chests live here. You need to explore to discover where the animal with the best treasure chest is.</p>
                    <p> Like before, once you figure out which animal has the chest with the most treasure, you should try to get to that animal and select that chest! </p>","","instructions","","","","","","","","","","","","","",""
"learning-instructions","132","766389","0.0-4.0-1.0-0.0","pilot_wm_v1","65f5a84b838dcc1ac14602f2","5","null","null","false","","","","","","","1800.7999999523163","<p> Remember, when you see a picture of the place, use the up and down keys to <b>find an animal</b>.</p>
            <p> When you encounter an animal, you should use the left and right keys to <b>select a treasure chest</b>.</p>
            <p> Don't forget to look out for the robber! </p>","","instructions","","","","","","","","","","","","","",""
"revaluation","133","772430","0.0-4.0-2.0-0.0","pilot_wm_v1","65f5a84b838dcc1ac14602f2","5","null","null","false","","false","","","","","[1647.2000000476837,538]","./assets/img/ocean/memory/32.jpg","[""ArrowUp"",""ArrowRight""]","value training","ocean","10","{""ArrowUp,ArrowLeft"":26,""ArrowUp,ArrowRight"":10,""ArrowDown,ArrowLeft"":5,""ArrowDown,ArrowRight"":17}","false","ArrowUp,ArrowRight","false","","","","","0","original","1",""
"html-keyboard-response","134","772946","0.0-4.0-2.0-1.0","pilot_wm_v1","65f5a84b838dcc1ac14602f2","5","null","null","false","","","","","","","null","<div style=""font-size:60px;"">+</div>","null","fixation","","","","","","","","","","","1","","",""
"revaluation","135","778972","0.0-4.0-2.0-0.1","pilot_wm_v1","65f5a84b838dcc1ac14602f2","5","null","null","false","","false","","","","","[347.39999997615814,417.89999997615814]","./assets/img/ocean/memory/7.jpg","[""ArrowDown"",""ArrowRight""]","value training","ocean","17","{""ArrowUp,ArrowLeft"":26,""ArrowUp,ArrowRight"":10,""ArrowDown,ArrowLeft"":5,""ArrowDown,ArrowRight"":17}","false","ArrowDown,ArrowRight","false","","","","","2","original","1",""
"html-keyboard-response","136","779485","0.0-4.0-2.0-1.1","pilot_wm_v1","65f5a84b838dcc1ac14602f2","5","null","null","false","","","","","","","null","<div style=""font-size:60px;"">+</div>","null","fixation","","","","","","","","","","","3","","",""
"revaluation","137","785507","0.0-4.0-2.0-0.2","pilot_wm_v1","65f5a84b838dcc1ac14602f2","5","null","null","false","","false","","","","","[279.39999997615814,338.89999997615814]","./assets/img/ocean/memory/14.jpg","[""ArrowUp"",""ArrowLeft""]","value training","ocean","26","{""ArrowUp,ArrowLeft"":26,""ArrowUp,ArrowRight"":10,""ArrowDown,ArrowLeft"":5,""ArrowDown,ArrowRight"":17}","true","ArrowUp,ArrowLeft","false","","","","","4","original","1",""
"html-keyboard-response","138","786011","0.0-4.0-2.0-1.2","pilot_wm_v1","65f5a84b838dcc1ac14602f2","5","null","null","false","","","","","","","null","<div style=""font-size:60px;"">+</div>","null","fixation","","","","","","","","","","","5","","",""
"revaluation","139","792038","0.0-4.0-2.0-0.3","pilot_wm_v1","65f5a84b838dcc1ac14602f2","5","null","null","false","","false","","","","","[379.2999999523163,329.89999997615814]","./assets/img/ocean/memory/25.jpg","[""ArrowDown"",""ArrowLeft""]","value training","ocean","5","{""ArrowUp,ArrowLeft"":26,""ArrowUp,ArrowRight"":10,""ArrowDown,ArrowLeft"":5,""ArrowDown,ArrowRight"":17}","false","ArrowDown,ArrowLeft","false","","","","","6","original","1",""
"html-keyboard-response","140","792541","0.0-4.0-2.0-1.3","pilot_wm_v1","65f5a84b838dcc1ac14602f2","5","null","null","false","","","","","","","null","<div style=""font-size:60px;"">+</div>","null","fixation","","","","","","","","","","","7","","",""
"revaluation","141","798567","0.0-4.0-2.0-0.4","pilot_wm_v1","65f5a84b838dcc1ac14602f2","5","null","null","false","","false","","","","","[423.39999997615814,311.7999999523163]","./assets/img/ocean/memory/18.jpg","[""ArrowUp"",""ArrowLeft""]","value training","ocean","26","{""ArrowUp,ArrowLeft"":26,""ArrowUp,ArrowRight"":10,""ArrowDown,ArrowLeft"":5,""ArrowDown,ArrowRight"":17}","true","ArrowUp,ArrowLeft","false","","","","","8","original","1",""
"html-keyboard-response","142","799079","0.0-4.0-2.0-1.4","pilot_wm_v1","65f5a84b838dcc1ac14602f2","5","null","null","false","","","","","","","null","<div style=""font-size:60px;"">+</div>","null","fixation","","","","","","","","","","","9","","",""
"revaluation","143","805107","0.0-4.0-2.0-0.5","pilot_wm_v1","65f5a84b838dcc1ac14602f2","5","null","null","false","","false","","","","","[646.1999999284744,299.2000000476837]","./assets/img/ocean/memory/14.jpg","[""ArrowUp"",""ArrowLeft""]","value training","ocean","26","{""ArrowUp,ArrowLeft"":26,""ArrowUp,ArrowRight"":10,""ArrowDown,ArrowLeft"":5,""ArrowDown,ArrowRight"":17}","true","ArrowUp,ArrowLeft","false","","","","","10","original","1",""
"html-keyboard-response","144","805616","0.0-4.0-2.0-1.5","pilot_wm_v1","65f5a84b838dcc1ac14602f2","5","null","null","false","","","","","","","null","<div style=""font-size:60px;"">+</div>","null","fixation","","","","","","","","","","","11","","",""
"revaluation","145","809627","0.0-4.0-2.0-0.6","pilot_wm_v1","65f5a84b838dcc1ac14602f2","5","null","null","false","","false","","","","","[695.7000000476837]","./assets/img/ocean/catch/0.jpg","[""spaceBar""]","value training","ocean","0","{""ArrowUp,ArrowLeft"":26,""ArrowUp,ArrowRight"":10,""ArrowDown,ArrowLeft"":5,""ArrowDown,ArrowRight"":17}","true","spaceBar","true","","","","","12","original","1",""
"html-keyboard-response","146","810138","0.0-4.0-2.0-1.6","pilot_wm_v1","65f5a84b838dcc1ac14602f2","5","null","null","false","","","","","","","null","<div style=""font-size:60px;"">+</div>","null","fixation","","","","","","","","","","","13","","",""
"revaluation","147","816150","0.0-4.0-2.0-0.7","pilot_wm_v1","65f5a84b838dcc1ac14602f2","5","null","null","false","","false","","","","","[671.6000000238419,293.90000009536743]","./assets/img/ocean/memory/37.jpg","[""ArrowUp"",""ArrowLeft""]","value training","ocean","26","{""ArrowUp,ArrowLeft"":26,""ArrowUp,ArrowRight"":10,""ArrowDown,ArrowLeft"":5,""ArrowDown,ArrowRight"":17}","true","ArrowUp,ArrowLeft","false","","","","","14","original","1",""
"html-keyboard-response","148","816654","0.0-4.0-2.0-1.7","pilot_wm_v1","65f5a84b838dcc1ac14602f2","5","null","null","false","","","","","","","null","<div style=""font-size:60px;"">+</div>","null","fixation","","","","","","","","","","","15","","",""
"revaluation","149","822677","0.0-4.0-2.0-0.8","pilot_wm_v1","65f5a84b838dcc1ac14602f2","5","null","null","false","","false","","","","","[670,380.5]","./assets/img/ocean/memory/25.jpg","[""ArrowUp"",""ArrowLeft""]","value training","ocean","26","{""ArrowUp,ArrowLeft"":26,""ArrowUp,ArrowRight"":10,""ArrowDown,ArrowLeft"":5,""ArrowDown,ArrowRight"":17}","true","ArrowUp,ArrowLeft","false","","","","","16","original","1",""
"html-keyboard-response","150","823185","0.0-4.0-2.0-1.8","pilot_wm_v1","65f5a84b838dcc1ac14602f2","5","null","null","false","","","","","","","null","<div style=""font-size:60px;"">+</div>","null","fixation","","","","","","","","","","","17","","",""
"revaluation","151","829211","0.0-4.0-2.0-0.9","pilot_wm_v1","65f5a84b838dcc1ac14602f2","5","null","null","false","","false","","","","","[966.7999999523163,415.40000009536743]","./assets/img/ocean/memory/10.jpg","[""ArrowUp"",""ArrowLeft""]","value training","ocean","26","{""ArrowUp,ArrowLeft"":26,""ArrowUp,ArrowRight"":10,""ArrowDown,ArrowLeft"":5,""ArrowDown,ArrowRight"":17}","true","ArrowUp,ArrowLeft","false","","","","","18","original","1",""
"html-keyboard-response","152","829714","0.0-4.0-2.0-1.9","pilot_wm_v1","65f5a84b838dcc1ac14602f2","5","null","null","false","","","","","","","null","<div style=""font-size:60px;"">+</div>","null","fixation","","","","","","","","","","","19","","",""
"revaluation","153","835757","0.0-4.0-2.0-0.10","pilot_wm_v1","65f5a84b838dcc1ac14602f2","5","null","null","false","","false","","","","","[654.1999999284744,331.60000002384186]","./assets/img/ocean/memory/9.jpg","[""ArrowUp"",""ArrowLeft""]","value training","ocean","26","{""ArrowUp,ArrowLeft"":26,""ArrowUp,ArrowRight"":10,""ArrowDown,ArrowLeft"":5,""ArrowDown,ArrowRight"":17}","true","ArrowUp,ArrowLeft","false","","","","","20","original","1",""
"html-keyboard-response","154","836274","0.0-4.0-2.0-1.10","pilot_wm_v1","65f5a84b838dcc1ac14602f2","5","null","null","false","","","","","","","null","<div style=""font-size:60px;"">+</div>","null","fixation","","","","","","","","","","","21","","",""
"revaluation","155","842298","0.0-4.0-2.0-0.11","pilot_wm_v1","65f5a84b838dcc1ac14602f2","5","null","null","false","","false","","","","","[686.8999999761581,403.40000009536743]","./assets/img/ocean/memory/38.jpg","[""ArrowUp"",""ArrowLeft""]","value training","ocean","26","{""ArrowUp,ArrowLeft"":26,""ArrowUp,ArrowRight"":10,""ArrowDown,ArrowLeft"":5,""ArrowDown,ArrowRight"":17}","true","ArrowUp,ArrowLeft","false","","","","","22","original","1",""
"html-keyboard-response","156","842805","0.0-4.0-2.0-1.11","pilot_wm_v1","65f5a84b838dcc1ac14602f2","5","null","null","false","","","","","","","null","<div style=""font-size:60px;"">+</div>","null","fixation","","","","","","","","","","","23","","",""
"revaluation","157","848819","0.0-4.0-2.0-0.12","pilot_wm_v1","65f5a84b838dcc1ac14602f2","5","null","null","false","","false","","","","","[1085.3999999761581,520.4000000953674]","./assets/img/ocean/memory/23.jpg","[""ArrowUp"",""ArrowLeft""]","value training","ocean","26","{""ArrowUp,ArrowLeft"":26,""ArrowUp,ArrowRight"":10,""ArrowDown,ArrowLeft"":5,""ArrowDown,ArrowRight"":17}","true","ArrowUp,ArrowLeft","false","","","","","24","original","1",""
"html-keyboard-response","158","849330","0.0-4.0-2.0-1.12","pilot_wm_v1","65f5a84b838dcc1ac14602f2","5","null","null","false","","","","","","","null","<div style=""font-size:60px;"">+</div>","null","fixation","","","","","","","","","","","25","","",""
"revaluation","159","855344","0.0-4.0-2.0-0.13","pilot_wm_v1","65f5a84b838dcc1ac14602f2","5","null","null","false","","false","","","","","[713.6000000238419,333.10000002384186]","./assets/img/ocean/memory/13.jpg","[""ArrowUp"",""ArrowLeft""]","value training","ocean","26","{""ArrowUp,ArrowLeft"":26,""ArrowUp,ArrowRight"":10,""ArrowDown,ArrowLeft"":5,""ArrowDown,ArrowRight"":17}","true","ArrowUp,ArrowLeft","false","","","","","26","original","1",""
"html-keyboard-response","160","855850","0.0-4.0-2.0-1.13","pilot_wm_v1","65f5a84b838dcc1ac14602f2","5","null","null","false","","","","","","","null","<div style=""font-size:60px;"">+</div>","null","fixation","","","","","","","","","","","27","","",""
"revaluation","161","861872","0.0-4.0-2.0-0.14","pilot_wm_v1","65f5a84b838dcc1ac14602f2","5","null","null","false","","false","","","","","[716.5,400.3000000715256]","./assets/img/ocean/memory/18.jpg","[""ArrowUp"",""ArrowLeft""]","value training","ocean","26","{""ArrowUp,ArrowLeft"":26,""ArrowUp,ArrowRight"":10,""ArrowDown,ArrowLeft"":5,""ArrowDown,ArrowRight"":17}","true","ArrowUp,ArrowLeft","false","","","","","28","original","1",""
"html-keyboard-response","162","862382","0.0-4.0-2.0-1.14","pilot_wm_v1","65f5a84b838dcc1ac14602f2","5","null","null","false","","","","","","","null","<div style=""font-size:60px;"">+</div>","null","fixation","","","","","","","","","","","29","","",""
"revaluation","163","868413","0.0-4.0-2.0-0.15","pilot_wm_v1","65f5a84b838dcc1ac14602f2","5","null","null","false","","false","","","","","[417.2000000476837,379.7999999523163]","./assets/img/ocean/memory/10.jpg","[""ArrowUp"",""ArrowLeft""]","value training","ocean","26","{""ArrowUp,ArrowLeft"":26,""ArrowUp,ArrowRight"":10,""ArrowDown,ArrowLeft"":5,""ArrowDown,ArrowRight"":17}","true","ArrowUp,ArrowLeft","false","","","","","30","original","1",""
"html-keyboard-response","164","868920","0.0-4.0-2.0-1.15","pilot_wm_v1","65f5a84b838dcc1ac14602f2","5","null","null","false","","","","","","","null","<div style=""font-size:60px;"">+</div>","null","fixation","","","","","","","","","","","31","","",""
"revaluation","165","874951","0.0-4.0-2.0-0.16","pilot_wm_v1","65f5a84b838dcc1ac14602f2","5","null","null","false","","false","","","","","[368.09999990463257,534.2000000476837]","./assets/img/ocean/memory/2.jpg","[""ArrowUp"",""ArrowLeft""]","value training","ocean","26","{""ArrowUp,ArrowLeft"":26,""ArrowUp,ArrowRight"":10,""ArrowDown,ArrowLeft"":5,""ArrowDown,ArrowRight"":17}","true","ArrowUp,ArrowLeft","false","","","","","32","original","1",""
"html-keyboard-response","166","875466","0.0-4.0-2.0-1.16","pilot_wm_v1","65f5a84b838dcc1ac14602f2","5","null","null","false","","","","","","","null","<div style=""font-size:60px;"">+</div>","null","fixation","","","","","","","","","","","33","","",""
"revaluation","167","879484","0.0-4.0-2.0-0.17","pilot_wm_v1","65f5a84b838dcc1ac14602f2","5","null","null","false","","false","","","","","[1112]","./assets/img/ocean/catch/3.jpg","[""spaceBar""]","value training","ocean","0","{""ArrowUp,ArrowLeft"":26,""ArrowUp,ArrowRight"":10,""ArrowDown,ArrowLeft"":5,""ArrowDown,ArrowRight"":17}","true","spaceBar","true","","","","","34","original","1",""
"html-keyboard-response","168","879992","0.0-4.0-2.0-1.17","pilot_wm_v1","65f5a84b838dcc1ac14602f2","5","null","null","false","","","","","","","null","<div style=""font-size:60px;"">+</div>","null","fixation","","","","","","","","","","","35","","",""
"revaluation","169","886016","0.0-4.0-2.0-0.18","pilot_wm_v1","65f5a84b838dcc1ac14602f2","5","null","null","false","","false","","","","","[760.6000000238419,485.7999999523163]","./assets/img/ocean/memory/2.jpg","[""ArrowUp"",""ArrowLeft""]","value training","ocean","26","{""ArrowUp,ArrowLeft"":26,""ArrowUp,ArrowRight"":10,""ArrowDown,ArrowLeft"":5,""ArrowDown,ArrowRight"":17}","true","ArrowUp,ArrowLeft","false","","","","","36","original","1",""
"html-keyboard-response","170","886518","0.0-4.0-2.0-1.18","pilot_wm_v1","65f5a84b838dcc1ac14602f2","5","null","null","false","","","","","","","null","<div style=""font-size:60px;"">+</div>","null","fixation","","","","","","","","","","","37","","",""
"revaluation","171","892561","0.0-4.0-2.0-0.19","pilot_wm_v1","65f5a84b838dcc1ac14602f2","5","null","null","false","","false","","","","","[573.5,496.60000002384186]","./assets/img/ocean/memory/29.jpg","[""ArrowUp"",""ArrowLeft""]","value training","ocean","26","{""ArrowUp,ArrowLeft"":26,""ArrowUp,ArrowRight"":10,""ArrowDown,ArrowLeft"":5,""ArrowDown,ArrowRight"":17}","true","ArrowUp,ArrowLeft","false","","","","","38","original","1",""
"html-keyboard-response","172","893067","0.0-4.0-2.0-1.19","pilot_wm_v1","65f5a84b838dcc1ac14602f2","5","null","null","false","","","","","","","null","<div style=""font-size:60px;"">+</div>","null","fixation","","","","","","","","","","","39","","",""
"revaluation","173","899094","0.0-4.0-2.0-0.20","pilot_wm_v1","65f5a84b838dcc1ac14602f2","5","null","null","false","","false","","","","","[1093.4000000953674,819.3000000715256]","./assets/img/ocean/memory/24.jpg","[""ArrowUp"",""ArrowLeft""]","value training","ocean","26","{""ArrowUp,ArrowLeft"":26,""ArrowUp,ArrowRight"":10,""ArrowDown,ArrowLeft"":5,""ArrowDown,ArrowRight"":17}","true","ArrowUp,ArrowLeft","false","","","","","40","original","1",""
"html-keyboard-response","174","899597","0.0-4.0-2.0-1.20","pilot_wm_v1","65f5a84b838dcc1ac14602f2","5","null","null","false","","","","","","","null","<div style=""font-size:60px;"">+</div>","null","fixation","","","","","","","","","","","41","","",""
"revaluation","175","905633","0.0-4.0-2.0-0.21","pilot_wm_v1","65f5a84b838dcc1ac14602f2","5","null","null","false","","false","","","","","[599.7000000476837,224.10000002384186]","./assets/img/ocean/memory/1.jpg","[""ArrowUp"",""ArrowLeft""]","value training","ocean","26","{""ArrowUp,ArrowLeft"":26,""ArrowUp,ArrowRight"":10,""ArrowDown,ArrowLeft"":5,""ArrowDown,ArrowRight"":17}","true","ArrowUp,ArrowLeft","false","","","","","42","original","1",""
"html-keyboard-response","176","906138","0.0-4.0-2.0-1.21","pilot_wm_v1","65f5a84b838dcc1ac14602f2","5","null","null","false","","","","","","","null","<div style=""font-size:60px;"">+</div>","null","fixation","","","","","","","","","","","43","","",""
"revaluation","177","910161","0.0-4.0-2.0-0.22","pilot_wm_v1","65f5a84b838dcc1ac14602f2","5","null","null","false","","false","","","","","[681.5999999046326]","./assets/img/ocean/catch/5.jpg","[""ArrowUp""]","value training","ocean","-10","{""ArrowUp,ArrowLeft"":26,""ArrowUp,ArrowRight"":10,""ArrowDown,ArrowLeft"":5,""ArrowDown,ArrowRight"":17}","false","ArrowUp","true","","","","","44","original","1",""
"html-keyboard-response","178","910670","0.0-4.0-2.0-1.22","pilot_wm_v1","65f5a84b838dcc1ac14602f2","5","null","null","false","","","","","","","null","<div style=""font-size:60px;"">+</div>","null","fixation","","","","","","","","","","","45","","",""
"revaluation","179","916704","0.0-4.0-2.0-0.23","pilot_wm_v1","65f5a84b838dcc1ac14602f2","5","null","null","false","","false","","","","","[531.3999999761581,395.2999999523163]","./assets/img/ocean/memory/1.jpg","[""ArrowUp"",""ArrowLeft""]","value training","ocean","26","{""ArrowUp,ArrowLeft"":26,""ArrowUp,ArrowRight"":10,""ArrowDown,ArrowLeft"":5,""ArrowDown,ArrowRight"":17}","true","ArrowUp,ArrowLeft","false","","","","","46","original","1",""
"html-keyboard-response","180","917207","0.0-4.0-2.0-1.23","pilot_wm_v1","65f5a84b838dcc1ac14602f2","5","null","null","false","","","","","","","null","<div style=""font-size:60px;"">+</div>","null","fixation","","","","","","","","","","","47","","",""
"revaluation","181","921231","0.0-4.0-2.0-0.24","pilot_wm_v1","65f5a84b838dcc1ac14602f2","5","null","null","false","","false","","","","","[581]","./assets/img/ocean/catch/1.jpg","[""spaceBar""]","value training","ocean","0","{""ArrowUp,ArrowLeft"":26,""ArrowUp,ArrowRight"":10,""ArrowDown,ArrowLeft"":5,""ArrowDown,ArrowRight"":17}","true","spaceBar","true","","","","","48","original","1",""
"html-keyboard-response","182","921734","0.0-4.0-2.0-1.24","pilot_wm_v1","65f5a84b838dcc1ac14602f2","5","null","null","false","","","","","","","null","<div style=""font-size:60px;"">+</div>","null","fixation","","","","","","","","","","","49","","",""
"revaluation","183","927754","0.0-4.0-2.0-0.25","pilot_wm_v1","65f5a84b838dcc1ac14602f2","5","null","null","false","","false","","","","","[784.7000000476837,409.39999997615814]","./assets/img/ocean/memory/29.jpg","[""ArrowUp"",""ArrowLeft""]","value training","ocean","26","{""ArrowUp,ArrowLeft"":26,""ArrowUp,ArrowRight"":10,""ArrowDown,ArrowLeft"":5,""ArrowDown,ArrowRight"":17}","true","ArrowUp,ArrowLeft","false","","","","","50","original","1",""
"html-keyboard-response","184","928264","0.0-4.0-2.0-1.25","pilot_wm_v1","65f5a84b838dcc1ac14602f2","5","null","null","false","","","","","","","null","<div style=""font-size:60px;"">+</div>","null","fixation","","","","","","","","","","","51","","",""
"revaluation","185","934294","0.0-4.0-2.0-0.26","pilot_wm_v1","65f5a84b838dcc1ac14602f2","5","null","null","false","","false","","","","","[686.3000000715256,439.39999997615814]","./assets/img/ocean/memory/13.jpg","[""ArrowUp"",""ArrowLeft""]","value training","ocean","26","{""ArrowUp,ArrowLeft"":26,""ArrowUp,ArrowRight"":10,""ArrowDown,ArrowLeft"":5,""ArrowDown,ArrowRight"":17}","true","ArrowUp,ArrowLeft","false","","","","","52","original","1",""
"html-keyboard-response","186","934797","0.0-4.0-2.0-1.26","pilot_wm_v1","65f5a84b838dcc1ac14602f2","5","null","null","false","","","","","","","null","<div style=""font-size:60px;"">+</div>","null","fixation","","","","","","","","","","","53","","",""
"revaluation","187","938813","0.0-4.0-2.0-0.27","pilot_wm_v1","65f5a84b838dcc1ac14602f2","5","null","null","false","","false","","","","","[483.10000002384186]","./assets/img/ocean/catch/2.jpg","[""spaceBar""]","value training","ocean","0","{""ArrowUp,ArrowLeft"":26,""ArrowUp,ArrowRight"":10,""ArrowDown,ArrowLeft"":5,""ArrowDown,ArrowRight"":17}","true","spaceBar","true","","","","","54","original","1",""
"html-keyboard-response","188","939327","0.0-4.0-2.0-1.27","pilot_wm_v1","65f5a84b838dcc1ac14602f2","5","null","null","false","","","","","","","null","<div style=""font-size:60px;"">+</div>","null","fixation","","","","","","","","","","","55","","",""
"revaluation","189","945347","0.0-4.0-2.0-0.28","pilot_wm_v1","65f5a84b838dcc1ac14602f2","5","null","null","false","","false","","","","","[577.3999999761581,413.5]","./assets/img/ocean/memory/7.jpg","[""ArrowUp"",""ArrowLeft""]","value training","ocean","26","{""ArrowUp,ArrowLeft"":26,""ArrowUp,ArrowRight"":10,""ArrowDown,ArrowLeft"":5,""ArrowDown,ArrowRight"":17}","true","ArrowUp,ArrowLeft","false","","","","","56","original","1",""
"html-keyboard-response","190","945859","0.0-4.0-2.0-1.28","pilot_wm_v1","65f5a84b838dcc1ac14602f2","5","null","null","false","","","","","","","null","<div style=""font-size:60px;"">+</div>","null","fixation","","","","","","","","","","","57","","",""
"revaluation","191","951884","0.0-4.0-2.0-0.29","pilot_wm_v1","65f5a84b838dcc1ac14602f2","5","null","null","false","","false","","","","","[679.1000000238419,627.5]","./assets/img/ocean/memory/32.jpg","[""ArrowUp"",""ArrowLeft""]","value training","ocean","26","{""ArrowUp,ArrowLeft"":26,""ArrowUp,ArrowRight"":10,""ArrowDown,ArrowLeft"":5,""ArrowDown,ArrowRight"":17}","true","ArrowUp,ArrowLeft","false","","","","","58","original","1",""
"html-keyboard-response","192","952394","0.0-4.0-2.0-1.29","pilot_wm_v1","65f5a84b838dcc1ac14602f2","5","null","null","false","","","","","","","null","<div style=""font-size:60px;"">+</div>","null","fixation","","","","","","","","","","","59","","",""
"revaluation","193","958409","0.0-4.0-2.0-0.30","pilot_wm_v1","65f5a84b838dcc1ac14602f2","5","null","null","false","","false","","","","","[945.6999999284744,560]","./assets/img/ocean/memory/11.jpg","[""ArrowUp"",""ArrowLeft""]","value training","ocean","26","{""ArrowUp,ArrowLeft"":26,""ArrowUp,ArrowRight"":10,""ArrowDown,ArrowLeft"":5,""ArrowDown,ArrowRight"":17}","true","ArrowUp,ArrowLeft","false","","","","","60","original","1",""
"html-keyboard-response","194","958919","0.0-4.0-2.0-1.30","pilot_wm_v1","65f5a84b838dcc1ac14602f2","5","null","null","false","","","","","","","null","<div style=""font-size:60px;"">+</div>","null","fixation","","","","","","","","","","","61","","",""
"revaluation","195","964928","0.0-4.0-2.0-0.31","pilot_wm_v1","65f5a84b838dcc1ac14602f2","5","null","null","false","","false","","","","","[538.3999999761581,378.7999999523163]","./assets/img/ocean/memory/23.jpg","[""ArrowUp"",""ArrowLeft""]","value training","ocean","26","{""ArrowUp,ArrowLeft"":26,""ArrowUp,ArrowRight"":10,""ArrowDown,ArrowLeft"":5,""ArrowDown,ArrowRight"":17}","true","ArrowUp,ArrowLeft","false","","","","","62","original","1",""
"html-keyboard-response","196","965430","0.0-4.0-2.0-1.31","pilot_wm_v1","65f5a84b838dcc1ac14602f2","5","null","null","false","","","","","","","null","<div style=""font-size:60px;"">+</div>","null","fixation","","","","","","","","","","","63","","",""
"revaluation","197","971452","0.0-4.0-2.0-0.32","pilot_wm_v1","65f5a84b838dcc1ac14602f2","5","null","null","false","","false","","","","","[1461.5999999046326,1304.1000000238419]","./assets/img/ocean/memory/24.jpg","[""ArrowUp"",""ArrowLeft""]","value training","ocean","26","{""ArrowUp,ArrowLeft"":26,""ArrowUp,ArrowRight"":10,""ArrowDown,ArrowLeft"":5,""ArrowDown,ArrowRight"":17}","true","ArrowUp,ArrowLeft","false","","","","","64","original","1",""
"html-keyboard-response","198","971959","0.0-4.0-2.0-1.32","pilot_wm_v1","65f5a84b838dcc1ac14602f2","5","null","null","false","","","","","","","null","<div style=""font-size:60px;"">+</div>","null","fixation","","","","","","","","","","","65","","",""
"revaluation","199","977996","0.0-4.0-2.0-0.33","pilot_wm_v1","65f5a84b838dcc1ac14602f2","5","null","null","false","","false","","","","","[740.0999999046326,533.5]","./assets/img/ocean/memory/35.jpg","[""ArrowUp"",""ArrowLeft""]","value training","ocean","26","{""ArrowUp,ArrowLeft"":26,""ArrowUp,ArrowRight"":10,""ArrowDown,ArrowLeft"":5,""ArrowDown,ArrowRight"":17}","true","ArrowUp,ArrowLeft","false","","","","","66","original","1",""
"html-keyboard-response","200","978504","0.0-4.0-2.0-1.33","pilot_wm_v1","65f5a84b838dcc1ac14602f2","5","null","null","false","","","","","","","null","<div style=""font-size:60px;"">+</div>","null","fixation","","","","","","","","","","","67","","",""
"revaluation","201","984522","0.0-4.0-2.0-0.34","pilot_wm_v1","65f5a84b838dcc1ac14602f2","5","null","null","false","","false","","","","","[794.3999999761581,378.60000002384186]","./assets/img/ocean/memory/12.jpg","[""ArrowUp"",""ArrowLeft""]","value training","ocean","26","{""ArrowUp,ArrowLeft"":26,""ArrowUp,ArrowRight"":10,""ArrowDown,ArrowLeft"":5,""ArrowDown,ArrowRight"":17}","true","ArrowUp,ArrowLeft","false","","","","","68","original","1",""
"html-keyboard-response","202","985025","0.0-4.0-2.0-1.34","pilot_wm_v1","65f5a84b838dcc1ac14602f2","5","null","null","false","","","","","","","null","<div style=""font-size:60px;"">+</div>","null","fixation","","","","","","","","","","","69","","",""
"revaluation","203","991036","0.0-4.0-2.0-0.35","pilot_wm_v1","65f5a84b838dcc1ac14602f2","5","null","null","false","","false","","","","","[621.3999999761581,1295.5]","./assets/img/ocean/memory/28.jpg","[""ArrowUp"",""ArrowLeft""]","value training","ocean","26","{""ArrowUp,ArrowLeft"":26,""ArrowUp,ArrowRight"":10,""ArrowDown,ArrowLeft"":5,""ArrowDown,ArrowRight"":17}","true","ArrowUp,ArrowLeft","false","","","","","70","original","1",""
"html-keyboard-response","204","991544","0.0-4.0-2.0-1.35","pilot_wm_v1","65f5a84b838dcc1ac14602f2","5","null","null","false","","","","","","","null","<div style=""font-size:60px;"">+</div>","null","fixation","","","","","","","","","","","71","","",""
"revaluation","205","997576","0.0-4.0-2.0-0.36","pilot_wm_v1","65f5a84b838dcc1ac14602f2","5","null","null","false","","false","","","","","[980.5,669.6000000238419]","./assets/img/ocean/memory/15.jpg","[""ArrowUp"",""ArrowLeft""]","value training","ocean","26","{""ArrowUp,ArrowLeft"":26,""ArrowUp,ArrowRight"":10,""ArrowDown,ArrowLeft"":5,""ArrowDown,ArrowRight"":17}","true","ArrowUp,ArrowLeft","false","","","","","72","original","1",""
"html-keyboard-response","206","998077","0.0-4.0-2.0-1.36","pilot_wm_v1","65f5a84b838dcc1ac14602f2","5","null","null","false","","","","","","","null","<div style=""font-size:60px;"">+</div>","null","fixation","","","","","","","","","","","73","","",""
"revaluation","207","1004098","0.0-4.0-2.0-0.37","pilot_wm_v1","65f5a84b838dcc1ac14602f2","5","null","null","false","","false","","","","","[832.6000000238419,368.8000000715256]","./assets/img/ocean/memory/15.jpg","[""ArrowUp"",""ArrowLeft""]","value training","ocean","26","{""ArrowUp,ArrowLeft"":26,""ArrowUp,ArrowRight"":10,""ArrowDown,ArrowLeft"":5,""ArrowDown,ArrowRight"":17}","true","ArrowUp,ArrowLeft","false","","","","","74","original","1",""
"html-keyboard-response","208","1004600","0.0-4.0-2.0-1.37","pilot_wm_v1","65f5a84b838dcc1ac14602f2","5","null","null","false","","","","","","","null","<div style=""font-size:60px;"">+</div>","null","fixation","","","","","","","","","","","75","","",""
"revaluation","209","1010614","0.0-4.0-2.0-0.38","pilot_wm_v1","65f5a84b838dcc1ac14602f2","5","null","null","false","","false","","","","","[567.2000000476837,482.5]","./assets/img/ocean/memory/37.jpg","[""ArrowUp"",""ArrowLeft""]","value training","ocean","26","{""ArrowUp,ArrowLeft"":26,""ArrowUp,ArrowRight"":10,""ArrowDown,ArrowLeft"":5,""ArrowDown,ArrowRight"":17}","true","ArrowUp,ArrowLeft","false","","","","","76","original","1",""
"html-keyboard-response","210","1011122","0.0-4.0-2.0-1.38","pilot_wm_v1","65f5a84b838dcc1ac14602f2","5","null","null","false","","","","","","","null","<div style=""font-size:60px;"">+</div>","null","fixation","","","","","","","","","","","77","","",""
"revaluation","211","1015151","0.0-4.0-2.0-0.39","pilot_wm_v1","65f5a84b838dcc1ac14602f2","5","null","null","false","","false","","","","","[786.2000000476837]","./assets/img/ocean/catch/6.jpg","[""spaceBar""]","value training","ocean","0","{""ArrowUp,ArrowLeft"":26,""ArrowUp,ArrowRight"":10,""ArrowDown,ArrowLeft"":5,""ArrowDown,ArrowRight"":17}","true","spaceBar","true","","","","","78","original","1",""
"html-keyboard-response","212","1015658","0.0-4.0-2.0-1.39","pilot_wm_v1","65f5a84b838dcc1ac14602f2","5","null","null","false","","","","","","","null","<div style=""font-size:60px;"">+</div>","null","fixation","","","","","","","","","","","79","","",""
"revaluation","213","1021675","0.0-4.0-2.0-0.40","pilot_wm_v1","65f5a84b838dcc1ac14602f2","5","null","null","false","","false","","","","","[933.3999999761581,959.1999999284744]","./assets/img/ocean/memory/35.jpg","[""ArrowUp"",""ArrowLeft""]","value training","ocean","26","{""ArrowUp,ArrowLeft"":26,""ArrowUp,ArrowRight"":10,""ArrowDown,ArrowLeft"":5,""ArrowDown,ArrowRight"":17}","true","ArrowUp,ArrowLeft","false","","","","","80","original","1",""
"html-keyboard-response","214","1022184","0.0-4.0-2.0-1.40","pilot_wm_v1","65f5a84b838dcc1ac14602f2","5","null","null","false","","","","","","","null","<div style=""font-size:60px;"">+</div>","null","fixation","","","","","","","","","","","81","","",""
"revaluation","215","1026203","0.0-4.0-2.0-0.41","pilot_wm_v1","65f5a84b838dcc1ac14602f2","5","null","null","false","","false","","","","","[559.8999999761581]","./assets/img/ocean/catch/7.jpg","[""spaceBar""]","value training","ocean","0","{""ArrowUp,ArrowLeft"":26,""ArrowUp,ArrowRight"":10,""ArrowDown,ArrowLeft"":5,""ArrowDown,ArrowRight"":17}","true","spaceBar","true","","","","","82","original","1",""
"html-keyboard-response","216","1026715","0.0-4.0-2.0-1.41","pilot_wm_v1","65f5a84b838dcc1ac14602f2","5","null","null","false","","","","","","","null","<div style=""font-size:60px;"">+</div>","null","fixation","","","","","","","","","","","83","","",""
"revaluation","217","1032741","0.0-4.0-2.0-0.42","pilot_wm_v1","65f5a84b838dcc1ac14602f2","5","null","null","false","","false","","","","","[1062.7000000476837,546.5]","./assets/img/ocean/memory/36.jpg","[""ArrowUp"",""ArrowLeft""]","value training","ocean","26","{""ArrowUp,ArrowLeft"":26,""ArrowUp,ArrowRight"":10,""ArrowDown,ArrowLeft"":5,""ArrowDown,ArrowRight"":17}","true","ArrowUp,ArrowLeft","false","","","","","84","original","1",""
"html-keyboard-response","218","1033254","0.0-4.0-2.0-1.42","pilot_wm_v1","65f5a84b838dcc1ac14602f2","5","null","null","false","","","","","","","null","<div style=""font-size:60px;"">+</div>","null","fixation","","","","","","","","","","","85","","",""
"revaluation","219","1039288","0.0-4.0-2.0-0.43","pilot_wm_v1","65f5a84b838dcc1ac14602f2","5","null","null","false","","false","","","","","[940.2999999523163,525.7000000476837]","./assets/img/ocean/memory/12.jpg","[""ArrowUp"",""ArrowLeft""]","value training","ocean","26","{""ArrowUp,ArrowLeft"":26,""ArrowUp,ArrowRight"":10,""ArrowDown,ArrowLeft"":5,""ArrowDown,ArrowRight"":17}","true","ArrowUp,ArrowLeft","false","","","","","86","original","1",""
"html-keyboard-response","220","1039805","0.0-4.0-2.0-1.43","pilot_wm_v1","65f5a84b838dcc1ac14602f2","5","null","null","false","","","","","","","null","<div style=""font-size:60px;"">+</div>","null","fixation","","","","","","","","","","","87","","",""
"revaluation","221","1043828","0.0-4.0-2.0-0.44","pilot_wm_v1","65f5a84b838dcc1ac14602f2","5","null","null","false","","false","","","","","[545.3999999761581]","./assets/img/ocean/catch/4.jpg","[""spaceBar""]","value training","ocean","0","{""ArrowUp,ArrowLeft"":26,""ArrowUp,ArrowRight"":10,""ArrowDown,ArrowLeft"":5,""ArrowDown,ArrowRight"":17}","true","spaceBar","true","","","","","88","original","1",""
"html-keyboard-response","222","1044344","0.0-4.0-2.0-1.44","pilot_wm_v1","65f5a84b838dcc1ac14602f2","5","null","null","false","","","","","","","null","<div style=""font-size:60px;"">+</div>","null","fixation","","","","","","","","","","","89","","",""
"revaluation","223","1050368","0.0-4.0-2.0-0.45","pilot_wm_v1","65f5a84b838dcc1ac14602f2","5","null","null","false","","false","","","","","[715.1000000238419,1025.8999999761581]","./assets/img/ocean/memory/38.jpg","[""ArrowUp"",""ArrowLeft""]","value training","ocean","26","{""ArrowUp,ArrowLeft"":26,""ArrowUp,ArrowRight"":10,""ArrowDown,ArrowLeft"":5,""ArrowDown,ArrowRight"":17}","true","ArrowUp,ArrowLeft","false","","","","","90","original","1",""
"html-keyboard-response","224","1050876","0.0-4.0-2.0-1.45","pilot_wm_v1","65f5a84b838dcc1ac14602f2","5","null","null","false","","","","","","","null","<div style=""font-size:60px;"">+</div>","null","fixation","","","","","","","","","","","91","","",""
"revaluation","225","1056912","0.0-4.0-2.0-0.46","pilot_wm_v1","65f5a84b838dcc1ac14602f2","5","null","null","false","","false","","","","","[1079.1999999284744,663.6000000238419]","./assets/img/ocean/memory/36.jpg","[""ArrowUp"",""ArrowLeft""]","value training","ocean","26","{""ArrowUp,ArrowLeft"":26,""ArrowUp,ArrowRight"":10,""ArrowDown,ArrowLeft"":5,""ArrowDown,ArrowRight"":17}","true","ArrowUp,ArrowLeft","false","","","","","92","original","1",""
"html-keyboard-response","226","1057424","0.0-4.0-2.0-1.46","pilot_wm_v1","65f5a84b838dcc1ac14602f2","5","null","null","false","","","","","","","null","<div style=""font-size:60px;"">+</div>","null","fixation","","","","","","","","","","","93","","",""
"revaluation","227","1063448","0.0-4.0-2.0-0.47","pilot_wm_v1","65f5a84b838dcc1ac14602f2","5","null","null","false","","false","","","","","[811,455.3000000715256]","./assets/img/ocean/memory/11.jpg","[""ArrowUp"",""ArrowLeft""]","value training","ocean","26","{""ArrowUp,ArrowLeft"":26,""ArrowUp,ArrowRight"":10,""ArrowDown,ArrowLeft"":5,""ArrowDown,ArrowRight"":17}","true","ArrowUp,ArrowLeft","false","","","","","94","original","1",""
"html-keyboard-response","228","1063958","0.0-4.0-2.0-1.47","pilot_wm_v1","65f5a84b838dcc1ac14602f2","5","null","null","false","","","","","","","null","<div style=""font-size:60px;"">+</div>","null","fixation","","","","","","","","","","","95","","",""
"revaluation","229","1069982","0.0-4.0-2.0-0.48","pilot_wm_v1","65f5a84b838dcc1ac14602f2","5","null","null","false","","false","","","","","[538.2000000476837,661.9000000953674]","./assets/img/ocean/memory/28.jpg","[""ArrowUp"",""ArrowLeft""]","value training","ocean","26","{""ArrowUp,ArrowLeft"":26,""ArrowUp,ArrowRight"":10,""ArrowDown,ArrowLeft"":5,""ArrowDown,ArrowRight"":17}","true","ArrowUp,ArrowLeft","false","","","","","96","original","1",""
"html-keyboard-response","230","1070487","0.0-4.0-2.0-1.48","pilot_wm_v1","65f5a84b838dcc1ac14602f2","5","null","null","false","","","","","","","null","<div style=""font-size:60px;"">+</div>","null","fixation","","","","","","","","","","","97","","",""
"revaluation","231","1076527","0.0-4.0-2.0-0.49","pilot_wm_v1","65f5a84b838dcc1ac14602f2","5","null","null","false","","false","","","","","[1324.6000000238419,1292.1000000238419]","./assets/img/ocean/memory/9.jpg","[""ArrowUp"",""ArrowLeft""]","value training","ocean","26","{""ArrowUp,ArrowLeft"":26,""ArrowUp,ArrowRight"":10,""ArrowDown,ArrowLeft"":5,""ArrowDown,ArrowRight"":17}","true","ArrowUp,ArrowLeft","false","","","","","98","original","1",""
"html-keyboard-response","232","1077028","0.0-4.0-2.0-1.49","pilot_wm_v1","65f5a84b838dcc1ac14602f2","5","null","null","false","","","","","","","null","<div style=""font-size:60px;"">+</div>","null","fixation","","","","","","","","","","","99","","",""
"learning-instructions","233","1092476","0.0-4.0-3.0-0.0","pilot_wm_v1","65f5a84b838dcc1ac14602f2","5","null","null","false","","","","","","","2158.600000023842","<p> Now, you will travel with a friend who will choose whether you go up or down first. </p>
            <p> On these turns, you will just see the animal that they found. You will still get to choose which chest to search for treasure.</p>","","instructions","","","","","","","","","","","","","",""
"learning-instructions","234","1107608","0.0-4.0-3.0-0.1","pilot_wm_v1","65f5a84b838dcc1ac14602f2","5","null","null","false","","","","","","","3510.600000023842","<p> In this part, you will also hear beeps from your friend and see special treasure chests that need a password. </p>
            <p> Do your best to count the high beeps <b>and</b> choose between each animals' chests at the same time.</p>
            <img src='./assets/img/instructions/beep_chest.jpg' class='instructions-image'>","","instructions","","","","","","","","","","","","","",""
"revaluation","235","1111633","0.0-4.0-4.0-0.0","pilot_wm_v1","65f5a84b838dcc1ac14602f2","5","null","null","false","","true","","","","","[]","./assets/img/ocean/animals/octopus.jpg","[]","revaluation","ocean","-5","{""ArrowUp,ArrowLeft"":26,""ArrowUp,ArrowRight"":10,""ArrowDown,ArrowLeft"":5,""ArrowDown,ArrowRight"":17}","false","ArrowUp","","7_4","","","","0","original","1",""
"html-keyboard-response","236","1112154","0.0-4.0-4.0-1.0","pilot_wm_v1","65f5a84b838dcc1ac14602f2","5","null","null","false","","","","","","","null","<div style=""font-size:60px;"">+</div>","null","fixation","","","","","","","","","","","","","",""
"revaluation","237","1116169","0.0-4.0-4.0-0.1","pilot_wm_v1","65f5a84b838dcc1ac14602f2","5","null","null","false","","false","","","","","[345.5]","./assets/img/ocean/animals/octopus.jpg","[""ArrowLeft""]","revaluation","ocean","26","{""ArrowUp,ArrowLeft"":26,""ArrowUp,ArrowRight"":10,""ArrowDown,ArrowLeft"":5,""ArrowDown,ArrowRight"":17}","true","ArrowUp,ArrowLeft","","9_2","","","","1","original","1",""
"html-keyboard-response","238","1116685","0.0-4.0-4.0-1.1","pilot_wm_v1","65f5a84b838dcc1ac14602f2","5","null","null","false","","","","","","","null","<div style=""font-size:60px;"">+</div>","null","fixation","","","","","","","","","","","","","",""
"revaluation","239","1120704","0.0-4.0-4.0-0.2","pilot_wm_v1","65f5a84b838dcc1ac14602f2","5","null","null","false","","false","","","","","[600.5]","./assets/img/ocean/animals/octopus.jpg","[""ArrowRight""]","revaluation","ocean","10","{""ArrowUp,ArrowLeft"":26,""ArrowUp,ArrowRight"":10,""ArrowDown,ArrowLeft"":5,""ArrowDown,ArrowRight"":17}","false","ArrowUp,ArrowRight","","5_4","","","","2","original","1",""
"html-keyboard-response","240","1121216","0.0-4.0-4.0-1.2","pilot_wm_v1","65f5a84b838dcc1ac14602f2","5","null","null","false","","","","","","","null","<div style=""font-size:60px;"">+</div>","null","fixation","","","","","","","","","","","","","",""
"revaluation","241","1125246","0.0-4.0-4.0-0.3","pilot_wm_v1","65f5a84b838dcc1ac14602f2","5","null","null","false","","false","","","","","[542.8000000715256]","./assets/img/ocean/animals/octopus.jpg","[""ArrowLeft""]","revaluation","ocean","26","{""ArrowUp,ArrowLeft"":26,""ArrowUp,ArrowRight"":10,""ArrowDown,ArrowLeft"":5,""ArrowDown,ArrowRight"":17}","true","ArrowUp,ArrowLeft","","3_0","","","","3","original","1",""
"html-keyboard-response","242","1125749","0.0-4.0-4.0-1.3","pilot_wm_v1","65f5a84b838dcc1ac14602f2","5","null","null","false","","","","","","","null","<div style=""font-size:60px;"">+</div>","null","fixation","","","","","","","","","","","","","",""
"html-slider-response","243","1129715","0.0-4.0-4.0-2.3-0.3","pilot_wm_v1","65f5a84b838dcc1ac14602f2","5","null","null","false","","","","","","","3969","<div style=""width:500px;"">
        <p>What is the password?</p>
        <img src='./assets/img/instructions/beep_chest.jpg' class='instructions-image'>","10","beep chest","","","","true","","","","50","10","0","","","",""
"revaluation","244","1133725","0.0-4.0-4.0-0.4","pilot_wm_v1","65f5a84b838dcc1ac14602f2","5","null","null","false","","false","","","","","[1810]","./assets/img/ocean/animals/seahorse.jpg","[""ArrowRight""]","revaluation","ocean","17","{""ArrowUp,ArrowLeft"":26,""ArrowUp,ArrowRight"":10,""ArrowDown,ArrowLeft"":5,""ArrowDown,ArrowRight"":17}","true","ArrowDown,ArrowRight","","14_4","","","","4","original","1",""
"html-keyboard-response","245","1134238","0.0-4.0-4.0-1.4","pilot_wm_v1","65f5a84b838dcc1ac14602f2","5","null","null","false","","","","","","","null","<div style=""font-size:60px;"">+</div>","null","fixation","","","","","","","","","","","","","",""
"revaluation","246","1138264","0.0-4.0-4.0-0.5","pilot_wm_v1","65f5a84b838dcc1ac14602f2","5","null","null","false","","false","","","","","[385.1999999284744]","./assets/img/ocean/animals/seahorse.jpg","[""ArrowLeft""]","revaluation","ocean","5","{""ArrowUp,ArrowLeft"":26,""ArrowUp,ArrowRight"":10,""ArrowDown,ArrowLeft"":5,""ArrowDown,ArrowRight"":17}","false","ArrowDown,ArrowLeft","","18_0","","","","5","original","1",""
"html-keyboard-response","247","1138772","0.0-4.0-4.0-1.5","pilot_wm_v1","65f5a84b838dcc1ac14602f2","5","null","null","false","","","","","","","null","<div style=""font-size:60px;"">+</div>","null","fixation","","","","","","","","","","","","","",""
"revaluation","248","1142784","0.0-4.0-4.0-0.6","pilot_wm_v1","65f5a84b838dcc1ac14602f2","5","null","null","false","","false","","","","","[817.3000000715256]","./assets/img/ocean/animals/octopus.jpg","[""ArrowLeft""]","revaluation","ocean","26","{""ArrowUp,ArrowLeft"":26,""ArrowUp,ArrowRight"":10,""ArrowDown,ArrowLeft"":5,""ArrowDown,ArrowRight"":17}","true","ArrowUp,ArrowLeft","","2_1","","","","6","original","1",""
"html-keyboard-response","249","1143294","0.0-4.0-4.0-1.6","pilot_wm_v1","65f5a84b838dcc1ac14602f2","5","null","null","false","","","","","","","null","<div style=""font-size:60px;"">+</div>","null","fixation","","","","","","","","","","","","","",""
"revaluation","250","1147310","0.0-4.0-4.0-0.7","pilot_wm_v1","65f5a84b838dcc1ac14602f2","5","null","null","false","","false","","","","","[621.1999999284744]","./assets/img/ocean/animals/seahorse.jpg","[""ArrowRight""]","revaluation","ocean","17","{""ArrowUp,ArrowLeft"":26,""ArrowUp,ArrowRight"":10,""ArrowDown,ArrowLeft"":5,""ArrowDown,ArrowRight"":17}","true","ArrowDown,ArrowRight","","13_2","","","","7","original","1",""
"html-keyboard-response","251","1147817","0.0-4.0-4.0-1.7","pilot_wm_v1","65f5a84b838dcc1ac14602f2","5","null","null","false","","","","","","","null","<div style=""font-size:60px;"">+</div>","null","fixation","","","","","","","","","","","","","",""
"html-slider-response","252","1150463","0.0-4.0-4.0-2.7-0.7","pilot_wm_v1","65f5a84b838dcc1ac14602f2","5","null","null","false","","","","","","","2644","<div style=""width:500px;"">
        <p>What is the password?</p>
        <img src='./assets/img/instructions/beep_chest.jpg' class='instructions-image'>","7","beep chest","","","","true","","","","50","7","0","","","",""
"revaluation","253","1154477","0.0-4.0-4.0-0.8","pilot_wm_v1","65f5a84b838dcc1ac14602f2","5","null","null","false","","false","","","","","[1557.2999999523163]","./assets/img/ocean/animals/octopus.jpg","[""ArrowLeft""]","revaluation","ocean","26","{""ArrowUp,ArrowLeft"":26,""ArrowUp,ArrowRight"":10,""ArrowDown,ArrowLeft"":5,""ArrowDown,ArrowRight"":17}","true","ArrowUp,ArrowLeft","","4_0","","","","8","original","1",""
"html-keyboard-response","254","1154982","0.0-4.0-4.0-1.8","pilot_wm_v1","65f5a84b838dcc1ac14602f2","5","null","null","false","","","","","","","null","<div style=""font-size:60px;"">+</div>","null","fixation","","","","","","","","","","","","","",""
"revaluation","255","1159004","0.0-4.0-4.0-0.9","pilot_wm_v1","65f5a84b838dcc1ac14602f2","5","null","null","false","","false","","","","","[412.39999997615814]","./assets/img/ocean/animals/seahorse.jpg","[""ArrowRight""]","revaluation","ocean","17","{""ArrowUp,ArrowLeft"":26,""ArrowUp,ArrowRight"":10,""ArrowDown,ArrowLeft"":5,""ArrowDown,ArrowRight"":17}","true","ArrowDown,ArrowRight","","10_3","","","","9","original","1",""
"html-keyboard-response","256","1159508","0.0-4.0-4.0-1.9","pilot_wm_v1","65f5a84b838dcc1ac14602f2","5","null","null","false","","","","","","","null","<div style=""font-size:60px;"">+</div>","null","fixation","","","","","","","","","","","","","",""
"revaluation","257","1163525","0.0-4.0-4.0-0.10","pilot_wm_v1","65f5a84b838dcc1ac14602f2","5","null","null","false","","false","","","","","[863.8999999761581]","./assets/img/ocean/animals/seahorse.jpg","[""ArrowLeft""]","revaluation","ocean","5","{""ArrowUp,ArrowLeft"":26,""ArrowUp,ArrowRight"":10,""ArrowDown,ArrowLeft"":5,""ArrowDown,ArrowRight"":17}","false","ArrowDown,ArrowLeft","","16_0","","","","10","original","1",""
"html-keyboard-response","258","1164032","0.0-4.0-4.0-1.10","pilot_wm_v1","65f5a84b838dcc1ac14602f2","5","null","null","false","","","","","","","null","<div style=""font-size:60px;"">+</div>","null","fixation","","","","","","","","","","","","","",""
"revaluation","259","1168052","0.0-4.0-4.0-0.11","pilot_wm_v1","65f5a84b838dcc1ac14602f2","5","null","null","false","","false","","","","","[405.8000000715256]","./assets/img/ocean/animals/seahorse.jpg","[""ArrowRight""]","revaluation","ocean","17","{""ArrowUp,ArrowLeft"":26,""ArrowUp,ArrowRight"":10,""ArrowDown,ArrowLeft"":5,""ArrowDown,ArrowRight"":17}","true","ArrowDown,ArrowRight","","12_2","","","","11","original","1",""
"html-keyboard-response","260","1168558","0.0-4.0-4.0-1.11","pilot_wm_v1","65f5a84b838dcc1ac14602f2","5","null","null","false","","","","","","","null","<div style=""font-size:60px;"">+</div>","null","fixation","","","","","","","","","","","","","",""
"html-slider-response","261","1171311","0.0-4.0-4.0-2.11-0.11","pilot_wm_v1","65f5a84b838dcc1ac14602f2","5","null","null","false","","","","","","","2750","<div style=""width:500px;"">
        <p>What is the password?</p>
        <img src='./assets/img/instructions/beep_chest.jpg' class='instructions-image'>","5","beep chest","","","","true","","","","50","5","0","","","",""
"revaluation","262","1175334","0.0-4.0-4.0-0.12","pilot_wm_v1","65f5a84b838dcc1ac14602f2","5","null","null","false","","false","","","","","[1133.3999999761581]","./assets/img/ocean/animals/seahorse.jpg","[""ArrowLeft""]","revaluation","ocean","5","{""ArrowUp,ArrowLeft"":26,""ArrowUp,ArrowRight"":10,""ArrowDown,ArrowLeft"":5,""ArrowDown,ArrowRight"":17}","false","ArrowDown,ArrowLeft","","15_0","","","","12","original","1",""
"html-keyboard-response","263","1175838","0.0-4.0-4.0-1.12","pilot_wm_v1","65f5a84b838dcc1ac14602f2","5","null","null","false","","","","","","","null","<div style=""font-size:60px;"">+</div>","null","fixation","","","","","","","","","","","","","",""
"revaluation","264","1179857","0.0-4.0-4.0-0.13","pilot_wm_v1","65f5a84b838dcc1ac14602f2","5","null","null","false","","false","","","","","[451.2999999523163]","./assets/img/ocean/animals/octopus.jpg","[""ArrowLeft""]","revaluation","ocean","26","{""ArrowUp,ArrowLeft"":26,""ArrowUp,ArrowRight"":10,""ArrowDown,ArrowLeft"":5,""ArrowDown,ArrowRight"":17}","true","ArrowUp,ArrowLeft","","6_3","","","","13","original","1",""
"html-keyboard-response","265","1180364","0.0-4.0-4.0-1.13","pilot_wm_v1","65f5a84b838dcc1ac14602f2","5","null","null","false","","","","","","","null","<div style=""font-size:60px;"">+</div>","null","fixation","","","","","","","","","","","","","",""
"revaluation","266","1184379","0.0-4.0-4.0-0.14","pilot_wm_v1","65f5a84b838dcc1ac14602f2","5","null","null","false","","false","","","","","[561.3999999761581]","./assets/img/ocean/animals/seahorse.jpg","[""ArrowRight""]","revaluation","ocean","17","{""ArrowUp,ArrowLeft"":26,""ArrowUp,ArrowRight"":10,""ArrowDown,ArrowLeft"":5,""ArrowDown,ArrowRight"":17}","true","ArrowDown,ArrowRight","","11_4","","","","14","original","1",""
"html-keyboard-response","267","1184895","0.0-4.0-4.0-1.14","pilot_wm_v1","65f5a84b838dcc1ac14602f2","5","null","null","false","","","","","","","null","<div style=""font-size:60px;"">+</div>","null","fixation","","","","","","","","","","","","","",""
"revaluation","268","1188900","0.0-4.0-4.0-0.15","pilot_wm_v1","65f5a84b838dcc1ac14602f2","5","null","null","false","","false","","","","","[608.3999999761581]","./assets/img/ocean/animals/seahorse.jpg","[""ArrowLeft""]","revaluation","ocean","5","{""ArrowUp,ArrowLeft"":26,""ArrowUp,ArrowRight"":10,""ArrowDown,ArrowLeft"":5,""ArrowDown,ArrowRight"":17}","false","ArrowDown,ArrowLeft","","17_1","","","","15","original","1",""
"html-keyboard-response","269","1189405","0.0-4.0-4.0-1.15","pilot_wm_v1","65f5a84b838dcc1ac14602f2","5","null","null","false","","","","","","","null","<div style=""font-size:60px;"">+</div>","null","fixation","","","","","","","","","","","","","",""
"html-slider-response","270","1191836","0.0-4.0-4.0-2.15-0.15","pilot_wm_v1","65f5a84b838dcc1ac14602f2","5","null","null","false","","","","","","","2429","<div style=""width:500px;"">
        <p>What is the password?</p>
        <img src='./assets/img/instructions/beep_chest.jpg' class='instructions-image'>","7","beep chest","","","","false","","","","50","8","1","","","",""
"revaluation","271","1195850","0.0-4.0-4.0-0.16","pilot_wm_v1","65f5a84b838dcc1ac14602f2","5","null","null","false","","false","","","","","[883.6000000238419]","./assets/img/ocean/animals/octopus.jpg","[""ArrowRight""]","revaluation","ocean","10","{""ArrowUp,ArrowLeft"":26,""ArrowUp,ArrowRight"":10,""ArrowDown,ArrowLeft"":5,""ArrowDown,ArrowRight"":17}","false","ArrowUp,ArrowRight","","8_2","","","","16","original","1",""
"html-keyboard-response","272","1196361","0.0-4.0-4.0-1.16","pilot_wm_v1","65f5a84b838dcc1ac14602f2","5","null","null","false","","","","","","","null","<div style=""font-size:60px;"">+</div>","null","fixation","","","","","","","","","","","","","",""
"revaluation","273","1200378","0.0-4.0-4.0-0.17","pilot_wm_v1","65f5a84b838dcc1ac14602f2","5","null","null","false","","false","","","","","[587.7000000476837]","./assets/img/ocean/animals/octopus.jpg","[""ArrowLeft""]","revaluation","ocean","26","{""ArrowUp,ArrowLeft"":26,""ArrowUp,ArrowRight"":10,""ArrowDown,ArrowLeft"":5,""ArrowDown,ArrowRight"":17}","true","ArrowUp,ArrowLeft","","1_4","","","","17","original","1",""
"html-keyboard-response","274","1200895","0.0-4.0-4.0-1.17","pilot_wm_v1","65f5a84b838dcc1ac14602f2","5","null","null","false","","","","","","","null","<div style=""font-size:60px;"">+</div>","null","fixation","","","","","","","","","","","","","",""
"learning-instructions","275","1209046","0.0-4.0-6.0-0.0","pilot_wm_v1","65f5a84b838dcc1ac14602f2","5","null","null","false","","","","","","","null","<p> You have almost finished this part of the game! </p>
            <p> We are going to ask you to make a few more choices. </p>","","instructions","","","","","","","","","","","","","",""
"learning-instructions","276","1225023","0.0-4.0-6.0-0.1","pilot_wm_v1","65f5a84b838dcc1ac14602f2","5","null","null","false","","","","","","","null","<p> First, you need to decide whether to go up or down. When you see each picture, use the arrow keys to make your choice. </p>
            <p><b>You will not see which animal you found, but try to get to the one that will give you the most treasure.</b></p>","","instructions","","","","","","","","","","","","","",""
"html-keyboard-response","277","1226026","0.0-4.0-7.0-0.0","pilot_wm_v1","65f5a84b838dcc1ac14602f2","5","null","null","false","","","","","","","null","<div style=""font-size:100px;color:red;"">Starting in...</div>","null","","","","","","","","","","","","","","",""
"html-keyboard-response","278","1227039","0.0-4.0-7.0-1.0","pilot_wm_v1","65f5a84b838dcc1ac14602f2","5","null","null","false","","","","","","","null","<div style=""font-size:200px;color:red;"">3</div>","null","","","","","","","","","","","","","","",""
"html-keyboard-response","279","1228055","0.0-4.0-7.0-2.0","pilot_wm_v1","65f5a84b838dcc1ac14602f2","5","null","null","false","","","","","","","null","<div style=""font-size:200px;color:red;"">2</div>","null","","","","","","","","","","","","","","",""
"html-keyboard-response","280","1229066","0.0-4.0-7.0-3.0","pilot_wm_v1","65f5a84b838dcc1ac14602f2","5","null","null","false","","","","","","","null","<div style=""font-size:200px;color:red;"">1</div>","null","","","","","","","","","","","","","","",""
"revaluation","281","1229841","0.0-4.0-8.0-0.0","pilot_wm_v1","65f5a84b838dcc1ac14602f2","5","null","null","false","","false","","","","","[770.2999999523163]","./assets/img/ocean/test/1.jpg","[""ArrowUp""]","first stage test","ocean","0","{""ArrowUp,ArrowLeft"":26,""ArrowUp,ArrowRight"":10,""ArrowDown,ArrowLeft"":5,""ArrowDown,ArrowRight"":17}","true","ArrowUp","false","","","","","","original","1",""
"html-keyboard-response","282","1230344","0.0-4.0-8.0-1.0","pilot_wm_v1","65f5a84b838dcc1ac14602f2","5","null","null","false","","","","","","","null","<div style=""font-size:60px;"">+</div>","null","fixation","","","","","","","","","","","","","",""
"revaluation","283","1232875","0.0-4.0-8.0-0.1","pilot_wm_v1","65f5a84b838dcc1ac14602f2","5","null","null","false","","false","","","","","[2526.5]","./assets/img/ocean/test/3.jpg","[""ArrowUp""]","first stage test","ocean","0","{""ArrowUp,ArrowLeft"":26,""ArrowUp,ArrowRight"":10,""ArrowDown,ArrowLeft"":5,""ArrowDown,ArrowRight"":17}","true","ArrowUp","false","","","","","","original","1",""
"html-keyboard-response","284","1233377","0.0-4.0-8.0-1.1","pilot_wm_v1","65f5a84b838dcc1ac14602f2","5","null","null","false","","","","","","","null","<div style=""font-size:60px;"">+</div>","null","fixation","","","","","","","","","","","","","",""
