"trial_type","trial_index","time_elapsed","internal_node_id","task_version","subject_id","assigned_condition","age","gender","rest","success","timeout","failed_images","failed_audio","failed_video","browser_interaction","rt","stimulus","response","task_part","environment","score","rewardMap","correct","fullState","isCatch","audioStim","slider_start","answer","error","numberMissed","duration","trial_num","condition","order","bonus"
"pavlovia","0","1481","0.0-0.0","pilot_wm_v1","64135f3a5f83c8b43e569213","1","null","null","true","","","","","","","","","","","","","","","","","","","","","","","","","",""
"preload","1","65815","0.0-1.0","pilot_wm_v1","64135f3a5f83c8b43e569213","1","null","null","true","true","false","[]","[]","[]","[{""event"":""fullscreenenter"",""trial"":2,""time"":182203}]","","","","","","","","","","","","","","","","","","","",""
"fullscreen","2","183160","0.0-2.0","pilot_wm_v1","64135f3a5f83c8b43e569213","1","null","null","true","true","","","","","","","","","","","","","","","","","","","","","","","","",""
"audio-button-response","3","186777","0.0-3.0-0.0-0.0","pilot_wm_v1","64135f3a5f83c8b43e569213","1","null","null","true","","","","","","","2971","./assets/audio/audiotest/turtle.mp3","2","audio_test","","","","","","","","","","","","","","","",""
"learning-instructions","4","199198","0.0-3.0-1.0-0.0","pilot_wm_v1","64135f3a5f83c8b43e569213","1","null","null","true","","","","","","","5368","<p> Welcome! Please remember to stay in fullscreen mode and don't click away from the experiment. </p>","","instructions","","","","","","","","","","","","","","","",""
"learning-instructions","5","212841","0.0-3.0-1.0-0.1","pilot_wm_v1","64135f3a5f83c8b43e569213","1","null","null","true","","","","","","","5186.60000000149","<p> Today you will be playing a game to earn treasure. </p>
            <p> At the end of the experiment, you will earn a bonus based on how much treasure you find. </p>
            <img src='./assets/img/instructions/treasure.jpg' class='instructions-image'>","","instructions","","","","","","","","","","","","","","","",""
"learning-instructions","6","226016","0.0-3.0-1.0-0.2","pilot_wm_v1","64135f3a5f83c8b43e569213","1","null","null","true","","","","","","","4831.70000000298","<p> Animals have hidden treasure in treasure chests. </p>
            <p> You need to first find an animal and then choose which of their treasure chests to search. </p>
            <img src='./assets/img/space/animals/cat.jpg' class='instructions-image'>","","instructions","","","","","","","","","","","","","","","",""
"learning-instructions","7","240504","0.0-3.0-1.0-0.3","pilot_wm_v1","64135f3a5f83c8b43e569213","1","null","null","true","","","","","","","1248.7999999970198","<p> In each round, you will search for treasure in a different place. In the real game, there will be two rounds. </p>
            <p> You will begin with a separate, practice round where you will search for treasure in outer space. </p>
            <img src='./assets/img/space/0.jpg' class='instructions-image'>","","instructions","","","","","","","","","","","","","","","",""
"learning-instructions","8","252653","0.0-3.0-1.0-0.4","pilot_wm_v1","64135f3a5f83c8b43e569213","1","null","null","true","","","","","","","639.7000000029802","<p> On every turn, you will see a picture of the place that you are in, but the specific image may be different each time. </p>
            <p> For example, both of these images mean you are in outer space. </p>
            <img src='./assets/img/instructions/outerspace.jpg' class='instructions-image'>","","instructions","","","","","","","","","","","","","","","",""
"learning-instructions","9","261329","0.0-3.0-1.0-0.5","pilot_wm_v1","64135f3a5f83c8b43e569213","1","null","null","true","","","","","","","835","<p> You need to decide which direction to travel in. </p>
            <p> You can choose between going <b>up or down</b> by using the arrow keys. </p>
            <img src='./assets/img/instructions/updown.jpg' class='instructions-image'>","","instructions","","","","","","","","","","","","","","","",""
"learning-instructions","10","273372","0.0-3.0-1.0-0.6","pilot_wm_v1","64135f3a5f83c8b43e569213","1","null","null","true","","","","","","","3146.2999999970198","<p> You will have <b>2 seconds</b> to make your choice. </p>
            <p> If you do not make a choice within 2 seconds, you will not find an animal or earn treasure. </p>
            <img src='./assets/img/instructions/2seconds.jpg' class='instructions-image'>","","instructions","","","","","","","","","","","","","","","",""
"learning-instructions","11","281528","0.0-3.0-1.0-0.7","pilot_wm_v1","64135f3a5f83c8b43e569213","1","null","null","true","","","","","","","1022.6000000014901","<p> Let’s try practicing that now! </p>
            <p> When you see a picture of the place you are in, press the <b>up</b> key to travel up. </p>
            <img src='./assets/img/instructions/pressUp.jpg' class='instructions-image'>","","instructions","","","","","","","","","","","","","","","",""
"revaluation","12","285609","0.0-3.0-2.0-0.0","pilot_wm_v1","64135f3a5f83c8b43e569213","1","null","null","true","","false","","","","","[934.7000000029802]","./assets/img/space/0.jpg","[""ArrowUp""]","first stage practice","space","0","null","null","ArrowUp","false","","","","","","","","","",""
"html-keyboard-response","13","286123","0.0-3.0-2.0-1.0","pilot_wm_v1","64135f3a5f83c8b43e569213","1","null","null","true","","","","","","","null","<div style=""font-size:60px;"">+</div>","null","fixation","","","","","","","","","","","","","","","",""
"revaluation","14","290145","0.0-3.0-2.0-0.1","pilot_wm_v1","64135f3a5f83c8b43e569213","1","null","null","true","","false","","","","","[630.6999999955297]","./assets/img/space/1.jpg","[""ArrowUp""]","first stage practice","space","0","null","null","ArrowUp","false","","","","","","","","","",""
"html-keyboard-response","15","290648","0.0-3.0-2.0-1.1","pilot_wm_v1","64135f3a5f83c8b43e569213","1","null","null","true","","","","","","","null","<div style=""font-size:60px;"">+</div>","null","fixation","","","","","","","","","","","","","","","",""
"revaluation","16","294672","0.0-3.0-2.0-0.2","pilot_wm_v1","64135f3a5f83c8b43e569213","1","null","null","true","","false","","","","","[620]","./assets/img/space/2.jpg","[""ArrowUp""]","first stage practice","space","0","null","null","ArrowUp","false","","","","","","","","","",""
"html-keyboard-response","17","295188","0.0-3.0-2.0-1.2","pilot_wm_v1","64135f3a5f83c8b43e569213","1","null","null","true","","","","","","","null","<div style=""font-size:60px;"">+</div>","null","fixation","","","","","","","","","","","","","","","",""
"learning-instructions","18","300993","0.0-3.0-3.0-0.0","pilot_wm_v1","64135f3a5f83c8b43e569213","1","null","null","true","","","","","","","1083.8999999985099","<p> Great job! Now try pressing the <b>down</b> key to travel down. </p>
            <img src='./assets/img/instructions/pressDown.jpg' class='instructions-image'>","","instructions","","","","","","","","","","","","","","","",""
"revaluation","19","305010","0.0-3.0-4.0-0.0","pilot_wm_v1","64135f3a5f83c8b43e569213","1","null","null","true","","false","","","","","[795.3000000044703]","./assets/img/space/3.jpg","[""ArrowDown""]","first stage practice","space","0","null","null","ArrowDown","false","","","","","","","","","",""
"html-keyboard-response","20","305516","0.0-3.0-4.0-1.0","pilot_wm_v1","64135f3a5f83c8b43e569213","1","null","null","true","","","","","","","null","<div style=""font-size:60px;"">+</div>","null","fixation","","","","","","","","","","","","","","","",""
"revaluation","21","309536","0.0-3.0-4.0-0.1","pilot_wm_v1","64135f3a5f83c8b43e569213","1","null","null","true","","false","","","","","[518.8999999985099]","./assets/img/space/4.jpg","[""ArrowDown""]","first stage practice","space","0","null","null","ArrowDown","false","","","","","","","","","",""
"html-keyboard-response","22","310042","0.0-3.0-4.0-1.1","pilot_wm_v1","64135f3a5f83c8b43e569213","1","null","null","true","","","","","","","null","<div style=""font-size:60px;"">+</div>","null","fixation","","","","","","","","","","","","","","","",""
"revaluation","23","314064","0.0-3.0-4.0-0.2","pilot_wm_v1","64135f3a5f83c8b43e569213","1","null","null","true","","false","","","","","[428]","./assets/img/space/5.jpg","[""ArrowDown""]","first stage practice","space","0","null","null","ArrowDown","false","","","","","","","","","",""
"html-keyboard-response","24","314583","0.0-3.0-4.0-1.2","pilot_wm_v1","64135f3a5f83c8b43e569213","1","null","null","true","","","","","","","null","<div style=""font-size:60px;"">+</div>","null","fixation","","","","","","","","","","","","","","","",""
"learning-instructions","25","325597","0.0-3.0-5.0-0.0","pilot_wm_v1","64135f3a5f83c8b43e569213","1","null","null","true","","","","","","","1109.2000000029802","<p> The animals don’t move, so the animal in the upper part of a place will stay in the upper part of a place, and the animal in the lower part of a place will stay in the lower part of a place. </p>","","instructions","","","","","","","","","","","","","","","",""
"learning-instructions","26","336341","0.0-3.0-5.0-0.1","pilot_wm_v1","64135f3a5f83c8b43e569213","1","null","null","true","","","","","","","1583.6000000014901","<p> Each animal has two treasure chests for you to choose from. </p>
            <p> The amount of treasure in each chest can range from <b> 0 to 40 pieces.</b></p>","","instructions","","","","","","","","","","","","","","","",""
"learning-instructions","27","351866","0.0-3.0-5.0-0.2","pilot_wm_v1","64135f3a5f83c8b43e569213","1","null","null","true","","","","","","","4307.4000000059605","<p> You should decide which chest to search for treasure by using the <b>left</b> and <b>right</b> arrow keys. </p>
            <p><b> Pay attention to which animal is on the screen, as the animals have different treasure chests. </b></p>
            <img src='./assets/img/instructions/leftright.jpg' class='instructions-image'>","","instructions","","","","","","","","","","","","","","","",""
"learning-instructions","28","361559","0.0-3.0-5.0-0.3","pilot_wm_v1","64135f3a5f83c8b43e569213","1","null","null","true","","","","","","","3275.5","<p> Let’s try practicing that now. </p>
            <p> When you see an animal, choose which chest to search for treasure. </p>
            <img src='./assets/img/instructions/chooseChest.jpg' class='instructions-image'>","","instructions","","","","","","","","","","","","","","","",""
"revaluation","29","365582","0.0-3.0-6.0-0.0","pilot_wm_v1","64135f3a5f83c8b43e569213","1","null","null","true","","false","","","","","[924.2999999970198]","./assets/img/space/animals/rabbit.jpg","[""ArrowRight""]","second stage practice","space","23","{""ArrowUp,ArrowLeft"":3,""ArrowUp,ArrowRight"":36,""ArrowDown,ArrowLeft"":15,""ArrowDown,ArrowRight"":23}","true","ArrowDown,ArrowRight","","","","","","","","","","",""
"html-keyboard-response","30","366098","0.0-3.0-6.0-1.0","pilot_wm_v1","64135f3a5f83c8b43e569213","1","null","null","true","","","","","","","null","<div style=""font-size:60px;"">+</div>","null","fixation","","","","","","","","","","","","","","","",""
"revaluation","31","370124","0.0-3.0-6.0-0.1","pilot_wm_v1","64135f3a5f83c8b43e569213","1","null","null","true","","false","","","","","[665.5]","./assets/img/space/animals/cat.jpg","[""ArrowLeft""]","second stage practice","space","3","{""ArrowUp,ArrowLeft"":3,""ArrowUp,ArrowRight"":36,""ArrowDown,ArrowLeft"":15,""ArrowDown,ArrowRight"":23}","false","ArrowUp,ArrowLeft","","","","","","","","","","",""
"html-keyboard-response","32","370631","0.0-3.0-6.0-1.1","pilot_wm_v1","64135f3a5f83c8b43e569213","1","null","null","true","","","","","","","null","<div style=""font-size:60px;"">+</div>","null","fixation","","","","","","","","","","","","","","","",""
"revaluation","33","374657","0.0-3.0-6.0-0.2","pilot_wm_v1","64135f3a5f83c8b43e569213","1","null","null","true","","false","","","","","[351.79999999701977]","./assets/img/space/animals/rabbit.jpg","[""ArrowRight""]","second stage practice","space","23","{""ArrowUp,ArrowLeft"":3,""ArrowUp,ArrowRight"":36,""ArrowDown,ArrowLeft"":15,""ArrowDown,ArrowRight"":23}","true","ArrowDown,ArrowRight","","","","","","","","","","",""
"html-keyboard-response","34","375168","0.0-3.0-6.0-1.2","pilot_wm_v1","64135f3a5f83c8b43e569213","1","null","null","true","","","","","","","null","<div style=""font-size:60px;"">+</div>","null","fixation","","","","","","","","","","","","","","","",""
"revaluation","35","379192","0.0-3.0-6.0-0.3","pilot_wm_v1","64135f3a5f83c8b43e569213","1","null","null","true","","false","","","","","[664.3999999985099]","./assets/img/space/animals/cat.jpg","[""ArrowRight""]","second stage practice","space","36","{""ArrowUp,ArrowLeft"":3,""ArrowUp,ArrowRight"":36,""ArrowDown,ArrowLeft"":15,""ArrowDown,ArrowRight"":23}","true","ArrowUp,ArrowRight","","","","","","","","","","",""
"html-keyboard-response","36","379703","0.0-3.0-6.0-1.3","pilot_wm_v1","64135f3a5f83c8b43e569213","1","null","null","true","","","","","","","null","<div style=""font-size:60px;"">+</div>","null","fixation","","","","","","","","","","","","","","","",""
"learning-instructions","37","403141","0.0-3.0-7.0-0.0","pilot_wm_v1","64135f3a5f83c8b43e569213","1","null","null","true","","","","","","","6558.10000000149","<p> Great job. Now let’s try putting it together. </p>
            <p> On each turn, you will first see a picture to remind you of the place you are in, and you need to choose whether to go up or down. </p>
            <p> Then you will see an animal and choose which of its chests to search for treasure. </p>","","instructions","","","","","","","","","","","","","","","",""
"learning-instructions","38","415577","0.0-3.0-7.0-0.1","pilot_wm_v1","64135f3a5f83c8b43e569213","1","null","null","true","","","","","","","4144.29999999702","<p> When you choose whether to go up or down, try to go to the animal with the chest with the most treasure. </p>
            <p> Try practicing that now! </p>","","instructions","","","","","","","","","","","","","","","",""
"revaluation","39","421603","0.0-3.0-8.0-0.0","pilot_wm_v1","64135f3a5f83c8b43e569213","1","null","null","true","","false","","","","","[1319.2000000029802,429.19999999552965]","./assets/img/space/6.jpg","[""ArrowDown"",""ArrowRight""]","full practice","space","23","{""ArrowUp,ArrowLeft"":3,""ArrowUp,ArrowRight"":36,""ArrowDown,ArrowLeft"":15,""ArrowDown,ArrowRight"":23}","false","ArrowDown,ArrowRight","false","","","","","","","","","",""
"html-keyboard-response","40","422109","0.0-3.0-8.0-1.0","pilot_wm_v1","64135f3a5f83c8b43e569213","1","null","null","true","","","","","","","null","<div style=""font-size:60px;"">+</div>","null","fixation","","","","","","","","","","","","","","","",""
"revaluation","41","428153","0.0-3.0-8.0-0.1","pilot_wm_v1","64135f3a5f83c8b43e569213","1","null","null","true","","false","","","","","[632.2000000029802,1434.6000000014901]","./assets/img/space/7.jpg","[""ArrowUp"",""ArrowRight""]","full practice","space","36","{""ArrowUp,ArrowLeft"":3,""ArrowUp,ArrowRight"":36,""ArrowDown,ArrowLeft"":15,""ArrowDown,ArrowRight"":23}","true","ArrowUp,ArrowRight","false","","","","","","","","","",""
"html-keyboard-response","42","428660","0.0-3.0-8.0-1.1","pilot_wm_v1","64135f3a5f83c8b43e569213","1","null","null","true","","","","","","","null","<div style=""font-size:60px;"">+</div>","null","fixation","","","","","","","","","","","","","","","",""
"revaluation","43","434685","0.0-3.0-8.0-0.2","pilot_wm_v1","64135f3a5f83c8b43e569213","1","null","null","true","","false","","","","","[659.3999999985099,509.6000000014901]","./assets/img/space/8.jpg","[""ArrowDown"",""ArrowRight""]","full practice","space","23","{""ArrowUp,ArrowLeft"":3,""ArrowUp,ArrowRight"":36,""ArrowDown,ArrowLeft"":15,""ArrowDown,ArrowRight"":23}","false","ArrowDown,ArrowRight","false","","","","","","","","","",""
"html-keyboard-response","44","435196","0.0-3.0-8.0-1.2","pilot_wm_v1","64135f3a5f83c8b43e569213","1","null","null","true","","","","","","","null","<div style=""font-size:60px;"">+</div>","null","fixation","","","","","","","","","","","","","","","",""
"revaluation","45","441231","0.0-3.0-8.0-0.3","pilot_wm_v1","64135f3a5f83c8b43e569213","1","null","null","true","","false","","","","","[365.8999999985099,305.5]","./assets/img/space/9.jpg","[""ArrowUp"",""ArrowRight""]","full practice","space","36","{""ArrowUp,ArrowLeft"":3,""ArrowUp,ArrowRight"":36,""ArrowDown,ArrowLeft"":15,""ArrowDown,ArrowRight"":23}","true","ArrowUp,ArrowRight","false","","","","","","","","","",""
"html-keyboard-response","46","441733","0.0-3.0-8.0-1.3","pilot_wm_v1","64135f3a5f83c8b43e569213","1","null","null","true","","","","","","","null","<div style=""font-size:60px;"">+</div>","null","fixation","","","","","","","","","","","","","","","",""
"revaluation","47","447748","0.0-3.0-8.0-0.4","pilot_wm_v1","64135f3a5f83c8b43e569213","1","null","null","true","","false","","","","","[400.69999999552965,258.5]","./assets/img/space/10.jpg","[""ArrowUp"",""ArrowRight""]","full practice","space","36","{""ArrowUp,ArrowLeft"":3,""ArrowUp,ArrowRight"":36,""ArrowDown,ArrowLeft"":15,""ArrowDown,ArrowRight"":23}","true","ArrowUp,ArrowRight","false","","","","","","","","","",""
"html-keyboard-response","48","448257","0.0-3.0-8.0-1.4","pilot_wm_v1","64135f3a5f83c8b43e569213","1","null","null","true","","","","","","","null","<div style=""font-size:60px;"">+</div>","null","fixation","","","","","","","","","","","","","","","",""
"learning-instructions","49","463022","0.0-3.0-9.0-0.0","pilot_wm_v1","64135f3a5f83c8b43e569213","1","null","null","true","","","","","","","4275.29999999702","<p> One last thing: sometimes, you will see a robber. The robber can be anywhere in the picture. </p>
            <p> If you do not stop them, you will lose treasure. </p>
            <img src='./assets/img/instructions/robber.jpg' class='instructions-image'>","","instructions","","","","","","","","","","","","","","","",""
"learning-instructions","50","471312","0.0-3.0-9.0-0.1","pilot_wm_v1","64135f3a5f83c8b43e569213","1","null","null","true","","","","","","","1095.7000000029802","<p> If you see the robber, you should <b>press the space bar</b> rather than using the arrow keys. </p>
            <p> Try practicing that now! </p>","","instructions","","","","","","","","","","","","","","","",""
"revaluation","51","475329","0.0-3.0-10.0-0.0","pilot_wm_v1","64135f3a5f83c8b43e569213","1","null","null","true","","false","","","","","[683.5]","./assets/img/space/catch/0.jpg","[""spaceBar""]","catch practice","space","0","{""ArrowUp,ArrowLeft"":3,""ArrowUp,ArrowRight"":36,""ArrowDown,ArrowLeft"":15,""ArrowDown,ArrowRight"":23}","true","spaceBar","true","","","","","","","","","",""
"html-keyboard-response","52","475838","0.0-3.0-10.0-1.0","pilot_wm_v1","64135f3a5f83c8b43e569213","1","null","null","true","","","","","","","null","<div style=""font-size:60px;"">+</div>","null","fixation","","","","","","","","","","","","","","","",""
"revaluation","53","479858","0.0-3.0-10.0-0.1","pilot_wm_v1","64135f3a5f83c8b43e569213","1","null","null","true","","false","","","","","[544.2000000029802]","./assets/img/space/catch/1.jpg","[""spaceBar""]","catch practice","space","0","{""ArrowUp,ArrowLeft"":3,""ArrowUp,ArrowRight"":36,""ArrowDown,ArrowLeft"":15,""ArrowDown,ArrowRight"":23}","true","spaceBar","true","","","","","","","","","",""
"html-keyboard-response","54","480371","0.0-3.0-10.0-1.1","pilot_wm_v1","64135f3a5f83c8b43e569213","1","null","null","true","","","","","","","null","<div style=""font-size:60px;"">+</div>","null","fixation","","","","","","","","","","","","","","","",""
"revaluation","55","484399","0.0-3.0-10.0-0.2","pilot_wm_v1","64135f3a5f83c8b43e569213","1","null","null","true","","false","","","","","[323.69999999552965]","./assets/img/space/catch/2.jpg","[""spaceBar""]","catch practice","space","0","{""ArrowUp,ArrowLeft"":3,""ArrowUp,ArrowRight"":36,""ArrowDown,ArrowLeft"":15,""ArrowDown,ArrowRight"":23}","true","spaceBar","true","","","","","","","","","",""
"html-keyboard-response","56","484911","0.0-3.0-10.0-1.2","pilot_wm_v1","64135f3a5f83c8b43e569213","1","null","null","true","","","","","","","null","<div style=""font-size:60px;"">+</div>","null","fixation","","","","","","","","","","","","","","","",""
"learning-instructions","57","493198","0.0-3.0-11.0-0.0","pilot_wm_v1","64135f3a5f83c8b43e569213","1","null","null","true","","","","","","","2729.5","<p> Sometimes, you will come across a special kind of treasure chest that requires a password. </p>
            <img src='./assets/img/instructions/beep_chest.jpg' class='instructions-image'>","","instructions","","","","","","","","","","","","","","","",""
"learning-instructions","58","518392","0.0-3.0-11.0-0.1","pilot_wm_v1","64135f3a5f83c8b43e569213","1","null","null","true","","","","","","","3513.3000000044703","<p> Your friend will send you the password using a series of beeps so that you can open the chest and earn treasure. </p>
            <p> You will hear two kinds of beeps, a high beep and a low beep. </p>
            <p> You should report the number of high beeps that you heard before seeing the chest. </p>
            <img src='./assets/img/instructions/listen.jpg' class='instructions-image'>","","instructions","","","","","","","","","","","","","","","",""
"learning-instructions","59","542573","0.0-3.0-11.0-0.2","pilot_wm_v1","64135f3a5f83c8b43e569213","1","null","null","true","","","","","","","1786.7000000029802","<p> For example, if you hear this series of beeps, you should report 4 as the password using the slider. </p>
            <p> After reporting a password for a chest, you should count the high beeps again starting from 0. </p>
            <p> Let's try practicing that now. </p>","","instructions","","","","","","","","","","","","","","","",""
"audio-button-response","60","550665","0.0-3.0-12.0-0.0-0.0","pilot_wm_v1","64135f3a5f83c8b43e569213","1","null","null","true","","","","","","","null","./assets/audio/beeps/practice_6.wav","null","","","","","","","","","","","","","","","","",""
"html-slider-response","61","554507","0.0-3.0-12.0-0.0-1.0","pilot_wm_v1","64135f3a5f83c8b43e569213","1","null","null","true","","","","","","","3826","<div style=""width:500px;"">
        <p>What is the password?</p>
        <img src='./assets/img/instructions/beep_chest.jpg' class='instructions-image'>","6","beep chest","","","","false","","","","50","0","6","","","","","",""
"comp-q","62","573568","0.0-3.0-12.0-0.0-2.0","pilot_wm_v1","64135f3a5f83c8b43e569213","1","null","null","true","","","","","","","14762.89999999851","<p>Correct! There were 6 high pitched beeps before you saw the chest. </p>","0","beep answer","","","","","","","","","","","","","","","",""
"audio-button-response","63","581665","0.0-3.0-12.0-0.1-0.1","pilot_wm_v1","64135f3a5f83c8b43e569213","1","null","null","true","","","","","","","null","./assets/audio/beeps/practice_4.wav","null","","","","","","","","","","","","","","","","",""
"html-slider-response","64","587343","0.0-3.0-12.0-0.1-1.1","pilot_wm_v1","64135f3a5f83c8b43e569213","1","null","null","true","","","","","","","5672","<div style=""width:500px;"">
        <p>What is the password?</p>
        <img src='./assets/img/instructions/beep_chest.jpg' class='instructions-image'>","4","beep chest","","","","false","","","","50","0","4","","","","","",""
"comp-q","65","603849","0.0-3.0-12.0-0.1-2.1","pilot_wm_v1","64135f3a5f83c8b43e569213","1","null","null","true","","","","","","","12252.60000000149","<p>Correct! There were 4 high pitched beeps before you saw the chest. </p>","0","beep answer","","","","","","","","","","","","","","","",""
"learning-instructions","66","714004","0.0-3.0-13.0-0.0","pilot_wm_v1","64135f3a5f83c8b43e569213","1","null","null","true","","","","","","","99786.70000000298","<p> Good job! In the real game we will not tell you if you entered the right password. </p>
            <p> Do your best, the treasure you earn from these chests will also give you extra bonus money. </p>","","instructions","","","","","","","","","","","","","","","",""
"learning-instructions","67","730648","0.0-3.0-14.0-0.0-0.0","pilot_wm_v1","64135f3a5f83c8b43e569213","1","null","null","true","","","","","","","1869.1000000014901","<p> After you explore a place to find treasure, it will be time to play a different game. </p>
            <p> During this game, red dots will appear on the screen and fall down slowly. </p>
            <p><b> You must click on them before they reach the bottom. </b></p>
            <img src='./assets/img/instructions/dotGame.jpg' class='instructions-image'>","","instructions","","","","","","","","","","","","","","","",""
"learning-instructions","68","969270","0.0-3.0-14.0-0.0-0.1","pilot_wm_v1","64135f3a5f83c8b43e569213","1","null","null","true","","","","","","","232873.3999999985","<p> For every dot you click, you will earn additional treasure. </p>
            <p> Let’s try practicing that now. </p>","","instructions","","","","","","","","","","","","","","","",""
"revaluation","69","984306","0.0-3.0-14.0-1.0-0.0","pilot_wm_v1","64135f3a5f83c8b43e569213","1","null","null","true","","","","","","","[-1]","","","rest practice","","10","","","","","","","","","1","15000","","","",""
"learning-instructions","70","1039857","0.0-3.0-15.0-0.0-0.0","pilot_wm_v1","64135f3a5f83c8b43e569213","1","null","null","true","","","","","","","49224.60000000149","<p> Now, you will practice a shortened version of the game to get a sense of how it all fits together. </p>","","instructions","","","","","","","","","","","","","","","",""
"learning-instructions","71","1045391","0.0-3.0-15.0-0.0-0.1","pilot_wm_v1","64135f3a5f83c8b43e569213","1","null","null","true","","","","","","","1179.3999999985099","<p>This time you are searching for treasure in outer space.</p>","","instructions","","","","","","","","","","","","","","","",""
"learning-instructions","72","1064595","0.0-3.0-15.0-1.0-0.0","pilot_wm_v1","64135f3a5f83c8b43e569213","1","null","null","true","","","","","","","4384.79999999702","<p> Remember, when you see a picture of the place, use the up and down keys to <b>find an animal</b>.</p>
            <p> When you encounter an animal, you should use the left and right keys to <b>select a treasure chest</b>.</p>
            <p> Don't forget to look out for the robber! </p>","","instructions","","","","","","","","","","","","","","","",""
"revaluation","73","1070649","0.0-3.0-15.0-2.0-0.0","pilot_wm_v1","64135f3a5f83c8b43e569213","1","null","null","true","","false","","","","","[1042.3000000044703,891.5]","./assets/img/space/11.jpg","[""ArrowUp"",""ArrowRight""]","practice block","space","36","{""ArrowUp,ArrowLeft"":3,""ArrowUp,ArrowRight"":36,""ArrowDown,ArrowLeft"":15,""ArrowDown,ArrowRight"":23}","true","ArrowUp,ArrowRight","false","","","","","","","","","",""
"html-keyboard-response","74","1071161","0.0-3.0-15.0-2.0-1.0","pilot_wm_v1","64135f3a5f83c8b43e569213","1","null","null","true","","","","","","","null","<div style=""font-size:60px;"">+</div>","null","fixation","","","","","","","","","","","","","","","",""
"revaluation","75","1077193","0.0-3.0-15.0-2.0-0.1","pilot_wm_v1","64135f3a5f83c8b43e569213","1","null","null","true","","false","","","","","[781.2999999970198,384.19999999552965]","./assets/img/space/12.jpg","[""ArrowUp"",""ArrowRight""]","practice block","space","36","{""ArrowUp,ArrowLeft"":3,""ArrowUp,ArrowRight"":36,""ArrowDown,ArrowLeft"":15,""ArrowDown,ArrowRight"":23}","true","ArrowUp,ArrowRight","false","","","","","","","","","",""
"html-keyboard-response","76","1077695","0.0-3.0-15.0-2.0-1.1","pilot_wm_v1","64135f3a5f83c8b43e569213","1","null","null","true","","","","","","","null","<div style=""font-size:60px;"">+</div>","null","fixation","","","","","","","","","","","","","","","",""
"revaluation","77","1083740","0.0-3.0-15.0-2.0-0.2","pilot_wm_v1","64135f3a5f83c8b43e569213","1","null","null","true","","false","","","","","[585.7999999970198,448.09999999403954]","./assets/img/space/13.jpg","[""ArrowUp"",""ArrowRight""]","practice block","space","36","{""ArrowUp,ArrowLeft"":3,""ArrowUp,ArrowRight"":36,""ArrowDown,ArrowLeft"":15,""ArrowDown,ArrowRight"":23}","true","ArrowUp,ArrowRight","false","","","","","","","","","",""
"html-keyboard-response","78","1084253","0.0-3.0-15.0-2.0-1.2","pilot_wm_v1","64135f3a5f83c8b43e569213","1","null","null","true","","","","","","","null","<div style=""font-size:60px;"">+</div>","null","fixation","","","","","","","","","","","","","","","",""
"revaluation","79","1090297","0.0-3.0-15.0-2.0-0.3","pilot_wm_v1","64135f3a5f83c8b43e569213","1","null","null","true","","false","","","","","[517.7999999970198,283.3999999985099]","./assets/img/space/14.jpg","[""ArrowUp"",""ArrowRight""]","practice block","space","36","{""ArrowUp,ArrowLeft"":3,""ArrowUp,ArrowRight"":36,""ArrowDown,ArrowLeft"":15,""ArrowDown,ArrowRight"":23}","true","ArrowUp,ArrowRight","false","","","","","","","","","",""
"html-keyboard-response","80","1090801","0.0-3.0-15.0-2.0-1.3","pilot_wm_v1","64135f3a5f83c8b43e569213","1","null","null","true","","","","","","","null","<div style=""font-size:60px;"">+</div>","null","fixation","","","","","","","","","","","","","","","",""
"revaluation","81","1096831","0.0-3.0-15.0-2.0-0.4","pilot_wm_v1","64135f3a5f83c8b43e569213","1","null","null","true","","false","","","","","[1188.5,463.5]","./assets/img/space/11.jpg","[""ArrowUp"",""ArrowRight""]","practice block","space","36","{""ArrowUp,ArrowLeft"":3,""ArrowUp,ArrowRight"":36,""ArrowDown,ArrowLeft"":15,""ArrowDown,ArrowRight"":23}","true","ArrowUp,ArrowRight","false","","","","","","","","","",""
"html-keyboard-response","82","1097348","0.0-3.0-15.0-2.0-1.4","pilot_wm_v1","64135f3a5f83c8b43e569213","1","null","null","true","","","","","","","null","<div style=""font-size:60px;"">+</div>","null","fixation","","","","","","","","","","","","","","","",""
"revaluation","83","1103371","0.0-3.0-15.0-2.0-0.5","pilot_wm_v1","64135f3a5f83c8b43e569213","1","null","null","true","","false","","","","","[506.1000000014901,463.30000000447035]","./assets/img/space/12.jpg","[""ArrowUp"",""ArrowRight""]","practice block","space","36","{""ArrowUp,ArrowLeft"":3,""ArrowUp,ArrowRight"":36,""ArrowDown,ArrowLeft"":15,""ArrowDown,ArrowRight"":23}","true","ArrowUp,ArrowRight","false","","","","","","","","","",""
"html-keyboard-response","84","1103874","0.0-3.0-15.0-2.0-1.5","pilot_wm_v1","64135f3a5f83c8b43e569213","1","null","null","true","","","","","","","null","<div style=""font-size:60px;"">+</div>","null","fixation","","","","","","","","","","","","","","","",""
"revaluation","85","1109901","0.0-3.0-15.0-2.0-0.6","pilot_wm_v1","64135f3a5f83c8b43e569213","1","null","null","true","","false","","","","","[482.70000000298023,560]","./assets/img/space/13.jpg","[""ArrowUp"",""ArrowRight""]","practice block","space","36","{""ArrowUp,ArrowLeft"":3,""ArrowUp,ArrowRight"":36,""ArrowDown,ArrowLeft"":15,""ArrowDown,ArrowRight"":23}","true","ArrowUp,ArrowRight","false","","","","","","","","","",""
"html-keyboard-response","86","1110408","0.0-3.0-15.0-2.0-1.6","pilot_wm_v1","64135f3a5f83c8b43e569213","1","null","null","true","","","","","","","null","<div style=""font-size:60px;"">+</div>","null","fixation","","","","","","","","","","","","","","","",""
"revaluation","87","1116441","0.0-3.0-15.0-2.0-0.7","pilot_wm_v1","64135f3a5f83c8b43e569213","1","null","null","true","","false","","","","","[510.5,309.3999999985099]","./assets/img/space/14.jpg","[""ArrowUp"",""ArrowRight""]","practice block","space","36","{""ArrowUp,ArrowLeft"":3,""ArrowUp,ArrowRight"":36,""ArrowDown,ArrowLeft"":15,""ArrowDown,ArrowRight"":23}","true","ArrowUp,ArrowRight","false","","","","","","","","","",""
"html-keyboard-response","88","1116959","0.0-3.0-15.0-2.0-1.7","pilot_wm_v1","64135f3a5f83c8b43e569213","1","null","null","true","","","","","","","null","<div style=""font-size:60px;"">+</div>","null","fixation","","","","","","","","","","","","","","","",""
"revaluation","89","1120980","0.0-3.0-15.0-2.0-0.8","pilot_wm_v1","64135f3a5f83c8b43e569213","1","null","null","true","","false","","","","","[599.6000000014901]","./assets/img/space/catch/3.jpg","[""ArrowUp""]","practice block","space","-10","{""ArrowUp,ArrowLeft"":3,""ArrowUp,ArrowRight"":36,""ArrowDown,ArrowLeft"":15,""ArrowDown,ArrowRight"":23}","false","ArrowUp","true","","","","","","","","","",""
"html-keyboard-response","90","1121485","0.0-3.0-15.0-2.0-1.8","pilot_wm_v1","64135f3a5f83c8b43e569213","1","null","null","true","","","","","","","null","<div style=""font-size:60px;"">+</div>","null","fixation","","","","","","","","","","","","","","","",""
"learning-instructions","91","1247737","0.0-3.0-15.0-3.0-0.0","pilot_wm_v1","64135f3a5f83c8b43e569213","1","null","null","true","","","","","","","112174.5","<p> Now, you will travel with a friend who will choose whether you go up or down first. </p>
            <p> On these turns, you will just see the animal that they found. You will still get to choose which chest to search for treasure.</p>","","instructions","","","","","","","","","","","","","","","",""
"learning-instructions","92","1512542","0.0-3.0-15.0-3.0-0.1","pilot_wm_v1","64135f3a5f83c8b43e569213","1","null","null","true","","","","","","","252049.5","<p> In this part, you will also hear beeps from your friend and see special treasure chests that need a password. </p>
            <p> Do your best to count the high beeps <b>and</b> choose between each animals' chests at the same time.</p>
            <img src='./assets/img/instructions/beep_chest.jpg' class='instructions-image'>","","instructions","","","","","","","","","","","","","","","",""
"revaluation","93","1516580","0.0-3.0-15.0-4.0-0.0","pilot_wm_v1","64135f3a5f83c8b43e569213","1","null","null","true","","false","","","","","[1373.7999999970198]","./assets/img/space/animals/cat.jpg","[""ArrowRight""]","practice block","space","36","{""ArrowUp,ArrowLeft"":3,""ArrowUp,ArrowRight"":36,""ArrowDown,ArrowLeft"":15,""ArrowDown,ArrowRight"":23}","true","ArrowUp,ArrowRight","","[""20_0""]","","","","","","0","","",""
"html-keyboard-response","94","1517084","0.0-3.0-15.0-4.0-1.0","pilot_wm_v1","64135f3a5f83c8b43e569213","1","null","null","true","","","","","","","null","<div style=""font-size:60px;"">+</div>","null","fixation","","","","","","","","","","","","","","","",""
"revaluation","95","1521111","0.0-3.0-15.0-4.0-0.1","pilot_wm_v1","64135f3a5f83c8b43e569213","1","null","null","true","","false","","","","","[956.6999999955297]","./assets/img/space/animals/cat.jpg","[""ArrowRight""]","practice block","space","36","{""ArrowUp,ArrowLeft"":3,""ArrowUp,ArrowRight"":36,""ArrowDown,ArrowLeft"":15,""ArrowDown,ArrowRight"":23}","true","ArrowUp,ArrowRight","","[""19_0""]","","","","","","1","","",""
"html-keyboard-response","96","1521615","0.0-3.0-15.0-4.0-1.1","pilot_wm_v1","64135f3a5f83c8b43e569213","1","null","null","true","","","","","","","null","<div style=""font-size:60px;"">+</div>","null","fixation","","","","","","","","","","","","","","","",""
"revaluation","97","1525642","0.0-3.0-15.0-4.0-0.2","pilot_wm_v1","64135f3a5f83c8b43e569213","1","null","null","true","","true","","","","","[]","./assets/img/space/animals/rabbit.jpg","[]","practice block","space","-5","{""ArrowUp,ArrowLeft"":3,""ArrowUp,ArrowRight"":36,""ArrowDown,ArrowLeft"":15,""ArrowDown,ArrowRight"":23}","false","ArrowDown","","[""21_1""]","","","","","","2","","",""
"html-keyboard-response","98","1526151","0.0-3.0-15.0-4.0-1.2","pilot_wm_v1","64135f3a5f83c8b43e569213","1","null","null","true","","","","","","","null","<div style=""font-size:60px;"">+</div>","null","fixation","","","","","","","","","","","","","","","",""
"revaluation","99","1530171","0.0-3.0-15.0-4.0-0.3","pilot_wm_v1","64135f3a5f83c8b43e569213","1","null","null","true","","false","","","","","[620.8000000044703]","./assets/img/space/animals/rabbit.jpg","[""ArrowRight""]","practice block","space","23","{""ArrowUp,ArrowLeft"":3,""ArrowUp,ArrowRight"":36,""ArrowDown,ArrowLeft"":15,""ArrowDown,ArrowRight"":23}","true","ArrowDown,ArrowRight","","[""22_3""]","","","","","","3","","",""
"html-keyboard-response","100","1530681","0.0-3.0-15.0-4.0-1.3","pilot_wm_v1","64135f3a5f83c8b43e569213","1","null","null","true","","","","","","","null","<div style=""font-size:60px;"">+</div>","null","fixation","","","","","","","","","","","","","","","",""
"html-slider-response","101","1535064","0.0-3.0-15.0-4.0-2.3-0.3","pilot_wm_v1","64135f3a5f83c8b43e569213","1","null","null","true","","","","","","","4377","<div style=""width:500px;"">
        <p>What is the password?</p>
        <img src='./assets/img/instructions/beep_chest.jpg' class='instructions-image'>","3","beep chest","","","","false","","","","50","82","79","","","","","",""
"learning-instructions","102","1544988","0.0-3.0-15.0-5.0-0.0-0.0","pilot_wm_v1","64135f3a5f83c8b43e569213","1","null","null","true","","","","","","","2406.1999999955297","<p> Time to play the dot game! </p>
            <p> For 15 seconds, click the red dots on the following screen as they appear. </p>","","instructions","","","","","","","","","","","","","","","",""
"revaluation","103","1559997","0.0-3.0-15.0-5.0-1.0-0.0","pilot_wm_v1","64135f3a5f83c8b43e569213","1","null","null","true","","","","","","","[84]","","","rest practice","","10","","","","","","","","","0","15000","","","",""
"learning-instructions","104","1568224","0.0-3.0-15.0-6.0-0.0","pilot_wm_v1","64135f3a5f83c8b43e569213","1","null","null","true","","","","","","","null","<p> You have almost finished this part of the game! </p>
            <p> We are going to ask you to make a few more choices. </p>","","instructions","","","","","","","","","","","","","","","",""
"learning-instructions","105","1584355","0.0-3.0-15.0-6.0-0.1","pilot_wm_v1","64135f3a5f83c8b43e569213","1","null","null","true","","","","","","","null","<p> First, you need to decide whether to go up or down. When you see each picture, use the arrow keys to make your choice. </p>
            <p><b>You will not see which animal you found, but try to get to the one that will give you the most treasure.</b></p>","","instructions","","","","","","","","","","","","","","","",""
"html-keyboard-response","106","1585369","0.0-3.0-15.0-7.0-0.0","pilot_wm_v1","64135f3a5f83c8b43e569213","1","null","null","true","","","","","","","null","<div style=""font-size:100px;color:red;"">Starting in...</div>","null","","","","","","","","","","","","","","","","",""
"html-keyboard-response","107","1586376","0.0-3.0-15.0-7.0-1.0","pilot_wm_v1","64135f3a5f83c8b43e569213","1","null","null","true","","","","","","","null","<div style=""font-size:200px;color:red;"">3</div>","null","","","","","","","","","","","","","","","","",""
"html-keyboard-response","108","1587387","0.0-3.0-15.0-7.0-2.0","pilot_wm_v1","64135f3a5f83c8b43e569213","1","null","null","true","","","","","","","null","<div style=""font-size:200px;color:red;"">2</div>","null","","","","","","","","","","","","","","","","",""
"html-keyboard-response","109","1588398","0.0-3.0-15.0-7.0-3.0","pilot_wm_v1","64135f3a5f83c8b43e569213","1","null","null","true","","","","","","","null","<div style=""font-size:200px;color:red;"">1</div>","null","","","","","","","","","","","","","","","","",""
"revaluation","110","1589797","0.0-3.0-15.0-8.0","pilot_wm_v1","64135f3a5f83c8b43e569213","1","null","null","true","","false","","","","","[1388.7999999970198]","./assets/img/space/15.jpg","[""ArrowUp""]","practice block","space","0","{""ArrowUp,ArrowLeft"":3,""ArrowUp,ArrowRight"":36,""ArrowDown,ArrowLeft"":15,""ArrowDown,ArrowRight"":23}","true","ArrowUp","false","","","","","","","","","",""
"html-keyboard-response","111","1590304","0.0-3.0-15.0-9.0","pilot_wm_v1","64135f3a5f83c8b43e569213","1","null","null","true","","","","","","","null","<div style=""font-size:60px;"">+</div>","null","fixation","","","","","","","","","","","","","","","",""
"learning-instructions","112","1603806","0.0-3.0-15.0-10.0-0.0","pilot_wm_v1","64135f3a5f83c8b43e569213","1","null","null","true","","","","","","","null","<p> Now you will see the animals again and can search their chests for treasure. </p>
            <p> This time, you will not see how much treasure you earned, but you will earn more bonus money for making better choices. </p>","","instructions","","","","","","","","","","","","","","","",""
"html-keyboard-response","113","1604814","0.0-3.0-15.0-11.0-0.0","pilot_wm_v1","64135f3a5f83c8b43e569213","1","null","null","true","","","","","","","null","<div style=""font-size:100px;color:red;"">Starting in...</div>","null","","","","","","","","","","","","","","","","",""
"html-keyboard-response","114","1605830","0.0-3.0-15.0-11.0-1.0","pilot_wm_v1","64135f3a5f83c8b43e569213","1","null","null","true","","","","","","","null","<div style=""font-size:200px;color:red;"">3</div>","null","","","","","","","","","","","","","","","","",""
"html-keyboard-response","115","1606837","0.0-3.0-15.0-11.0-2.0","pilot_wm_v1","64135f3a5f83c8b43e569213","1","null","null","true","","","","","","","null","<div style=""font-size:200px;color:red;"">2</div>","null","","","","","","","","","","","","","","","","",""
"html-keyboard-response","116","1607848","0.0-3.0-15.0-11.0-3.0","pilot_wm_v1","64135f3a5f83c8b43e569213","1","null","null","true","","","","","","","null","<div style=""font-size:200px;color:red;"">1</div>","null","","","","","","","","","","","","","","","","",""
"revaluation","117","1609034","0.0-3.0-15.0-12.0-0.0","pilot_wm_v1","64135f3a5f83c8b43e569213","1","null","null","true","","false","","","","","[1174.1000000014901]","./assets/img/space/animals/cat.jpg","[""ArrowRight""]","practice block","space","0","{""ArrowUp,ArrowLeft"":3,""ArrowUp,ArrowRight"":36,""ArrowDown,ArrowLeft"":15,""ArrowDown,ArrowRight"":23}","true","ArrowUp,ArrowRight","","","","","","","","","","",""
"html-keyboard-response","118","1609543","0.0-3.0-15.0-12.0-1.0","pilot_wm_v1","64135f3a5f83c8b43e569213","1","null","null","true","","","","","","","null","<div style=""font-size:60px;"">+</div>","null","fixation","","","","","","","","","","","","","","","",""
"revaluation","119","1610419","0.0-3.0-15.0-12.0-0.1","pilot_wm_v1","64135f3a5f83c8b43e569213","1","null","null","true","","false","","","","","[863.6000000014901]","./assets/img/space/animals/rabbit.jpg","[""ArrowRight""]","practice block","space","0","{""ArrowUp,ArrowLeft"":3,""ArrowUp,ArrowRight"":36,""ArrowDown,ArrowLeft"":15,""ArrowDown,ArrowRight"":23}","true","ArrowDown,ArrowRight","","","","","","","","","","",""
"html-keyboard-response","120","1610922","0.0-3.0-15.0-12.0-1.1","pilot_wm_v1","64135f3a5f83c8b43e569213","1","null","null","true","","","","","","","null","<div style=""font-size:60px;"">+</div>","null","fixation","","","","","","","","","","","","","","","",""
"learning-instructions","121","1617250","0.0-3.0-16.0-0.0","pilot_wm_v1","64135f3a5f83c8b43e569213","1","null","null","true","","","","","","","1675","<p> Before you start, we're going to ask you a few questions about how the game works. </p>","","instructions","","","","","","","","","","","","","","","",""
"comp-q","122","1624838","0.0-3.0-17.0-0.0-0.0","pilot_wm_v1","64135f3a5f83c8b43e569213","1","null","null","true","","","","","","","1942.6999999955297","<p> <b> True or False? </b> </p>
            <p> There can be 50 pieces of treasure in a given animal's chest. </p>","1","comp_question","","","","true","","","","","","","","","","","",""
"comp-q","123","1634917","0.0-3.0-17.0-0.0-1.0","pilot_wm_v1","64135f3a5f83c8b43e569213","1","null","null","true","","","","","","","3371","<p> <b> That's right! </b> The amount of treasure in each chest can range from 0 to 40 pieces. </p>","0","comp_answer","","","","","","","","","","","","","","","",""
"comp-q","124","1643209","0.0-3.0-17.0-0.1-0.1","pilot_wm_v1","64135f3a5f83c8b43e569213","1","null","null","true","","","","","","","1104.5","<p> <b> True or False? </b> </p><p> In this game, all animals have the same amount of treasure in their left and right chests. </p>","1","comp_question","","","","true","","","","","","","","","","","",""
"comp-q","125","1651279","0.0-3.0-17.0-0.1-1.1","pilot_wm_v1","64135f3a5f83c8b43e569213","1","null","null","true","","","","","","","2803.7999999970198","<p> <b> That's right! </b> Animals have different amounts of treasure in their treasure chests. </p>","0","comp_answer","","","","","","","","","","","","","","","",""
"comp-q","126","1658046","0.0-3.0-17.0-0.2-0.2","pilot_wm_v1","64135f3a5f83c8b43e569213","1","null","null","true","","","","","","","860.2000000029802","<p> <b> True or False? </b> </p><p> The same animal will always be there if you go up in the same place. </p>","0","comp_question","","","","true","","","","","","","","","","","",""
"comp-q","127","1665950","0.0-3.0-17.0-0.2-1.2","pilot_wm_v1","64135f3a5f83c8b43e569213","1","null","null","true","","","","","","","1404.2999999970198","<p> <b> That's right! </b> One animal lives in the upper part and one lives in the lower part of every place. </p>","0","comp_answer","","","","","","","","","","","","","","","",""
"comp-q","128","1672073","0.0-3.0-17.0-0.3-0.3","pilot_wm_v1","64135f3a5f83c8b43e569213","1","null","null","true","","","","","","","557","<p> <b> True or False? </b> </p><p> If you see a different picture, it means you are in a new place. </p>","1","comp_question","","","","true","","","","","","","","","","","",""
"comp-q","129","1688812","0.0-3.0-17.0-0.3-1.3","pilot_wm_v1","64135f3a5f83c8b43e569213","1","null","null","true","","","","","","","5458.29999999702","<p> <b> That's right! </b> Lots of different images may show the same place. For example,  you may see three different images that all remind you that you are in outer space. </p>","0","comp_answer","","","","","","","","","","","","","","","",""
"learning-instructions","130","1700138","0.0-3.0-18.0-0.0","pilot_wm_v1","64135f3a5f83c8b43e569213","1","null","null","true","","","","","","","1352.3999999985099","<p> Good job. Remember to do your best because the amount of treasure you earn will be converted into bonus money. </p>
            <p> It’s time to start the real game! </p>","","instructions","","","","","","","","","","","","","","","",""
"learning-instructions","131","1704253","0.0-4.0-0.0-0.0","pilot_wm_v1","64135f3a5f83c8b43e569213","1","null","null","true","","","","","","","1356.8999999985099","<p> This time you are searching for treasure in the <b>ocean</b>.</p>","","instructions","","","","","","","","","","","","","","","",""
"learning-instructions","132","1722360","0.0-4.0-0.0-0.1","pilot_wm_v1","64135f3a5f83c8b43e569213","1","null","null","true","","","","","","","734.5","<p><b>New</b> animals with <b>new</b> treasure chests live here. You need to explore to discover where the animal with the best treasure chest is.</p>
                    <p> Like before, once you figure out which animal has the chest with the most treasure, you should try to get to that animal and select that chest! </p>","","instructions","","","","","","","","","","","","","","","",""
"learning-instructions","133","1740077","0.0-4.0-1.0-0.0","pilot_wm_v1","64135f3a5f83c8b43e569213","1","null","null","true","","","","","","","2972","<p> Remember, when you see a picture of the place, use the up and down keys to <b>find an animal</b>.</p>
            <p> When you encounter an animal, you should use the left and right keys to <b>select a treasure chest</b>.</p>
            <p> Don't forget to look out for the robber! </p>","","instructions","","","","","","","","","","","","","","","",""
"revaluation","134","1744130","0.0-4.0-2.0-0.0","pilot_wm_v1","64135f3a5f83c8b43e569213","1","null","null","true","","false","","","","","[1341.1000000014901]","./assets/img/ocean/catch/1.jpg","[""spaceBar""]","value training","ocean","0","{""ArrowUp,ArrowLeft"":26,""ArrowUp,ArrowRight"":10,""ArrowDown,ArrowLeft"":5,""ArrowDown,ArrowRight"":17}","true","spaceBar","true","","","","","","","0","original","1",""
"html-keyboard-response","135","1744650","0.0-4.0-2.0-1.0","pilot_wm_v1","64135f3a5f83c8b43e569213","1","null","null","true","","","","","","","null","<div style=""font-size:60px;"">+</div>","null","fixation","","","","","","","","","","","","","1","","",""
"revaluation","136","1750690","0.0-4.0-2.0-0.1","pilot_wm_v1","64135f3a5f83c8b43e569213","1","null","null","true","","false","","","","","[457.80000000447035,767]","./assets/img/ocean/memory/31.jpg","[""ArrowUp"",""ArrowRight""]","value training","ocean","10","{""ArrowUp,ArrowLeft"":26,""ArrowUp,ArrowRight"":10,""ArrowDown,ArrowLeft"":5,""ArrowDown,ArrowRight"":17}","false","ArrowUp,ArrowRight","false","","","","","","","2","original","1",""
"html-keyboard-response","137","1751203","0.0-4.0-2.0-1.1","pilot_wm_v1","64135f3a5f83c8b43e569213","1","null","null","true","","","","","","","null","<div style=""font-size:60px;"">+</div>","null","fixation","","","","","","","","","","","","","3","","",""
"revaluation","138","1757224","0.0-4.0-2.0-0.2","pilot_wm_v1","64135f3a5f83c8b43e569213","1","null","null","true","","false","","","","","[1031.6000000014901,1111.7999999970198]","./assets/img/ocean/memory/35.jpg","[""ArrowDown"",""ArrowLeft""]","value training","ocean","5","{""ArrowUp,ArrowLeft"":26,""ArrowUp,ArrowRight"":10,""ArrowDown,ArrowLeft"":5,""ArrowDown,ArrowRight"":17}","false","ArrowDown,ArrowLeft","false","","","","","","","4","original","1",""
"html-keyboard-response","139","1757731","0.0-4.0-2.0-1.2","pilot_wm_v1","64135f3a5f83c8b43e569213","1","null","null","true","","","","","","","null","<div style=""font-size:60px;"">+</div>","null","fixation","","","","","","","","","","","","","5","","",""
"revaluation","140","1763752","0.0-4.0-2.0-0.3","pilot_wm_v1","64135f3a5f83c8b43e569213","1","null","null","true","","false","","","","","[911.1000000014901,319.29999999701977]","./assets/img/ocean/memory/4.jpg","[""ArrowDown"",""ArrowRight""]","value training","ocean","17","{""ArrowUp,ArrowLeft"":26,""ArrowUp,ArrowRight"":10,""ArrowDown,ArrowLeft"":5,""ArrowDown,ArrowRight"":17}","false","ArrowDown,ArrowRight","false","","","","","","","6","original","1",""
"html-keyboard-response","141","1764261","0.0-4.0-2.0-1.3","pilot_wm_v1","64135f3a5f83c8b43e569213","1","null","null","true","","","","","","","null","<div style=""font-size:60px;"">+</div>","null","fixation","","","","","","","","","","","","","7","","",""
"revaluation","142","1770291","0.0-4.0-2.0-0.4","pilot_wm_v1","64135f3a5f83c8b43e569213","1","null","null","true","","false","","","","","[1018.5,415.5]","./assets/img/ocean/memory/0.jpg","[""ArrowUp"",""ArrowLeft""]","value training","ocean","26","{""ArrowUp,ArrowLeft"":26,""ArrowUp,ArrowRight"":10,""ArrowDown,ArrowLeft"":5,""ArrowDown,ArrowRight"":17}","true","ArrowUp,ArrowLeft","false","","","","","","","8","original","1",""
"html-keyboard-response","143","1770796","0.0-4.0-2.0-1.4","pilot_wm_v1","64135f3a5f83c8b43e569213","1","null","null","true","","","","","","","null","<div style=""font-size:60px;"">+</div>","null","fixation","","","","","","","","","","","","","9","","",""
"revaluation","144","1776819","0.0-4.0-2.0-0.5","pilot_wm_v1","64135f3a5f83c8b43e569213","1","null","null","true","","false","","","","","[793.2999999970198,395.1000000014901]","./assets/img/ocean/memory/2.jpg","[""ArrowUp"",""ArrowLeft""]","value training","ocean","26","{""ArrowUp,ArrowLeft"":26,""ArrowUp,ArrowRight"":10,""ArrowDown,ArrowLeft"":5,""ArrowDown,ArrowRight"":17}","true","ArrowUp,ArrowLeft","false","","","","","","","10","original","1",""
"html-keyboard-response","145","1777324","0.0-4.0-2.0-1.5","pilot_wm_v1","64135f3a5f83c8b43e569213","1","null","null","true","","","","","","","null","<div style=""font-size:60px;"">+</div>","null","fixation","","","","","","","","","","","","","11","","",""
"revaluation","146","1783351","0.0-4.0-2.0-0.6","pilot_wm_v1","64135f3a5f83c8b43e569213","1","null","null","true","","false","","","","","[650.6000000014901,381.70000000298023]","./assets/img/ocean/memory/35.jpg","[""ArrowUp"",""ArrowLeft""]","value training","ocean","26","{""ArrowUp,ArrowLeft"":26,""ArrowUp,ArrowRight"":10,""ArrowDown,ArrowLeft"":5,""ArrowDown,ArrowRight"":17}","true","ArrowUp,ArrowLeft","false","","","","","","","12","original","1",""
"html-keyboard-response","147","1783856","0.0-4.0-2.0-1.6","pilot_wm_v1","64135f3a5f83c8b43e569213","1","null","null","true","","","","","","","null","<div style=""font-size:60px;"">+</div>","null","fixation","","","","","","","","","","","","","13","","",""
"revaluation","148","1789878","0.0-4.0-2.0-0.7","pilot_wm_v1","64135f3a5f83c8b43e569213","1","null","null","true","","false","","","","","[739,683.5999999940395]","./assets/img/ocean/memory/14.jpg","[""ArrowUp"",""ArrowLeft""]","value training","ocean","26","{""ArrowUp,ArrowLeft"":26,""ArrowUp,ArrowRight"":10,""ArrowDown,ArrowLeft"":5,""ArrowDown,ArrowRight"":17}","true","ArrowUp,ArrowLeft","false","","","","","","","14","original","1",""
"html-keyboard-response","149","1790394","0.0-4.0-2.0-1.7","pilot_wm_v1","64135f3a5f83c8b43e569213","1","null","null","true","","","","","","","null","<div style=""font-size:60px;"">+</div>","null","fixation","","","","","","","","","","","","","15","","",""
"revaluation","150","1796433","0.0-4.0-2.0-0.8","pilot_wm_v1","64135f3a5f83c8b43e569213","1","null","null","true","","false","","","","","[849.8000000044703,1139]","./assets/img/ocean/memory/5.jpg","[""ArrowUp"",""ArrowLeft""]","value training","ocean","26","{""ArrowUp,ArrowLeft"":26,""ArrowUp,ArrowRight"":10,""ArrowDown,ArrowLeft"":5,""ArrowDown,ArrowRight"":17}","true","ArrowUp,ArrowLeft","false","","","","","","","16","original","1",""
"html-keyboard-response","151","1796947","0.0-4.0-2.0-1.8","pilot_wm_v1","64135f3a5f83c8b43e569213","1","null","null","true","","","","","","","null","<div style=""font-size:60px;"">+</div>","null","fixation","","","","","","","","","","","","","17","","",""
"revaluation","152","1802971","0.0-4.0-2.0-0.9","pilot_wm_v1","64135f3a5f83c8b43e569213","1","null","null","true","","false","","","","","[1224.7000000029802,903.8000000044703]","./assets/img/ocean/memory/27.jpg","[""ArrowUp"",""ArrowLeft""]","value training","ocean","26","{""ArrowUp,ArrowLeft"":26,""ArrowUp,ArrowRight"":10,""ArrowDown,ArrowLeft"":5,""ArrowDown,ArrowRight"":17}","true","ArrowUp,ArrowLeft","false","","","","","","","18","original","1",""
"html-keyboard-response","153","1803473","0.0-4.0-2.0-1.9","pilot_wm_v1","64135f3a5f83c8b43e569213","1","null","null","true","","","","","","","null","<div style=""font-size:60px;"">+</div>","null","fixation","","","","","","","","","","","","","19","","",""
"revaluation","154","1807499","0.0-4.0-2.0-0.10","pilot_wm_v1","64135f3a5f83c8b43e569213","1","null","null","true","","false","","","","","[915.3999999985099]","./assets/img/ocean/catch/2.jpg","[""spaceBar""]","value training","ocean","0","{""ArrowUp,ArrowLeft"":26,""ArrowUp,ArrowRight"":10,""ArrowDown,ArrowLeft"":5,""ArrowDown,ArrowRight"":17}","true","spaceBar","true","","","","","","","20","original","1",""
"html-keyboard-response","155","1808014","0.0-4.0-2.0-1.10","pilot_wm_v1","64135f3a5f83c8b43e569213","1","null","null","true","","","","","","","null","<div style=""font-size:60px;"">+</div>","null","fixation","","","","","","","","","","","","","21","","",""
"revaluation","156","1814041","0.0-4.0-2.0-0.11","pilot_wm_v1","64135f3a5f83c8b43e569213","1","null","null","true","","false","","","","","[1102.1000000014901,479.3999999985099]","./assets/img/ocean/memory/17.jpg","[""ArrowUp"",""ArrowLeft""]","value training","ocean","26","{""ArrowUp,ArrowLeft"":26,""ArrowUp,ArrowRight"":10,""ArrowDown,ArrowLeft"":5,""ArrowDown,ArrowRight"":17}","true","ArrowUp,ArrowLeft","false","","","","","","","22","original","1",""
"html-keyboard-response","157","1814545","0.0-4.0-2.0-1.11","pilot_wm_v1","64135f3a5f83c8b43e569213","1","null","null","true","","","","","","","null","<div style=""font-size:60px;"">+</div>","null","fixation","","","","","","","","","","","","","23","","",""
"revaluation","158","1820574","0.0-4.0-2.0-0.12","pilot_wm_v1","64135f3a5f83c8b43e569213","1","null","null","true","","false","","","","","[1022.1000000014901,983.9000000059605]","./assets/img/ocean/memory/22.jpg","[""ArrowDown"",""ArrowRight""]","value training","ocean","17","{""ArrowUp,ArrowLeft"":26,""ArrowUp,ArrowRight"":10,""ArrowDown,ArrowLeft"":5,""ArrowDown,ArrowRight"":17}","false","ArrowDown,ArrowRight","false","","","","","","","24","original","1",""
"html-keyboard-response","159","1821084","0.0-4.0-2.0-1.12","pilot_wm_v1","64135f3a5f83c8b43e569213","1","null","null","true","","","","","","","null","<div style=""font-size:60px;"">+</div>","null","fixation","","","","","","","","","","","","","25","","",""
"revaluation","160","1827115","0.0-4.0-2.0-0.13","pilot_wm_v1","64135f3a5f83c8b43e569213","1","null","null","true","","false","","","","","[748.3000000044703,511.79999999701977]","./assets/img/ocean/memory/4.jpg","[""ArrowUp"",""ArrowLeft""]","value training","ocean","26","{""ArrowUp,ArrowLeft"":26,""ArrowUp,ArrowRight"":10,""ArrowDown,ArrowLeft"":5,""ArrowDown,ArrowRight"":17}","true","ArrowUp,ArrowLeft","false","","","","","","","26","original","1",""
"html-keyboard-response","161","1827624","0.0-4.0-2.0-1.13","pilot_wm_v1","64135f3a5f83c8b43e569213","1","null","null","true","","","","","","","null","<div style=""font-size:60px;"">+</div>","null","fixation","","","","","","","","","","","","","27","","",""
"revaluation","162","1833658","0.0-4.0-2.0-0.14","pilot_wm_v1","64135f3a5f83c8b43e569213","1","null","null","true","","false","","","","","[1095.7999999970198,287.6000000014901]","./assets/img/ocean/memory/39.jpg","[""ArrowUp"",""ArrowLeft""]","value training","ocean","26","{""ArrowUp,ArrowLeft"":26,""ArrowUp,ArrowRight"":10,""ArrowDown,ArrowLeft"":5,""ArrowDown,ArrowRight"":17}","true","ArrowUp,ArrowLeft","false","","","","","","","28","original","1",""
"html-keyboard-response","163","1834168","0.0-4.0-2.0-1.14","pilot_wm_v1","64135f3a5f83c8b43e569213","1","null","null","true","","","","","","","null","<div style=""font-size:60px;"">+</div>","null","fixation","","","","","","","","","","","","","29","","",""
"revaluation","164","1840194","0.0-4.0-2.0-0.15","pilot_wm_v1","64135f3a5f83c8b43e569213","1","null","null","true","","false","","","","","[392,368.29999999701977]","./assets/img/ocean/memory/3.jpg","[""ArrowUp"",""ArrowLeft""]","value training","ocean","26","{""ArrowUp,ArrowLeft"":26,""ArrowUp,ArrowRight"":10,""ArrowDown,ArrowLeft"":5,""ArrowDown,ArrowRight"":17}","true","ArrowUp,ArrowLeft","false","","","","","","","30","original","1",""
"html-keyboard-response","165","1840705","0.0-4.0-2.0-1.15","pilot_wm_v1","64135f3a5f83c8b43e569213","1","null","null","true","","","","","","","null","<div style=""font-size:60px;"">+</div>","null","fixation","","","","","","","","","","","","","31","","",""
"revaluation","166","1844727","0.0-4.0-2.0-0.16","pilot_wm_v1","64135f3a5f83c8b43e569213","1","null","null","true","","false","","","","","[1502.7000000029802]","./assets/img/ocean/catch/5.jpg","[""spaceBar""]","value training","ocean","0","{""ArrowUp,ArrowLeft"":26,""ArrowUp,ArrowRight"":10,""ArrowDown,ArrowLeft"":5,""ArrowDown,ArrowRight"":17}","true","spaceBar","true","","","","","","","32","original","1",""
"html-keyboard-response","167","1845234","0.0-4.0-2.0-1.16","pilot_wm_v1","64135f3a5f83c8b43e569213","1","null","null","true","","","","","","","null","<div style=""font-size:60px;"">+</div>","null","fixation","","","","","","","","","","","","","33","","",""
"revaluation","168","1851260","0.0-4.0-2.0-0.17","pilot_wm_v1","64135f3a5f83c8b43e569213","1","null","null","true","","false","","","","","[1239.2999999970198,360.19999999552965]","./assets/img/ocean/memory/3.jpg","[""ArrowUp"",""ArrowLeft""]","value training","ocean","26","{""ArrowUp,ArrowLeft"":26,""ArrowUp,ArrowRight"":10,""ArrowDown,ArrowLeft"":5,""ArrowDown,ArrowRight"":17}","true","ArrowUp,ArrowLeft","false","","","","","","","34","original","1",""
"html-keyboard-response","169","1851774","0.0-4.0-2.0-1.17","pilot_wm_v1","64135f3a5f83c8b43e569213","1","null","null","true","","","","","","","null","<div style=""font-size:60px;"">+</div>","null","fixation","","","","","","","","","","","","","35","","",""
"revaluation","170","1855789","0.0-4.0-2.0-0.18","pilot_wm_v1","64135f3a5f83c8b43e569213","1","null","null","true","","false","","","","","[792.6000000014901]","./assets/img/ocean/catch/0.jpg","[""spaceBar""]","value training","ocean","0","{""ArrowUp,ArrowLeft"":26,""ArrowUp,ArrowRight"":10,""ArrowDown,ArrowLeft"":5,""ArrowDown,ArrowRight"":17}","true","spaceBar","true","","","","","","","36","original","1",""
"html-keyboard-response","171","1856298","0.0-4.0-2.0-1.18","pilot_wm_v1","64135f3a5f83c8b43e569213","1","null","null","true","","","","","","","null","<div style=""font-size:60px;"">+</div>","null","fixation","","","","","","","","","","","","","37","","",""
"revaluation","172","1862338","0.0-4.0-2.0-0.19","pilot_wm_v1","64135f3a5f83c8b43e569213","1","null","null","true","","false","","","","","[963.5,270.69999999552965]","./assets/img/ocean/memory/22.jpg","[""ArrowUp"",""ArrowLeft""]","value training","ocean","26","{""ArrowUp,ArrowLeft"":26,""ArrowUp,ArrowRight"":10,""ArrowDown,ArrowLeft"":5,""ArrowDown,ArrowRight"":17}","true","ArrowUp,ArrowLeft","false","","","","","","","38","original","1",""
"html-keyboard-response","173","1862840","0.0-4.0-2.0-1.19","pilot_wm_v1","64135f3a5f83c8b43e569213","1","null","null","true","","","","","","","null","<div style=""font-size:60px;"">+</div>","null","fixation","","","","","","","","","","","","","39","","",""
"revaluation","174","1868858","0.0-4.0-2.0-0.20","pilot_wm_v1","64135f3a5f83c8b43e569213","1","null","null","true","","false","","","","","[993.3999999985099,474.59999999403954]","./assets/img/ocean/memory/37.jpg","[""ArrowUp"",""ArrowLeft""]","value training","ocean","26","{""ArrowUp,ArrowLeft"":26,""ArrowUp,ArrowRight"":10,""ArrowDown,ArrowLeft"":5,""ArrowDown,ArrowRight"":17}","true","ArrowUp,ArrowLeft","false","","","","","","","40","original","1",""
"html-keyboard-response","175","1869365","0.0-4.0-2.0-1.20","pilot_wm_v1","64135f3a5f83c8b43e569213","1","null","null","true","","","","","","","null","<div style=""font-size:60px;"">+</div>","null","fixation","","","","","","","","","","","","","41","","",""
"revaluation","176","1875398","0.0-4.0-2.0-0.21","pilot_wm_v1","64135f3a5f83c8b43e569213","1","null","null","true","","false","","","","","[959.8999999985099,525.3999999985099]","./assets/img/ocean/memory/41.jpg","[""ArrowUp"",""ArrowLeft""]","value training","ocean","26","{""ArrowUp,ArrowLeft"":26,""ArrowUp,ArrowRight"":10,""ArrowDown,ArrowLeft"":5,""ArrowDown,ArrowRight"":17}","true","ArrowUp,ArrowLeft","false","","","","","","","42","original","1",""
"html-keyboard-response","177","1875904","0.0-4.0-2.0-1.21","pilot_wm_v1","64135f3a5f83c8b43e569213","1","null","null","true","","","","","","","null","<div style=""font-size:60px;"">+</div>","null","fixation","","","","","","","","","","","","","43","","",""
"revaluation","178","1881931","0.0-4.0-2.0-0.22","pilot_wm_v1","64135f3a5f83c8b43e569213","1","null","null","true","","false","","","","","[558.4000000059605,663.2999999970198]","./assets/img/ocean/memory/10.jpg","[""ArrowUp"",""ArrowLeft""]","value training","ocean","26","{""ArrowUp,ArrowLeft"":26,""ArrowUp,ArrowRight"":10,""ArrowDown,ArrowLeft"":5,""ArrowDown,ArrowRight"":17}","true","ArrowUp,ArrowLeft","false","","","","","","","44","original","1",""
"html-keyboard-response","179","1882443","0.0-4.0-2.0-1.22","pilot_wm_v1","64135f3a5f83c8b43e569213","1","null","null","true","","","","","","","null","<div style=""font-size:60px;"">+</div>","null","fixation","","","","","","","","","","","","","45","","",""
"revaluation","180","1888484","0.0-4.0-2.0-0.23","pilot_wm_v1","64135f3a5f83c8b43e569213","1","null","null","true","","false","","","","","[741.1000000014901,693.1999999955297]","./assets/img/ocean/memory/10.jpg","[""ArrowUp"",""ArrowLeft""]","value training","ocean","26","{""ArrowUp,ArrowLeft"":26,""ArrowUp,ArrowRight"":10,""ArrowDown,ArrowLeft"":5,""ArrowDown,ArrowRight"":17}","true","ArrowUp,ArrowLeft","false","","","","","","","46","original","1",""
"html-keyboard-response","181","1888987","0.0-4.0-2.0-1.23","pilot_wm_v1","64135f3a5f83c8b43e569213","1","null","null","true","","","","","","","null","<div style=""font-size:60px;"">+</div>","null","fixation","","","","","","","","","","","","","47","","",""
"revaluation","182","1895005","0.0-4.0-2.0-0.24","pilot_wm_v1","64135f3a5f83c8b43e569213","1","null","null","true","","false","","","","","[822.4000000059605,274.5]","./assets/img/ocean/memory/15.jpg","[""ArrowUp"",""ArrowLeft""]","value training","ocean","26","{""ArrowUp,ArrowLeft"":26,""ArrowUp,ArrowRight"":10,""ArrowDown,ArrowLeft"":5,""ArrowDown,ArrowRight"":17}","true","ArrowUp,ArrowLeft","false","","","","","","","48","original","1",""
"html-keyboard-response","183","1895514","0.0-4.0-2.0-1.24","pilot_wm_v1","64135f3a5f83c8b43e569213","1","null","null","true","","","","","","","null","<div style=""font-size:60px;"">+</div>","null","fixation","","","","","","","","","","","","","49","","",""
"revaluation","184","1901549","0.0-4.0-2.0-0.25","pilot_wm_v1","64135f3a5f83c8b43e569213","1","null","null","true","","false","","","","","[817.2000000029802,284.79999999701977]","./assets/img/ocean/memory/24.jpg","[""ArrowUp"",""ArrowLeft""]","value training","ocean","26","{""ArrowUp,ArrowLeft"":26,""ArrowUp,ArrowRight"":10,""ArrowDown,ArrowLeft"":5,""ArrowDown,ArrowRight"":17}","true","ArrowUp,ArrowLeft","false","","","","","","","50","original","1",""
"html-keyboard-response","185","1902052","0.0-4.0-2.0-1.25","pilot_wm_v1","64135f3a5f83c8b43e569213","1","null","null","true","","","","","","","null","<div style=""font-size:60px;"">+</div>","null","fixation","","","","","","","","","","","","","51","","",""
"revaluation","186","1908070","0.0-4.0-2.0-0.26","pilot_wm_v1","64135f3a5f83c8b43e569213","1","null","null","true","","false","","","","","[435.29999999701977,294.29999999701977]","./assets/img/ocean/memory/1.jpg","[""ArrowUp"",""ArrowLeft""]","value training","ocean","26","{""ArrowUp,ArrowLeft"":26,""ArrowUp,ArrowRight"":10,""ArrowDown,ArrowLeft"":5,""ArrowDown,ArrowRight"":17}","true","ArrowUp,ArrowLeft","false","","","","","","","52","original","1",""
"html-keyboard-response","187","1908581","0.0-4.0-2.0-1.26","pilot_wm_v1","64135f3a5f83c8b43e569213","1","null","null","true","","","","","","","null","<div style=""font-size:60px;"">+</div>","null","fixation","","","","","","","","","","","","","53","","",""
"revaluation","188","1912608","0.0-4.0-2.0-0.27","pilot_wm_v1","64135f3a5f83c8b43e569213","1","null","null","true","","false","","","","","[894.3999999985099]","./assets/img/ocean/catch/7.jpg","[""spaceBar""]","value training","ocean","0","{""ArrowUp,ArrowLeft"":26,""ArrowUp,ArrowRight"":10,""ArrowDown,ArrowLeft"":5,""ArrowDown,ArrowRight"":17}","true","spaceBar","true","","","","","","","54","original","1",""
"html-keyboard-response","189","1913121","0.0-4.0-2.0-1.27","pilot_wm_v1","64135f3a5f83c8b43e569213","1","null","null","true","","","","","","","null","<div style=""font-size:60px;"">+</div>","null","fixation","","","","","","","","","","","","","55","","",""
"revaluation","190","1919151","0.0-4.0-2.0-0.28","pilot_wm_v1","64135f3a5f83c8b43e569213","1","null","null","true","","false","","","","","[626.5999999940395,309.29999999701977]","./assets/img/ocean/memory/19.jpg","[""ArrowUp"",""ArrowLeft""]","value training","ocean","26","{""ArrowUp,ArrowLeft"":26,""ArrowUp,ArrowRight"":10,""ArrowDown,ArrowLeft"":5,""ArrowDown,ArrowRight"":17}","true","ArrowUp,ArrowLeft","false","","","","","","","56","original","1",""
"html-keyboard-response","191","1919661","0.0-4.0-2.0-1.28","pilot_wm_v1","64135f3a5f83c8b43e569213","1","null","null","true","","","","","","","null","<div style=""font-size:60px;"">+</div>","null","fixation","","","","","","","","","","","","","57","","",""
"revaluation","192","1925701","0.0-4.0-2.0-0.29","pilot_wm_v1","64135f3a5f83c8b43e569213","1","null","null","true","","false","","","","","[609.1000000014901,480]","./assets/img/ocean/memory/19.jpg","[""ArrowUp"",""ArrowLeft""]","value training","ocean","26","{""ArrowUp,ArrowLeft"":26,""ArrowUp,ArrowRight"":10,""ArrowDown,ArrowLeft"":5,""ArrowDown,ArrowRight"":17}","true","ArrowUp,ArrowLeft","false","","","","","","","58","original","1",""
"html-keyboard-response","193","1926220","0.0-4.0-2.0-1.29","pilot_wm_v1","64135f3a5f83c8b43e569213","1","null","null","true","","","","","","","null","<div style=""font-size:60px;"">+</div>","null","fixation","","","","","","","","","","","","","59","","",""
"revaluation","194","1932245","0.0-4.0-2.0-0.30","pilot_wm_v1","64135f3a5f83c8b43e569213","1","null","null","true","","false","","","","","[639.9000000059605,743.3000000044703]","./assets/img/ocean/memory/27.jpg","[""ArrowUp"",""ArrowLeft""]","value training","ocean","26","{""ArrowUp,ArrowLeft"":26,""ArrowUp,ArrowRight"":10,""ArrowDown,ArrowLeft"":5,""ArrowDown,ArrowRight"":17}","true","ArrowUp,ArrowLeft","false","","","","","","","60","original","1",""
"html-keyboard-response","195","1932761","0.0-4.0-2.0-1.30","pilot_wm_v1","64135f3a5f83c8b43e569213","1","null","null","true","","","","","","","null","<div style=""font-size:60px;"">+</div>","null","fixation","","","","","","","","","","","","","61","","",""
"revaluation","196","1936788","0.0-4.0-2.0-0.31","pilot_wm_v1","64135f3a5f83c8b43e569213","1","null","null","true","","false","","","","","[746.7000000029802]","./assets/img/ocean/catch/6.jpg","[""spaceBar""]","value training","ocean","0","{""ArrowUp,ArrowLeft"":26,""ArrowUp,ArrowRight"":10,""ArrowDown,ArrowLeft"":5,""ArrowDown,ArrowRight"":17}","true","spaceBar","true","","","","","","","62","original","1",""
"html-keyboard-response","197","1937301","0.0-4.0-2.0-1.31","pilot_wm_v1","64135f3a5f83c8b43e569213","1","null","null","true","","","","","","","null","<div style=""font-size:60px;"">+</div>","null","fixation","","","","","","","","","","","","","63","","",""
"revaluation","198","1943335","0.0-4.0-2.0-0.32","pilot_wm_v1","64135f3a5f83c8b43e569213","1","null","null","true","","false","","","","","[777.8999999985099,515.1000000014901]","./assets/img/ocean/memory/33.jpg","[""ArrowUp"",""ArrowLeft""]","value training","ocean","26","{""ArrowUp,ArrowLeft"":26,""ArrowUp,ArrowRight"":10,""ArrowDown,ArrowLeft"":5,""ArrowDown,ArrowRight"":17}","true","ArrowUp,ArrowLeft","false","","","","","","","64","original","1",""
"html-keyboard-response","199","1943844","0.0-4.0-2.0-1.32","pilot_wm_v1","64135f3a5f83c8b43e569213","1","null","null","true","","","","","","","null","<div style=""font-size:60px;"">+</div>","null","fixation","","","","","","","","","","","","","65","","",""
"revaluation","200","1949856","0.0-4.0-2.0-0.33","pilot_wm_v1","64135f3a5f83c8b43e569213","1","null","null","true","","false","","","","","[1390.5,421.79999999701977]","./assets/img/ocean/memory/17.jpg","[""ArrowUp"",""ArrowLeft""]","value training","ocean","26","{""ArrowUp,ArrowLeft"":26,""ArrowUp,ArrowRight"":10,""ArrowDown,ArrowLeft"":5,""ArrowDown,ArrowRight"":17}","true","ArrowUp,ArrowLeft","false","","","","","","","66","original","1",""
"html-keyboard-response","201","1950374","0.0-4.0-2.0-1.33","pilot_wm_v1","64135f3a5f83c8b43e569213","1","null","null","true","","","","","","","null","<div style=""font-size:60px;"">+</div>","null","fixation","","","","","","","","","","","","","67","","",""
"revaluation","202","1956413","0.0-4.0-2.0-0.34","pilot_wm_v1","64135f3a5f83c8b43e569213","1","null","null","true","","false","","","","","[826.1000000014901,340.1000000014901]","./assets/img/ocean/memory/36.jpg","[""ArrowUp"",""ArrowLeft""]","value training","ocean","26","{""ArrowUp,ArrowLeft"":26,""ArrowUp,ArrowRight"":10,""ArrowDown,ArrowLeft"":5,""ArrowDown,ArrowRight"":17}","true","ArrowUp,ArrowLeft","false","","","","","","","68","original","1",""
"html-keyboard-response","203","1956924","0.0-4.0-2.0-1.34","pilot_wm_v1","64135f3a5f83c8b43e569213","1","null","null","true","","","","","","","null","<div style=""font-size:60px;"">+</div>","null","fixation","","","","","","","","","","","","","69","","",""
"revaluation","204","1962963","0.0-4.0-2.0-0.35","pilot_wm_v1","64135f3a5f83c8b43e569213","1","null","null","true","","false","","","","","[722.6000000014901,305]","./assets/img/ocean/memory/24.jpg","[""ArrowUp"",""ArrowLeft""]","value training","ocean","26","{""ArrowUp,ArrowLeft"":26,""ArrowUp,ArrowRight"":10,""ArrowDown,ArrowLeft"":5,""ArrowDown,ArrowRight"":17}","true","ArrowUp,ArrowLeft","false","","","","","","","70","original","1",""
"html-keyboard-response","205","1963473","0.0-4.0-2.0-1.35","pilot_wm_v1","64135f3a5f83c8b43e569213","1","null","null","true","","","","","","","null","<div style=""font-size:60px;"">+</div>","null","fixation","","","","","","","","","","","","","71","","",""
"revaluation","206","1969504","0.0-4.0-2.0-0.36","pilot_wm_v1","64135f3a5f83c8b43e569213","1","null","null","true","","false","","","","","[945.8999999985099,327.70000000298023]","./assets/img/ocean/memory/14.jpg","[""ArrowUp"",""ArrowLeft""]","value training","ocean","26","{""ArrowUp,ArrowLeft"":26,""ArrowUp,ArrowRight"":10,""ArrowDown,ArrowLeft"":5,""ArrowDown,ArrowRight"":17}","true","ArrowUp,ArrowLeft","false","","","","","","","72","original","1",""
"html-keyboard-response","207","1970006","0.0-4.0-2.0-1.36","pilot_wm_v1","64135f3a5f83c8b43e569213","1","null","null","true","","","","","","","null","<div style=""font-size:60px;"">+</div>","null","fixation","","","","","","","","","","","","","73","","",""
"revaluation","208","1976041","0.0-4.0-2.0-0.37","pilot_wm_v1","64135f3a5f83c8b43e569213","1","null","null","true","","false","","","","","[500.59999999403954,298.3999999985099]","./assets/img/ocean/memory/0.jpg","[""ArrowUp"",""ArrowLeft""]","value training","ocean","26","{""ArrowUp,ArrowLeft"":26,""ArrowUp,ArrowRight"":10,""ArrowDown,ArrowLeft"":5,""ArrowDown,ArrowRight"":17}","true","ArrowUp,ArrowLeft","false","","","","","","","74","original","1",""
"html-keyboard-response","209","1976544","0.0-4.0-2.0-1.37","pilot_wm_v1","64135f3a5f83c8b43e569213","1","null","null","true","","","","","","","null","<div style=""font-size:60px;"">+</div>","null","fixation","","","","","","","","","","","","","75","","",""
"revaluation","210","1982571","0.0-4.0-2.0-0.38","pilot_wm_v1","64135f3a5f83c8b43e569213","1","null","null","true","","false","","","","","[537,333.1000000014901]","./assets/img/ocean/memory/39.jpg","[""ArrowUp"",""ArrowLeft""]","value training","ocean","26","{""ArrowUp,ArrowLeft"":26,""ArrowUp,ArrowRight"":10,""ArrowDown,ArrowLeft"":5,""ArrowDown,ArrowRight"":17}","true","ArrowUp,ArrowLeft","false","","","","","","","76","original","1",""
"html-keyboard-response","211","1983087","0.0-4.0-2.0-1.38","pilot_wm_v1","64135f3a5f83c8b43e569213","1","null","null","true","","","","","","","null","<div style=""font-size:60px;"">+</div>","null","fixation","","","","","","","","","","","","","77","","",""
"revaluation","212","1989113","0.0-4.0-2.0-0.39","pilot_wm_v1","64135f3a5f83c8b43e569213","1","null","null","true","","false","","","","","[649.1000000014901,596.1999999955297]","./assets/img/ocean/memory/33.jpg","[""ArrowUp"",""ArrowLeft""]","value training","ocean","26","{""ArrowUp,ArrowLeft"":26,""ArrowUp,ArrowRight"":10,""ArrowDown,ArrowLeft"":5,""ArrowDown,ArrowRight"":17}","true","ArrowUp,ArrowLeft","false","","","","","","","78","original","1",""
"html-keyboard-response","213","1989621","0.0-4.0-2.0-1.39","pilot_wm_v1","64135f3a5f83c8b43e569213","1","null","null","true","","","","","","","null","<div style=""font-size:60px;"">+</div>","null","fixation","","","","","","","","","","","","","79","","",""
"revaluation","214","1995651","0.0-4.0-2.0-0.40","pilot_wm_v1","64135f3a5f83c8b43e569213","1","null","null","true","","false","","","","","[521.1000000014901,318.80000000447035]","./assets/img/ocean/memory/36.jpg","[""ArrowUp"",""ArrowLeft""]","value training","ocean","26","{""ArrowUp,ArrowLeft"":26,""ArrowUp,ArrowRight"":10,""ArrowDown,ArrowLeft"":5,""ArrowDown,ArrowRight"":17}","true","ArrowUp,ArrowLeft","false","","","","","","","80","original","1",""
"html-keyboard-response","215","1996157","0.0-4.0-2.0-1.40","pilot_wm_v1","64135f3a5f83c8b43e569213","1","null","null","true","","","","","","","null","<div style=""font-size:60px;"">+</div>","null","fixation","","","","","","","","","","","","","81","","",""
"revaluation","216","2000181","0.0-4.0-2.0-0.41","pilot_wm_v1","64135f3a5f83c8b43e569213","1","null","null","true","","false","","","","","[851.1000000014901]","./assets/img/ocean/catch/3.jpg","[""spaceBar""]","value training","ocean","0","{""ArrowUp,ArrowLeft"":26,""ArrowUp,ArrowRight"":10,""ArrowDown,ArrowLeft"":5,""ArrowDown,ArrowRight"":17}","true","spaceBar","true","","","","","","","82","original","1",""
"html-keyboard-response","217","2000699","0.0-4.0-2.0-1.41","pilot_wm_v1","64135f3a5f83c8b43e569213","1","null","null","true","","","","","","","null","<div style=""font-size:60px;"">+</div>","null","fixation","","","","","","","","","","","","","83","","",""
"revaluation","218","2006744","0.0-4.0-2.0-0.42","pilot_wm_v1","64135f3a5f83c8b43e569213","1","null","null","true","","false","","","","","[554.1000000014901,363]","./assets/img/ocean/memory/1.jpg","[""ArrowUp"",""ArrowLeft""]","value training","ocean","26","{""ArrowUp,ArrowLeft"":26,""ArrowUp,ArrowRight"":10,""ArrowDown,ArrowLeft"":5,""ArrowDown,ArrowRight"":17}","true","ArrowUp,ArrowLeft","false","","","","","","","84","original","1",""
"html-keyboard-response","219","2007260","0.0-4.0-2.0-1.42","pilot_wm_v1","64135f3a5f83c8b43e569213","1","null","null","true","","","","","","","null","<div style=""font-size:60px;"">+</div>","null","fixation","","","","","","","","","","","","","85","","",""
"revaluation","220","2013291","0.0-4.0-2.0-0.43","pilot_wm_v1","64135f3a5f83c8b43e569213","1","null","null","true","","false","","","","","[516.5,480.09999999403954]","./assets/img/ocean/memory/31.jpg","[""ArrowUp"",""ArrowLeft""]","value training","ocean","26","{""ArrowUp,ArrowLeft"":26,""ArrowUp,ArrowRight"":10,""ArrowDown,ArrowLeft"":5,""ArrowDown,ArrowRight"":17}","true","ArrowUp,ArrowLeft","false","","","","","","","86","original","1",""
"html-keyboard-response","221","2013806","0.0-4.0-2.0-1.43","pilot_wm_v1","64135f3a5f83c8b43e569213","1","null","null","true","","","","","","","null","<div style=""font-size:60px;"">+</div>","null","fixation","","","","","","","","","","","","","87","","",""
"revaluation","222","2019827","0.0-4.0-2.0-0.44","pilot_wm_v1","64135f3a5f83c8b43e569213","1","null","null","true","","false","","","","","[503.3999999985099,447.20000000298023]","./assets/img/ocean/memory/41.jpg","[""ArrowUp"",""ArrowLeft""]","value training","ocean","26","{""ArrowUp,ArrowLeft"":26,""ArrowUp,ArrowRight"":10,""ArrowDown,ArrowLeft"":5,""ArrowDown,ArrowRight"":17}","true","ArrowUp,ArrowLeft","false","","","","","","","88","original","1",""
"html-keyboard-response","223","2020337","0.0-4.0-2.0-1.44","pilot_wm_v1","64135f3a5f83c8b43e569213","1","null","null","true","","","","","","","null","<div style=""font-size:60px;"">+</div>","null","fixation","","","","","","","","","","","","","89","","",""
"revaluation","224","2026362","0.0-4.0-2.0-0.45","pilot_wm_v1","64135f3a5f83c8b43e569213","1","null","null","true","","false","","","","","[569.2999999970198,306.70000000298023]","./assets/img/ocean/memory/5.jpg","[""ArrowUp"",""ArrowLeft""]","value training","ocean","26","{""ArrowUp,ArrowLeft"":26,""ArrowUp,ArrowRight"":10,""ArrowDown,ArrowLeft"":5,""ArrowDown,ArrowRight"":17}","true","ArrowUp,ArrowLeft","false","","","","","","","90","original","1",""
"html-keyboard-response","225","2026867","0.0-4.0-2.0-1.45","pilot_wm_v1","64135f3a5f83c8b43e569213","1","null","null","true","","","","","","","null","<div style=""font-size:60px;"">+</div>","null","fixation","","","","","","","","","","","","","91","","",""
"revaluation","226","2030885","0.0-4.0-2.0-0.46","pilot_wm_v1","64135f3a5f83c8b43e569213","1","null","null","true","","false","","","","","[1030.2000000029802]","./assets/img/ocean/catch/4.jpg","[""spaceBar""]","value training","ocean","0","{""ArrowUp,ArrowLeft"":26,""ArrowUp,ArrowRight"":10,""ArrowDown,ArrowLeft"":5,""ArrowDown,ArrowRight"":17}","true","spaceBar","true","","","","","","","92","original","1",""
"html-keyboard-response","227","2031401","0.0-4.0-2.0-1.46","pilot_wm_v1","64135f3a5f83c8b43e569213","1","null","null","true","","","","","","","null","<div style=""font-size:60px;"">+</div>","null","fixation","","","","","","","","","","","","","93","","",""
"revaluation","228","2037433","0.0-4.0-2.0-0.47","pilot_wm_v1","64135f3a5f83c8b43e569213","1","null","null","true","","false","","","","","[1611.5,1150.1000000014901]","./assets/img/ocean/memory/15.jpg","[""ArrowUp"",""ArrowLeft""]","value training","ocean","26","{""ArrowUp,ArrowLeft"":26,""ArrowUp,ArrowRight"":10,""ArrowDown,ArrowLeft"":5,""ArrowDown,ArrowRight"":17}","true","ArrowUp,ArrowLeft","false","","","","","","","94","original","1",""
"html-keyboard-response","229","2037943","0.0-4.0-2.0-1.47","pilot_wm_v1","64135f3a5f83c8b43e569213","1","null","null","true","","","","","","","null","<div style=""font-size:60px;"">+</div>","null","fixation","","","","","","","","","","","","","95","","",""
"revaluation","230","2043973","0.0-4.0-2.0-0.48","pilot_wm_v1","64135f3a5f83c8b43e569213","1","null","null","true","","false","","","","","[539.6000000014901,282.70000000298023]","./assets/img/ocean/memory/2.jpg","[""ArrowUp"",""ArrowLeft""]","value training","ocean","26","{""ArrowUp,ArrowLeft"":26,""ArrowUp,ArrowRight"":10,""ArrowDown,ArrowLeft"":5,""ArrowDown,ArrowRight"":17}","true","ArrowUp,ArrowLeft","false","","","","","","","96","original","1",""
"html-keyboard-response","231","2044477","0.0-4.0-2.0-1.48","pilot_wm_v1","64135f3a5f83c8b43e569213","1","null","null","true","","","","","","","null","<div style=""font-size:60px;"">+</div>","null","fixation","","","","","","","","","","","","","97","","",""
"revaluation","232","2050503","0.0-4.0-2.0-0.49","pilot_wm_v1","64135f3a5f83c8b43e569213","1","null","null","true","","false","","","","","[462.3999999985099,336.80000000447035]","./assets/img/ocean/memory/37.jpg","[""ArrowUp"",""ArrowLeft""]","value training","ocean","26","{""ArrowUp,ArrowLeft"":26,""ArrowUp,ArrowRight"":10,""ArrowDown,ArrowLeft"":5,""ArrowDown,ArrowRight"":17}","true","ArrowUp,ArrowLeft","false","","","","","","","98","original","1",""
"html-keyboard-response","233","2051010","0.0-4.0-2.0-1.49","pilot_wm_v1","64135f3a5f83c8b43e569213","1","null","null","true","","","","","","","null","<div style=""font-size:60px;"">+</div>","null","fixation","","","","","","","","","","","","","99","","",""
"learning-instructions","234","2066234","0.0-4.0-3.0-0.0","pilot_wm_v1","64135f3a5f83c8b43e569213","1","null","null","true","","","","","","","1208.2000000029802","<p> Now, you will travel with a friend who will choose whether you go up or down first. </p>
            <p> On these turns, you will just see the animal that they found. You will still get to choose which chest to search for treasure.</p>","","instructions","","","","","","","","","","","","","","","",""
"learning-instructions","235","2079143","0.0-4.0-3.0-0.1","pilot_wm_v1","64135f3a5f83c8b43e569213","1","null","null","true","","","","","","","1285.9000000059605","<p> In this part, you will also hear beeps from your friend and see special treasure chests that need a password. </p>
            <p> Do your best to count the high beeps <b>and</b> choose between each animals' chests at the same time.</p>
            <img src='./assets/img/instructions/beep_chest.jpg' class='instructions-image'>","","instructions","","","","","","","","","","","","","","","",""
"revaluation","236","2083194","0.0-4.0-4.0-0.0","pilot_wm_v1","64135f3a5f83c8b43e569213","1","null","null","true","","true","","","","","[]","./assets/img/ocean/animals/octopus.jpg","[]","revaluation","ocean","-5","{""ArrowUp,ArrowLeft"":26,""ArrowUp,ArrowRight"":10,""ArrowDown,ArrowLeft"":5,""ArrowDown,ArrowRight"":17}","false","ArrowUp","","9_2","","","","","","0","original","1",""
"html-keyboard-response","237","2083709","0.0-4.0-4.0-1.0","pilot_wm_v1","64135f3a5f83c8b43e569213","1","null","null","true","","","","","","","null","<div style=""font-size:60px;"">+</div>","null","fixation","","","","","","","","","","","","","","","",""
"revaluation","238","2087729","0.0-4.0-4.0-0.1","pilot_wm_v1","64135f3a5f83c8b43e569213","1","null","null","true","","false","","","","","[1403.7999999970198]","./assets/img/ocean/animals/seahorse.jpg","[""ArrowRight""]","revaluation","ocean","17","{""ArrowUp,ArrowLeft"":26,""ArrowUp,ArrowRight"":10,""ArrowDown,ArrowLeft"":5,""ArrowDown,ArrowRight"":17}","true","ArrowDown,ArrowRight","","10_3","","","","","","1","original","1",""
"html-keyboard-response","239","2088248","0.0-4.0-4.0-1.1","pilot_wm_v1","64135f3a5f83c8b43e569213","1","null","null","true","","","","","","","null","<div style=""font-size:60px;"">+</div>","null","fixation","","","","","","","","","","","","","","","",""
"revaluation","240","2092285","0.0-4.0-4.0-0.2","pilot_wm_v1","64135f3a5f83c8b43e569213","1","null","null","true","","false","","","","","[820.7999999970198]","./assets/img/ocean/animals/seahorse.jpg","[""ArrowRight""]","revaluation","ocean","17","{""ArrowUp,ArrowLeft"":26,""ArrowUp,ArrowRight"":10,""ArrowDown,ArrowLeft"":5,""ArrowDown,ArrowRight"":17}","true","ArrowDown,ArrowRight","","13_2","","","","","","2","original","1",""
"html-keyboard-response","241","2092790","0.0-4.0-4.0-1.2","pilot_wm_v1","64135f3a5f83c8b43e569213","1","null","null","true","","","","","","","null","<div style=""font-size:60px;"">+</div>","null","fixation","","","","","","","","","","","","","","","",""
"revaluation","242","2096817","0.0-4.0-4.0-0.3","pilot_wm_v1","64135f3a5f83c8b43e569213","1","null","null","true","","false","","","","","[1298.5]","./assets/img/ocean/animals/octopus.jpg","[""ArrowLeft""]","revaluation","ocean","26","{""ArrowUp,ArrowLeft"":26,""ArrowUp,ArrowRight"":10,""ArrowDown,ArrowLeft"":5,""ArrowDown,ArrowRight"":17}","true","ArrowUp,ArrowLeft","","8_2","","","","","","3","original","1",""
"html-keyboard-response","243","2097330","0.0-4.0-4.0-1.3","pilot_wm_v1","64135f3a5f83c8b43e569213","1","null","null","true","","","","","","","null","<div style=""font-size:60px;"">+</div>","null","fixation","","","","","","","","","","","","","","","",""
"html-slider-response","244","2100148","0.0-4.0-4.0-2.3-0.3","pilot_wm_v1","64135f3a5f83c8b43e569213","1","null","null","true","","","","","","","2812","<div style=""width:500px;"">
        <p>What is the password?</p>
        <img src='./assets/img/instructions/beep_chest.jpg' class='instructions-image'>","9","beep chest","","","","true","","","","50","9","0","","","","","",""
"revaluation","245","2104171","0.0-4.0-4.0-0.4","pilot_wm_v1","64135f3a5f83c8b43e569213","1","null","null","true","","false","","","","","[1281]","./assets/img/ocean/animals/octopus.jpg","[""ArrowLeft""]","revaluation","ocean","26","{""ArrowUp,ArrowLeft"":26,""ArrowUp,ArrowRight"":10,""ArrowDown,ArrowLeft"":5,""ArrowDown,ArrowRight"":17}","true","ArrowUp,ArrowLeft","","2_1","","","","","","4","original","1",""
"html-keyboard-response","246","2104677","0.0-4.0-4.0-1.4","pilot_wm_v1","64135f3a5f83c8b43e569213","1","null","null","true","","","","","","","null","<div style=""font-size:60px;"">+</div>","null","fixation","","","","","","","","","","","","","","","",""
"revaluation","247","2108702","0.0-4.0-4.0-0.5","pilot_wm_v1","64135f3a5f83c8b43e569213","1","null","null","true","","false","","","","","[791.8999999985099]","./assets/img/ocean/animals/seahorse.jpg","[""ArrowRight""]","revaluation","ocean","17","{""ArrowUp,ArrowLeft"":26,""ArrowUp,ArrowRight"":10,""ArrowDown,ArrowLeft"":5,""ArrowDown,ArrowRight"":17}","true","ArrowDown,ArrowRight","","16_0","","","","","","5","original","1",""
"html-keyboard-response","248","2109214","0.0-4.0-4.0-1.5","pilot_wm_v1","64135f3a5f83c8b43e569213","1","null","null","true","","","","","","","null","<div style=""font-size:60px;"">+</div>","null","fixation","","","","","","","","","","","","","","","",""
"revaluation","249","2113235","0.0-4.0-4.0-0.6","pilot_wm_v1","64135f3a5f83c8b43e569213","1","null","null","true","","false","","","","","[868.6000000014901]","./assets/img/ocean/animals/octopus.jpg","[""ArrowLeft""]","revaluation","ocean","26","{""ArrowUp,ArrowLeft"":26,""ArrowUp,ArrowRight"":10,""ArrowDown,ArrowLeft"":5,""ArrowDown,ArrowRight"":17}","true","ArrowUp,ArrowLeft","","1_4","","","","","","6","original","1",""
"html-keyboard-response","250","2113745","0.0-4.0-4.0-1.6","pilot_wm_v1","64135f3a5f83c8b43e569213","1","null","null","true","","","","","","","null","<div style=""font-size:60px;"">+</div>","null","fixation","","","","","","","","","","","","","","","",""
"revaluation","251","2117771","0.0-4.0-4.0-0.7","pilot_wm_v1","64135f3a5f83c8b43e569213","1","null","null","true","","false","","","","","[784.5]","./assets/img/ocean/animals/seahorse.jpg","[""ArrowRight""]","revaluation","ocean","17","{""ArrowUp,ArrowLeft"":26,""ArrowUp,ArrowRight"":10,""ArrowDown,ArrowLeft"":5,""ArrowDown,ArrowRight"":17}","true","ArrowDown,ArrowRight","","18_0","","","","","","7","original","1",""
"html-keyboard-response","252","2118278","0.0-4.0-4.0-1.7","pilot_wm_v1","64135f3a5f83c8b43e569213","1","null","null","true","","","","","","","null","<div style=""font-size:60px;"">+</div>","null","fixation","","","","","","","","","","","","","","","",""
"html-slider-response","253","2121250","0.0-4.0-4.0-2.7-0.7","pilot_wm_v1","64135f3a5f83c8b43e569213","1","null","null","true","","","","","","","2966","<div style=""width:500px;"">
        <p>What is the password?</p>
        <img src='./assets/img/instructions/beep_chest.jpg' class='instructions-image'>","5","beep chest","","","","true","","","","50","5","0","","","","","",""
"revaluation","254","2125275","0.0-4.0-4.0-0.8","pilot_wm_v1","64135f3a5f83c8b43e569213","1","null","null","true","","false","","","","","[1115.6000000014901]","./assets/img/ocean/animals/octopus.jpg","[""ArrowLeft""]","revaluation","ocean","26","{""ArrowUp,ArrowLeft"":26,""ArrowUp,ArrowRight"":10,""ArrowDown,ArrowLeft"":5,""ArrowDown,ArrowRight"":17}","true","ArrowUp,ArrowLeft","","7_4","","","","","","8","original","1",""
"html-keyboard-response","255","2125784","0.0-4.0-4.0-1.8","pilot_wm_v1","64135f3a5f83c8b43e569213","1","null","null","true","","","","","","","null","<div style=""font-size:60px;"">+</div>","null","fixation","","","","","","","","","","","","","","","",""
"revaluation","256","2129823","0.0-4.0-4.0-0.9","pilot_wm_v1","64135f3a5f83c8b43e569213","1","null","null","true","","false","","","","","[1155.8999999985099]","./assets/img/ocean/animals/seahorse.jpg","[""ArrowRight""]","revaluation","ocean","17","{""ArrowUp,ArrowLeft"":26,""ArrowUp,ArrowRight"":10,""ArrowDown,ArrowLeft"":5,""ArrowDown,ArrowRight"":17}","true","ArrowDown,ArrowRight","","11_4","","","","","","9","original","1",""
"html-keyboard-response","257","2130341","0.0-4.0-4.0-1.9","pilot_wm_v1","64135f3a5f83c8b43e569213","1","null","null","true","","","","","","","null","<div style=""font-size:60px;"">+</div>","null","fixation","","","","","","","","","","","","","","","",""
"revaluation","258","2134360","0.0-4.0-4.0-0.10","pilot_wm_v1","64135f3a5f83c8b43e569213","1","null","null","true","","false","","","","","[944.8000000044703]","./assets/img/ocean/animals/seahorse.jpg","[""ArrowRight""]","revaluation","ocean","17","{""ArrowUp,ArrowLeft"":26,""ArrowUp,ArrowRight"":10,""ArrowDown,ArrowLeft"":5,""ArrowDown,ArrowRight"":17}","true","ArrowDown,ArrowRight","","12_2","","","","","","10","original","1",""
"html-keyboard-response","259","2134865","0.0-4.0-4.0-1.10","pilot_wm_v1","64135f3a5f83c8b43e569213","1","null","null","true","","","","","","","null","<div style=""font-size:60px;"">+</div>","null","fixation","","","","","","","","","","","","","","","",""
"revaluation","260","2138884","0.0-4.0-4.0-0.11","pilot_wm_v1","64135f3a5f83c8b43e569213","1","null","null","true","","false","","","","","[560.2000000029802]","./assets/img/ocean/animals/seahorse.jpg","[""ArrowRight""]","revaluation","ocean","17","{""ArrowUp,ArrowLeft"":26,""ArrowUp,ArrowRight"":10,""ArrowDown,ArrowLeft"":5,""ArrowDown,ArrowRight"":17}","true","ArrowDown,ArrowRight","","14_4","","","","","","11","original","1",""
"html-keyboard-response","261","2139398","0.0-4.0-4.0-1.11","pilot_wm_v1","64135f3a5f83c8b43e569213","1","null","null","true","","","","","","","null","<div style=""font-size:60px;"">+</div>","null","fixation","","","","","","","","","","","","","","","",""
"html-slider-response","262","2142718","0.0-4.0-4.0-2.11-0.11","pilot_wm_v1","64135f3a5f83c8b43e569213","1","null","null","true","","","","","","","3315","<div style=""width:500px;"">
        <p>What is the password?</p>
        <img src='./assets/img/instructions/beep_chest.jpg' class='instructions-image'>","14","beep chest","","","","true","","","","50","14","0","","","","","",""
"revaluation","263","2146738","0.0-4.0-4.0-0.12","pilot_wm_v1","64135f3a5f83c8b43e569213","1","null","null","true","","false","","","","","[1389.6000000014901]","./assets/img/ocean/animals/octopus.jpg","[""ArrowLeft""]","revaluation","ocean","26","{""ArrowUp,ArrowLeft"":26,""ArrowUp,ArrowRight"":10,""ArrowDown,ArrowLeft"":5,""ArrowDown,ArrowRight"":17}","true","ArrowUp,ArrowLeft","","5_4","","","","","","12","original","1",""
"html-keyboard-response","264","2147248","0.0-4.0-4.0-1.12","pilot_wm_v1","64135f3a5f83c8b43e569213","1","null","null","true","","","","","","","null","<div style=""font-size:60px;"">+</div>","null","fixation","","","","","","","","","","","","","","","",""
"revaluation","265","2151270","0.0-4.0-4.0-0.13","pilot_wm_v1","64135f3a5f83c8b43e569213","1","null","null","true","","false","","","","","[1158.7000000029802]","./assets/img/ocean/animals/seahorse.jpg","[""ArrowRight""]","revaluation","ocean","17","{""ArrowUp,ArrowLeft"":26,""ArrowUp,ArrowRight"":10,""ArrowDown,ArrowLeft"":5,""ArrowDown,ArrowRight"":17}","true","ArrowDown,ArrowRight","","15_0","","","","","","13","original","1",""
"html-keyboard-response","266","2151787","0.0-4.0-4.0-1.13","pilot_wm_v1","64135f3a5f83c8b43e569213","1","null","null","true","","","","","","","null","<div style=""font-size:60px;"">+</div>","null","fixation","","","","","","","","","","","","","","","",""
"revaluation","267","2155804","0.0-4.0-4.0-0.14","pilot_wm_v1","64135f3a5f83c8b43e569213","1","null","null","true","","false","","","","","[588.9000000059605]","./assets/img/ocean/animals/octopus.jpg","[""ArrowLeft""]","revaluation","ocean","26","{""ArrowUp,ArrowLeft"":26,""ArrowUp,ArrowRight"":10,""ArrowDown,ArrowLeft"":5,""ArrowDown,ArrowRight"":17}","true","ArrowUp,ArrowLeft","","4_0","","","","","","14","original","1",""
"html-keyboard-response","268","2156315","0.0-4.0-4.0-1.14","pilot_wm_v1","64135f3a5f83c8b43e569213","1","null","null","true","","","","","","","null","<div style=""font-size:60px;"">+</div>","null","fixation","","","","","","","","","","","","","","","",""
"revaluation","269","2160345","0.0-4.0-4.0-0.15","pilot_wm_v1","64135f3a5f83c8b43e569213","1","null","null","true","","false","","","","","[561]","./assets/img/ocean/animals/seahorse.jpg","[""ArrowRight""]","revaluation","ocean","17","{""ArrowUp,ArrowLeft"":26,""ArrowUp,ArrowRight"":10,""ArrowDown,ArrowLeft"":5,""ArrowDown,ArrowRight"":17}","true","ArrowDown,ArrowRight","","17_1","","","","","","15","original","1",""
"html-keyboard-response","270","2160858","0.0-4.0-4.0-1.15","pilot_wm_v1","64135f3a5f83c8b43e569213","1","null","null","true","","","","","","","null","<div style=""font-size:60px;"">+</div>","null","fixation","","","","","","","","","","","","","","","",""
"html-slider-response","271","2167191","0.0-4.0-4.0-2.15-0.15","pilot_wm_v1","64135f3a5f83c8b43e569213","1","null","null","true","","","","","","","6326","<div style=""width:500px;"">
        <p>What is the password?</p>
        <img src='./assets/img/instructions/beep_chest.jpg' class='instructions-image'>","5","beep chest","","","","true","","","","50","5","0","","","","","",""
"revaluation","272","2171205","0.0-4.0-4.0-0.16","pilot_wm_v1","64135f3a5f83c8b43e569213","1","null","null","true","","false","","","","","[799.9000000059605]","./assets/img/ocean/animals/octopus.jpg","[""ArrowLeft""]","revaluation","ocean","26","{""ArrowUp,ArrowLeft"":26,""ArrowUp,ArrowRight"":10,""ArrowDown,ArrowLeft"":5,""ArrowDown,ArrowRight"":17}","true","ArrowUp,ArrowLeft","","3_0","","","","","","16","original","1",""
"html-keyboard-response","273","2171709","0.0-4.0-4.0-1.16","pilot_wm_v1","64135f3a5f83c8b43e569213","1","null","null","true","","","","","","","null","<div style=""font-size:60px;"">+</div>","null","fixation","","","","","","","","","","","","","","","",""
"revaluation","274","2175730","0.0-4.0-4.0-0.17","pilot_wm_v1","64135f3a5f83c8b43e569213","1","null","null","true","","false","","","","","[949.7999999970198]","./assets/img/ocean/animals/octopus.jpg","[""ArrowLeft""]","revaluation","ocean","26","{""ArrowUp,ArrowLeft"":26,""ArrowUp,ArrowRight"":10,""ArrowDown,ArrowLeft"":5,""ArrowDown,ArrowRight"":17}","true","ArrowUp,ArrowLeft","","6_3","","","","","","17","original","1",""
"html-keyboard-response","275","2176234","0.0-4.0-4.0-1.17","pilot_wm_v1","64135f3a5f83c8b43e569213","1","null","null","true","","","","","","","null","<div style=""font-size:60px;"">+</div>","null","fixation","","","","","","","","","","","","","","","",""
"learning-instructions","276","2189693","0.0-4.0-5.0-0.0-0.0","pilot_wm_v1","64135f3a5f83c8b43e569213","1","null","null","true","","","","","","","2000.8999999985099","<p> Time to play the dot game! </p>
            <p> For one minute, click the red dots on the following screen as they appear. </p>
            <p><b> Don't look away, as you will earn bonus for clicking dots</b>. </p>","","instructions","","","","","","","","","","","","","","","",""
"revaluation","277","2249720","0.0-4.0-5.0-1.0-0.0","pilot_wm_v1","64135f3a5f83c8b43e569213","1","null","null","true","","","","","","","[87,97,59,69,89,81,77]","","","rest","","70","","","","","","","","","0","60000","","","",""
"learning-instructions","278","2259030","0.0-4.0-6.0-0.0","pilot_wm_v1","64135f3a5f83c8b43e569213","1","null","null","true","","","","","","","null","<p> You have almost finished this part of the game! </p>
            <p> We are going to ask you to make a few more choices. </p>","","instructions","","","","","","","","","","","","","","","",""
"learning-instructions","279","2275002","0.0-4.0-6.0-0.1","pilot_wm_v1","64135f3a5f83c8b43e569213","1","null","null","true","","","","","","","null","<p> First, you need to decide whether to go up or down. When you see each picture, use the arrow keys to make your choice. </p>
            <p><b>You will not see which animal you found, but try to get to the one that will give you the most treasure.</b></p>","","instructions","","","","","","","","","","","","","","","",""
