"trial_type","trial_index","time_elapsed","internal_node_id","task_version","subject_id","assigned_condition","age","gender","rest","success","timeout","failed_images","failed_audio","failed_video","browser_interaction","rt","stimulus","response","task_part","environment","score","rewardMap","correct","fullState","isCatch","audioStim","slider_start","answer","error","numberMissed","duration","trial_num","condition","order","bonus"
"pavlovia","0","1388","0.0-0.0","pilot_wm_v1","666def2522abf8b4a768b3cb","2","null","null","true","","","","","","","","","","","","","","","","","","","","","","","","","",""
"preload","1","26326","0.0-1.0","pilot_wm_v1","666def2522abf8b4a768b3cb","2","null","null","true","true","false","[]","[]","[]","[{""event"":""fullscreenenter"",""trial"":2,""time"":34877},{""event"":""blur"",""trial"":5,""time"":65274},{""event"":""focus"",""trial"":5,""time"":73209},{""event"":""blur"",""trial"":7,""time"":87225},{""event"":""focus"",""trial"":7,""time"":105690},{""event"":""blur"",""trial"":72,""time"":520846},{""event"":""focus"",""trial"":72,""time"":532401}]","","","","","","","","","","","","","","","","","","","",""
"fullscreen","2","35870","0.0-2.0","pilot_wm_v1","666def2522abf8b4a768b3cb","2","null","null","true","true","","","","","","","","","","","","","","","","","","","","","","","","",""
"audio-button-response","3","39145","0.0-3.0-0.0-0.0","pilot_wm_v1","666def2522abf8b4a768b3cb","2","null","null","true","","","","","","","3239","./assets/audio/audiotest/turtle.mp3","2","audio_test","","","","","","","","","","","","","","","",""
"learning-instructions","4","53555","0.0-3.0-1.0-0.0","pilot_wm_v1","666def2522abf8b4a768b3cb","2","null","null","true","","","","","","[{""event"":""fullscreenenter"",""trial"":2,""time"":34877},{""event"":""blur"",""trial"":5,""time"":65274},{""event"":""focus"",""trial"":5,""time"":73209},{""event"":""blur"",""trial"":7,""time"":87225},{""event"":""focus"",""trial"":7,""time"":105690},{""event"":""blur"",""trial"":72,""time"":520846},{""event"":""focus"",""trial"":72,""time"":532401}]","7419.5","<p> Welcome! Please remember to stay in fullscreen mode and don't click away from the experiment. </p>","","instructions","","","","","","","","","","","","","","","",""
"learning-instructions","5","75042","0.0-3.0-1.0-0.1","pilot_wm_v1","666def2522abf8b4a768b3cb","2","null","null","true","","","","","","","12977.799999952316","<p> Today you will be playing a game to earn treasure. </p>
            <p> At the end of the experiment, you will earn a bonus based on how much treasure you find. </p>
            <img src='./assets/img/instructions/treasure.jpg' class='instructions-image'>","","instructions","","","","","","","","","","","","","","","",""
"learning-instructions","6","84323","0.0-3.0-1.0-0.2","pilot_wm_v1","666def2522abf8b4a768b3cb","2","null","null","true","","","","","","[{""event"":""fullscreenenter"",""trial"":2,""time"":34877},{""event"":""blur"",""trial"":5,""time"":65274},{""event"":""focus"",""trial"":5,""time"":73209},{""event"":""blur"",""trial"":7,""time"":87225},{""event"":""focus"",""trial"":7,""time"":105690},{""event"":""blur"",""trial"":72,""time"":520846},{""event"":""focus"",""trial"":72,""time"":532401}]","995.5","<p> Animals have hidden treasure in treasure chests. </p>
            <p> You need to first find an animal and then choose which of their treasure chests to search. </p>
            <img src='./assets/img/space/animals/cat.jpg' class='instructions-image'>","","instructions","","","","","","","","","","","","","","","",""
"learning-instructions","7","108948","0.0-3.0-1.0-0.3","pilot_wm_v1","666def2522abf8b4a768b3cb","2","null","null","true","","","","","","","11444.300000011921","<p> In each round, you will search for treasure in a different place. In the real game, there will be two rounds. </p>
            <p> You will begin with a separate, practice round where you will search for treasure in outer space. </p>
            <img src='./assets/img/space/0.jpg' class='instructions-image'>","","instructions","","","","","","","","","","","","","","","",""
"learning-instructions","8","121771","0.0-3.0-1.0-0.4","pilot_wm_v1","666def2522abf8b4a768b3cb","2","null","null","true","","","","","","","1378.0999999642372","<p> On every turn, you will see a picture of the place that you are in, but the specific image may be different each time. </p>
            <p> For example, both of these images mean you are in outer space. </p>
            <img src='./assets/img/instructions/outerspace.jpg' class='instructions-image'>","","instructions","","","","","","","","","","","","","","","",""
"learning-instructions","9","130648","0.0-3.0-1.0-0.5","pilot_wm_v1","666def2522abf8b4a768b3cb","2","null","null","true","","","","","","","1024.9000000357628","<p> You need to decide which direction to travel in. </p>
            <p> You can choose between going <b>up or down</b> by using the arrow keys. </p>
            <img src='./assets/img/instructions/updown.jpg' class='instructions-image'>","","instructions","","","","","","","","","","","","","","","",""
"learning-instructions","10","158044","0.0-3.0-1.0-0.6","pilot_wm_v1","666def2522abf8b4a768b3cb","2","null","null","true","","","","","","","18569.599999964237","<p> You will have <b>2 seconds</b> to make your choice. </p>
            <p> If you do not make a choice within 2 seconds, you will not find an animal or earn treasure. </p>
            <img src='./assets/img/instructions/2seconds.jpg' class='instructions-image'>","","instructions","","","","","","","","","","","","","","","",""
"learning-instructions","11","166373","0.0-3.0-1.0-0.7","pilot_wm_v1","666def2522abf8b4a768b3cb","2","null","null","true","","","","","","","1263.3999999761581","<p> Let’s try practicing that now! </p>
            <p> When you see a picture of the place you are in, press the <b>up</b> key to travel up. </p>
            <img src='./assets/img/instructions/pressUp.jpg' class='instructions-image'>","","instructions","","","","","","","","","","","","","","","",""
"revaluation","12","170395","0.0-3.0-2.0-0.0","pilot_wm_v1","666def2522abf8b4a768b3cb","2","null","null","true","","false","","","","","[689.8000000119209]","./assets/img/space/0.jpg","[""ArrowUp""]","first stage practice","space","0","null","null","ArrowUp","false","","","","","","","","","",""
"html-keyboard-response","13","170897","0.0-3.0-2.0-1.0","pilot_wm_v1","666def2522abf8b4a768b3cb","2","null","null","true","","","","","","","null","<div style=""font-size:60px;"">+</div>","null","fixation","","","","","","","","","","","","","","","",""
"revaluation","14","174901","0.0-3.0-2.0-0.1","pilot_wm_v1","666def2522abf8b4a768b3cb","2","null","null","true","","false","","","","","[874]","./assets/img/space/1.jpg","[""ArrowUp""]","first stage practice","space","0","null","null","ArrowUp","false","","","","","","","","","",""
"html-keyboard-response","15","175402","0.0-3.0-2.0-1.1","pilot_wm_v1","666def2522abf8b4a768b3cb","2","null","null","true","","","","","","","null","<div style=""font-size:60px;"">+</div>","null","fixation","","","","","","","","","","","","","","","",""
"revaluation","16","179405","0.0-3.0-2.0-0.2","pilot_wm_v1","666def2522abf8b4a768b3cb","2","null","null","true","","false","","","","","[1098]","./assets/img/space/2.jpg","[""ArrowUp""]","first stage practice","space","0","null","null","ArrowUp","false","","","","","","","","","",""
"html-keyboard-response","17","179907","0.0-3.0-2.0-1.2","pilot_wm_v1","666def2522abf8b4a768b3cb","2","null","null","true","","","","","","","null","<div style=""font-size:60px;"">+</div>","null","fixation","","","","","","","","","","","","","","","",""
"learning-instructions","18","185416","0.0-3.0-3.0-0.0","pilot_wm_v1","666def2522abf8b4a768b3cb","2","null","null","true","","","","","","","791.1000000238419","<p> Great job! Now try pressing the <b>down</b> key to travel down. </p>
            <img src='./assets/img/instructions/pressDown.jpg' class='instructions-image'>","","instructions","","","","","","","","","","","","","","","",""
"revaluation","19","189420","0.0-3.0-4.0-0.0","pilot_wm_v1","666def2522abf8b4a768b3cb","2","null","null","true","","false","","","","","[767.6999999880791]","./assets/img/space/3.jpg","[""ArrowDown""]","first stage practice","space","0","null","null","ArrowDown","false","","","","","","","","","",""
"html-keyboard-response","20","189922","0.0-3.0-4.0-1.0","pilot_wm_v1","666def2522abf8b4a768b3cb","2","null","null","true","","","","","","","null","<div style=""font-size:60px;"">+</div>","null","fixation","","","","","","","","","","","","","","","",""
"revaluation","21","193925","0.0-3.0-4.0-0.1","pilot_wm_v1","666def2522abf8b4a768b3cb","2","null","null","true","","false","","","","","[1379.6000000238419]","./assets/img/space/4.jpg","[""ArrowDown""]","first stage practice","space","0","null","null","ArrowDown","false","","","","","","","","","",""
"html-keyboard-response","22","194426","0.0-3.0-4.0-1.1","pilot_wm_v1","666def2522abf8b4a768b3cb","2","null","null","true","","","","","","","null","<div style=""font-size:60px;"">+</div>","null","fixation","","","","","","","","","","","","","","","",""
"revaluation","23","198430","0.0-3.0-4.0-0.2","pilot_wm_v1","666def2522abf8b4a768b3cb","2","null","null","true","","false","","","","","[508.7999999523163]","./assets/img/space/5.jpg","[""ArrowDown""]","first stage practice","space","0","null","null","ArrowDown","false","","","","","","","","","",""
"html-keyboard-response","24","198931","0.0-3.0-4.0-1.2","pilot_wm_v1","666def2522abf8b4a768b3cb","2","null","null","true","","","","","","","null","<div style=""font-size:60px;"">+</div>","null","fixation","","","","","","","","","","","","","","","",""
"learning-instructions","25","209962","0.0-3.0-5.0-0.0","pilot_wm_v1","666def2522abf8b4a768b3cb","2","null","null","true","","","","","","","1157.3999999761581","<p> The animals don’t move, so the animal in the upper part of a place will stay in the upper part of a place, and the animal in the lower part of a place will stay in the lower part of a place. </p>","","instructions","","","","","","","","","","","","","","","",""
"learning-instructions","26","219819","0.0-3.0-5.0-0.1","pilot_wm_v1","666def2522abf8b4a768b3cb","2","null","null","true","","","","","","","699.1999999880791","<p> Each animal has two treasure chests for you to choose from. </p>
            <p> The amount of treasure in each chest can range from <b> 0 to 40 pieces.</b></p>","","instructions","","","","","","","","","","","","","","","",""
"learning-instructions","27","232272","0.0-3.0-5.0-0.2","pilot_wm_v1","666def2522abf8b4a768b3cb","2","null","null","true","","","","","","","1229","<p> You should decide which chest to search for treasure by using the <b>left</b> and <b>right</b> arrow keys. </p>
            <p><b> Pay attention to which animal is on the screen, as the animals have different treasure chests. </b></p>
            <img src='./assets/img/instructions/leftright.jpg' class='instructions-image'>","","instructions","","","","","","","","","","","","","","","",""
"learning-instructions","28","240283","0.0-3.0-5.0-0.3","pilot_wm_v1","666def2522abf8b4a768b3cb","2","null","null","true","","","","","","","1617.800000011921","<p> Let’s try practicing that now. </p>
            <p> When you see an animal, choose which chest to search for treasure. </p>
            <img src='./assets/img/instructions/chooseChest.jpg' class='instructions-image'>","","instructions","","","","","","","","","","","","","","","",""
"revaluation","29","244286","0.0-3.0-6.0-0.0","pilot_wm_v1","666def2522abf8b4a768b3cb","2","null","null","true","","false","","","","","[816]","./assets/img/space/animals/cat.jpg","[""ArrowLeft""]","second stage practice","space","3","{""ArrowUp,ArrowLeft"":3,""ArrowUp,ArrowRight"":36,""ArrowDown,ArrowLeft"":15,""ArrowDown,ArrowRight"":23}","false","ArrowUp,ArrowLeft","","","","","","","","","","",""
"html-keyboard-response","30","244789","0.0-3.0-6.0-1.0","pilot_wm_v1","666def2522abf8b4a768b3cb","2","null","null","true","","","","","","","null","<div style=""font-size:60px;"">+</div>","null","fixation","","","","","","","","","","","","","","","",""
"revaluation","31","248793","0.0-3.0-6.0-0.1","pilot_wm_v1","666def2522abf8b4a768b3cb","2","null","null","true","","false","","","","","[627.8000000119209]","./assets/img/space/animals/rabbit.jpg","[""ArrowRight""]","second stage practice","space","23","{""ArrowUp,ArrowLeft"":3,""ArrowUp,ArrowRight"":36,""ArrowDown,ArrowLeft"":15,""ArrowDown,ArrowRight"":23}","true","ArrowDown,ArrowRight","","","","","","","","","","",""
"html-keyboard-response","32","249294","0.0-3.0-6.0-1.1","pilot_wm_v1","666def2522abf8b4a768b3cb","2","null","null","true","","","","","","","null","<div style=""font-size:60px;"">+</div>","null","fixation","","","","","","","","","","","","","","","",""
"revaluation","33","253298","0.0-3.0-6.0-0.2","pilot_wm_v1","666def2522abf8b4a768b3cb","2","null","null","true","","false","","","","","[838.0999999642372]","./assets/img/space/animals/cat.jpg","[""ArrowRight""]","second stage practice","space","36","{""ArrowUp,ArrowLeft"":3,""ArrowUp,ArrowRight"":36,""ArrowDown,ArrowLeft"":15,""ArrowDown,ArrowRight"":23}","true","ArrowUp,ArrowRight","","","","","","","","","","",""
"html-keyboard-response","34","253799","0.0-3.0-6.0-1.2","pilot_wm_v1","666def2522abf8b4a768b3cb","2","null","null","true","","","","","","","null","<div style=""font-size:60px;"">+</div>","null","fixation","","","","","","","","","","","","","","","",""
"revaluation","35","257804","0.0-3.0-6.0-0.3","pilot_wm_v1","666def2522abf8b4a768b3cb","2","null","null","true","","false","","","","","[620.2999999523163]","./assets/img/space/animals/rabbit.jpg","[""ArrowLeft""]","second stage practice","space","15","{""ArrowUp,ArrowLeft"":3,""ArrowUp,ArrowRight"":36,""ArrowDown,ArrowLeft"":15,""ArrowDown,ArrowRight"":23}","false","ArrowDown,ArrowLeft","","","","","","","","","","",""
"html-keyboard-response","36","258305","0.0-3.0-6.0-1.3","pilot_wm_v1","666def2522abf8b4a768b3cb","2","null","null","true","","","","","","","null","<div style=""font-size:60px;"">+</div>","null","fixation","","","","","","","","","","","","","","","",""
"learning-instructions","37","279408","0.0-3.0-7.0-0.0","pilot_wm_v1","666def2522abf8b4a768b3cb","2","null","null","true","","","","","","","4251.800000011921","<p> Great job. Now let’s try putting it together. </p>
            <p> On each turn, you will first see a picture to remind you of the place you are in, and you need to choose whether to go up or down. </p>
            <p> Then you will see an animal and choose which of its chests to search for treasure. </p>","","instructions","","","","","","","","","","","","","","","",""
"learning-instructions","38","290078","0.0-3.0-7.0-0.1","pilot_wm_v1","666def2522abf8b4a768b3cb","2","null","null","true","","","","","","","2389.7999999523163","<p> When you choose whether to go up or down, try to go to the animal with the chest with the most treasure. </p>
            <p> Try practicing that now! </p>","","instructions","","","","","","","","","","","","","","","",""
"revaluation","39","296083","0.0-3.0-8.0-0.0","pilot_wm_v1","666def2522abf8b4a768b3cb","2","null","null","true","","false","","","","","[907.3999999761581,903]","./assets/img/space/6.jpg","[""ArrowUp"",""ArrowRight""]","full practice","space","36","{""ArrowUp,ArrowLeft"":3,""ArrowUp,ArrowRight"":36,""ArrowDown,ArrowLeft"":15,""ArrowDown,ArrowRight"":23}","true","ArrowUp,ArrowRight","false","","","","","","","","","",""
"html-keyboard-response","40","296584","0.0-3.0-8.0-1.0","pilot_wm_v1","666def2522abf8b4a768b3cb","2","null","null","true","","","","","","","null","<div style=""font-size:60px;"">+</div>","null","fixation","","","","","","","","","","","","","","","",""
"revaluation","41","302589","0.0-3.0-8.0-0.1","pilot_wm_v1","666def2522abf8b4a768b3cb","2","null","null","true","","false","","","","","[1263.6000000238419,596.1000000238419]","./assets/img/space/7.jpg","[""ArrowDown"",""ArrowRight""]","full practice","space","23","{""ArrowUp,ArrowLeft"":3,""ArrowUp,ArrowRight"":36,""ArrowDown,ArrowLeft"":15,""ArrowDown,ArrowRight"":23}","false","ArrowDown,ArrowRight","false","","","","","","","","","",""
"html-keyboard-response","42","303090","0.0-3.0-8.0-1.1","pilot_wm_v1","666def2522abf8b4a768b3cb","2","null","null","true","","","","","","","null","<div style=""font-size:60px;"">+</div>","null","fixation","","","","","","","","","","","","","","","",""
"revaluation","43","309094","0.0-3.0-8.0-0.2","pilot_wm_v1","666def2522abf8b4a768b3cb","2","null","null","true","","false","","","","","[922.1999999880791,700.2000000476837]","./assets/img/space/8.jpg","[""ArrowDown"",""ArrowRight""]","full practice","space","23","{""ArrowUp,ArrowLeft"":3,""ArrowUp,ArrowRight"":36,""ArrowDown,ArrowLeft"":15,""ArrowDown,ArrowRight"":23}","false","ArrowDown,ArrowRight","false","","","","","","","","","",""
"html-keyboard-response","44","309595","0.0-3.0-8.0-1.2","pilot_wm_v1","666def2522abf8b4a768b3cb","2","null","null","true","","","","","","","null","<div style=""font-size:60px;"">+</div>","null","fixation","","","","","","","","","","","","","","","",""
"revaluation","45","315599","0.0-3.0-8.0-0.3","pilot_wm_v1","666def2522abf8b4a768b3cb","2","null","null","true","","false","","","","","[1230.699999988079,664]","./assets/img/space/9.jpg","[""ArrowDown"",""ArrowLeft""]","full practice","space","15","{""ArrowUp,ArrowLeft"":3,""ArrowUp,ArrowRight"":36,""ArrowDown,ArrowLeft"":15,""ArrowDown,ArrowRight"":23}","false","ArrowDown,ArrowLeft","false","","","","","","","","","",""
"html-keyboard-response","46","316100","0.0-3.0-8.0-1.3","pilot_wm_v1","666def2522abf8b4a768b3cb","2","null","null","true","","","","","","","null","<div style=""font-size:60px;"">+</div>","null","fixation","","","","","","","","","","","","","","","",""
"revaluation","47","322106","0.0-3.0-8.0-0.4","pilot_wm_v1","666def2522abf8b4a768b3cb","2","null","null","true","","false","","","","","[731.1999999880791,446.10000002384186]","./assets/img/space/10.jpg","[""ArrowDown"",""ArrowRight""]","full practice","space","23","{""ArrowUp,ArrowLeft"":3,""ArrowUp,ArrowRight"":36,""ArrowDown,ArrowLeft"":15,""ArrowDown,ArrowRight"":23}","false","ArrowDown,ArrowRight","false","","","","","","","","","",""
"html-keyboard-response","48","322607","0.0-3.0-8.0-1.4","pilot_wm_v1","666def2522abf8b4a768b3cb","2","null","null","true","","","","","","","null","<div style=""font-size:60px;"">+</div>","null","fixation","","","","","","","","","","","","","","","",""
"learning-instructions","49","336462","0.0-3.0-9.0-0.0","pilot_wm_v1","666def2522abf8b4a768b3cb","2","null","null","true","","","","","","","3510.2999999523163","<p> One last thing: sometimes, you will see a robber. The robber can be anywhere in the picture. </p>
            <p> If you do not stop them, you will lose treasure. </p>
            <img src='./assets/img/instructions/robber.jpg' class='instructions-image'>","","instructions","","","","","","","","","","","","","","","",""
"learning-instructions","50","345756","0.0-3.0-9.0-0.1","pilot_wm_v1","666def2522abf8b4a768b3cb","2","null","null","true","","","","","","","2118.899999976158","<p> If you see the robber, you should <b>press the space bar</b> rather than using the arrow keys. </p>
            <p> Try practicing that now! </p>","","instructions","","","","","","","","","","","","","","","",""
"revaluation","51","349760","0.0-3.0-10.0-0.0","pilot_wm_v1","666def2522abf8b4a768b3cb","2","null","null","true","","false","","","","","[628.5999999642372]","./assets/img/space/catch/0.jpg","[""ArrowUp""]","catch practice","space","-10","{""ArrowUp,ArrowLeft"":3,""ArrowUp,ArrowRight"":36,""ArrowDown,ArrowLeft"":15,""ArrowDown,ArrowRight"":23}","false","ArrowUp","true","","","","","","","","","",""
"html-keyboard-response","52","350262","0.0-3.0-10.0-1.0","pilot_wm_v1","666def2522abf8b4a768b3cb","2","null","null","true","","","","","","","null","<div style=""font-size:60px;"">+</div>","null","fixation","","","","","","","","","","","","","","","",""
"revaluation","53","354267","0.0-3.0-10.0-0.1","pilot_wm_v1","666def2522abf8b4a768b3cb","2","null","null","true","","false","","","","","[586.8000000119209]","./assets/img/space/catch/1.jpg","[""spaceBar""]","catch practice","space","0","{""ArrowUp,ArrowLeft"":3,""ArrowUp,ArrowRight"":36,""ArrowDown,ArrowLeft"":15,""ArrowDown,ArrowRight"":23}","true","spaceBar","true","","","","","","","","","",""
"html-keyboard-response","54","354769","0.0-3.0-10.0-1.1","pilot_wm_v1","666def2522abf8b4a768b3cb","2","null","null","true","","","","","","","null","<div style=""font-size:60px;"">+</div>","null","fixation","","","","","","","","","","","","","","","",""
"revaluation","55","358773","0.0-3.0-10.0-0.2","pilot_wm_v1","666def2522abf8b4a768b3cb","2","null","null","true","","false","","","","","[550.2000000476837]","./assets/img/space/catch/2.jpg","[""spaceBar""]","catch practice","space","0","{""ArrowUp,ArrowLeft"":3,""ArrowUp,ArrowRight"":36,""ArrowDown,ArrowLeft"":15,""ArrowDown,ArrowRight"":23}","true","spaceBar","true","","","","","","","","","",""
"html-keyboard-response","56","359275","0.0-3.0-10.0-1.2","pilot_wm_v1","666def2522abf8b4a768b3cb","2","null","null","true","","","","","","","null","<div style=""font-size:60px;"">+</div>","null","fixation","","","","","","","","","","","","","","","",""
"learning-instructions","57","366372","0.0-3.0-11.0-0.0","pilot_wm_v1","666def2522abf8b4a768b3cb","2","null","null","true","","","","","","","1563.199999988079","<p> Sometimes, you will come across a special kind of treasure chest that requires a password. </p>
            <img src='./assets/img/instructions/beep_chest.jpg' class='instructions-image'>","","instructions","","","","","","","","","","","","","","","",""
"learning-instructions","58","389464","0.0-3.0-11.0-0.1","pilot_wm_v1","666def2522abf8b4a768b3cb","2","null","null","true","","","","","","","1450.8999999761581","<p> Your friend will send you the password using a series of beeps so that you can open the chest and earn treasure. </p>
            <p> You will hear two kinds of beeps, a high beep and a low beep. </p>
            <p> You should report the number of high beeps that you heard before seeing the chest. </p>
            <img src='./assets/img/instructions/listen.jpg' class='instructions-image'>","","instructions","","","","","","","","","","","","","","","",""
"learning-instructions","59","415285","0.0-3.0-11.0-0.2","pilot_wm_v1","666def2522abf8b4a768b3cb","2","null","null","true","","","","","","","3484.300000011921","<p> For example, if you hear this series of beeps, you should report 4 as the password using the slider. </p>
            <p> After reporting a password for a chest, you should count the high beeps again starting from 0. </p>
            <p> Let's try practicing that now. </p>","","instructions","","","","","","","","","","","","","","","",""
"audio-button-response","60","423312","0.0-3.0-12.0-0.0-0.0","pilot_wm_v1","666def2522abf8b4a768b3cb","2","null","null","true","","","","","","","null","./assets/audio/beeps/practice_6.wav","null","","","","","","","","","","","","","","","","",""
"html-slider-response","61","427644","0.0-3.0-12.0-0.0-1.0","pilot_wm_v1","666def2522abf8b4a768b3cb","2","null","null","true","","","","","","","4327","<div style=""width:500px;"">
        <p>What is the password?</p>
        <img src='./assets/img/instructions/beep_chest.jpg' class='instructions-image'>","6","beep chest","","","","false","","","","50","0","6","","","","","",""
"comp-q","62","433702","0.0-3.0-12.0-0.0-2.0","pilot_wm_v1","666def2522abf8b4a768b3cb","2","null","null","true","","","","","","","1837.0999999642372","<p>Correct! There were 6 high pitched beeps before you saw the chest. </p>","0","beep answer","","","","","","","","","","","","","","","",""
"audio-button-response","63","441720","0.0-3.0-12.0-0.1-0.1","pilot_wm_v1","666def2522abf8b4a768b3cb","2","null","null","true","","","","","","","null","./assets/audio/beeps/practice_4.wav","null","","","","","","","","","","","","","","","","",""
"html-slider-response","64","444892","0.0-3.0-12.0-0.1-1.1","pilot_wm_v1","666def2522abf8b4a768b3cb","2","null","null","true","","","","","","","3170","<div style=""width:500px;"">
        <p>What is the password?</p>
        <img src='./assets/img/instructions/beep_chest.jpg' class='instructions-image'>","4","beep chest","","","","false","","","","50","0","4","","","","","",""
"comp-q","65","450347","0.0-3.0-12.0-0.1-2.1","pilot_wm_v1","666def2522abf8b4a768b3cb","2","null","null","true","","","","","","","1254.3999999761581","<p>Correct! There were 4 high pitched beeps before you saw the chest. </p>","0","beep answer","","","","","","","","","","","","","","","",""
"learning-instructions","66","462453","0.0-3.0-13.0-0.0","pilot_wm_v1","666def2522abf8b4a768b3cb","2","null","null","true","","","","","","","1772.699999988079","<p> Good job! In the real game we will not tell you if you entered the right password. </p>
            <p> Do your best, the treasure you earn from these chests will also give you extra bonus money. </p>","","instructions","","","","","","","","","","","","","","","",""
"learning-instructions","67","477258","0.0-3.0-14.0-0.0-0.0","pilot_wm_v1","666def2522abf8b4a768b3cb","2","null","null","true","","","","","","","1160.6000000238419","<p> After you explore a place to find treasure, it will be time to play a different game. </p>
            <p> During this game, red dots will appear on the screen and fall down slowly. </p>
            <p><b> You must click on them before they reach the bottom. </b></p>
            <img src='./assets/img/instructions/dotGame.jpg' class='instructions-image'>","","instructions","","","","","","","","","","","","","","","",""
"learning-instructions","68","487972","0.0-3.0-14.0-0.0-0.1","pilot_wm_v1","666def2522abf8b4a768b3cb","2","null","null","true","","","","","","","5036.100000023842","<p> For every dot you click, you will earn additional treasure. </p>
            <p> Let’s try practicing that now. </p>","","instructions","","","","","","","","","","","","","","","",""
"revaluation","69","502956","0.0-3.0-14.0-1.0-0.0","pilot_wm_v1","666def2522abf8b4a768b3cb","2","null","null","true","","","","","","","[95]","","","rest practice","","10","","","","","","","","","0","15000","","","",""
"learning-instructions","70","511600","0.0-3.0-15.0-0.0-0.0","pilot_wm_v1","666def2522abf8b4a768b3cb","2","null","null","true","","","","","","","3412.600000023842","<p> Now, you will practice a shortened version of the game to get a sense of how it all fits together. </p>","","instructions","","","","","","","","","","","","","","","",""
"learning-instructions","71","515960","0.0-3.0-15.0-0.0-0.1","pilot_wm_v1","666def2522abf8b4a768b3cb","2","null","null","true","","","","","","[{""event"":""fullscreenenter"",""trial"":2,""time"":34877},{""event"":""blur"",""trial"":5,""time"":65274},{""event"":""focus"",""trial"":5,""time"":73209},{""event"":""blur"",""trial"":7,""time"":87225},{""event"":""focus"",""trial"":7,""time"":105690},{""event"":""blur"",""trial"":72,""time"":520846},{""event"":""focus"",""trial"":72,""time"":532401}]","1157.800000011921","<p>This time you are searching for treasure in outer space.</p>","","instructions","","","","","","","","","","","","","","","",""
"learning-instructions","72","535908","0.0-3.0-15.0-1.0-0.0","pilot_wm_v1","666def2522abf8b4a768b3cb","2","null","null","true","","","","","","","5145.600000023842","<p> Remember, when you see a picture of the place, use the up and down keys to <b>find an animal</b>.</p>
            <p> When you encounter an animal, you should use the left and right keys to <b>select a treasure chest</b>.</p>
            <p> Don't forget to look out for the robber! </p>","","instructions","","","","","","","","","","","","","","","",""
"revaluation","73","541912","0.0-3.0-15.0-2.0-0.0","pilot_wm_v1","666def2522abf8b4a768b3cb","2","null","null","true","","false","","","","","[879.3999999761581,669.0999999642372]","./assets/img/space/11.jpg","[""ArrowUp"",""ArrowRight""]","practice block","space","36","{""ArrowUp,ArrowLeft"":3,""ArrowUp,ArrowRight"":36,""ArrowDown,ArrowLeft"":15,""ArrowDown,ArrowRight"":23}","true","ArrowUp,ArrowRight","false","","","","","","","","","",""
"html-keyboard-response","74","542414","0.0-3.0-15.0-2.0-1.0","pilot_wm_v1","666def2522abf8b4a768b3cb","2","null","null","true","","","","","","","null","<div style=""font-size:60px;"">+</div>","null","fixation","","","","","","","","","","","","","","","",""
"revaluation","75","548418","0.0-3.0-15.0-2.0-0.1","pilot_wm_v1","666def2522abf8b4a768b3cb","2","null","null","true","","false","","","","","[948.5,552.6999999880791]","./assets/img/space/12.jpg","[""ArrowUp"",""ArrowRight""]","practice block","space","36","{""ArrowUp,ArrowLeft"":3,""ArrowUp,ArrowRight"":36,""ArrowDown,ArrowLeft"":15,""ArrowDown,ArrowRight"":23}","true","ArrowUp,ArrowRight","false","","","","","","","","","",""
"html-keyboard-response","76","548920","0.0-3.0-15.0-2.0-1.1","pilot_wm_v1","666def2522abf8b4a768b3cb","2","null","null","true","","","","","","","null","<div style=""font-size:60px;"">+</div>","null","fixation","","","","","","","","","","","","","","","",""
"revaluation","77","554925","0.0-3.0-15.0-2.0-0.2","pilot_wm_v1","666def2522abf8b4a768b3cb","2","null","null","true","","false","","","","","[915.0999999642372,387.30000001192093]","./assets/img/space/13.jpg","[""ArrowDown"",""ArrowRight""]","practice block","space","23","{""ArrowUp,ArrowLeft"":3,""ArrowUp,ArrowRight"":36,""ArrowDown,ArrowLeft"":15,""ArrowDown,ArrowRight"":23}","false","ArrowDown,ArrowRight","false","","","","","","","","","",""
"html-keyboard-response","78","555427","0.0-3.0-15.0-2.0-1.2","pilot_wm_v1","666def2522abf8b4a768b3cb","2","null","null","true","","","","","","","null","<div style=""font-size:60px;"">+</div>","null","fixation","","","","","","","","","","","","","","","",""
"revaluation","79","561432","0.0-3.0-15.0-2.0-0.3","pilot_wm_v1","666def2522abf8b4a768b3cb","2","null","null","true","","false","","","","","[540.8999999761581,559.1999999880791]","./assets/img/space/14.jpg","[""ArrowUp"",""ArrowRight""]","practice block","space","36","{""ArrowUp,ArrowLeft"":3,""ArrowUp,ArrowRight"":36,""ArrowDown,ArrowLeft"":15,""ArrowDown,ArrowRight"":23}","true","ArrowUp,ArrowRight","false","","","","","","","","","",""
"html-keyboard-response","80","561934","0.0-3.0-15.0-2.0-1.3","pilot_wm_v1","666def2522abf8b4a768b3cb","2","null","null","true","","","","","","","null","<div style=""font-size:60px;"">+</div>","null","fixation","","","","","","","","","","","","","","","",""
"revaluation","81","567938","0.0-3.0-15.0-2.0-0.4","pilot_wm_v1","666def2522abf8b4a768b3cb","2","null","null","true","","false","","","","","[1068.699999988079,663.1000000238419]","./assets/img/space/11.jpg","[""ArrowUp"",""ArrowRight""]","practice block","space","36","{""ArrowUp,ArrowLeft"":3,""ArrowUp,ArrowRight"":36,""ArrowDown,ArrowLeft"":15,""ArrowDown,ArrowRight"":23}","true","ArrowUp,ArrowRight","false","","","","","","","","","",""
"html-keyboard-response","82","568440","0.0-3.0-15.0-2.0-1.4","pilot_wm_v1","666def2522abf8b4a768b3cb","2","null","null","true","","","","","","","null","<div style=""font-size:60px;"">+</div>","null","fixation","","","","","","","","","","","","","","","",""
"revaluation","83","574446","0.0-3.0-15.0-2.0-0.5","pilot_wm_v1","666def2522abf8b4a768b3cb","2","null","null","true","","false","","","","","[1032.699999988079,561.8000000119209]","./assets/img/space/12.jpg","[""ArrowUp"",""ArrowRight""]","practice block","space","36","{""ArrowUp,ArrowLeft"":3,""ArrowUp,ArrowRight"":36,""ArrowDown,ArrowLeft"":15,""ArrowDown,ArrowRight"":23}","true","ArrowUp,ArrowRight","false","","","","","","","","","",""
"html-keyboard-response","84","574948","0.0-3.0-15.0-2.0-1.5","pilot_wm_v1","666def2522abf8b4a768b3cb","2","null","null","true","","","","","","","null","<div style=""font-size:60px;"">+</div>","null","fixation","","","","","","","","","","","","","","","",""
"revaluation","85","580954","0.0-3.0-15.0-2.0-0.6","pilot_wm_v1","666def2522abf8b4a768b3cb","2","null","null","true","","false","","","","","[1052.199999988079,410.4000000357628]","./assets/img/space/13.jpg","[""ArrowUp"",""ArrowRight""]","practice block","space","36","{""ArrowUp,ArrowLeft"":3,""ArrowUp,ArrowRight"":36,""ArrowDown,ArrowLeft"":15,""ArrowDown,ArrowRight"":23}","true","ArrowUp,ArrowRight","false","","","","","","","","","",""
"html-keyboard-response","86","581456","0.0-3.0-15.0-2.0-1.6","pilot_wm_v1","666def2522abf8b4a768b3cb","2","null","null","true","","","","","","","null","<div style=""font-size:60px;"">+</div>","null","fixation","","","","","","","","","","","","","","","",""
"revaluation","87","587461","0.0-3.0-15.0-2.0-0.7","pilot_wm_v1","666def2522abf8b4a768b3cb","2","null","null","true","","false","","","","","[1339.800000011921,351.5]","./assets/img/space/14.jpg","[""ArrowUp"",""ArrowLeft""]","practice block","space","3","{""ArrowUp,ArrowLeft"":3,""ArrowUp,ArrowRight"":36,""ArrowDown,ArrowLeft"":15,""ArrowDown,ArrowRight"":23}","false","ArrowUp,ArrowLeft","false","","","","","","","","","",""
"html-keyboard-response","88","587962","0.0-3.0-15.0-2.0-1.7","pilot_wm_v1","666def2522abf8b4a768b3cb","2","null","null","true","","","","","","","null","<div style=""font-size:60px;"">+</div>","null","fixation","","","","","","","","","","","","","","","",""
"revaluation","89","591967","0.0-3.0-15.0-2.0-0.8","pilot_wm_v1","666def2522abf8b4a768b3cb","2","null","null","true","","false","","","","","[667.0999999642372]","./assets/img/space/catch/3.jpg","[""spaceBar""]","practice block","space","0","{""ArrowUp,ArrowLeft"":3,""ArrowUp,ArrowRight"":36,""ArrowDown,ArrowLeft"":15,""ArrowDown,ArrowRight"":23}","true","spaceBar","true","","","","","","","","","",""
"html-keyboard-response","90","592468","0.0-3.0-15.0-2.0-1.8","pilot_wm_v1","666def2522abf8b4a768b3cb","2","null","null","true","","","","","","","null","<div style=""font-size:60px;"">+</div>","null","fixation","","","","","","","","","","","","","","","",""
"learning-instructions","91","607242","0.0-3.0-15.0-3.0-0.0","pilot_wm_v1","666def2522abf8b4a768b3cb","2","null","null","true","","","","","","","1800.199999988079","<p> Now, you will travel with a friend who will choose whether you go up or down first. </p>
            <p> On these turns, you will just see the animal that they found. You will still get to choose which chest to search for treasure.</p>","","instructions","","","","","","","","","","","","","","","",""
"learning-instructions","92","620626","0.0-3.0-15.0-3.0-0.1","pilot_wm_v1","666def2522abf8b4a768b3cb","2","null","null","true","","","","","","","1745.300000011921","<p> In this part, you will also hear beeps from your friend and see special treasure chests that need a password. </p>
            <p> Do your best to count the high beeps <b>and</b> choose between each animals' chests at the same time.</p>
            <img src='./assets/img/instructions/beep_chest.jpg' class='instructions-image'>","","instructions","","","","","","","","","","","","","","","",""
"revaluation","93","624631","0.0-3.0-15.0-4.0-0.0","pilot_wm_v1","666def2522abf8b4a768b3cb","2","null","null","true","","false","","","","","[1977.7000000476837]","./assets/img/space/animals/cat.jpg","[""ArrowRight""]","practice block","space","36","{""ArrowUp,ArrowLeft"":3,""ArrowUp,ArrowRight"":36,""ArrowDown,ArrowLeft"":15,""ArrowDown,ArrowRight"":23}","true","ArrowUp,ArrowRight","","[""20_0""]","","","","","","0","","",""
"html-keyboard-response","94","625135","0.0-3.0-15.0-4.0-1.0","pilot_wm_v1","666def2522abf8b4a768b3cb","2","null","null","true","","","","","","","null","<div style=""font-size:60px;"">+</div>","null","fixation","","","","","","","","","","","","","","","",""
"revaluation","95","629137","0.0-3.0-15.0-4.0-0.1","pilot_wm_v1","666def2522abf8b4a768b3cb","2","null","null","true","","false","","","","","[1098.7999999523163]","./assets/img/space/animals/rabbit.jpg","[""ArrowRight""]","practice block","space","23","{""ArrowUp,ArrowLeft"":3,""ArrowUp,ArrowRight"":36,""ArrowDown,ArrowLeft"":15,""ArrowDown,ArrowRight"":23}","true","ArrowDown,ArrowRight","","[""21_1""]","","","","","","1","","",""
"html-keyboard-response","96","629638","0.0-3.0-15.0-4.0-1.1","pilot_wm_v1","666def2522abf8b4a768b3cb","2","null","null","true","","","","","","","null","<div style=""font-size:60px;"">+</div>","null","fixation","","","","","","","","","","","","","","","",""
"revaluation","97","633642","0.0-3.0-15.0-4.0-0.2","pilot_wm_v1","666def2522abf8b4a768b3cb","2","null","null","true","","false","","","","","[801.6000000238419]","./assets/img/space/animals/rabbit.jpg","[""ArrowRight""]","practice block","space","23","{""ArrowUp,ArrowLeft"":3,""ArrowUp,ArrowRight"":36,""ArrowDown,ArrowLeft"":15,""ArrowDown,ArrowRight"":23}","true","ArrowDown,ArrowRight","","[""22_3""]","","","","","","2","","",""
"html-keyboard-response","98","634144","0.0-3.0-15.0-4.0-1.2","pilot_wm_v1","666def2522abf8b4a768b3cb","2","null","null","true","","","","","","","null","<div style=""font-size:60px;"">+</div>","null","fixation","","","","","","","","","","","","","","","",""
"revaluation","99","638149","0.0-3.0-15.0-4.0-0.3","pilot_wm_v1","666def2522abf8b4a768b3cb","2","null","null","true","","false","","","","","[549.5]","./assets/img/space/animals/cat.jpg","[""ArrowRight""]","practice block","space","36","{""ArrowUp,ArrowLeft"":3,""ArrowUp,ArrowRight"":36,""ArrowDown,ArrowLeft"":15,""ArrowDown,ArrowRight"":23}","true","ArrowUp,ArrowRight","","[""19_0""]","","","","","","3","","",""
"html-keyboard-response","100","638651","0.0-3.0-15.0-4.0-1.3","pilot_wm_v1","666def2522abf8b4a768b3cb","2","null","null","true","","","","","","","null","<div style=""font-size:60px;"">+</div>","null","fixation","","","","","","","","","","","","","","","",""
"html-slider-response","101","648672","0.0-3.0-15.0-4.0-2.3-0.3","pilot_wm_v1","666def2522abf8b4a768b3cb","2","null","null","true","","","","","","","10019","<div style=""width:500px;"">
        <p>What is the password?</p>
        <img src='./assets/img/instructions/beep_chest.jpg' class='instructions-image'>","10","beep chest","","","","false","","","","50","82","72","","","","","",""
"learning-instructions","102","657528","0.0-3.0-15.0-5.0-0.0-0.0","pilot_wm_v1","666def2522abf8b4a768b3cb","2","null","null","true","","","","","","","1467.300000011921","<p> Time to play the dot game! </p>
            <p> For 15 seconds, click the red dots on the following screen as they appear. </p>","","instructions","","","","","","","","","","","","","","","",""
"revaluation","103","672530","0.0-3.0-15.0-5.0-1.0-0.0","pilot_wm_v1","666def2522abf8b4a768b3cb","2","null","null","true","","","","","","","[75]","","","rest practice","","10","","","","","","","","","0","15000","","","",""
"learning-instructions","104","680671","0.0-3.0-15.0-6.0-0.0","pilot_wm_v1","666def2522abf8b4a768b3cb","2","null","null","true","","","","","","","null","<p> You have almost finished this part of the game! </p>
            <p> We are going to ask you to make a few more choices. </p>","","instructions","","","","","","","","","","","","","","","",""
"learning-instructions","105","696718","0.0-3.0-15.0-6.0-0.1","pilot_wm_v1","666def2522abf8b4a768b3cb","2","null","null","true","","","","","","","null","<p> First, you need to decide whether to go up or down. When you see each picture, use the arrow keys to make your choice. </p>
            <p><b>You will not see which animal you found, but try to get to the one that will give you the most treasure.</b></p>","","instructions","","","","","","","","","","","","","","","",""
"html-keyboard-response","106","697720","0.0-3.0-15.0-7.0-0.0","pilot_wm_v1","666def2522abf8b4a768b3cb","2","null","null","true","","","","","","","null","<div style=""font-size:100px;color:red;"">Starting in...</div>","null","","","","","","","","","","","","","","","","",""
"html-keyboard-response","107","698721","0.0-3.0-15.0-7.0-1.0","pilot_wm_v1","666def2522abf8b4a768b3cb","2","null","null","true","","","","","","","null","<div style=""font-size:200px;color:red;"">3</div>","null","","","","","","","","","","","","","","","","",""
"html-keyboard-response","108","699722","0.0-3.0-15.0-7.0-2.0","pilot_wm_v1","666def2522abf8b4a768b3cb","2","null","null","true","","","","","","","null","<div style=""font-size:200px;color:red;"">2</div>","null","","","","","","","","","","","","","","","","",""
"html-keyboard-response","109","700724","0.0-3.0-15.0-7.0-3.0","pilot_wm_v1","666def2522abf8b4a768b3cb","2","null","null","true","","","","","","","null","<div style=""font-size:200px;color:red;"">1</div>","null","","","","","","","","","","","","","","","","",""
"revaluation","110","701306","0.0-3.0-15.0-8.0","pilot_wm_v1","666def2522abf8b4a768b3cb","2","null","null","true","","false","","","","","[578.5]","./assets/img/space/15.jpg","[""ArrowUp""]","practice block","space","0","{""ArrowUp,ArrowLeft"":3,""ArrowUp,ArrowRight"":36,""ArrowDown,ArrowLeft"":15,""ArrowDown,ArrowRight"":23}","true","ArrowUp","false","","","","","","","","","",""
"html-keyboard-response","111","701807","0.0-3.0-15.0-9.0","pilot_wm_v1","666def2522abf8b4a768b3cb","2","null","null","true","","","","","","","null","<div style=""font-size:60px;"">+</div>","null","fixation","","","","","","","","","","","","","","","",""
"learning-instructions","112","715212","0.0-3.0-15.0-10.0-0.0","pilot_wm_v1","666def2522abf8b4a768b3cb","2","null","null","true","","","","","","","null","<p> Now you will see the animals again and can search their chests for treasure. </p>
            <p> This time, you will not see how much treasure you earned, but you will earn more bonus money for making better choices. </p>","","instructions","","","","","","","","","","","","","","","",""
"html-keyboard-response","113","716214","0.0-3.0-15.0-11.0-0.0","pilot_wm_v1","666def2522abf8b4a768b3cb","2","null","null","true","","","","","","","null","<div style=""font-size:100px;color:red;"">Starting in...</div>","null","","","","","","","","","","","","","","","","",""
"html-keyboard-response","114","717216","0.0-3.0-15.0-11.0-1.0","pilot_wm_v1","666def2522abf8b4a768b3cb","2","null","null","true","","","","","","","null","<div style=""font-size:200px;color:red;"">3</div>","null","","","","","","","","","","","","","","","","",""
"html-keyboard-response","115","718217","0.0-3.0-15.0-11.0-2.0","pilot_wm_v1","666def2522abf8b4a768b3cb","2","null","null","true","","","","","","","null","<div style=""font-size:200px;color:red;"">2</div>","null","","","","","","","","","","","","","","","","",""
"html-keyboard-response","116","719219","0.0-3.0-15.0-11.0-3.0","pilot_wm_v1","666def2522abf8b4a768b3cb","2","null","null","true","","","","","","","null","<div style=""font-size:200px;color:red;"">1</div>","null","","","","","","","","","","","","","","","","",""
"revaluation","117","720210","0.0-3.0-15.0-12.0-0.0","pilot_wm_v1","666def2522abf8b4a768b3cb","2","null","null","true","","false","","","","","[989]","./assets/img/space/animals/cat.jpg","[""ArrowRight""]","practice block","space","0","{""ArrowUp,ArrowLeft"":3,""ArrowUp,ArrowRight"":36,""ArrowDown,ArrowLeft"":15,""ArrowDown,ArrowRight"":23}","true","ArrowUp,ArrowRight","","","","","","","","","","",""
"html-keyboard-response","118","720712","0.0-3.0-15.0-12.0-1.0","pilot_wm_v1","666def2522abf8b4a768b3cb","2","null","null","true","","","","","","","null","<div style=""font-size:60px;"">+</div>","null","fixation","","","","","","","","","","","","","","","",""
"revaluation","119","721387","0.0-3.0-15.0-12.0-0.1","pilot_wm_v1","666def2522abf8b4a768b3cb","2","null","null","true","","false","","","","","[674.1000000238419]","./assets/img/space/animals/rabbit.jpg","[""ArrowRight""]","practice block","space","0","{""ArrowUp,ArrowLeft"":3,""ArrowUp,ArrowRight"":36,""ArrowDown,ArrowLeft"":15,""ArrowDown,ArrowRight"":23}","true","ArrowDown,ArrowRight","","","","","","","","","","",""
"html-keyboard-response","120","721889","0.0-3.0-15.0-12.0-1.1","pilot_wm_v1","666def2522abf8b4a768b3cb","2","null","null","true","","","","","","","null","<div style=""font-size:60px;"">+</div>","null","fixation","","","","","","","","","","","","","","","",""
"learning-instructions","121","728737","0.0-3.0-16.0-0.0","pilot_wm_v1","666def2522abf8b4a768b3cb","2","null","null","true","","","","","","","2256.2999999523163","<p> Before you start, we're going to ask you a few questions about how the game works. </p>","","instructions","","","","","","","","","","","","","","","",""
"comp-q","122","739730","0.0-3.0-17.0-0.0-0.0","pilot_wm_v1","666def2522abf8b4a768b3cb","2","null","null","true","","","","","","","5400","<p> <b> True or False? </b> </p>
            <p> There can be 50 pieces of treasure in a given animal's chest. </p>","0","comp_question","","","","false","","","","","","","","","","","",""
"comp-q","123","747234","0.0-3.0-17.0-0.0-1.0","pilot_wm_v1","666def2522abf8b4a768b3cb","2","null","null","true","","","","","","","964","<p> <b>Incorrect.</b> The amount of treasure in each chest can range from 0 to 40 pieces. </p>","0","comp_answer","","","","","","","","","","","","","","","",""
"comp-q","124","753776","0.0-3.0-17.0-0.1-0.1","pilot_wm_v1","666def2522abf8b4a768b3cb","2","null","null","true","","","","","","","981.1999999880791","<p> <b> True or False? </b> </p>
            <p> There can be 50 pieces of treasure in a given animal's chest. </p>","1","comp_question","","","","true","","","","","","","","","","","",""
"comp-q","125","762247","0.0-3.0-17.0-0.1-1.1","pilot_wm_v1","666def2522abf8b4a768b3cb","2","null","null","true","","","","","","","1788.0999999642372","<p> <b> That's right! </b> The amount of treasure in each chest can range from 0 to 40 pieces. </p>","0","comp_answer","","","","","","","","","","","","","","","",""
"comp-q","126","770151","0.0-3.0-17.0-0.2-0.2","pilot_wm_v1","666def2522abf8b4a768b3cb","2","null","null","true","","","","","","","771.2000000476837","<p> <b> True or False? </b> </p><p> In this game, all animals have the same amount of treasure in their left and right chests. </p>","1","comp_question","","","","true","","","","","","","","","","","",""
"comp-q","127","777770","0.0-3.0-17.0-0.2-1.2","pilot_wm_v1","666def2522abf8b4a768b3cb","2","null","null","true","","","","","","","2382.399999976158","<p> <b> That's right! </b> Animals have different amounts of treasure in their treasure chests. </p>","0","comp_answer","","","","","","","","","","","","","","","",""
"comp-q","128","785831","0.0-3.0-17.0-0.3-0.3","pilot_wm_v1","666def2522abf8b4a768b3cb","2","null","null","true","","","","","","","2205","<p> <b> True or False? </b> </p><p> The same animal will always be there if you go up in the same place. </p>","0","comp_question","","","","true","","","","","","","","","","","",""
"comp-q","129","793456","0.0-3.0-17.0-0.3-1.3","pilot_wm_v1","666def2522abf8b4a768b3cb","2","null","null","true","","","","","","","1169.8999999761581","<p> <b> That's right! </b> One animal lives in the upper part and one lives in the lower part of every place. </p>","0","comp_answer","","","","","","","","","","","","","","","",""
"comp-q","130","799744","0.0-3.0-17.0-0.4-0.4","pilot_wm_v1","666def2522abf8b4a768b3cb","2","null","null","true","","","","","","","753.3999999761581","<p> <b> True or False? </b> </p><p> If you see a different picture, it means you are in a new place. </p>","1","comp_question","","","","true","","","","","","","","","","","",""
"comp-q","131","812421","0.0-3.0-17.0-0.4-1.4","pilot_wm_v1","666def2522abf8b4a768b3cb","2","null","null","true","","","","","","","1435.199999988079","<p> <b> That's right! </b> Lots of different images may show the same place. For example,  you may see three different images that all remind you that you are in outer space. </p>","0","comp_answer","","","","","","","","","","","","","","","",""
"learning-instructions","132","823740","0.0-3.0-18.0-0.0","pilot_wm_v1","666def2522abf8b4a768b3cb","2","null","null","true","","","","","","","1448.1000000238419","<p> Good job. Remember to do your best because the amount of treasure you earn will be converted into bonus money. </p>
            <p> It’s time to start the real game! </p>","","instructions","","","","","","","","","","","","","","","",""
"learning-instructions","133","828545","0.0-4.0-0.0-0.0","pilot_wm_v1","666def2522abf8b4a768b3cb","2","null","null","true","","","","","","","2032.5999999642372","<p> This time you are searching for treasure in the <b>canyon</b>.</p>","","instructions","","","","","","","","","","","","","","","",""
"learning-instructions","134","847770","0.0-4.0-0.0-0.1","pilot_wm_v1","666def2522abf8b4a768b3cb","2","null","null","true","","","","","","","1886.5","<p><b>New</b> animals with <b>new</b> treasure chests live here. You need to explore to discover where the animal with the best treasure chest is.</p>
                    <p> Like before, once you figure out which animal has the chest with the most treasure, you should try to get to that animal and select that chest! </p>","","instructions","","","","","","","","","","","","","","","",""
"learning-instructions","135","863555","0.0-4.0-1.0-0.0","pilot_wm_v1","666def2522abf8b4a768b3cb","2","null","null","true","","","","","","","1051","<p> Remember, when you see a picture of the place, use the up and down keys to <b>find an animal</b>.</p>
            <p> When you encounter an animal, you should use the left and right keys to <b>select a treasure chest</b>.</p>
            <p> Don't forget to look out for the robber! </p>","","instructions","","","","","","","","","","","","","","","",""
"revaluation","136","869561","0.0-4.0-2.0-0.0","pilot_wm_v1","666def2522abf8b4a768b3cb","2","null","null","true","","false","","","","","[617.1999999880791,660.3000000119209]","./assets/img/canyon/memory/8.jpg","[""ArrowUp"",""ArrowRight""]","value training","canyon","10","{""ArrowUp,ArrowLeft"":23,""ArrowUp,ArrowRight"":10,""ArrowDown,ArrowLeft"":8,""ArrowDown,ArrowRight"":30}","false","ArrowUp,ArrowRight","false","","","","","","","0","revaluation","1",""
"html-keyboard-response","137","870065","0.0-4.0-2.0-1.0","pilot_wm_v1","666def2522abf8b4a768b3cb","2","null","null","true","","","","","","","null","<div style=""font-size:60px;"">+</div>","null","fixation","","","","","","","","","","","","","1","","",""
"revaluation","138","876069","0.0-4.0-2.0-0.1","pilot_wm_v1","666def2522abf8b4a768b3cb","2","null","null","true","","false","","","","","[561.8000000119209,632.9000000357628]","./assets/img/canyon/memory/19.jpg","[""ArrowUp"",""ArrowLeft""]","value training","canyon","23","{""ArrowUp,ArrowLeft"":23,""ArrowUp,ArrowRight"":10,""ArrowDown,ArrowLeft"":8,""ArrowDown,ArrowRight"":30}","false","ArrowUp,ArrowLeft","false","","","","","","","2","revaluation","1",""
"html-keyboard-response","139","876571","0.0-4.0-2.0-1.1","pilot_wm_v1","666def2522abf8b4a768b3cb","2","null","null","true","","","","","","","null","<div style=""font-size:60px;"">+</div>","null","fixation","","","","","","","","","","","","","3","","",""
"revaluation","140","882576","0.0-4.0-2.0-0.2","pilot_wm_v1","666def2522abf8b4a768b3cb","2","null","null","true","","false","","","","","[770.4000000357628,598.5999999642372]","./assets/img/canyon/memory/31.jpg","[""ArrowDown"",""ArrowRight""]","value training","canyon","30","{""ArrowUp,ArrowLeft"":23,""ArrowUp,ArrowRight"":10,""ArrowDown,ArrowLeft"":8,""ArrowDown,ArrowRight"":30}","true","ArrowDown,ArrowRight","false","","","","","","","4","revaluation","1",""
"html-keyboard-response","141","883077","0.0-4.0-2.0-1.2","pilot_wm_v1","666def2522abf8b4a768b3cb","2","null","null","true","","","","","","","null","<div style=""font-size:60px;"">+</div>","null","fixation","","","","","","","","","","","","","5","","",""
"revaluation","142","887080","0.0-4.0-2.0-0.3","pilot_wm_v1","666def2522abf8b4a768b3cb","2","null","null","true","","false","","","","","[666.3999999761581]","./assets/img/canyon/catch/4.jpg","[""ArrowDown""]","value training","canyon","-10","{""ArrowUp,ArrowLeft"":23,""ArrowUp,ArrowRight"":10,""ArrowDown,ArrowLeft"":8,""ArrowDown,ArrowRight"":30}","false","ArrowDown","true","","","","","","","6","revaluation","1",""
"html-keyboard-response","143","887582","0.0-4.0-2.0-1.3","pilot_wm_v1","666def2522abf8b4a768b3cb","2","null","null","true","","","","","","","null","<div style=""font-size:60px;"">+</div>","null","fixation","","","","","","","","","","","","","7","","",""
"revaluation","144","893587","0.0-4.0-2.0-0.4","pilot_wm_v1","666def2522abf8b4a768b3cb","2","null","null","true","","false","","","","","[762.7000000476837,379.5999999642372]","./assets/img/canyon/memory/26.jpg","[""ArrowDown"",""ArrowLeft""]","value training","canyon","8","{""ArrowUp,ArrowLeft"":23,""ArrowUp,ArrowRight"":10,""ArrowDown,ArrowLeft"":8,""ArrowDown,ArrowRight"":30}","false","ArrowDown,ArrowLeft","false","","","","","","","8","revaluation","1",""
"html-keyboard-response","145","894088","0.0-4.0-2.0-1.4","pilot_wm_v1","666def2522abf8b4a768b3cb","2","null","null","true","","","","","","","null","<div style=""font-size:60px;"">+</div>","null","fixation","","","","","","","","","","","","","9","","",""
"revaluation","146","900093","0.0-4.0-2.0-0.5","pilot_wm_v1","666def2522abf8b4a768b3cb","2","null","null","true","","false","","","","","[891.1999999880791,373.80000001192093]","./assets/img/canyon/memory/26.jpg","[""ArrowUp"",""ArrowLeft""]","value training","canyon","23","{""ArrowUp,ArrowLeft"":23,""ArrowUp,ArrowRight"":10,""ArrowDown,ArrowLeft"":8,""ArrowDown,ArrowRight"":30}","false","ArrowUp,ArrowLeft","false","","","","","","","10","revaluation","1",""
"html-keyboard-response","147","900594","0.0-4.0-2.0-1.5","pilot_wm_v1","666def2522abf8b4a768b3cb","2","null","null","true","","","","","","","null","<div style=""font-size:60px;"">+</div>","null","fixation","","","","","","","","","","","","","11","","",""
"revaluation","148","904598","0.0-4.0-2.0-0.6","pilot_wm_v1","666def2522abf8b4a768b3cb","2","null","null","true","","false","","","","","[690.5]","./assets/img/canyon/catch/0.jpg","[""spaceBar""]","value training","canyon","0","{""ArrowUp,ArrowLeft"":23,""ArrowUp,ArrowRight"":10,""ArrowDown,ArrowLeft"":8,""ArrowDown,ArrowRight"":30}","true","spaceBar","true","","","","","","","12","revaluation","1",""
"html-keyboard-response","149","905100","0.0-4.0-2.0-1.6","pilot_wm_v1","666def2522abf8b4a768b3cb","2","null","null","true","","","","","","","null","<div style=""font-size:60px;"">+</div>","null","fixation","","","","","","","","","","","","","13","","",""
"revaluation","150","911105","0.0-4.0-2.0-0.7","pilot_wm_v1","666def2522abf8b4a768b3cb","2","null","null","true","","false","","","","","[624.2000000476837,490.39999997615814]","./assets/img/canyon/memory/8.jpg","[""ArrowDown"",""ArrowRight""]","value training","canyon","30","{""ArrowUp,ArrowLeft"":23,""ArrowUp,ArrowRight"":10,""ArrowDown,ArrowLeft"":8,""ArrowDown,ArrowRight"":30}","true","ArrowDown,ArrowRight","false","","","","","","","14","revaluation","1",""
"html-keyboard-response","151","911606","0.0-4.0-2.0-1.7","pilot_wm_v1","666def2522abf8b4a768b3cb","2","null","null","true","","","","","","","null","<div style=""font-size:60px;"">+</div>","null","fixation","","","","","","","","","","","","","15","","",""
"revaluation","152","917611","0.0-4.0-2.0-0.8","pilot_wm_v1","666def2522abf8b4a768b3cb","2","null","null","true","","false","","","","","[668,569.2000000476837]","./assets/img/canyon/memory/27.jpg","[""ArrowDown"",""ArrowRight""]","value training","canyon","30","{""ArrowUp,ArrowLeft"":23,""ArrowUp,ArrowRight"":10,""ArrowDown,ArrowLeft"":8,""ArrowDown,ArrowRight"":30}","true","ArrowDown,ArrowRight","false","","","","","","","16","revaluation","1",""
"html-keyboard-response","153","918113","0.0-4.0-2.0-1.8","pilot_wm_v1","666def2522abf8b4a768b3cb","2","null","null","true","","","","","","","null","<div style=""font-size:60px;"">+</div>","null","fixation","","","","","","","","","","","","","17","","",""
"revaluation","154","924118","0.0-4.0-2.0-0.9","pilot_wm_v1","666def2522abf8b4a768b3cb","2","null","null","true","","false","","","","","[1215.2999999523163,579.8999999761581]","./assets/img/canyon/memory/19.jpg","[""ArrowDown"",""ArrowRight""]","value training","canyon","30","{""ArrowUp,ArrowLeft"":23,""ArrowUp,ArrowRight"":10,""ArrowDown,ArrowLeft"":8,""ArrowDown,ArrowRight"":30}","true","ArrowDown,ArrowRight","false","","","","","","","18","revaluation","1",""
"html-keyboard-response","155","924619","0.0-4.0-2.0-1.9","pilot_wm_v1","666def2522abf8b4a768b3cb","2","null","null","true","","","","","","","null","<div style=""font-size:60px;"">+</div>","null","fixation","","","","","","","","","","","","","19","","",""
"revaluation","156","930624","0.0-4.0-2.0-0.10","pilot_wm_v1","666def2522abf8b4a768b3cb","2","null","null","true","","false","","","","","[1011.7000000476837,500.89999997615814]","./assets/img/canyon/memory/27.jpg","[""ArrowDown"",""ArrowRight""]","value training","canyon","30","{""ArrowUp,ArrowLeft"":23,""ArrowUp,ArrowRight"":10,""ArrowDown,ArrowLeft"":8,""ArrowDown,ArrowRight"":30}","true","ArrowDown,ArrowRight","false","","","","","","","20","revaluation","1",""
"html-keyboard-response","157","931125","0.0-4.0-2.0-1.10","pilot_wm_v1","666def2522abf8b4a768b3cb","2","null","null","true","","","","","","","null","<div style=""font-size:60px;"">+</div>","null","fixation","","","","","","","","","","","","","21","","",""
"revaluation","158","937129","0.0-4.0-2.0-0.11","pilot_wm_v1","666def2522abf8b4a768b3cb","2","null","null","true","","false","","","","","[1086.699999988079,349.39999997615814]","./assets/img/canyon/memory/1.jpg","[""ArrowDown"",""ArrowRight""]","value training","canyon","30","{""ArrowUp,ArrowLeft"":23,""ArrowUp,ArrowRight"":10,""ArrowDown,ArrowLeft"":8,""ArrowDown,ArrowRight"":30}","true","ArrowDown,ArrowRight","false","","","","","","","22","revaluation","1",""
"html-keyboard-response","159","937631","0.0-4.0-2.0-1.11","pilot_wm_v1","666def2522abf8b4a768b3cb","2","null","null","true","","","","","","","null","<div style=""font-size:60px;"">+</div>","null","fixation","","","","","","","","","","","","","23","","",""
"revaluation","160","943635","0.0-4.0-2.0-0.12","pilot_wm_v1","666def2522abf8b4a768b3cb","2","null","null","true","","false","","","","","[1098.800000011921,529.3000000119209]","./assets/img/canyon/memory/2.jpg","[""ArrowDown"",""ArrowRight""]","value training","canyon","30","{""ArrowUp,ArrowLeft"":23,""ArrowUp,ArrowRight"":10,""ArrowDown,ArrowLeft"":8,""ArrowDown,ArrowRight"":30}","true","ArrowDown,ArrowRight","false","","","","","","","24","revaluation","1",""
"html-keyboard-response","161","944137","0.0-4.0-2.0-1.12","pilot_wm_v1","666def2522abf8b4a768b3cb","2","null","null","true","","","","","","","null","<div style=""font-size:60px;"">+</div>","null","fixation","","","","","","","","","","","","","25","","",""
"revaluation","162","950142","0.0-4.0-2.0-0.13","pilot_wm_v1","666def2522abf8b4a768b3cb","2","null","null","true","","false","","","","","[1071.9000000357628,601.6000000238419]","./assets/img/canyon/memory/31.jpg","[""ArrowDown"",""ArrowRight""]","value training","canyon","30","{""ArrowUp,ArrowLeft"":23,""ArrowUp,ArrowRight"":10,""ArrowDown,ArrowLeft"":8,""ArrowDown,ArrowRight"":30}","true","ArrowDown,ArrowRight","false","","","","","","","26","revaluation","1",""
"html-keyboard-response","163","950643","0.0-4.0-2.0-1.13","pilot_wm_v1","666def2522abf8b4a768b3cb","2","null","null","true","","","","","","","null","<div style=""font-size:60px;"">+</div>","null","fixation","","","","","","","","","","","","","27","","",""
"revaluation","164","956647","0.0-4.0-2.0-0.14","pilot_wm_v1","666def2522abf8b4a768b3cb","2","null","null","true","","false","","","","","[847.1999999880791,411.89999997615814]","./assets/img/canyon/memory/28.jpg","[""ArrowDown"",""ArrowRight""]","value training","canyon","30","{""ArrowUp,ArrowLeft"":23,""ArrowUp,ArrowRight"":10,""ArrowDown,ArrowLeft"":8,""ArrowDown,ArrowRight"":30}","true","ArrowDown,ArrowRight","false","","","","","","","28","revaluation","1",""
"html-keyboard-response","165","957149","0.0-4.0-2.0-1.14","pilot_wm_v1","666def2522abf8b4a768b3cb","2","null","null","true","","","","","","","null","<div style=""font-size:60px;"">+</div>","null","fixation","","","","","","","","","","","","","29","","",""
"revaluation","166","963154","0.0-4.0-2.0-0.15","pilot_wm_v1","666def2522abf8b4a768b3cb","2","null","null","true","","false","","","","","[1028,400.80000001192093]","./assets/img/canyon/memory/41.jpg","[""ArrowDown"",""ArrowRight""]","value training","canyon","30","{""ArrowUp,ArrowLeft"":23,""ArrowUp,ArrowRight"":10,""ArrowDown,ArrowLeft"":8,""ArrowDown,ArrowRight"":30}","true","ArrowDown,ArrowRight","false","","","","","","","30","revaluation","1",""
"html-keyboard-response","167","963656","0.0-4.0-2.0-1.15","pilot_wm_v1","666def2522abf8b4a768b3cb","2","null","null","true","","","","","","","null","<div style=""font-size:60px;"">+</div>","null","fixation","","","","","","","","","","","","","31","","",""
"revaluation","168","969661","0.0-4.0-2.0-0.16","pilot_wm_v1","666def2522abf8b4a768b3cb","2","null","null","true","","false","","","","","[1098.199999988079,402.19999998807907]","./assets/img/canyon/memory/15.jpg","[""ArrowDown"",""ArrowRight""]","value training","canyon","30","{""ArrowUp,ArrowLeft"":23,""ArrowUp,ArrowRight"":10,""ArrowDown,ArrowLeft"":8,""ArrowDown,ArrowRight"":30}","true","ArrowDown,ArrowRight","false","","","","","","","32","revaluation","1",""
"html-keyboard-response","169","970162","0.0-4.0-2.0-1.16","pilot_wm_v1","666def2522abf8b4a768b3cb","2","null","null","true","","","","","","","null","<div style=""font-size:60px;"">+</div>","null","fixation","","","","","","","","","","","","","33","","",""
"revaluation","170","976167","0.0-4.0-2.0-0.17","pilot_wm_v1","666def2522abf8b4a768b3cb","2","null","null","true","","false","","","","","[1057.5,548.6999999880791]","./assets/img/canyon/memory/5.jpg","[""ArrowDown"",""ArrowRight""]","value training","canyon","30","{""ArrowUp,ArrowLeft"":23,""ArrowUp,ArrowRight"":10,""ArrowDown,ArrowLeft"":8,""ArrowDown,ArrowRight"":30}","true","ArrowDown,ArrowRight","false","","","","","","","34","revaluation","1",""
"html-keyboard-response","171","976669","0.0-4.0-2.0-1.17","pilot_wm_v1","666def2522abf8b4a768b3cb","2","null","null","true","","","","","","","null","<div style=""font-size:60px;"">+</div>","null","fixation","","","","","","","","","","","","","35","","",""
"revaluation","172","982674","0.0-4.0-2.0-0.18","pilot_wm_v1","666def2522abf8b4a768b3cb","2","null","null","true","","false","","","","","[733.7999999523163,451.4000000357628]","./assets/img/canyon/memory/28.jpg","[""ArrowDown"",""ArrowRight""]","value training","canyon","30","{""ArrowUp,ArrowLeft"":23,""ArrowUp,ArrowRight"":10,""ArrowDown,ArrowLeft"":8,""ArrowDown,ArrowRight"":30}","true","ArrowDown,ArrowRight","false","","","","","","","36","revaluation","1",""
"html-keyboard-response","173","983175","0.0-4.0-2.0-1.18","pilot_wm_v1","666def2522abf8b4a768b3cb","2","null","null","true","","","","","","","null","<div style=""font-size:60px;"">+</div>","null","fixation","","","","","","","","","","","","","37","","",""
"revaluation","174","989180","0.0-4.0-2.0-0.19","pilot_wm_v1","666def2522abf8b4a768b3cb","2","null","null","true","","false","","","","","[855.5999999642372,385.10000002384186]","./assets/img/canyon/memory/30.jpg","[""ArrowDown"",""ArrowRight""]","value training","canyon","30","{""ArrowUp,ArrowLeft"":23,""ArrowUp,ArrowRight"":10,""ArrowDown,ArrowLeft"":8,""ArrowDown,ArrowRight"":30}","true","ArrowDown,ArrowRight","false","","","","","","","38","revaluation","1",""
"html-keyboard-response","175","989682","0.0-4.0-2.0-1.19","pilot_wm_v1","666def2522abf8b4a768b3cb","2","null","null","true","","","","","","","null","<div style=""font-size:60px;"">+</div>","null","fixation","","","","","","","","","","","","","39","","",""
"revaluation","176","995687","0.0-4.0-2.0-0.20","pilot_wm_v1","666def2522abf8b4a768b3cb","2","null","null","true","","false","","","","","[695.7999999523163,475.19999998807907]","./assets/img/canyon/memory/37.jpg","[""ArrowDown"",""ArrowRight""]","value training","canyon","30","{""ArrowUp,ArrowLeft"":23,""ArrowUp,ArrowRight"":10,""ArrowDown,ArrowLeft"":8,""ArrowDown,ArrowRight"":30}","true","ArrowDown,ArrowRight","false","","","","","","","40","revaluation","1",""
"html-keyboard-response","177","996189","0.0-4.0-2.0-1.20","pilot_wm_v1","666def2522abf8b4a768b3cb","2","null","null","true","","","","","","","null","<div style=""font-size:60px;"">+</div>","null","fixation","","","","","","","","","","","","","41","","",""
"revaluation","178","1002194","0.0-4.0-2.0-0.21","pilot_wm_v1","666def2522abf8b4a768b3cb","2","null","null","true","","false","","","","","[906.8000000119209,674.8000000119209]","./assets/img/canyon/memory/39.jpg","[""ArrowDown"",""ArrowRight""]","value training","canyon","30","{""ArrowUp,ArrowLeft"":23,""ArrowUp,ArrowRight"":10,""ArrowDown,ArrowLeft"":8,""ArrowDown,ArrowRight"":30}","true","ArrowDown,ArrowRight","false","","","","","","","42","revaluation","1",""
"html-keyboard-response","179","1002695","0.0-4.0-2.0-1.21","pilot_wm_v1","666def2522abf8b4a768b3cb","2","null","null","true","","","","","","","null","<div style=""font-size:60px;"">+</div>","null","fixation","","","","","","","","","","","","","43","","",""
"revaluation","180","1008701","0.0-4.0-2.0-0.22","pilot_wm_v1","666def2522abf8b4a768b3cb","2","null","null","true","","false","","","","","[847.1999999880791,605.6999999880791]","./assets/img/canyon/memory/15.jpg","[""ArrowDown"",""ArrowRight""]","value training","canyon","30","{""ArrowUp,ArrowLeft"":23,""ArrowUp,ArrowRight"":10,""ArrowDown,ArrowLeft"":8,""ArrowDown,ArrowRight"":30}","true","ArrowDown,ArrowRight","false","","","","","","","44","revaluation","1",""
"html-keyboard-response","181","1009202","0.0-4.0-2.0-1.22","pilot_wm_v1","666def2522abf8b4a768b3cb","2","null","null","true","","","","","","","null","<div style=""font-size:60px;"">+</div>","null","fixation","","","","","","","","","","","","","45","","",""
"revaluation","182","1013207","0.0-4.0-2.0-0.23","pilot_wm_v1","666def2522abf8b4a768b3cb","2","null","null","true","","false","","","","","[736.6999999880791]","./assets/img/canyon/catch/3.jpg","[""spaceBar""]","value training","canyon","0","{""ArrowUp,ArrowLeft"":23,""ArrowUp,ArrowRight"":10,""ArrowDown,ArrowLeft"":8,""ArrowDown,ArrowRight"":30}","true","spaceBar","true","","","","","","","46","revaluation","1",""
"html-keyboard-response","183","1013709","0.0-4.0-2.0-1.23","pilot_wm_v1","666def2522abf8b4a768b3cb","2","null","null","true","","","","","","","null","<div style=""font-size:60px;"">+</div>","null","fixation","","","","","","","","","","","","","47","","",""
"revaluation","184","1019713","0.0-4.0-2.0-0.24","pilot_wm_v1","666def2522abf8b4a768b3cb","2","null","null","true","","false","","","","","[953.3000000119209,480.5]","./assets/img/canyon/memory/17.jpg","[""ArrowDown"",""ArrowRight""]","value training","canyon","30","{""ArrowUp,ArrowLeft"":23,""ArrowUp,ArrowRight"":10,""ArrowDown,ArrowLeft"":8,""ArrowDown,ArrowRight"":30}","true","ArrowDown,ArrowRight","false","","","","","","","48","revaluation","1",""
"html-keyboard-response","185","1020214","0.0-4.0-2.0-1.24","pilot_wm_v1","666def2522abf8b4a768b3cb","2","null","null","true","","","","","","","null","<div style=""font-size:60px;"">+</div>","null","fixation","","","","","","","","","","","","","49","","",""
"revaluation","186","1026226","0.0-4.0-2.0-0.25","pilot_wm_v1","666def2522abf8b4a768b3cb","2","null","null","true","","false","","","","","[1116,464.60000002384186]","./assets/img/canyon/memory/30.jpg","[""ArrowDown"",""ArrowRight""]","value training","canyon","30","{""ArrowUp,ArrowLeft"":23,""ArrowUp,ArrowRight"":10,""ArrowDown,ArrowLeft"":8,""ArrowDown,ArrowRight"":30}","true","ArrowDown,ArrowRight","false","","","","","","","50","revaluation","1",""
"html-keyboard-response","187","1026729","0.0-4.0-2.0-1.25","pilot_wm_v1","666def2522abf8b4a768b3cb","2","null","null","true","","","","","","","null","<div style=""font-size:60px;"">+</div>","null","fixation","","","","","","","","","","","","","51","","",""
"revaluation","188","1032734","0.0-4.0-2.0-0.26","pilot_wm_v1","666def2522abf8b4a768b3cb","2","null","null","true","","false","","","","","[863,733.3999999761581]","./assets/img/canyon/memory/7.jpg","[""ArrowDown"",""ArrowRight""]","value training","canyon","30","{""ArrowUp,ArrowLeft"":23,""ArrowUp,ArrowRight"":10,""ArrowDown,ArrowLeft"":8,""ArrowDown,ArrowRight"":30}","true","ArrowDown,ArrowRight","false","","","","","","","52","revaluation","1",""
"html-keyboard-response","189","1033235","0.0-4.0-2.0-1.26","pilot_wm_v1","666def2522abf8b4a768b3cb","2","null","null","true","","","","","","","null","<div style=""font-size:60px;"">+</div>","null","fixation","","","","","","","","","","","","","53","","",""
"revaluation","190","1039239","0.0-4.0-2.0-0.27","pilot_wm_v1","666def2522abf8b4a768b3cb","2","null","null","true","","false","","","","","[719.3000000119209,383.60000002384186]","./assets/img/canyon/memory/0.jpg","[""ArrowDown"",""ArrowRight""]","value training","canyon","30","{""ArrowUp,ArrowLeft"":23,""ArrowUp,ArrowRight"":10,""ArrowDown,ArrowLeft"":8,""ArrowDown,ArrowRight"":30}","true","ArrowDown,ArrowRight","false","","","","","","","54","revaluation","1",""
"html-keyboard-response","191","1039741","0.0-4.0-2.0-1.27","pilot_wm_v1","666def2522abf8b4a768b3cb","2","null","null","true","","","","","","","null","<div style=""font-size:60px;"">+</div>","null","fixation","","","","","","","","","","","","","55","","",""
"revaluation","192","1045745","0.0-4.0-2.0-0.28","pilot_wm_v1","666def2522abf8b4a768b3cb","2","null","null","true","","false","","","","","[811.6999999880791,373]","./assets/img/canyon/memory/9.jpg","[""ArrowDown"",""ArrowRight""]","value training","canyon","30","{""ArrowUp,ArrowLeft"":23,""ArrowUp,ArrowRight"":10,""ArrowDown,ArrowLeft"":8,""ArrowDown,ArrowRight"":30}","true","ArrowDown,ArrowRight","false","","","","","","","56","revaluation","1",""
"html-keyboard-response","193","1046247","0.0-4.0-2.0-1.28","pilot_wm_v1","666def2522abf8b4a768b3cb","2","null","null","true","","","","","","","null","<div style=""font-size:60px;"">+</div>","null","fixation","","","","","","","","","","","","","57","","",""
"revaluation","194","1052253","0.0-4.0-2.0-0.29","pilot_wm_v1","666def2522abf8b4a768b3cb","2","null","null","true","","false","","","","","[819.8999999761581,380.60000002384186]","./assets/img/canyon/memory/3.jpg","[""ArrowDown"",""ArrowRight""]","value training","canyon","30","{""ArrowUp,ArrowLeft"":23,""ArrowUp,ArrowRight"":10,""ArrowDown,ArrowLeft"":8,""ArrowDown,ArrowRight"":30}","true","ArrowDown,ArrowRight","false","","","","","","","58","revaluation","1",""
"html-keyboard-response","195","1052757","0.0-4.0-2.0-1.29","pilot_wm_v1","666def2522abf8b4a768b3cb","2","null","null","true","","","","","","","null","<div style=""font-size:60px;"">+</div>","null","fixation","","","","","","","","","","","","","59","","",""
"revaluation","196","1058762","0.0-4.0-2.0-0.30","pilot_wm_v1","666def2522abf8b4a768b3cb","2","null","null","true","","false","","","","","[1106.7999999523163,408.60000002384186]","./assets/img/canyon/memory/39.jpg","[""ArrowDown"",""ArrowRight""]","value training","canyon","30","{""ArrowUp,ArrowLeft"":23,""ArrowUp,ArrowRight"":10,""ArrowDown,ArrowLeft"":8,""ArrowDown,ArrowRight"":30}","true","ArrowDown,ArrowRight","false","","","","","","","60","revaluation","1",""
"html-keyboard-response","197","1059264","0.0-4.0-2.0-1.30","pilot_wm_v1","666def2522abf8b4a768b3cb","2","null","null","true","","","","","","","null","<div style=""font-size:60px;"">+</div>","null","fixation","","","","","","","","","","","","","61","","",""
"revaluation","198","1065270","0.0-4.0-2.0-0.31","pilot_wm_v1","666def2522abf8b4a768b3cb","2","null","null","true","","false","","","","","[1041,442.7000000476837]","./assets/img/canyon/memory/1.jpg","[""ArrowDown"",""ArrowRight""]","value training","canyon","30","{""ArrowUp,ArrowLeft"":23,""ArrowUp,ArrowRight"":10,""ArrowDown,ArrowLeft"":8,""ArrowDown,ArrowRight"":30}","true","ArrowDown,ArrowRight","false","","","","","","","62","revaluation","1",""
"html-keyboard-response","199","1065772","0.0-4.0-2.0-1.31","pilot_wm_v1","666def2522abf8b4a768b3cb","2","null","null","true","","","","","","","null","<div style=""font-size:60px;"">+</div>","null","fixation","","","","","","","","","","","","","63","","",""
"revaluation","200","1069776","0.0-4.0-2.0-0.32","pilot_wm_v1","666def2522abf8b4a768b3cb","2","null","null","true","","false","","","","","[709.5999999642372]","./assets/img/canyon/catch/5.jpg","[""spaceBar""]","value training","canyon","0","{""ArrowUp,ArrowLeft"":23,""ArrowUp,ArrowRight"":10,""ArrowDown,ArrowLeft"":8,""ArrowDown,ArrowRight"":30}","true","spaceBar","true","","","","","","","64","revaluation","1",""
"html-keyboard-response","201","1070278","0.0-4.0-2.0-1.32","pilot_wm_v1","666def2522abf8b4a768b3cb","2","null","null","true","","","","","","","null","<div style=""font-size:60px;"">+</div>","null","fixation","","","","","","","","","","","","","65","","",""
"revaluation","202","1076284","0.0-4.0-2.0-0.33","pilot_wm_v1","666def2522abf8b4a768b3cb","2","null","null","true","","false","","","","","[846.3999999761581,467.10000002384186]","./assets/img/canyon/memory/37.jpg","[""ArrowDown"",""ArrowRight""]","value training","canyon","30","{""ArrowUp,ArrowLeft"":23,""ArrowUp,ArrowRight"":10,""ArrowDown,ArrowLeft"":8,""ArrowDown,ArrowRight"":30}","true","ArrowDown,ArrowRight","false","","","","","","","66","revaluation","1",""
"html-keyboard-response","203","1076784","0.0-4.0-2.0-1.33","pilot_wm_v1","666def2522abf8b4a768b3cb","2","null","null","true","","","","","","","null","<div style=""font-size:60px;"">+</div>","null","fixation","","","","","","","","","","","","","67","","",""
"revaluation","204","1082787","0.0-4.0-2.0-0.34","pilot_wm_v1","666def2522abf8b4a768b3cb","2","null","null","true","","false","","","","","[1432.199999988079,734.3000000119209]","./assets/img/canyon/memory/41.jpg","[""ArrowDown"",""ArrowRight""]","value training","canyon","30","{""ArrowUp,ArrowLeft"":23,""ArrowUp,ArrowRight"":10,""ArrowDown,ArrowLeft"":8,""ArrowDown,ArrowRight"":30}","true","ArrowDown,ArrowRight","false","","","","","","","68","revaluation","1",""
"html-keyboard-response","205","1083289","0.0-4.0-2.0-1.34","pilot_wm_v1","666def2522abf8b4a768b3cb","2","null","null","true","","","","","","","null","<div style=""font-size:60px;"">+</div>","null","fixation","","","","","","","","","","","","","69","","",""
"revaluation","206","1089293","0.0-4.0-2.0-0.35","pilot_wm_v1","666def2522abf8b4a768b3cb","2","null","null","true","","false","","","","","[1056.199999988079,484.2000000476837]","./assets/img/canyon/memory/5.jpg","[""ArrowDown"",""ArrowRight""]","value training","canyon","30","{""ArrowUp,ArrowLeft"":23,""ArrowUp,ArrowRight"":10,""ArrowDown,ArrowLeft"":8,""ArrowDown,ArrowRight"":30}","true","ArrowDown,ArrowRight","false","","","","","","","70","revaluation","1",""
"html-keyboard-response","207","1089794","0.0-4.0-2.0-1.35","pilot_wm_v1","666def2522abf8b4a768b3cb","2","null","null","true","","","","","","","null","<div style=""font-size:60px;"">+</div>","null","fixation","","","","","","","","","","","","","71","","",""
"revaluation","208","1095800","0.0-4.0-2.0-0.36","pilot_wm_v1","666def2522abf8b4a768b3cb","2","null","null","true","","false","","","","","[775.4000000357628,412.0999999642372]","./assets/img/canyon/memory/6.jpg","[""ArrowDown"",""ArrowRight""]","value training","canyon","30","{""ArrowUp,ArrowLeft"":23,""ArrowUp,ArrowRight"":10,""ArrowDown,ArrowLeft"":8,""ArrowDown,ArrowRight"":30}","true","ArrowDown,ArrowRight","false","","","","","","","72","revaluation","1",""
"html-keyboard-response","209","1096301","0.0-4.0-2.0-1.36","pilot_wm_v1","666def2522abf8b4a768b3cb","2","null","null","true","","","","","","","null","<div style=""font-size:60px;"">+</div>","null","fixation","","","","","","","","","","","","","73","","",""
"revaluation","210","1100306","0.0-4.0-2.0-0.37","pilot_wm_v1","666def2522abf8b4a768b3cb","2","null","null","true","","false","","","","","[674.6999999880791]","./assets/img/canyon/catch/6.jpg","[""spaceBar""]","value training","canyon","0","{""ArrowUp,ArrowLeft"":23,""ArrowUp,ArrowRight"":10,""ArrowDown,ArrowLeft"":8,""ArrowDown,ArrowRight"":30}","true","spaceBar","true","","","","","","","74","revaluation","1",""
"html-keyboard-response","211","1100807","0.0-4.0-2.0-1.37","pilot_wm_v1","666def2522abf8b4a768b3cb","2","null","null","true","","","","","","","null","<div style=""font-size:60px;"">+</div>","null","fixation","","","","","","","","","","","","","75","","",""
"revaluation","212","1106812","0.0-4.0-2.0-0.38","pilot_wm_v1","666def2522abf8b4a768b3cb","2","null","null","true","","false","","","","","[773.5999999642372,399.30000001192093]","./assets/img/canyon/memory/9.jpg","[""ArrowDown"",""ArrowRight""]","value training","canyon","30","{""ArrowUp,ArrowLeft"":23,""ArrowUp,ArrowRight"":10,""ArrowDown,ArrowLeft"":8,""ArrowDown,ArrowRight"":30}","true","ArrowDown,ArrowRight","false","","","","","","","76","revaluation","1",""
"html-keyboard-response","213","1107315","0.0-4.0-2.0-1.38","pilot_wm_v1","666def2522abf8b4a768b3cb","2","null","null","true","","","","","","","null","<div style=""font-size:60px;"">+</div>","null","fixation","","","","","","","","","","","","","77","","",""
"revaluation","214","1111319","0.0-4.0-2.0-0.39","pilot_wm_v1","666def2522abf8b4a768b3cb","2","null","null","true","","false","","","","","[783]","./assets/img/canyon/catch/7.jpg","[""spaceBar""]","value training","canyon","0","{""ArrowUp,ArrowLeft"":23,""ArrowUp,ArrowRight"":10,""ArrowDown,ArrowLeft"":8,""ArrowDown,ArrowRight"":30}","true","spaceBar","true","","","","","","","78","revaluation","1",""
"html-keyboard-response","215","1111821","0.0-4.0-2.0-1.39","pilot_wm_v1","666def2522abf8b4a768b3cb","2","null","null","true","","","","","","","null","<div style=""font-size:60px;"">+</div>","null","fixation","","","","","","","","","","","","","79","","",""
"revaluation","216","1117825","0.0-4.0-2.0-0.40","pilot_wm_v1","666def2522abf8b4a768b3cb","2","null","null","true","","false","","","","","[871.3000000119209,378.5999999642372]","./assets/img/canyon/memory/2.jpg","[""ArrowDown"",""ArrowRight""]","value training","canyon","30","{""ArrowUp,ArrowLeft"":23,""ArrowUp,ArrowRight"":10,""ArrowDown,ArrowLeft"":8,""ArrowDown,ArrowRight"":30}","true","ArrowDown,ArrowRight","false","","","","","","","80","revaluation","1",""
"html-keyboard-response","217","1118328","0.0-4.0-2.0-1.40","pilot_wm_v1","666def2522abf8b4a768b3cb","2","null","null","true","","","","","","","null","<div style=""font-size:60px;"">+</div>","null","fixation","","","","","","","","","","","","","81","","",""
"revaluation","218","1124332","0.0-4.0-2.0-0.41","pilot_wm_v1","666def2522abf8b4a768b3cb","2","null","null","true","","false","","","","","[906.8999999761581,360.10000002384186]","./assets/img/canyon/memory/7.jpg","[""ArrowDown"",""ArrowRight""]","value training","canyon","30","{""ArrowUp,ArrowLeft"":23,""ArrowUp,ArrowRight"":10,""ArrowDown,ArrowLeft"":8,""ArrowDown,ArrowRight"":30}","true","ArrowDown,ArrowRight","false","","","","","","","82","revaluation","1",""
"html-keyboard-response","219","1124833","0.0-4.0-2.0-1.41","pilot_wm_v1","666def2522abf8b4a768b3cb","2","null","null","true","","","","","","","null","<div style=""font-size:60px;"">+</div>","null","fixation","","","","","","","","","","","","","83","","",""
"revaluation","220","1130838","0.0-4.0-2.0-0.42","pilot_wm_v1","666def2522abf8b4a768b3cb","2","null","null","true","","false","","","","","[949.6999999880791,399.5999999642372]","./assets/img/canyon/memory/33.jpg","[""ArrowDown"",""ArrowRight""]","value training","canyon","30","{""ArrowUp,ArrowLeft"":23,""ArrowUp,ArrowRight"":10,""ArrowDown,ArrowLeft"":8,""ArrowDown,ArrowRight"":30}","true","ArrowDown,ArrowRight","false","","","","","","","84","revaluation","1",""
"html-keyboard-response","221","1131338","0.0-4.0-2.0-1.42","pilot_wm_v1","666def2522abf8b4a768b3cb","2","null","null","true","","","","","","","null","<div style=""font-size:60px;"">+</div>","null","fixation","","","","","","","","","","","","","85","","",""
"revaluation","222","1135341","0.0-4.0-2.0-0.43","pilot_wm_v1","666def2522abf8b4a768b3cb","2","null","null","true","","false","","","","","[714.6999999880791]","./assets/img/canyon/catch/1.jpg","[""spaceBar""]","value training","canyon","0","{""ArrowUp,ArrowLeft"":23,""ArrowUp,ArrowRight"":10,""ArrowDown,ArrowLeft"":8,""ArrowDown,ArrowRight"":30}","true","spaceBar","true","","","","","","","86","revaluation","1",""
"html-keyboard-response","223","1135843","0.0-4.0-2.0-1.43","pilot_wm_v1","666def2522abf8b4a768b3cb","2","null","null","true","","","","","","","null","<div style=""font-size:60px;"">+</div>","null","fixation","","","","","","","","","","","","","87","","",""
"revaluation","224","1141846","0.0-4.0-2.0-0.44","pilot_wm_v1","666def2522abf8b4a768b3cb","2","null","null","true","","false","","","","","[798.5,433]","./assets/img/canyon/memory/6.jpg","[""ArrowDown"",""ArrowRight""]","value training","canyon","30","{""ArrowUp,ArrowLeft"":23,""ArrowUp,ArrowRight"":10,""ArrowDown,ArrowLeft"":8,""ArrowDown,ArrowRight"":30}","true","ArrowDown,ArrowRight","false","","","","","","","88","revaluation","1",""
"html-keyboard-response","225","1142348","0.0-4.0-2.0-1.44","pilot_wm_v1","666def2522abf8b4a768b3cb","2","null","null","true","","","","","","","null","<div style=""font-size:60px;"">+</div>","null","fixation","","","","","","","","","","","","","89","","",""
"revaluation","226","1148353","0.0-4.0-2.0-0.45","pilot_wm_v1","666def2522abf8b4a768b3cb","2","null","null","true","","false","","","","","[989.1000000238419,411.89999997615814]","./assets/img/canyon/memory/17.jpg","[""ArrowDown"",""ArrowRight""]","value training","canyon","30","{""ArrowUp,ArrowLeft"":23,""ArrowUp,ArrowRight"":10,""ArrowDown,ArrowLeft"":8,""ArrowDown,ArrowRight"":30}","true","ArrowDown,ArrowRight","false","","","","","","","90","revaluation","1",""
"html-keyboard-response","227","1148854","0.0-4.0-2.0-1.45","pilot_wm_v1","666def2522abf8b4a768b3cb","2","null","null","true","","","","","","","null","<div style=""font-size:60px;"">+</div>","null","fixation","","","","","","","","","","","","","91","","",""
"revaluation","228","1154858","0.0-4.0-2.0-0.46","pilot_wm_v1","666def2522abf8b4a768b3cb","2","null","null","true","","false","","","","","[1026.800000011921,342.30000001192093]","./assets/img/canyon/memory/33.jpg","[""ArrowDown"",""ArrowRight""]","value training","canyon","30","{""ArrowUp,ArrowLeft"":23,""ArrowUp,ArrowRight"":10,""ArrowDown,ArrowLeft"":8,""ArrowDown,ArrowRight"":30}","true","ArrowDown,ArrowRight","false","","","","","","","92","revaluation","1",""
"html-keyboard-response","229","1155360","0.0-4.0-2.0-1.46","pilot_wm_v1","666def2522abf8b4a768b3cb","2","null","null","true","","","","","","","null","<div style=""font-size:60px;"">+</div>","null","fixation","","","","","","","","","","","","","93","","",""
"revaluation","230","1159364","0.0-4.0-2.0-0.47","pilot_wm_v1","666def2522abf8b4a768b3cb","2","null","null","true","","false","","","","","[1834.800000011921]","./assets/img/canyon/catch/2.jpg","[""spaceBar""]","value training","canyon","0","{""ArrowUp,ArrowLeft"":23,""ArrowUp,ArrowRight"":10,""ArrowDown,ArrowLeft"":8,""ArrowDown,ArrowRight"":30}","true","spaceBar","true","","","","","","","94","revaluation","1",""
"html-keyboard-response","231","1159865","0.0-4.0-2.0-1.47","pilot_wm_v1","666def2522abf8b4a768b3cb","2","null","null","true","","","","","","","null","<div style=""font-size:60px;"">+</div>","null","fixation","","","","","","","","","","","","","95","","",""
"revaluation","232","1165869","0.0-4.0-2.0-0.48","pilot_wm_v1","666def2522abf8b4a768b3cb","2","null","null","true","","false","","","","","[804.1000000238419,551]","./assets/img/canyon/memory/0.jpg","[""ArrowDown"",""ArrowRight""]","value training","canyon","30","{""ArrowUp,ArrowLeft"":23,""ArrowUp,ArrowRight"":10,""ArrowDown,ArrowLeft"":8,""ArrowDown,ArrowRight"":30}","true","ArrowDown,ArrowRight","false","","","","","","","96","revaluation","1",""
"html-keyboard-response","233","1166370","0.0-4.0-2.0-1.48","pilot_wm_v1","666def2522abf8b4a768b3cb","2","null","null","true","","","","","","","null","<div style=""font-size:60px;"">+</div>","null","fixation","","","","","","","","","","","","","97","","",""
"revaluation","234","1172375","0.0-4.0-2.0-0.49","pilot_wm_v1","666def2522abf8b4a768b3cb","2","null","null","true","","false","","","","","[1420.6000000238419,495.19999998807907]","./assets/img/canyon/memory/3.jpg","[""ArrowDown"",""ArrowRight""]","value training","canyon","30","{""ArrowUp,ArrowLeft"":23,""ArrowUp,ArrowRight"":10,""ArrowDown,ArrowLeft"":8,""ArrowDown,ArrowRight"":30}","true","ArrowDown,ArrowRight","false","","","","","","","98","revaluation","1",""
"html-keyboard-response","235","1172876","0.0-4.0-2.0-1.49","pilot_wm_v1","666def2522abf8b4a768b3cb","2","null","null","true","","","","","","","null","<div style=""font-size:60px;"">+</div>","null","fixation","","","","","","","","","","","","","99","","",""
"learning-instructions","236","1189704","0.0-4.0-3.0-0.0","pilot_wm_v1","666def2522abf8b4a768b3cb","2","null","null","true","","","","","","","3920.199999988079","<p> Now, you will travel with a friend who will choose whether you go up or down first. </p>
            <p> On these turns, you will just see the animal that they found. You will still get to choose which chest to search for treasure.</p>","","instructions","","","","","","","","","","","","","","","",""
"learning-instructions","237","1246683","0.0-4.0-3.0-0.1","pilot_wm_v1","666def2522abf8b4a768b3cb","2","null","null","true","","","","","","","45376.89999997616","<p> In this part, you will also hear beeps from your friend and see special treasure chests that need a password. </p>
            <p> Do your best to count the high beeps <b>and</b> choose between each animals' chests at the same time.</p>
            <img src='./assets/img/instructions/beep_chest.jpg' class='instructions-image'>","","instructions","","","","","","","","","","","","","","","",""
"revaluation","238","1250689","0.0-4.0-4.0-0.0","pilot_wm_v1","666def2522abf8b4a768b3cb","2","null","null","true","","false","","","","","[1175.5999999642372]","./assets/img/canyon/animals/giraffe.jpg","[""ArrowLeft""]","revaluation","canyon","27","{""ArrowUp,ArrowLeft"":27,""ArrowUp,ArrowRight"":15,""ArrowDown,ArrowLeft"":21,""ArrowDown,ArrowRight"":7}","true","ArrowUp,ArrowLeft","","1_4","","","","","","0","revaluation","1",""
"html-keyboard-response","239","1251193","0.0-4.0-4.0-1.0","pilot_wm_v1","666def2522abf8b4a768b3cb","2","null","null","true","","","","","","","null","<div style=""font-size:60px;"">+</div>","null","fixation","","","","","","","","","","","","","","","",""
"revaluation","240","1255197","0.0-4.0-4.0-0.1","pilot_wm_v1","666def2522abf8b4a768b3cb","2","null","null","true","","false","","","","","[725.3999999761581]","./assets/img/canyon/animals/giraffe.jpg","[""ArrowLeft""]","revaluation","canyon","27","{""ArrowUp,ArrowLeft"":27,""ArrowUp,ArrowRight"":15,""ArrowDown,ArrowLeft"":21,""ArrowDown,ArrowRight"":7}","true","ArrowUp,ArrowLeft","","7_4","","","","","","1","revaluation","1",""
"html-keyboard-response","241","1255699","0.0-4.0-4.0-1.1","pilot_wm_v1","666def2522abf8b4a768b3cb","2","null","null","true","","","","","","","null","<div style=""font-size:60px;"">+</div>","null","fixation","","","","","","","","","","","","","","","",""
"revaluation","242","1259704","0.0-4.0-4.0-0.2","pilot_wm_v1","666def2522abf8b4a768b3cb","2","null","null","true","","false","","","","","[808.9000000357628]","./assets/img/canyon/animals/lion.jpg","[""ArrowRight""]","revaluation","canyon","7","{""ArrowUp,ArrowLeft"":27,""ArrowUp,ArrowRight"":15,""ArrowDown,ArrowLeft"":21,""ArrowDown,ArrowRight"":7}","false","ArrowDown,ArrowRight","","15_0","","","","","","2","revaluation","1",""
"html-keyboard-response","243","1260205","0.0-4.0-4.0-1.2","pilot_wm_v1","666def2522abf8b4a768b3cb","2","null","null","true","","","","","","","null","<div style=""font-size:60px;"">+</div>","null","fixation","","","","","","","","","","","","","","","",""
"revaluation","244","1264210","0.0-4.0-4.0-0.3","pilot_wm_v1","666def2522abf8b4a768b3cb","2","null","null","true","","false","","","","","[1259.800000011921]","./assets/img/canyon/animals/lion.jpg","[""ArrowRight""]","revaluation","canyon","7","{""ArrowUp,ArrowLeft"":27,""ArrowUp,ArrowRight"":15,""ArrowDown,ArrowLeft"":21,""ArrowDown,ArrowRight"":7}","false","ArrowDown,ArrowRight","","10_3","","","","","","3","revaluation","1",""
"html-keyboard-response","245","1264711","0.0-4.0-4.0-1.3","pilot_wm_v1","666def2522abf8b4a768b3cb","2","null","null","true","","","","","","","null","<div style=""font-size:60px;"">+</div>","null","fixation","","","","","","","","","","","","","","","",""
"html-slider-response","246","1268543","0.0-4.0-4.0-2.3-0.3","pilot_wm_v1","666def2522abf8b4a768b3cb","2","null","null","true","","","","","","","3829","<div style=""width:500px;"">
        <p>What is the password?</p>
        <img src='./assets/img/instructions/beep_chest.jpg' class='instructions-image'>","11","beep chest","","","","true","","","","50","11","0","","","","","",""
"revaluation","247","1272546","0.0-4.0-4.0-0.4","pilot_wm_v1","666def2522abf8b4a768b3cb","2","null","null","true","","false","","","","","[1219.7999999523163]","./assets/img/canyon/animals/lion.jpg","[""ArrowRight""]","revaluation","canyon","7","{""ArrowUp,ArrowLeft"":27,""ArrowUp,ArrowRight"":15,""ArrowDown,ArrowLeft"":21,""ArrowDown,ArrowRight"":7}","false","ArrowDown,ArrowRight","","11_4","","","","","","4","revaluation","1",""
"html-keyboard-response","248","1273047","0.0-4.0-4.0-1.4","pilot_wm_v1","666def2522abf8b4a768b3cb","2","null","null","true","","","","","","","null","<div style=""font-size:60px;"">+</div>","null","fixation","","","","","","","","","","","","","","","",""
"revaluation","249","1277050","0.0-4.0-4.0-0.5","pilot_wm_v1","666def2522abf8b4a768b3cb","2","null","null","true","","false","","","","","[686.1999999880791]","./assets/img/canyon/animals/lion.jpg","[""ArrowLeft""]","revaluation","canyon","21","{""ArrowUp,ArrowLeft"":27,""ArrowUp,ArrowRight"":15,""ArrowDown,ArrowLeft"":21,""ArrowDown,ArrowRight"":7}","true","ArrowDown,ArrowLeft","","12_2","","","","","","5","revaluation","1",""
"html-keyboard-response","250","1277552","0.0-4.0-4.0-1.5","pilot_wm_v1","666def2522abf8b4a768b3cb","2","null","null","true","","","","","","","null","<div style=""font-size:60px;"">+</div>","null","fixation","","","","","","","","","","","","","","","",""
"revaluation","251","1281555","0.0-4.0-4.0-0.6","pilot_wm_v1","666def2522abf8b4a768b3cb","2","null","null","true","","false","","","","","[1333.9000000357628]","./assets/img/canyon/animals/giraffe.jpg","[""ArrowRight""]","revaluation","canyon","15","{""ArrowUp,ArrowLeft"":27,""ArrowUp,ArrowRight"":15,""ArrowDown,ArrowLeft"":21,""ArrowDown,ArrowRight"":7}","false","ArrowUp,ArrowRight","","8_2","","","","","","6","revaluation","1",""
"html-keyboard-response","252","1282056","0.0-4.0-4.0-1.6","pilot_wm_v1","666def2522abf8b4a768b3cb","2","null","null","true","","","","","","","null","<div style=""font-size:60px;"">+</div>","null","fixation","","","","","","","","","","","","","","","",""
"revaluation","253","1286060","0.0-4.0-4.0-0.7","pilot_wm_v1","666def2522abf8b4a768b3cb","2","null","null","true","","false","","","","","[933.8000000119209]","./assets/img/canyon/animals/lion.jpg","[""ArrowLeft""]","revaluation","canyon","21","{""ArrowUp,ArrowLeft"":27,""ArrowUp,ArrowRight"":15,""ArrowDown,ArrowLeft"":21,""ArrowDown,ArrowRight"":7}","true","ArrowDown,ArrowLeft","","13_2","","","","","","7","revaluation","1",""
"html-keyboard-response","254","1286561","0.0-4.0-4.0-1.7","pilot_wm_v1","666def2522abf8b4a768b3cb","2","null","null","true","","","","","","","null","<div style=""font-size:60px;"">+</div>","null","fixation","","","","","","","","","","","","","","","",""
"html-slider-response","255","1312243","0.0-4.0-4.0-2.7-0.7","pilot_wm_v1","666def2522abf8b4a768b3cb","2","null","null","true","","","","","","","25680","<div style=""width:500px;"">
        <p>What is the password?</p>
        <img src='./assets/img/instructions/beep_chest.jpg' class='instructions-image'>","12","beep chest","","","","false","","","","50","10","2","","","","","",""
"revaluation","256","1316246","0.0-4.0-4.0-0.8","pilot_wm_v1","666def2522abf8b4a768b3cb","2","null","null","true","","false","","","","","[1316.800000011921]","./assets/img/canyon/animals/giraffe.jpg","[""ArrowLeft""]","revaluation","canyon","27","{""ArrowUp,ArrowLeft"":27,""ArrowUp,ArrowRight"":15,""ArrowDown,ArrowLeft"":21,""ArrowDown,ArrowRight"":7}","true","ArrowUp,ArrowLeft","","4_0","","","","","","8","revaluation","1",""
"html-keyboard-response","257","1316747","0.0-4.0-4.0-1.8","pilot_wm_v1","666def2522abf8b4a768b3cb","2","null","null","true","","","","","","","null","<div style=""font-size:60px;"">+</div>","null","fixation","","","","","","","","","","","","","","","",""
"revaluation","258","1320751","0.0-4.0-4.0-0.9","pilot_wm_v1","666def2522abf8b4a768b3cb","2","null","null","true","","false","","","","","[975.3000000119209]","./assets/img/canyon/animals/giraffe.jpg","[""ArrowLeft""]","revaluation","canyon","27","{""ArrowUp,ArrowLeft"":27,""ArrowUp,ArrowRight"":15,""ArrowDown,ArrowLeft"":21,""ArrowDown,ArrowRight"":7}","true","ArrowUp,ArrowLeft","","5_4","","","","","","9","revaluation","1",""
"html-keyboard-response","259","1321253","0.0-4.0-4.0-1.9","pilot_wm_v1","666def2522abf8b4a768b3cb","2","null","null","true","","","","","","","null","<div style=""font-size:60px;"">+</div>","null","fixation","","","","","","","","","","","","","","","",""
"revaluation","260","1325256","0.0-4.0-4.0-0.10","pilot_wm_v1","666def2522abf8b4a768b3cb","2","null","null","true","","false","","","","","[858.1999999880791]","./assets/img/canyon/animals/lion.jpg","[""ArrowRight""]","revaluation","canyon","7","{""ArrowUp,ArrowLeft"":27,""ArrowUp,ArrowRight"":15,""ArrowDown,ArrowLeft"":21,""ArrowDown,ArrowRight"":7}","false","ArrowDown,ArrowRight","","17_1","","","","","","10","revaluation","1",""
"html-keyboard-response","261","1325759","0.0-4.0-4.0-1.10","pilot_wm_v1","666def2522abf8b4a768b3cb","2","null","null","true","","","","","","","null","<div style=""font-size:60px;"">+</div>","null","fixation","","","","","","","","","","","","","","","",""
"revaluation","262","1329762","0.0-4.0-4.0-0.11","pilot_wm_v1","666def2522abf8b4a768b3cb","2","null","null","true","","false","","","","","[487.69999998807907]","./assets/img/canyon/animals/lion.jpg","[""ArrowLeft""]","revaluation","canyon","21","{""ArrowUp,ArrowLeft"":27,""ArrowUp,ArrowRight"":15,""ArrowDown,ArrowLeft"":21,""ArrowDown,ArrowRight"":7}","true","ArrowDown,ArrowLeft","","16_0","","","","","","11","revaluation","1",""
"html-keyboard-response","263","1330264","0.0-4.0-4.0-1.11","pilot_wm_v1","666def2522abf8b4a768b3cb","2","null","null","true","","","","","","","null","<div style=""font-size:60px;"">+</div>","null","fixation","","","","","","","","","","","","","","","",""
"html-slider-response","264","1340311","0.0-4.0-4.0-2.11-0.11","pilot_wm_v1","666def2522abf8b4a768b3cb","2","null","null","true","","","","","","","10045","<div style=""width:500px;"">
        <p>What is the password?</p>
        <img src='./assets/img/instructions/beep_chest.jpg' class='instructions-image'>","5","beep chest","","","","true","","","","50","5","0","","","","","",""
"revaluation","265","1344320","0.0-4.0-4.0-0.12","pilot_wm_v1","666def2522abf8b4a768b3cb","2","null","null","true","","true","","","","","[]","./assets/img/canyon/animals/lion.jpg","[]","revaluation","canyon","-5","{""ArrowUp,ArrowLeft"":27,""ArrowUp,ArrowRight"":15,""ArrowDown,ArrowLeft"":21,""ArrowDown,ArrowRight"":7}","false","ArrowDown","","14_4","","","","","","12","revaluation","1",""
"html-keyboard-response","266","1344823","0.0-4.0-4.0-1.12","pilot_wm_v1","666def2522abf8b4a768b3cb","2","null","null","true","","","","","","","null","<div style=""font-size:60px;"">+</div>","null","fixation","","","","","","","","","","","","","","","",""
"revaluation","267","1348828","0.0-4.0-4.0-0.13","pilot_wm_v1","666def2522abf8b4a768b3cb","2","null","null","true","","false","","","","","[761.8999999761581]","./assets/img/canyon/animals/giraffe.jpg","[""ArrowLeft""]","revaluation","canyon","27","{""ArrowUp,ArrowLeft"":27,""ArrowUp,ArrowRight"":15,""ArrowDown,ArrowLeft"":21,""ArrowDown,ArrowRight"":7}","true","ArrowUp,ArrowLeft","","9_2","","","","","","13","revaluation","1",""
"html-keyboard-response","268","1349330","0.0-4.0-4.0-1.13","pilot_wm_v1","666def2522abf8b4a768b3cb","2","null","null","true","","","","","","","null","<div style=""font-size:60px;"">+</div>","null","fixation","","","","","","","","","","","","","","","",""
"revaluation","269","1353334","0.0-4.0-4.0-0.14","pilot_wm_v1","666def2522abf8b4a768b3cb","2","null","null","true","","false","","","","","[867.1999999880791]","./assets/img/canyon/animals/giraffe.jpg","[""ArrowLeft""]","revaluation","canyon","27","{""ArrowUp,ArrowLeft"":27,""ArrowUp,ArrowRight"":15,""ArrowDown,ArrowLeft"":21,""ArrowDown,ArrowRight"":7}","true","ArrowUp,ArrowLeft","","2_1","","","","","","14","revaluation","1",""
"html-keyboard-response","270","1353835","0.0-4.0-4.0-1.14","pilot_wm_v1","666def2522abf8b4a768b3cb","2","null","null","true","","","","","","","null","<div style=""font-size:60px;"">+</div>","null","fixation","","","","","","","","","","","","","","","",""
"revaluation","271","1357839","0.0-4.0-4.0-0.15","pilot_wm_v1","666def2522abf8b4a768b3cb","2","null","null","true","","false","","","","","[1367.4000000357628]","./assets/img/canyon/animals/lion.jpg","[""ArrowLeft""]","revaluation","canyon","21","{""ArrowUp,ArrowLeft"":27,""ArrowUp,ArrowRight"":15,""ArrowDown,ArrowLeft"":21,""ArrowDown,ArrowRight"":7}","true","ArrowDown,ArrowLeft","","18_0","","","","","","15","revaluation","1",""
"html-keyboard-response","272","1358341","0.0-4.0-4.0-1.15","pilot_wm_v1","666def2522abf8b4a768b3cb","2","null","null","true","","","","","","","null","<div style=""font-size:60px;"">+</div>","null","fixation","","","","","","","","","","","","","","","",""
"html-slider-response","273","1368083","0.0-4.0-4.0-2.15-0.15","pilot_wm_v1","666def2522abf8b4a768b3cb","2","null","null","true","","","","","","","9741","<div style=""width:500px;"">
        <p>What is the password?</p>
        <img src='./assets/img/instructions/beep_chest.jpg' class='instructions-image'>","6","beep chest","","","","false","","","","50","7","1","","","","","",""
