"trial_type","trial_index","time_elapsed","internal_node_id","task_version","subject_id","assigned_condition","age","gender","rest","success","timeout","failed_images","failed_audio","failed_video","browser_interaction","rt","stimulus","response","task_part","environment","score","rewardMap","correct","fullState","isCatch","audioStim","slider_start","answer","error","trial_num","condition","order","bonus"
"pavlovia","0","1316","0.0-0.0","pilot_wm_v1","null","5","null","null","false","","","","","","","","","","","","","","","","","","","","","","","",""
"preload","1","17818","0.0-1.0","pilot_wm_v1","null","5","null","null","false","true","false","[]","[]","[]","[{""event"":""fullscreenenter"",""trial"":2,""time"":25384}]","","","","","","","","","","","","","","","","","",""
"fullscreen","2","26339","0.0-2.0","pilot_wm_v1","null","5","null","null","false","true","","","","","","","","","","","","","","","","","","","","","","",""
"audio-button-response","3","30211","0.0-3.0-0.0-0.0","pilot_wm_v1","null","5","null","null","false","","","","","","","2709","./assets/audio/audiotest/turtle.mp3","2","audio_test","","","","","","","","","","","","","",""
"learning-instructions","4","39763","0.0-3.0-1.0-0.0","pilot_wm_v1","null","5","null","null","false","","","","","","","2560.800000011921","<p> Welcome! Please remember to stay in fullscreen mode and don't click away from the experiment. </p>","","instructions","","","","","","","","","","","","","",""
"learning-instructions","5","49371","0.0-3.0-1.0-0.1","pilot_wm_v1","null","5","null","null","false","","","","","","","1177.5999999940395","<p> Today you will be playing a game to earn treasure. </p>
            <p> At the end of the experiment, you will earn a bonus based on how much treasure you find. </p>
            <img src='./assets/img/instructions/treasure.jpg' class='instructions-image'>","","instructions","","","","","","","","","","","","","",""
"learning-instructions","6","68588","0.0-3.0-1.0-0.2","pilot_wm_v1","null","5","null","null","false","","","","","","","10946.199999988079","<p> Animals have hidden treasure in treasure chests. </p>
            <p> You need to first find an animal and then choose which of their treasure chests to search. </p>
            <img src='./assets/img/space/animals/cat.jpg' class='instructions-image'>","","instructions","","","","","","","","","","","","","",""
"learning-instructions","7","82870","0.0-3.0-1.0-0.3","pilot_wm_v1","null","5","null","null","false","","","","","","","1106.9000000059605","<p> In each round, you will search for treasure in a different place. In the real game, there will be two rounds. </p>
            <p> You will begin with a separate, practice round where you will search for treasure in outer space. </p>
            <img src='./assets/img/space/0.jpg' class='instructions-image'>","","instructions","","","","","","","","","","","","","",""
"learning-instructions","8","94997","0.0-3.0-1.0-0.4","pilot_wm_v1","null","5","null","null","false","","","","","","","693.6000000238419","<p> On every turn, you will see a picture of the place that you are in, but the specific image may be different each time. </p>
            <p> For example, both of these images mean you are in outer space. </p>
            <img src='./assets/img/instructions/outerspace.jpg' class='instructions-image'>","","instructions","","","","","","","","","","","","","",""
"learning-instructions","9","103363","0.0-3.0-1.0-0.5","pilot_wm_v1","null","5","null","null","false","","","","","","","519.5999999940395","<p> You need to decide which direction to travel in. </p>
            <p> You can choose between going <b>up or down</b> by using the arrow keys. </p>
            <img src='./assets/img/instructions/updown.jpg' class='instructions-image'>","","instructions","","","","","","","","","","","","","",""
"learning-instructions","10","119540","0.0-3.0-1.0-0.6","pilot_wm_v1","null","5","null","null","false","","","","","","","7346.5","<p> You will have <b>2 seconds</b> to make your choice. </p>
            <p> If you do not make a choice within 2 seconds, you will not find an animal or earn treasure. </p>
            <img src='./assets/img/instructions/2seconds.jpg' class='instructions-image'>","","instructions","","","","","","","","","","","","","",""
"learning-instructions","11","164753","0.0-3.0-1.0-0.7","pilot_wm_v1","null","5","null","null","false","","","","","","","38163.29999998212","<p> Let’s try practicing that now! </p>
            <p> When you see a picture of the place you are in, press the <b>up</b> key to travel up. </p>
            <img src='./assets/img/instructions/pressUp.jpg' class='instructions-image'>","","instructions","","","","","","","","","","","","","",""
"revaluation","12","168796","0.0-3.0-2.0-0.0","pilot_wm_v1","null","5","null","null","false","","false","","","","","[1241]","./assets/img/space/0.jpg","[""ArrowUp""]","first stage practice","space","0","null","null","ArrowUp","false","","","","","","","",""
"html-keyboard-response","13","169309","0.0-3.0-2.0-1.0","pilot_wm_v1","null","5","null","null","false","","","","","","","null","<div style=""font-size:60px;"">+</div>","null","fixation","","","","","","","","","","","","","",""
"revaluation","14","173334","0.0-3.0-2.0-0.1","pilot_wm_v1","null","5","null","null","false","","true","","","","","[]","./assets/img/space/1.jpg","[]","first stage practice","space","-5","null","null","","false","","","","","","","",""
"html-keyboard-response","15","173842","0.0-3.0-2.0-1.1","pilot_wm_v1","null","5","null","null","false","","","","","","","null","<div style=""font-size:60px;"">+</div>","null","fixation","","","","","","","","","","","","","",""
"revaluation","16","177862","0.0-3.0-2.0-0.2","pilot_wm_v1","null","5","null","null","false","","false","","","","","[477.69999998807907]","./assets/img/space/2.jpg","[""ArrowUp""]","first stage practice","space","0","null","null","ArrowUp","false","","","","","","","",""
"html-keyboard-response","17","178379","0.0-3.0-2.0-1.2","pilot_wm_v1","null","5","null","null","false","","","","","","","null","<div style=""font-size:60px;"">+</div>","null","fixation","","","","","","","","","","","","","",""
"learning-instructions","18","185572","0.0-3.0-3.0-0.0","pilot_wm_v1","null","5","null","null","false","","","","","","","1790.0999999940395","<p> Great job! Now try pressing the <b>down</b> key to travel down. </p>
            <img src='./assets/img/instructions/pressDown.jpg' class='instructions-image'>","","instructions","","","","","","","","","","","","","",""
"revaluation","19","189605","0.0-3.0-4.0-0.0","pilot_wm_v1","null","5","null","null","false","","false","","","","","[404.2999999821186]","./assets/img/space/3.jpg","[""ArrowDown""]","first stage practice","space","0","null","null","ArrowDown","false","","","","","","","",""
"html-keyboard-response","20","190120","0.0-3.0-4.0-1.0","pilot_wm_v1","null","5","null","null","false","","","","","","","null","<div style=""font-size:60px;"">+</div>","null","fixation","","","","","","","","","","","","","",""
"revaluation","21","194137","0.0-3.0-4.0-0.1","pilot_wm_v1","null","5","null","null","false","","false","","","","","[481.39999997615814]","./assets/img/space/4.jpg","[""ArrowDown""]","first stage practice","space","0","null","null","ArrowDown","false","","","","","","","",""
"html-keyboard-response","22","194653","0.0-3.0-4.0-1.1","pilot_wm_v1","null","5","null","null","false","","","","","","","null","<div style=""font-size:60px;"">+</div>","null","fixation","","","","","","","","","","","","","",""
"revaluation","23","198677","0.0-3.0-4.0-0.2","pilot_wm_v1","null","5","null","null","false","","false","","","","","[352.10000002384186]","./assets/img/space/5.jpg","[""ArrowDown""]","first stage practice","space","0","null","null","ArrowDown","false","","","","","","","",""
"html-keyboard-response","24","199194","0.0-3.0-4.0-1.2","pilot_wm_v1","null","5","null","null","false","","","","","","","null","<div style=""font-size:60px;"">+</div>","null","fixation","","","","","","","","","","","","","",""
"learning-instructions","25","209952","0.0-3.0-5.0-0.0","pilot_wm_v1","null","5","null","null","false","","","","","","","870.6999999880791","<p> The animals don’t move, so the animal in the upper part of a place will stay in the upper part of a place, and the animal in the lower part of a place will stay in the lower part of a place. </p>","","instructions","","","","","","","","","","","","","",""
"learning-instructions","26","219932","0.0-3.0-5.0-0.1","pilot_wm_v1","null","5","null","null","false","","","","","","","840.9000000059605","<p> Each animal has two treasure chests for you to choose from. </p>
            <p> The amount of treasure in each chest can range from <b> 0 to 40 pieces.</b></p>","","instructions","","","","","","","","","","","","","",""
"learning-instructions","27","232915","0.0-3.0-5.0-0.2","pilot_wm_v1","null","5","null","null","false","","","","","","","1770.5","<p> You should decide which chest to search for treasure by using the <b>left</b> and <b>right</b> arrow keys. </p>
            <p><b> Pay attention to which animal is on the screen, as the animals have different treasure chests. </b></p>
            <img src='./assets/img/instructions/leftright.jpg' class='instructions-image'>","","instructions","","","","","","","","","","","","","",""
"learning-instructions","28","239824","0.0-3.0-5.0-0.3","pilot_wm_v1","null","5","null","null","false","","","","","","","530.1000000238419","<p> Let’s try practicing that now. </p>
            <p> When you see an animal, choose which chest to search for treasure. </p>
            <img src='./assets/img/instructions/chooseChest.jpg' class='instructions-image'>","","instructions","","","","","","","","","","","","","",""
"revaluation","29","243843","0.0-3.0-6.0-0.0","pilot_wm_v1","null","5","null","null","false","","false","","","","","[627]","./assets/img/space/animals/rabbit.jpg","[""ArrowLeft""]","second stage practice","space","15","{""ArrowUp,ArrowLeft"":3,""ArrowUp,ArrowRight"":36,""ArrowDown,ArrowLeft"":15,""ArrowDown,ArrowRight"":23}","false","ArrowDown,ArrowLeft","","","","","","","","",""
"html-keyboard-response","30","244347","0.0-3.0-6.0-1.0","pilot_wm_v1","null","5","null","null","false","","","","","","","null","<div style=""font-size:60px;"">+</div>","null","fixation","","","","","","","","","","","","","",""
"revaluation","31","248392","0.0-3.0-6.0-0.1","pilot_wm_v1","null","5","null","null","false","","false","","","","","[339.40000000596046]","./assets/img/space/animals/cat.jpg","[""ArrowRight""]","second stage practice","space","36","{""ArrowUp,ArrowLeft"":3,""ArrowUp,ArrowRight"":36,""ArrowDown,ArrowLeft"":15,""ArrowDown,ArrowRight"":23}","true","ArrowUp,ArrowRight","","","","","","","","",""
"html-keyboard-response","32","248899","0.0-3.0-6.0-1.1","pilot_wm_v1","null","5","null","null","false","","","","","","","null","<div style=""font-size:60px;"">+</div>","null","fixation","","","","","","","","","","","","","",""
"revaluation","33","252910","0.0-3.0-6.0-0.2","pilot_wm_v1","null","5","null","null","false","","false","","","","","[314.90000000596046]","./assets/img/space/animals/cat.jpg","[""ArrowRight""]","second stage practice","space","36","{""ArrowUp,ArrowLeft"":3,""ArrowUp,ArrowRight"":36,""ArrowDown,ArrowLeft"":15,""ArrowDown,ArrowRight"":23}","true","ArrowUp,ArrowRight","","","","","","","","",""
"html-keyboard-response","34","253423","0.0-3.0-6.0-1.2","pilot_wm_v1","null","5","null","null","false","","","","","","","null","<div style=""font-size:60px;"">+</div>","null","fixation","","","","","","","","","","","","","",""
"revaluation","35","257448","0.0-3.0-6.0-0.3","pilot_wm_v1","null","5","null","null","false","","false","","","","","[456.90000000596046]","./assets/img/space/animals/rabbit.jpg","[""ArrowRight""]","second stage practice","space","23","{""ArrowUp,ArrowLeft"":3,""ArrowUp,ArrowRight"":36,""ArrowDown,ArrowLeft"":15,""ArrowDown,ArrowRight"":23}","true","ArrowDown,ArrowRight","","","","","","","","",""
"html-keyboard-response","36","257961","0.0-3.0-6.0-1.3","pilot_wm_v1","null","5","null","null","false","","","","","","","null","<div style=""font-size:60px;"">+</div>","null","fixation","","","","","","","","","","","","","",""
"learning-instructions","37","275315","0.0-3.0-7.0-0.0","pilot_wm_v1","null","5","null","null","false","","","","","","","509.09999999403954","<p> Great job. Now let’s try putting it together. </p>
            <p> On each turn, you will first see a picture to remind you of the place you are in, and you need to choose whether to go up or down. </p>
            <p> Then you will see an animal and choose which of its chests to search for treasure. </p>","","instructions","","","","","","","","","","","","","",""
"learning-instructions","38","284665","0.0-3.0-7.0-0.1","pilot_wm_v1","null","5","null","null","false","","","","","","","1081.2999999821186","<p> When you choose whether to go up or down, try to go to the animal with the chest with the most treasure. </p>
            <p> Try practicing that now! </p>","","instructions","","","","","","","","","","","","","",""
"revaluation","39","290702","0.0-3.0-8.0-0.0","pilot_wm_v1","null","5","null","null","false","","false","","","","","[503.59999999403954,459.30000001192093]","./assets/img/space/6.jpg","[""ArrowUp"",""ArrowRight""]","full practice","space","36","{""ArrowUp,ArrowLeft"":3,""ArrowUp,ArrowRight"":36,""ArrowDown,ArrowLeft"":15,""ArrowDown,ArrowRight"":23}","true","ArrowUp,ArrowRight","false","","","","","","","",""
"html-keyboard-response","40","291207","0.0-3.0-8.0-1.0","pilot_wm_v1","null","5","null","null","false","","","","","","","null","<div style=""font-size:60px;"">+</div>","null","fixation","","","","","","","","","","","","","",""
"revaluation","41","297252","0.0-3.0-8.0-0.1","pilot_wm_v1","null","5","null","null","false","","false","","","","","[467.5,290.09999999403954]","./assets/img/space/7.jpg","[""ArrowDown"",""ArrowRight""]","full practice","space","23","{""ArrowUp,ArrowLeft"":3,""ArrowUp,ArrowRight"":36,""ArrowDown,ArrowLeft"":15,""ArrowDown,ArrowRight"":23}","false","ArrowDown,ArrowRight","false","","","","","","","",""
"html-keyboard-response","42","297754","0.0-3.0-8.0-1.1","pilot_wm_v1","null","5","null","null","false","","","","","","","null","<div style=""font-size:60px;"">+</div>","null","fixation","","","","","","","","","","","","","",""
"revaluation","43","303784","0.0-3.0-8.0-0.2","pilot_wm_v1","null","5","null","null","false","","false","","","","","[341.09999999403954,251.40000000596046]","./assets/img/space/8.jpg","[""ArrowUp"",""ArrowRight""]","full practice","space","36","{""ArrowUp,ArrowLeft"":3,""ArrowUp,ArrowRight"":36,""ArrowDown,ArrowLeft"":15,""ArrowDown,ArrowRight"":23}","true","ArrowUp,ArrowRight","false","","","","","","","",""
"html-keyboard-response","44","304299","0.0-3.0-8.0-1.2","pilot_wm_v1","null","5","null","null","false","","","","","","","null","<div style=""font-size:60px;"">+</div>","null","fixation","","","","","","","","","","","","","",""
"revaluation","45","310333","0.0-3.0-8.0-0.3","pilot_wm_v1","null","5","null","null","false","","false","","","","","[309.90000000596046,318.19999998807907]","./assets/img/space/9.jpg","[""ArrowUp"",""ArrowRight""]","full practice","space","36","{""ArrowUp,ArrowLeft"":3,""ArrowUp,ArrowRight"":36,""ArrowDown,ArrowLeft"":15,""ArrowDown,ArrowRight"":23}","true","ArrowUp,ArrowRight","false","","","","","","","",""
"html-keyboard-response","46","310844","0.0-3.0-8.0-1.3","pilot_wm_v1","null","5","null","null","false","","","","","","","null","<div style=""font-size:60px;"">+</div>","null","fixation","","","","","","","","","","","","","",""
"revaluation","47","316888","0.0-3.0-8.0-0.4","pilot_wm_v1","null","5","null","null","false","","false","","","","","[299.30000001192093,232.69999998807907]","./assets/img/space/10.jpg","[""ArrowUp"",""ArrowLeft""]","full practice","space","3","{""ArrowUp,ArrowLeft"":3,""ArrowUp,ArrowRight"":36,""ArrowDown,ArrowLeft"":15,""ArrowDown,ArrowRight"":23}","false","ArrowUp,ArrowLeft","false","","","","","","","",""
"html-keyboard-response","48","317393","0.0-3.0-8.0-1.4","pilot_wm_v1","null","5","null","null","false","","","","","","","null","<div style=""font-size:60px;"">+</div>","null","fixation","","","","","","","","","","","","","",""
"learning-instructions","49","328600","0.0-3.0-9.0-0.0","pilot_wm_v1","null","5","null","null","false","","","","","","","889","<p> One last thing: sometimes, you will see a robber. The robber can be anywhere in the picture. </p>
            <p> If you do not stop them, you will lose treasure. </p>
            <img src='./assets/img/instructions/robber.jpg' class='instructions-image'>","","instructions","","","","","","","","","","","","","",""
"learning-instructions","50","336343","0.0-3.0-9.0-0.1","pilot_wm_v1","null","5","null","null","false","","","","","","","544","<p> If you see the robber, you should <b>press the space bar</b> rather than using the arrow keys. </p>
            <p> Try practicing that now! </p>","","instructions","","","","","","","","","","","","","",""
"revaluation","51","340365","0.0-3.0-10.0-0.0","pilot_wm_v1","null","5","null","null","false","","false","","","","","[499.30000001192093]","./assets/img/space/catch/0.jpg","[""spaceBar""]","catch practice","space","0","{""ArrowUp,ArrowLeft"":3,""ArrowUp,ArrowRight"":36,""ArrowDown,ArrowLeft"":15,""ArrowDown,ArrowRight"":23}","true","spaceBar","true","","","","","","","",""
"html-keyboard-response","52","340881","0.0-3.0-10.0-1.0","pilot_wm_v1","null","5","null","null","false","","","","","","","null","<div style=""font-size:60px;"">+</div>","null","fixation","","","","","","","","","","","","","",""
"revaluation","53","344909","0.0-3.0-10.0-0.1","pilot_wm_v1","null","5","null","null","false","","false","","","","","[572.5999999940395]","./assets/img/space/catch/1.jpg","[""spaceBar""]","catch practice","space","0","{""ArrowUp,ArrowLeft"":3,""ArrowUp,ArrowRight"":36,""ArrowDown,ArrowLeft"":15,""ArrowDown,ArrowRight"":23}","true","spaceBar","true","","","","","","","",""
"html-keyboard-response","54","345425","0.0-3.0-10.0-1.1","pilot_wm_v1","null","5","null","null","false","","","","","","","null","<div style=""font-size:60px;"">+</div>","null","fixation","","","","","","","","","","","","","",""
"revaluation","55","349448","0.0-3.0-10.0-0.2","pilot_wm_v1","null","5","null","null","false","","false","","","","","[477.30000001192093]","./assets/img/space/catch/2.jpg","[""spaceBar""]","catch practice","space","0","{""ArrowUp,ArrowLeft"":3,""ArrowUp,ArrowRight"":36,""ArrowDown,ArrowLeft"":15,""ArrowDown,ArrowRight"":23}","true","spaceBar","true","","","","","","","",""
"html-keyboard-response","56","349953","0.0-3.0-10.0-1.2","pilot_wm_v1","null","5","null","null","false","","","","","","","null","<div style=""font-size:60px;"">+</div>","null","fixation","","","","","","","","","","","","","",""
"learning-instructions","57","356219","0.0-3.0-11.0-0.0","pilot_wm_v1","null","5","null","null","false","","","","","","","738.9000000059605","<p> Sometimes, you will come across a special kind of treasure chest that requires a password. </p>
            <img src='./assets/img/instructions/beep_chest.jpg' class='instructions-image'>","","instructions","","","","","","","","","","","","","",""
"learning-instructions","58","378741","0.0-3.0-11.0-0.1","pilot_wm_v1","null","5","null","null","false","","","","","","","880.6000000238419","<p> Your friend will send you the password using a series of beeps so that you can open the chest and earn treasure. </p>
            <p> You will hear two kinds of beeps, a high beep and a low beep. </p>
            <p> You should report the number of high beeps that you heard before seeing the chest. </p>
            <img src='./assets/img/instructions/listen.jpg' class='instructions-image'>","","instructions","","","","","","","","","","","","","",""
"learning-instructions","59","401707","0.0-3.0-11.0-0.2","pilot_wm_v1","null","5","null","null","false","","","","","","","656.6999999880791","<p> For example, if you hear this series of beeps, you should report 4 as the password using the slider. </p>
            <p> After reporting a password for a chest, you should count the high beeps again starting from 0. </p>
            <p> Let's try practicing that now. </p>","","instructions","","","","","","","","","","","","","",""
"audio-button-response","60","410418","0.0-3.0-12.0-0.0-0.0","pilot_wm_v1","null","5","null","null","false","","","","","","","null","./assets/audio/beeps/practice_6.wav","null","","","","","","","","","","","","","","",""
"html-slider-response","61","422214","0.0-3.0-12.0-0.0-1.0","pilot_wm_v1","null","5","null","null","false","","","","","","","11787","<div style=""width:500px;"">
        <p>What is the password?</p>
        <img src='./assets/img/instructions/beep_chest.jpg' class='instructions-image'>","8","","","","","false","","","","50","0","8","","","",""
"comp-q","62","430076","0.0-3.0-12.0-0.0-2.0","pilot_wm_v1","null","5","null","null","false","","","","","","","1681.699999988079","<p>Incorrect! Please try again. Remember to count the number of high pitched beeps only. </p>","0","beep_answer","","","","","","","","","","","","","",""
"audio-button-response","63","438079","0.0-3.0-12.0-0.1-0.1","pilot_wm_v1","null","5","null","null","false","","","","","","","null","./assets/audio/beeps/practice_6.wav","null","","","","","","","","","","","","","","",""
"html-slider-response","64","441205","0.0-3.0-12.0-0.1-1.1","pilot_wm_v1","null","5","null","null","false","","","","","","","3123","<div style=""width:500px;"">
        <p>What is the password?</p>
        <img src='./assets/img/instructions/beep_chest.jpg' class='instructions-image'>","6","","","","","false","","","","50","0","6","","","",""
"comp-q","65","447300","0.0-3.0-12.0-0.1-2.1","pilot_wm_v1","null","5","null","null","false","","","","","","","1619.9000000059605","<p>Correct! There were 6 high pitched beeps before you saw the chest. </p>","0","beep_answer","","","","","","","","","","","","","",""
"audio-button-response","66","455669","0.0-3.0-12.0-0.2-0.2","pilot_wm_v1","null","5","null","null","false","","","","","","","null","./assets/audio/beeps/practice_4.wav","null","","","","","","","","","","","","","","",""
"html-slider-response","67","458043","0.0-3.0-12.0-0.2-1.2","pilot_wm_v1","null","5","null","null","false","","","","","","","2370","<div style=""width:500px;"">
        <p>What is the password?</p>
        <img src='./assets/img/instructions/beep_chest.jpg' class='instructions-image'>","4","","","","","false","","","","50","0","4","","","",""
"comp-q","68","466035","0.0-3.0-12.0-0.2-2.2","pilot_wm_v1","null","5","null","null","false","","","","","","","3324.5999999940395","<p>Correct! There were 4 high pitched beeps before you saw the chest. </p>","0","beep_answer","","","","","","","","","","","","","",""
"learning-instructions","69","481165","0.0-3.0-13.0-0.0","pilot_wm_v1","null","5","null","null","false","","","","","","","4594.4000000059605","<p> Good job! In the real game we will not tell you if you entered the right password. </p>
            <p> Do your best, the treasure you earn from these chests will also give you extra bonus money. </p>","","instructions","","","","","","","","","","","","","",""
"learning-instructions","70","487098","0.0-3.0-15.0-0.0-0.0","pilot_wm_v1","null","5","null","null","false","","","","","","","648.0999999940395","<p> Now, you will practice a shortened version of the game to get a sense of how it all fits together. </p>","","instructions","","","","","","","","","","","","","",""
"learning-instructions","71","491601","0.0-3.0-15.0-0.0-0.1","pilot_wm_v1","null","5","null","null","false","","","","","","","1291.4000000059605","<p>This time you are searching for treasure in outer space.</p>","","instructions","","","","","","","","","","","","","",""
"learning-instructions","72","530986","0.0-3.0-15.0-1.0-0.0","pilot_wm_v1","null","5","null","null","false","","","","","","","24594.79999998212","<p> Remember, when you see a picture of the place, use the up and down keys to <b>find an animal</b>.</p>
            <p> When you encounter an animal, you should use the left and right keys to <b>select a treasure chest</b>.</p>
            <p> Don't forget to look out for the robber! </p>","","instructions","","","","","","","","","","","","","",""
"revaluation","73","537019","0.0-3.0-15.0-2.0-0.0","pilot_wm_v1","null","5","null","null","false","","false","","","","","[693.5,358.19999998807907]","./assets/img/space/11.jpg","[""ArrowUp"",""ArrowRight""]","practice block","space","36","{""ArrowUp,ArrowLeft"":3,""ArrowUp,ArrowRight"":36,""ArrowDown,ArrowLeft"":15,""ArrowDown,ArrowRight"":23}","true","ArrowUp,ArrowRight","false","","","","","","","",""
"html-keyboard-response","74","537520","0.0-3.0-15.0-2.0-1.0","pilot_wm_v1","null","5","null","null","false","","","","","","","null","<div style=""font-size:60px;"">+</div>","null","fixation","","","","","","","","","","","","","",""
"revaluation","75","543524","0.0-3.0-15.0-2.0-0.1","pilot_wm_v1","null","5","null","null","false","","false","","","","","[748.4000000059605,302.69999998807907]","./assets/img/space/12.jpg","[""ArrowUp"",""ArrowRight""]","practice block","space","36","{""ArrowUp,ArrowLeft"":3,""ArrowUp,ArrowRight"":36,""ArrowDown,ArrowLeft"":15,""ArrowDown,ArrowRight"":23}","true","ArrowUp,ArrowRight","false","","","","","","","",""
"html-keyboard-response","76","544026","0.0-3.0-15.0-2.0-1.1","pilot_wm_v1","null","5","null","null","false","","","","","","","null","<div style=""font-size:60px;"">+</div>","null","fixation","","","","","","","","","","","","","",""
"revaluation","77","550032","0.0-3.0-15.0-2.0-0.2","pilot_wm_v1","null","5","null","null","false","","false","","","","","[757.7999999821186,360.2000000178814]","./assets/img/space/13.jpg","[""ArrowUp"",""ArrowRight""]","practice block","space","36","{""ArrowUp,ArrowLeft"":3,""ArrowUp,ArrowRight"":36,""ArrowDown,ArrowLeft"":15,""ArrowDown,ArrowRight"":23}","true","ArrowUp,ArrowRight","false","","","","","","","",""
"html-keyboard-response","78","550549","0.0-3.0-15.0-2.0-1.2","pilot_wm_v1","null","5","null","null","false","","","","","","","null","<div style=""font-size:60px;"">+</div>","null","fixation","","","","","","","","","","","","","",""
"revaluation","79","556555","0.0-3.0-15.0-2.0-0.3","pilot_wm_v1","null","5","null","null","false","","false","","","","","[502.40000000596046,347.90000000596046]","./assets/img/space/14.jpg","[""ArrowUp"",""ArrowRight""]","practice block","space","36","{""ArrowUp,ArrowLeft"":3,""ArrowUp,ArrowRight"":36,""ArrowDown,ArrowLeft"":15,""ArrowDown,ArrowRight"":23}","true","ArrowUp,ArrowRight","false","","","","","","","",""
"html-keyboard-response","80","557057","0.0-3.0-15.0-2.0-1.3","pilot_wm_v1","null","5","null","null","false","","","","","","","null","<div style=""font-size:60px;"">+</div>","null","fixation","","","","","","","","","","","","","",""
"revaluation","81","563063","0.0-3.0-15.0-2.0-0.4","pilot_wm_v1","null","5","null","null","false","","false","","","","","[655.5999999940395,309.2000000178814]","./assets/img/space/11.jpg","[""ArrowUp"",""ArrowRight""]","practice block","space","36","{""ArrowUp,ArrowLeft"":3,""ArrowUp,ArrowRight"":36,""ArrowDown,ArrowLeft"":15,""ArrowDown,ArrowRight"":23}","true","ArrowUp,ArrowRight","false","","","","","","","",""
"html-keyboard-response","82","563564","0.0-3.0-15.0-2.0-1.4","pilot_wm_v1","null","5","null","null","false","","","","","","","null","<div style=""font-size:60px;"">+</div>","null","fixation","","","","","","","","","","","","","",""
"revaluation","83","569572","0.0-3.0-15.0-2.0-0.5","pilot_wm_v1","null","5","null","null","false","","false","","","","","[732.7999999821186,336.10000002384186]","./assets/img/space/12.jpg","[""ArrowUp"",""ArrowRight""]","practice block","space","36","{""ArrowUp,ArrowLeft"":3,""ArrowUp,ArrowRight"":36,""ArrowDown,ArrowLeft"":15,""ArrowDown,ArrowRight"":23}","true","ArrowUp,ArrowRight","false","","","","","","","",""
"html-keyboard-response","84","570073","0.0-3.0-15.0-2.0-1.5","pilot_wm_v1","null","5","null","null","false","","","","","","","null","<div style=""font-size:60px;"">+</div>","null","fixation","","","","","","","","","","","","","",""
"revaluation","85","576080","0.0-3.0-15.0-2.0-0.6","pilot_wm_v1","null","5","null","null","false","","false","","","","","[728.2000000178814,322.69999998807907]","./assets/img/space/13.jpg","[""ArrowUp"",""ArrowRight""]","practice block","space","36","{""ArrowUp,ArrowLeft"":3,""ArrowUp,ArrowRight"":36,""ArrowDown,ArrowLeft"":15,""ArrowDown,ArrowRight"":23}","true","ArrowUp,ArrowRight","false","","","","","","","",""
"html-keyboard-response","86","576581","0.0-3.0-15.0-2.0-1.6","pilot_wm_v1","null","5","null","null","false","","","","","","","null","<div style=""font-size:60px;"">+</div>","null","fixation","","","","","","","","","","","","","",""
"revaluation","87","582586","0.0-3.0-15.0-2.0-0.7","pilot_wm_v1","null","5","null","null","false","","false","","","","","[685.5,364.80000001192093]","./assets/img/space/14.jpg","[""ArrowDown"",""ArrowRight""]","practice block","space","23","{""ArrowUp,ArrowLeft"":3,""ArrowUp,ArrowRight"":36,""ArrowDown,ArrowLeft"":15,""ArrowDown,ArrowRight"":23}","false","ArrowDown,ArrowRight","false","","","","","","","",""
"html-keyboard-response","88","583088","0.0-3.0-15.0-2.0-1.7","pilot_wm_v1","null","5","null","null","false","","","","","","","null","<div style=""font-size:60px;"">+</div>","null","fixation","","","","","","","","","","","","","",""
"revaluation","89","587106","0.0-3.0-15.0-2.0-0.8","pilot_wm_v1","null","5","null","null","false","","false","","","","","[586.8999999761581]","./assets/img/space/catch/3.jpg","[""spaceBar""]","practice block","space","0","{""ArrowUp,ArrowLeft"":3,""ArrowUp,ArrowRight"":36,""ArrowDown,ArrowLeft"":15,""ArrowDown,ArrowRight"":23}","true","spaceBar","true","","","","","","","",""
"html-keyboard-response","90","587608","0.0-3.0-15.0-2.0-1.8","pilot_wm_v1","null","5","null","null","false","","","","","","","null","<div style=""font-size:60px;"">+</div>","null","fixation","","","","","","","","","","","","","",""
"learning-instructions","91","602091","0.0-3.0-15.0-3.0-0.0","pilot_wm_v1","null","5","null","null","false","","","","","","","1063.7000000178814","<p> Now, you will travel with a friend who will choose whether you go up or down first. </p>
            <p> On these turns, you will just see the animal that they found. You will still get to choose which chest to search for treasure.</p>","","instructions","","","","","","","","","","","","","",""
"learning-instructions","92","614655","0.0-3.0-15.0-3.0-0.1","pilot_wm_v1","null","5","null","null","false","","","","","","","778.1999999880791","<p> In this part, you will also hear beeps from your friend and see special treasure chests that need a password. </p>
            <p> Do your best to count the high beeps <b>and</b> choose between each animals' chests at the same time.</p>
            <img src='./assets/img/instructions/beep_chest.jpg' class='instructions-image'>","","instructions","","","","","","","","","","","","","",""
"revaluation","93","618676","0.0-3.0-15.0-4.0-0.0","pilot_wm_v1","null","5","null","null","false","","false","","","","","[1045.5999999940395]","./assets/img/space/animals/rabbit.jpg","[""ArrowRight""]","practice block","space","23","{""ArrowUp,ArrowLeft"":3,""ArrowUp,ArrowRight"":36,""ArrowDown,ArrowLeft"":15,""ArrowDown,ArrowRight"":23}","true","ArrowDown,ArrowRight","","[""22_3""]","","","","0","","",""
"html-keyboard-response","94","619186","0.0-3.0-15.0-4.0-1.0","pilot_wm_v1","null","5","null","null","false","","","","","","","null","<div style=""font-size:60px;"">+</div>","null","fixation","","","","","","","","","","","","","",""
"revaluation","95","623207","0.0-3.0-15.0-4.0-0.1","pilot_wm_v1","null","5","null","null","false","","false","","","","","[592.3000000119209]","./assets/img/space/animals/cat.jpg","[""ArrowRight""]","practice block","space","36","{""ArrowUp,ArrowLeft"":3,""ArrowUp,ArrowRight"":36,""ArrowDown,ArrowLeft"":15,""ArrowDown,ArrowRight"":23}","true","ArrowUp,ArrowRight","","[""20_0""]","","","","1","","",""
"html-keyboard-response","96","623719","0.0-3.0-15.0-4.0-1.1","pilot_wm_v1","null","5","null","null","false","","","","","","","null","<div style=""font-size:60px;"">+</div>","null","fixation","","","","","","","","","","","","","",""
"revaluation","97","627744","0.0-3.0-15.0-4.0-0.2","pilot_wm_v1","null","5","null","null","false","","false","","","","","[747]","./assets/img/space/animals/rabbit.jpg","[""ArrowRight""]","practice block","space","23","{""ArrowUp,ArrowLeft"":3,""ArrowUp,ArrowRight"":36,""ArrowDown,ArrowLeft"":15,""ArrowDown,ArrowRight"":23}","true","ArrowDown,ArrowRight","","[""21_1""]","","","","2","","",""
"html-keyboard-response","98","628253","0.0-3.0-15.0-4.0-1.2","pilot_wm_v1","null","5","null","null","false","","","","","","","null","<div style=""font-size:60px;"">+</div>","null","fixation","","","","","","","","","","","","","",""
"revaluation","99","632265","0.0-3.0-15.0-4.0-0.3","pilot_wm_v1","null","5","null","null","false","","false","","","","","[1365]","./assets/img/space/animals/cat.jpg","[""ArrowRight""]","practice block","space","36","{""ArrowUp,ArrowLeft"":3,""ArrowUp,ArrowRight"":36,""ArrowDown,ArrowLeft"":15,""ArrowDown,ArrowRight"":23}","true","ArrowUp,ArrowRight","","[""19_0""]","","","","3","","",""
"html-keyboard-response","100","632770","0.0-3.0-15.0-4.0-1.3","pilot_wm_v1","null","5","null","null","false","","","","","","","null","<div style=""font-size:60px;"">+</div>","null","fixation","","","","","","","","","","","","","",""
"html-slider-response","101","637118","0.0-3.0-15.0-4.0-2.3-0.3","pilot_wm_v1","null","5","null","null","false","","","","","","","4346","<div style=""width:500px;"">
        <p>What is the password?</p>
        <img src='./assets/img/instructions/beep_chest.jpg' class='instructions-image'>","3","","","","","false","","","","50","82","79","","","",""
"learning-instructions","102","645261","0.0-3.0-15.0-6.0-0.0","pilot_wm_v1","null","5","null","null","false","","","","","","","null","<p> You have almost finished this part of the game! </p>
            <p> We are going to ask you to make a few more choices. </p>","","instructions","","","","","","","","","","","","","",""
"learning-instructions","103","661266","0.0-3.0-15.0-6.0-0.1","pilot_wm_v1","null","5","null","null","false","","","","","","","null","<p> First, you need to decide whether to go up or down. When you see each picture, use the arrow keys to make your choice. </p>
            <p><b>You will not see which animal you found, but try to get to the one that will give you the most treasure.</b></p>","","instructions","","","","","","","","","","","","","",""
"html-keyboard-response","104","662281","0.0-3.0-15.0-7.0-0.0","pilot_wm_v1","null","5","null","null","false","","","","","","","null","<div style=""font-size:100px;color:red;"">Starting in...</div>","null","","","","","","","","","","","","","","",""
"html-keyboard-response","105","663297","0.0-3.0-15.0-7.0-1.0","pilot_wm_v1","null","5","null","null","false","","","","","","","null","<div style=""font-size:200px;color:red;"">3</div>","null","","","","","","","","","","","","","","",""
"html-keyboard-response","106","664313","0.0-3.0-15.0-7.0-2.0","pilot_wm_v1","null","5","null","null","false","","","","","","","null","<div style=""font-size:200px;color:red;"">2</div>","null","","","","","","","","","","","","","","",""
"html-keyboard-response","107","665328","0.0-3.0-15.0-7.0-3.0","pilot_wm_v1","null","5","null","null","false","","","","","","","null","<div style=""font-size:200px;color:red;"">1</div>","null","","","","","","","","","","","","","","",""
"revaluation","108","665698","0.0-3.0-15.0-8.0","pilot_wm_v1","null","5","null","null","false","","false","","","","","[367.5]","./assets/img/space/15.jpg","[""ArrowUp""]","practice block","space","0","{""ArrowUp,ArrowLeft"":3,""ArrowUp,ArrowRight"":36,""ArrowDown,ArrowLeft"":15,""ArrowDown,ArrowRight"":23}","true","ArrowUp","false","","","","","","","",""
"html-keyboard-response","109","666204","0.0-3.0-15.0-9.0","pilot_wm_v1","null","5","null","null","false","","","","","","","null","<div style=""font-size:60px;"">+</div>","null","fixation","","","","","","","","","","","","","",""
"learning-instructions","110","679588","0.0-3.0-15.0-10.0-0.0","pilot_wm_v1","null","5","null","null","false","","","","","","","null","<p> Now you will see the animals again and can search their chests for treasure. </p>
            <p> This time, you will not see how much treasure you earned, but you will earn more bonus money for making better choices. </p>","","instructions","","","","","","","","","","","","","",""
"html-keyboard-response","111","680595","0.0-3.0-15.0-11.0-0.0","pilot_wm_v1","null","5","null","null","false","","","","","","","null","<div style=""font-size:100px;color:red;"">Starting in...</div>","null","","","","","","","","","","","","","","",""
"html-keyboard-response","112","681598","0.0-3.0-15.0-11.0-1.0","pilot_wm_v1","null","5","null","null","false","","","","","","","null","<div style=""font-size:200px;color:red;"">3</div>","null","","","","","","","","","","","","","","",""
"html-keyboard-response","113","682610","0.0-3.0-15.0-11.0-2.0","pilot_wm_v1","null","5","null","null","false","","","","","","","null","<div style=""font-size:200px;color:red;"">2</div>","null","","","","","","","","","","","","","","",""
"html-keyboard-response","114","683613","0.0-3.0-15.0-11.0-3.0","pilot_wm_v1","null","5","null","null","false","","","","","","","null","<div style=""font-size:200px;color:red;"">1</div>","null","","","","","","","","","","","","","","",""
"revaluation","115","684193","0.0-3.0-15.0-12.0-0.0","pilot_wm_v1","null","5","null","null","false","","false","","","","","[576.6000000238419]","./assets/img/space/animals/cat.jpg","[""ArrowRight""]","practice block","space","0","{""ArrowUp,ArrowLeft"":3,""ArrowUp,ArrowRight"":36,""ArrowDown,ArrowLeft"":15,""ArrowDown,ArrowRight"":23}","true","ArrowUp,ArrowRight","","","","","","","","",""
"html-keyboard-response","116","684702","0.0-3.0-15.0-12.0-1.0","pilot_wm_v1","null","5","null","null","false","","","","","","","null","<div style=""font-size:60px;"">+</div>","null","fixation","","","","","","","","","","","","","",""
"revaluation","117","685586","0.0-3.0-15.0-12.0-0.1","pilot_wm_v1","null","5","null","null","false","","false","","","","","[881.1999999880791]","./assets/img/space/animals/rabbit.jpg","[""ArrowLeft""]","practice block","space","0","{""ArrowUp,ArrowLeft"":3,""ArrowUp,ArrowRight"":36,""ArrowDown,ArrowLeft"":15,""ArrowDown,ArrowRight"":23}","false","ArrowDown,ArrowLeft","","","","","","","","",""
"html-keyboard-response","118","686103","0.0-3.0-15.0-12.0-1.1","pilot_wm_v1","null","5","null","null","false","","","","","","","null","<div style=""font-size:60px;"">+</div>","null","fixation","","","","","","","","","","","","","",""
"learning-instructions","119","692439","0.0-3.0-16.0-0.0","pilot_wm_v1","null","5","null","null","false","","","","","","","1762.0999999940395","<p> Before you start, we're going to ask you a few questions about how the game works. </p>","","instructions","","","","","","","","","","","","","",""
"comp-q","120","699631","0.0-3.0-17.0-0.0-0.0","pilot_wm_v1","null","5","null","null","false","","","","","","","1613.4000000059605","<p> <b> True or False? </b> </p>
            <p> There can be 50 pieces of treasure in a given animal's chest. </p>","1","comp_question","","","","true","","","","","","","","","",""
"comp-q","121","708424","0.0-3.0-17.0-0.0-1.0","pilot_wm_v1","null","5","null","null","false","","","","","","","2137.0999999940395","<p> <b> That's right! </b> The amount of treasure in each chest can range from 0 to 40 pieces. </p>","0","comp_answer","","","","","","","","","","","","","",""
"comp-q","122","716757","0.0-3.0-17.0-0.1-0.1","pilot_wm_v1","null","5","null","null","false","","","","","","","1219.5","<p> <b> True or False? </b> </p><p> In this game, all animals have the same amount of treasure in their left and right chests. </p>","1","comp_question","","","","true","","","","","","","","","",""
"comp-q","123","723406","0.0-3.0-17.0-0.1-1.1","pilot_wm_v1","null","5","null","null","false","","","","","","","1428.199999988079","<p> <b> That's right! </b> Animals have different amounts of treasure in their treasure chests. </p>","0","comp_answer","","","","","","","","","","","","","",""
"comp-q","124","730109","0.0-3.0-17.0-0.2-0.2","pilot_wm_v1","null","5","null","null","false","","","","","","","861.4000000059605","<p> <b> True or False? </b> </p><p> The same animal will always be there if you go up in the same place. </p>","0","comp_question","","","","true","","","","","","","","","",""
"comp-q","125","738552","0.0-3.0-17.0-0.2-1.2","pilot_wm_v1","null","5","null","null","false","","","","","","","2004.7999999821186","<p> <b> That's right! </b> One animal lives in the upper part and one lives in the lower part of every place. </p>","0","comp_answer","","","","","","","","","","","","","",""
"comp-q","126","744728","0.0-3.0-17.0-0.3-0.3","pilot_wm_v1","null","5","null","null","false","","","","","","","660.3000000119209","<p> <b> True or False? </b> </p><p> If you see a different picture, it means you are in a new place. </p>","1","comp_question","","","","true","","","","","","","","","",""
"comp-q","127","757117","0.0-3.0-17.0-0.3-1.3","pilot_wm_v1","null","5","null","null","false","","","","","","","1169.800000011921","<p> <b> That's right! </b> Lots of different images may show the same place. For example,  you may see three different images that all remind you that you are in outer space. </p>","0","comp_answer","","","","","","","","","","","","","",""
"learning-instructions","128","768105","0.0-3.0-18.0-0.0","pilot_wm_v1","null","5","null","null","false","","","","","","","1137.4000000059605","<p> Good job. Remember to do your best because the amount of treasure you earn will be converted into bonus money. </p>
            <p> It’s time to start the real game! </p>","","instructions","","","","","","","","","","","","","",""
"learning-instructions","129","772932","0.0-4.0-0.0-0.0","pilot_wm_v1","null","5","null","null","false","","","","","","","2124.300000011921","<p> This time you are searching for treasure in the <b>ocean</b>.</p>","","instructions","","","","","","","","","","","","","",""
"learning-instructions","130","791397","0.0-4.0-0.0-0.1","pilot_wm_v1","null","5","null","null","false","","","","","","","1179.2000000178814","<p><b>New</b> animals with <b>new</b> treasure chests live here. You need to explore to discover where the animal with the best treasure chest is.</p>
                    <p> Like before, once you figure out which animal has the chest with the most treasure, you should try to get to that animal and select that chest! </p>","","instructions","","","","","","","","","","","","","",""
"learning-instructions","131","858913","0.0-4.0-1.0-0.0","pilot_wm_v1","null","5","null","null","false","","","","","","","52785.59999999404","<p> Remember, when you see a picture of the place, use the up and down keys to <b>find an animal</b>.</p>
            <p> When you encounter an animal, you should use the left and right keys to <b>select a treasure chest</b>.</p>
            <p> Don't forget to look out for the robber! </p>","","instructions","","","","","","","","","","","","","",""
"revaluation","132","864929","0.0-4.0-2.0-0.0","pilot_wm_v1","null","5","null","null","false","","false","","","","","[842.5999999940395,477.30000001192093]","./assets/img/ocean/memory/2.jpg","[""ArrowUp"",""ArrowRight""]","value training","ocean","10","{""ArrowUp,ArrowLeft"":26,""ArrowUp,ArrowRight"":10,""ArrowDown,ArrowLeft"":5,""ArrowDown,ArrowRight"":17}","false","ArrowUp,ArrowRight","false","","","","","0","original","1",""
"html-keyboard-response","133","865432","0.0-4.0-2.0-1.0","pilot_wm_v1","null","5","null","null","false","","","","","","","null","<div style=""font-size:60px;"">+</div>","null","fixation","","","","","","","","","","","1","","",""
"revaluation","134","871438","0.0-4.0-2.0-0.1","pilot_wm_v1","null","5","null","null","false","","false","","","","","[331.7000000178814,343.2999999821186]","./assets/img/ocean/memory/2.jpg","[""ArrowUp"",""ArrowLeft""]","value training","ocean","26","{""ArrowUp,ArrowLeft"":26,""ArrowUp,ArrowRight"":10,""ArrowDown,ArrowLeft"":5,""ArrowDown,ArrowRight"":17}","true","ArrowUp,ArrowLeft","false","","","","","2","original","1",""
"html-keyboard-response","135","871940","0.0-4.0-2.0-1.1","pilot_wm_v1","null","5","null","null","false","","","","","","","null","<div style=""font-size:60px;"">+</div>","null","fixation","","","","","","","","","","","3","","",""
"revaluation","136","877945","0.0-4.0-2.0-0.2","pilot_wm_v1","null","5","null","null","false","","false","","","","","[423.59999999403954,369.30000001192093]","./assets/img/ocean/memory/17.jpg","[""ArrowDown"",""ArrowLeft""]","value training","ocean","5","{""ArrowUp,ArrowLeft"":26,""ArrowUp,ArrowRight"":10,""ArrowDown,ArrowLeft"":5,""ArrowDown,ArrowRight"":17}","false","ArrowDown,ArrowLeft","false","","","","","4","original","1",""
"html-keyboard-response","137","878446","0.0-4.0-2.0-1.2","pilot_wm_v1","null","5","null","null","false","","","","","","","null","<div style=""font-size:60px;"">+</div>","null","fixation","","","","","","","","","","","5","","",""
"revaluation","138","884455","0.0-4.0-2.0-0.3","pilot_wm_v1","null","5","null","null","false","","false","","","","","[213,315.19999998807907]","./assets/img/ocean/memory/30.jpg","[""ArrowDown"",""ArrowRight""]","value training","ocean","17","{""ArrowUp,ArrowLeft"":26,""ArrowUp,ArrowRight"":10,""ArrowDown,ArrowLeft"":5,""ArrowDown,ArrowRight"":17}","false","ArrowDown,ArrowRight","false","","","","","6","original","1",""
"html-keyboard-response","139","884956","0.0-4.0-2.0-1.3","pilot_wm_v1","null","5","null","null","false","","","","","","","null","<div style=""font-size:60px;"">+</div>","null","fixation","","","","","","","","","","","7","","",""
"revaluation","140","890963","0.0-4.0-2.0-0.4","pilot_wm_v1","null","5","null","null","false","","false","","","","","[424.59999999403954,394.7999999821186]","./assets/img/ocean/memory/24.jpg","[""ArrowUp"",""ArrowLeft""]","value training","ocean","26","{""ArrowUp,ArrowLeft"":26,""ArrowUp,ArrowRight"":10,""ArrowDown,ArrowLeft"":5,""ArrowDown,ArrowRight"":17}","true","ArrowUp,ArrowLeft","false","","","","","8","original","1",""
"html-keyboard-response","141","891465","0.0-4.0-2.0-1.4","pilot_wm_v1","null","5","null","null","false","","","","","","","null","<div style=""font-size:60px;"">+</div>","null","fixation","","","","","","","","","","","9","","",""
"revaluation","142","897471","0.0-4.0-2.0-0.5","pilot_wm_v1","null","5","null","null","false","","false","","","","","[407.90000000596046,329.59999999403954]","./assets/img/ocean/memory/34.jpg","[""ArrowUp"",""ArrowLeft""]","value training","ocean","26","{""ArrowUp,ArrowLeft"":26,""ArrowUp,ArrowRight"":10,""ArrowDown,ArrowLeft"":5,""ArrowDown,ArrowRight"":17}","true","ArrowUp,ArrowLeft","false","","","","","10","original","1",""
"html-keyboard-response","143","897974","0.0-4.0-2.0-1.5","pilot_wm_v1","null","5","null","null","false","","","","","","","null","<div style=""font-size:60px;"">+</div>","null","fixation","","","","","","","","","","","11","","",""
"revaluation","144","903979","0.0-4.0-2.0-0.6","pilot_wm_v1","null","5","null","null","false","","false","","","","","[523.9000000059605,444.80000001192093]","./assets/img/ocean/memory/6.jpg","[""ArrowUp"",""ArrowLeft""]","value training","ocean","26","{""ArrowUp,ArrowLeft"":26,""ArrowUp,ArrowRight"":10,""ArrowDown,ArrowLeft"":5,""ArrowDown,ArrowRight"":17}","true","ArrowUp,ArrowLeft","false","","","","","12","original","1",""
"html-keyboard-response","145","904481","0.0-4.0-2.0-1.6","pilot_wm_v1","null","5","null","null","false","","","","","","","null","<div style=""font-size:60px;"">+</div>","null","fixation","","","","","","","","","","","13","","",""
"revaluation","146","908486","0.0-4.0-2.0-0.7","pilot_wm_v1","null","5","null","null","false","","false","","","","","[490.09999999403954]","./assets/img/ocean/catch/0.jpg","[""spaceBar""]","value training","ocean","0","{""ArrowUp,ArrowLeft"":26,""ArrowUp,ArrowRight"":10,""ArrowDown,ArrowLeft"":5,""ArrowDown,ArrowRight"":17}","true","spaceBar","true","","","","","14","original","1",""
"html-keyboard-response","147","908988","0.0-4.0-2.0-1.7","pilot_wm_v1","null","5","null","null","false","","","","","","","null","<div style=""font-size:60px;"">+</div>","null","fixation","","","","","","","","","","","15","","",""
"revaluation","148","912992","0.0-4.0-2.0-0.8","pilot_wm_v1","null","5","null","null","false","","false","","","","","[778]","./assets/img/ocean/catch/4.jpg","[""spaceBar""]","value training","ocean","0","{""ArrowUp,ArrowLeft"":26,""ArrowUp,ArrowRight"":10,""ArrowDown,ArrowLeft"":5,""ArrowDown,ArrowRight"":17}","true","spaceBar","true","","","","","16","original","1",""
"html-keyboard-response","149","913494","0.0-4.0-2.0-1.8","pilot_wm_v1","null","5","null","null","false","","","","","","","null","<div style=""font-size:60px;"">+</div>","null","fixation","","","","","","","","","","","17","","",""
"revaluation","150","919509","0.0-4.0-2.0-0.9","pilot_wm_v1","null","5","null","null","false","","false","","","","","[621,328.2999999821186]","./assets/img/ocean/memory/7.jpg","[""ArrowUp"",""ArrowLeft""]","value training","ocean","26","{""ArrowUp,ArrowLeft"":26,""ArrowUp,ArrowRight"":10,""ArrowDown,ArrowLeft"":5,""ArrowDown,ArrowRight"":17}","true","ArrowUp,ArrowLeft","false","","","","","18","original","1",""
"html-keyboard-response","151","920010","0.0-4.0-2.0-1.9","pilot_wm_v1","null","5","null","null","false","","","","","","","null","<div style=""font-size:60px;"">+</div>","null","fixation","","","","","","","","","","","19","","",""
"revaluation","152","926017","0.0-4.0-2.0-0.10","pilot_wm_v1","null","5","null","null","false","","false","","","","","[730.2000000178814,342.59999999403954]","./assets/img/ocean/memory/27.jpg","[""ArrowUp"",""ArrowLeft""]","value training","ocean","26","{""ArrowUp,ArrowLeft"":26,""ArrowUp,ArrowRight"":10,""ArrowDown,ArrowLeft"":5,""ArrowDown,ArrowRight"":17}","true","ArrowUp,ArrowLeft","false","","","","","20","original","1",""
"html-keyboard-response","153","926519","0.0-4.0-2.0-1.10","pilot_wm_v1","null","5","null","null","false","","","","","","","null","<div style=""font-size:60px;"">+</div>","null","fixation","","","","","","","","","","","21","","",""
"revaluation","154","932527","0.0-4.0-2.0-0.11","pilot_wm_v1","null","5","null","null","false","","false","","","","","[632.0999999940395,363.19999998807907]","./assets/img/ocean/memory/22.jpg","[""ArrowUp"",""ArrowLeft""]","value training","ocean","26","{""ArrowUp,ArrowLeft"":26,""ArrowUp,ArrowRight"":10,""ArrowDown,ArrowLeft"":5,""ArrowDown,ArrowRight"":17}","true","ArrowUp,ArrowLeft","false","","","","","22","original","1",""
"html-keyboard-response","155","933029","0.0-4.0-2.0-1.11","pilot_wm_v1","null","5","null","null","false","","","","","","","null","<div style=""font-size:60px;"">+</div>","null","fixation","","","","","","","","","","","23","","",""
"revaluation","156","939034","0.0-4.0-2.0-0.12","pilot_wm_v1","null","5","null","null","false","","false","","","","","[641.5999999940395,512]","./assets/img/ocean/memory/34.jpg","[""ArrowUp"",""ArrowLeft""]","value training","ocean","26","{""ArrowUp,ArrowLeft"":26,""ArrowUp,ArrowRight"":10,""ArrowDown,ArrowLeft"":5,""ArrowDown,ArrowRight"":17}","true","ArrowUp,ArrowLeft","false","","","","","24","original","1",""
"html-keyboard-response","157","939535","0.0-4.0-2.0-1.12","pilot_wm_v1","null","5","null","null","false","","","","","","","null","<div style=""font-size:60px;"">+</div>","null","fixation","","","","","","","","","","","25","","",""
"revaluation","158","945544","0.0-4.0-2.0-0.13","pilot_wm_v1","null","5","null","null","false","","false","","","","","[833.4000000059605,417.30000001192093]","./assets/img/ocean/memory/39.jpg","[""ArrowUp"",""ArrowLeft""]","value training","ocean","26","{""ArrowUp,ArrowLeft"":26,""ArrowUp,ArrowRight"":10,""ArrowDown,ArrowLeft"":5,""ArrowDown,ArrowRight"":17}","true","ArrowUp,ArrowLeft","false","","","","","26","original","1",""
"html-keyboard-response","159","946045","0.0-4.0-2.0-1.13","pilot_wm_v1","null","5","null","null","false","","","","","","","null","<div style=""font-size:60px;"">+</div>","null","fixation","","","","","","","","","","","27","","",""
"revaluation","160","952051","0.0-4.0-2.0-0.14","pilot_wm_v1","null","5","null","null","false","","false","","","","","[1130,347]","./assets/img/ocean/memory/10.jpg","[""ArrowUp"",""ArrowLeft""]","value training","ocean","26","{""ArrowUp,ArrowLeft"":26,""ArrowUp,ArrowRight"":10,""ArrowDown,ArrowLeft"":5,""ArrowDown,ArrowRight"":17}","true","ArrowUp,ArrowLeft","false","","","","","28","original","1",""
"html-keyboard-response","161","952552","0.0-4.0-2.0-1.14","pilot_wm_v1","null","5","null","null","false","","","","","","","null","<div style=""font-size:60px;"">+</div>","null","fixation","","","","","","","","","","","29","","",""
"revaluation","162","958559","0.0-4.0-2.0-0.15","pilot_wm_v1","null","5","null","null","false","","false","","","","","[491.80000001192093,311.5]","./assets/img/ocean/memory/26.jpg","[""ArrowUp"",""ArrowLeft""]","value training","ocean","26","{""ArrowUp,ArrowLeft"":26,""ArrowUp,ArrowRight"":10,""ArrowDown,ArrowLeft"":5,""ArrowDown,ArrowRight"":17}","true","ArrowUp,ArrowLeft","false","","","","","30","original","1",""
"html-keyboard-response","163","959060","0.0-4.0-2.0-1.15","pilot_wm_v1","null","5","null","null","false","","","","","","","null","<div style=""font-size:60px;"">+</div>","null","fixation","","","","","","","","","","","31","","",""
"revaluation","164","965066","0.0-4.0-2.0-0.16","pilot_wm_v1","null","5","null","null","false","","false","","","","","[537.4000000059605,372.40000000596046]","./assets/img/ocean/memory/7.jpg","[""ArrowUp"",""ArrowLeft""]","value training","ocean","26","{""ArrowUp,ArrowLeft"":26,""ArrowUp,ArrowRight"":10,""ArrowDown,ArrowLeft"":5,""ArrowDown,ArrowRight"":17}","true","ArrowUp,ArrowLeft","false","","","","","32","original","1",""
"html-keyboard-response","165","965568","0.0-4.0-2.0-1.16","pilot_wm_v1","null","5","null","null","false","","","","","","","null","<div style=""font-size:60px;"">+</div>","null","fixation","","","","","","","","","","","33","","",""
"revaluation","166","971574","0.0-4.0-2.0-0.17","pilot_wm_v1","null","5","null","null","false","","false","","","","","[583.0999999940395,423.40000000596046]","./assets/img/ocean/memory/39.jpg","[""ArrowUp"",""ArrowLeft""]","value training","ocean","26","{""ArrowUp,ArrowLeft"":26,""ArrowUp,ArrowRight"":10,""ArrowDown,ArrowLeft"":5,""ArrowDown,ArrowRight"":17}","true","ArrowUp,ArrowLeft","false","","","","","34","original","1",""
"html-keyboard-response","167","972075","0.0-4.0-2.0-1.17","pilot_wm_v1","null","5","null","null","false","","","","","","","null","<div style=""font-size:60px;"">+</div>","null","fixation","","","","","","","","","","","35","","",""
"revaluation","168","978081","0.0-4.0-2.0-0.18","pilot_wm_v1","null","5","null","null","false","","false","","","","","[871.2999999821186,318.59999999403954]","./assets/img/ocean/memory/30.jpg","[""ArrowUp"",""ArrowLeft""]","value training","ocean","26","{""ArrowUp,ArrowLeft"":26,""ArrowUp,ArrowRight"":10,""ArrowDown,ArrowLeft"":5,""ArrowDown,ArrowRight"":17}","true","ArrowUp,ArrowLeft","false","","","","","36","original","1",""
"html-keyboard-response","169","978583","0.0-4.0-2.0-1.18","pilot_wm_v1","null","5","null","null","false","","","","","","","null","<div style=""font-size:60px;"">+</div>","null","fixation","","","","","","","","","","","37","","",""
"revaluation","170","984589","0.0-4.0-2.0-0.19","pilot_wm_v1","null","5","null","null","false","","false","","","","","[540.5,305.19999998807907]","./assets/img/ocean/memory/40.jpg","[""ArrowUp"",""ArrowLeft""]","value training","ocean","26","{""ArrowUp,ArrowLeft"":26,""ArrowUp,ArrowRight"":10,""ArrowDown,ArrowLeft"":5,""ArrowDown,ArrowRight"":17}","true","ArrowUp,ArrowLeft","false","","","","","38","original","1",""
"html-keyboard-response","171","985091","0.0-4.0-2.0-1.19","pilot_wm_v1","null","5","null","null","false","","","","","","","null","<div style=""font-size:60px;"">+</div>","null","fixation","","","","","","","","","","","39","","",""
"revaluation","172","991099","0.0-4.0-2.0-0.20","pilot_wm_v1","null","5","null","null","false","","false","","","","","[484.90000000596046,343.69999998807907]","./assets/img/ocean/memory/16.jpg","[""ArrowUp"",""ArrowLeft""]","value training","ocean","26","{""ArrowUp,ArrowLeft"":26,""ArrowUp,ArrowRight"":10,""ArrowDown,ArrowLeft"":5,""ArrowDown,ArrowRight"":17}","true","ArrowUp,ArrowLeft","false","","","","","40","original","1",""
"html-keyboard-response","173","991601","0.0-4.0-2.0-1.20","pilot_wm_v1","null","5","null","null","false","","","","","","","null","<div style=""font-size:60px;"">+</div>","null","fixation","","","","","","","","","","","41","","",""
"revaluation","174","997607","0.0-4.0-2.0-0.21","pilot_wm_v1","null","5","null","null","false","","false","","","","","[628.6999999880791,316.89999997615814]","./assets/img/ocean/memory/22.jpg","[""ArrowUp"",""ArrowLeft""]","value training","ocean","26","{""ArrowUp,ArrowLeft"":26,""ArrowUp,ArrowRight"":10,""ArrowDown,ArrowLeft"":5,""ArrowDown,ArrowRight"":17}","true","ArrowUp,ArrowLeft","false","","","","","42","original","1",""
"html-keyboard-response","175","998109","0.0-4.0-2.0-1.21","pilot_wm_v1","null","5","null","null","false","","","","","","","null","<div style=""font-size:60px;"">+</div>","null","fixation","","","","","","","","","","","43","","",""
"revaluation","176","1004116","0.0-4.0-2.0-0.22","pilot_wm_v1","null","5","null","null","false","","false","","","","","[577.5999999940395,406.59999999403954]","./assets/img/ocean/memory/9.jpg","[""ArrowUp"",""ArrowLeft""]","value training","ocean","26","{""ArrowUp,ArrowLeft"":26,""ArrowUp,ArrowRight"":10,""ArrowDown,ArrowLeft"":5,""ArrowDown,ArrowRight"":17}","true","ArrowUp,ArrowLeft","false","","","","","44","original","1",""
"html-keyboard-response","177","1004619","0.0-4.0-2.0-1.22","pilot_wm_v1","null","5","null","null","false","","","","","","","null","<div style=""font-size:60px;"">+</div>","null","fixation","","","","","","","","","","","45","","",""
"revaluation","178","1010627","0.0-4.0-2.0-0.23","pilot_wm_v1","null","5","null","null","false","","false","","","","","[831.9000000059605,464.69999998807907]","./assets/img/ocean/memory/24.jpg","[""ArrowUp"",""ArrowLeft""]","value training","ocean","26","{""ArrowUp,ArrowLeft"":26,""ArrowUp,ArrowRight"":10,""ArrowDown,ArrowLeft"":5,""ArrowDown,ArrowRight"":17}","true","ArrowUp,ArrowLeft","false","","","","","46","original","1",""
"html-keyboard-response","179","1011128","0.0-4.0-2.0-1.23","pilot_wm_v1","null","5","null","null","false","","","","","","","null","<div style=""font-size:60px;"">+</div>","null","fixation","","","","","","","","","","","47","","",""
"revaluation","180","1017135","0.0-4.0-2.0-0.24","pilot_wm_v1","null","5","null","null","false","","false","","","","","[671.5999999940395,355.30000001192093]","./assets/img/ocean/memory/41.jpg","[""ArrowUp"",""ArrowLeft""]","value training","ocean","26","{""ArrowUp,ArrowLeft"":26,""ArrowUp,ArrowRight"":10,""ArrowDown,ArrowLeft"":5,""ArrowDown,ArrowRight"":17}","true","ArrowUp,ArrowLeft","false","","","","","48","original","1",""
"html-keyboard-response","181","1017636","0.0-4.0-2.0-1.24","pilot_wm_v1","null","5","null","null","false","","","","","","","null","<div style=""font-size:60px;"">+</div>","null","fixation","","","","","","","","","","","49","","",""
"revaluation","182","1023643","0.0-4.0-2.0-0.25","pilot_wm_v1","null","5","null","null","false","","false","","","","","[665.0999999940395,318.69999998807907]","./assets/img/ocean/memory/6.jpg","[""ArrowUp"",""ArrowLeft""]","value training","ocean","26","{""ArrowUp,ArrowLeft"":26,""ArrowUp,ArrowRight"":10,""ArrowDown,ArrowLeft"":5,""ArrowDown,ArrowRight"":17}","true","ArrowUp,ArrowLeft","false","","","","","50","original","1",""
"html-keyboard-response","183","1024144","0.0-4.0-2.0-1.25","pilot_wm_v1","null","5","null","null","false","","","","","","","null","<div style=""font-size:60px;"">+</div>","null","fixation","","","","","","","","","","","51","","",""
"revaluation","184","1030150","0.0-4.0-2.0-0.26","pilot_wm_v1","null","5","null","null","false","","false","","","","","[499.90000000596046,143.40000000596046]","./assets/img/ocean/memory/28.jpg","[""ArrowUp"",""ArrowLeft""]","value training","ocean","26","{""ArrowUp,ArrowLeft"":26,""ArrowUp,ArrowRight"":10,""ArrowDown,ArrowLeft"":5,""ArrowDown,ArrowRight"":17}","true","ArrowUp,ArrowLeft","false","","","","","52","original","1",""
"html-keyboard-response","185","1030652","0.0-4.0-2.0-1.26","pilot_wm_v1","null","5","null","null","false","","","","","","","null","<div style=""font-size:60px;"">+</div>","null","fixation","","","","","","","","","","","53","","",""
"revaluation","186","1036659","0.0-4.0-2.0-0.27","pilot_wm_v1","null","5","null","null","false","","false","","","","","[635.6999999880791,329.19999998807907]","./assets/img/ocean/memory/27.jpg","[""ArrowUp"",""ArrowLeft""]","value training","ocean","26","{""ArrowUp,ArrowLeft"":26,""ArrowUp,ArrowRight"":10,""ArrowDown,ArrowLeft"":5,""ArrowDown,ArrowRight"":17}","true","ArrowUp,ArrowLeft","false","","","","","54","original","1",""
"html-keyboard-response","187","1037161","0.0-4.0-2.0-1.27","pilot_wm_v1","null","5","null","null","false","","","","","","","null","<div style=""font-size:60px;"">+</div>","null","fixation","","","","","","","","","","","55","","",""
"revaluation","188","1043166","0.0-4.0-2.0-0.28","pilot_wm_v1","null","5","null","null","false","","false","","","","","[565,425.5]","./assets/img/ocean/memory/17.jpg","[""ArrowUp"",""ArrowLeft""]","value training","ocean","26","{""ArrowUp,ArrowLeft"":26,""ArrowUp,ArrowRight"":10,""ArrowDown,ArrowLeft"":5,""ArrowDown,ArrowRight"":17}","true","ArrowUp,ArrowLeft","false","","","","","56","original","1",""
"html-keyboard-response","189","1043668","0.0-4.0-2.0-1.28","pilot_wm_v1","null","5","null","null","false","","","","","","","null","<div style=""font-size:60px;"">+</div>","null","fixation","","","","","","","","","","","57","","",""
"revaluation","190","1049675","0.0-4.0-2.0-0.29","pilot_wm_v1","null","5","null","null","false","","false","","","","","[530,334.7999999821186]","./assets/img/ocean/memory/26.jpg","[""ArrowUp"",""ArrowLeft""]","value training","ocean","26","{""ArrowUp,ArrowLeft"":26,""ArrowUp,ArrowRight"":10,""ArrowDown,ArrowLeft"":5,""ArrowDown,ArrowRight"":17}","true","ArrowUp,ArrowLeft","false","","","","","58","original","1",""
"html-keyboard-response","191","1050176","0.0-4.0-2.0-1.29","pilot_wm_v1","null","5","null","null","false","","","","","","","null","<div style=""font-size:60px;"">+</div>","null","fixation","","","","","","","","","","","59","","",""
"revaluation","192","1054181","0.0-4.0-2.0-0.30","pilot_wm_v1","null","5","null","null","false","","false","","","","","[702.2999999821186]","./assets/img/ocean/catch/3.jpg","[""spaceBar""]","value training","ocean","0","{""ArrowUp,ArrowLeft"":26,""ArrowUp,ArrowRight"":10,""ArrowDown,ArrowLeft"":5,""ArrowDown,ArrowRight"":17}","true","spaceBar","true","","","","","60","original","1",""
"html-keyboard-response","193","1054683","0.0-4.0-2.0-1.30","pilot_wm_v1","null","5","null","null","false","","","","","","","null","<div style=""font-size:60px;"">+</div>","null","fixation","","","","","","","","","","","61","","",""
"revaluation","194","1060690","0.0-4.0-2.0-0.31","pilot_wm_v1","null","5","null","null","false","","false","","","","","[541,336.2999999821186]","./assets/img/ocean/memory/13.jpg","[""ArrowUp"",""ArrowLeft""]","value training","ocean","26","{""ArrowUp,ArrowLeft"":26,""ArrowUp,ArrowRight"":10,""ArrowDown,ArrowLeft"":5,""ArrowDown,ArrowRight"":17}","true","ArrowUp,ArrowLeft","false","","","","","62","original","1",""
"html-keyboard-response","195","1061191","0.0-4.0-2.0-1.31","pilot_wm_v1","null","5","null","null","false","","","","","","","null","<div style=""font-size:60px;"">+</div>","null","fixation","","","","","","","","","","","63","","",""
"revaluation","196","1067198","0.0-4.0-2.0-0.32","pilot_wm_v1","null","5","null","null","false","","false","","","","","[581,355]","./assets/img/ocean/memory/28.jpg","[""ArrowUp"",""ArrowLeft""]","value training","ocean","26","{""ArrowUp,ArrowLeft"":26,""ArrowUp,ArrowRight"":10,""ArrowDown,ArrowLeft"":5,""ArrowDown,ArrowRight"":17}","true","ArrowUp,ArrowLeft","false","","","","","64","original","1",""
"html-keyboard-response","197","1067700","0.0-4.0-2.0-1.32","pilot_wm_v1","null","5","null","null","false","","","","","","","null","<div style=""font-size:60px;"">+</div>","null","fixation","","","","","","","","","","","65","","",""
"revaluation","198","1071704","0.0-4.0-2.0-0.33","pilot_wm_v1","null","5","null","null","false","","false","","","","","[556]","./assets/img/ocean/catch/6.jpg","[""spaceBar""]","value training","ocean","0","{""ArrowUp,ArrowLeft"":26,""ArrowUp,ArrowRight"":10,""ArrowDown,ArrowLeft"":5,""ArrowDown,ArrowRight"":17}","true","spaceBar","true","","","","","66","original","1",""
"html-keyboard-response","199","1072205","0.0-4.0-2.0-1.33","pilot_wm_v1","null","5","null","null","false","","","","","","","null","<div style=""font-size:60px;"">+</div>","null","fixation","","","","","","","","","","","67","","",""
"revaluation","200","1078211","0.0-4.0-2.0-0.34","pilot_wm_v1","null","5","null","null","false","","false","","","","","[566.5999999940395,533.5999999940395]","./assets/img/ocean/memory/40.jpg","[""ArrowUp"",""ArrowLeft""]","value training","ocean","26","{""ArrowUp,ArrowLeft"":26,""ArrowUp,ArrowRight"":10,""ArrowDown,ArrowLeft"":5,""ArrowDown,ArrowRight"":17}","true","ArrowUp,ArrowLeft","false","","","","","68","original","1",""
"html-keyboard-response","201","1078712","0.0-4.0-2.0-1.34","pilot_wm_v1","null","5","null","null","false","","","","","","","null","<div style=""font-size:60px;"">+</div>","null","fixation","","","","","","","","","","","69","","",""
"revaluation","202","1082717","0.0-4.0-2.0-0.35","pilot_wm_v1","null","5","null","null","false","","false","","","","","[508.09999999403954]","./assets/img/ocean/catch/2.jpg","[""spaceBar""]","value training","ocean","0","{""ArrowUp,ArrowLeft"":26,""ArrowUp,ArrowRight"":10,""ArrowDown,ArrowLeft"":5,""ArrowDown,ArrowRight"":17}","true","spaceBar","true","","","","","70","original","1",""
"html-keyboard-response","203","1083219","0.0-4.0-2.0-1.35","pilot_wm_v1","null","5","null","null","false","","","","","","","null","<div style=""font-size:60px;"">+</div>","null","fixation","","","","","","","","","","","71","","",""
"revaluation","204","1089224","0.0-4.0-2.0-0.36","pilot_wm_v1","null","5","null","null","false","","false","","","","","[490,469.69999998807907]","./assets/img/ocean/memory/41.jpg","[""ArrowUp"",""ArrowLeft""]","value training","ocean","26","{""ArrowUp,ArrowLeft"":26,""ArrowUp,ArrowRight"":10,""ArrowDown,ArrowLeft"":5,""ArrowDown,ArrowRight"":17}","true","ArrowUp,ArrowLeft","false","","","","","72","original","1",""
"html-keyboard-response","205","1089726","0.0-4.0-2.0-1.36","pilot_wm_v1","null","5","null","null","false","","","","","","","null","<div style=""font-size:60px;"">+</div>","null","fixation","","","","","","","","","","","73","","",""
"revaluation","206","1095733","0.0-4.0-2.0-0.37","pilot_wm_v1","null","5","null","null","false","","false","","","","","[664.2999999821186,439.59999999403954]","./assets/img/ocean/memory/15.jpg","[""ArrowUp"",""ArrowLeft""]","value training","ocean","26","{""ArrowUp,ArrowLeft"":26,""ArrowUp,ArrowRight"":10,""ArrowDown,ArrowLeft"":5,""ArrowDown,ArrowRight"":17}","true","ArrowUp,ArrowLeft","false","","","","","74","original","1",""
"html-keyboard-response","207","1096234","0.0-4.0-2.0-1.37","pilot_wm_v1","null","5","null","null","false","","","","","","","null","<div style=""font-size:60px;"">+</div>","null","fixation","","","","","","","","","","","75","","",""
"revaluation","208","1100240","0.0-4.0-2.0-0.38","pilot_wm_v1","null","5","null","null","false","","false","","","","","[840.2000000178814]","./assets/img/ocean/catch/5.jpg","[""spaceBar""]","value training","ocean","0","{""ArrowUp,ArrowLeft"":26,""ArrowUp,ArrowRight"":10,""ArrowDown,ArrowLeft"":5,""ArrowDown,ArrowRight"":17}","true","spaceBar","true","","","","","76","original","1",""
"html-keyboard-response","209","1100742","0.0-4.0-2.0-1.38","pilot_wm_v1","null","5","null","null","false","","","","","","","null","<div style=""font-size:60px;"">+</div>","null","fixation","","","","","","","","","","","77","","",""
"revaluation","210","1106748","0.0-4.0-2.0-0.39","pilot_wm_v1","null","5","null","null","false","","false","","","","","[647.5999999940395,478.09999999403954]","./assets/img/ocean/memory/16.jpg","[""ArrowUp"",""ArrowLeft""]","value training","ocean","26","{""ArrowUp,ArrowLeft"":26,""ArrowUp,ArrowRight"":10,""ArrowDown,ArrowLeft"":5,""ArrowDown,ArrowRight"":17}","true","ArrowUp,ArrowLeft","false","","","","","78","original","1",""
"html-keyboard-response","211","1107249","0.0-4.0-2.0-1.39","pilot_wm_v1","null","5","null","null","false","","","","","","","null","<div style=""font-size:60px;"">+</div>","null","fixation","","","","","","","","","","","79","","",""
"revaluation","212","1113256","0.0-4.0-2.0-0.40","pilot_wm_v1","null","5","null","null","false","","false","","","","","[644.6999999880791,621]","./assets/img/ocean/memory/15.jpg","[""ArrowUp"",""ArrowLeft""]","value training","ocean","26","{""ArrowUp,ArrowLeft"":26,""ArrowUp,ArrowRight"":10,""ArrowDown,ArrowLeft"":5,""ArrowDown,ArrowRight"":17}","true","ArrowUp,ArrowLeft","false","","","","","80","original","1",""
"html-keyboard-response","213","1113758","0.0-4.0-2.0-1.40","pilot_wm_v1","null","5","null","null","false","","","","","","","null","<div style=""font-size:60px;"">+</div>","null","fixation","","","","","","","","","","","81","","",""
"revaluation","214","1119764","0.0-4.0-2.0-0.41","pilot_wm_v1","null","5","null","null","false","","false","","","","","[818.7999999821186,855.9000000059605]","./assets/img/ocean/memory/20.jpg","[""ArrowUp"",""ArrowLeft""]","value training","ocean","26","{""ArrowUp,ArrowLeft"":26,""ArrowUp,ArrowRight"":10,""ArrowDown,ArrowLeft"":5,""ArrowDown,ArrowRight"":17}","true","ArrowUp,ArrowLeft","false","","","","","82","original","1",""
"html-keyboard-response","215","1120266","0.0-4.0-2.0-1.41","pilot_wm_v1","null","5","null","null","false","","","","","","","null","<div style=""font-size:60px;"">+</div>","null","fixation","","","","","","","","","","","83","","",""
"revaluation","216","1126270","0.0-4.0-2.0-0.42","pilot_wm_v1","null","5","null","null","false","","false","","","","","[598.0999999940395,846.4000000059605]","./assets/img/ocean/memory/13.jpg","[""ArrowUp"",""ArrowLeft""]","value training","ocean","26","{""ArrowUp,ArrowLeft"":26,""ArrowUp,ArrowRight"":10,""ArrowDown,ArrowLeft"":5,""ArrowDown,ArrowRight"":17}","true","ArrowUp,ArrowLeft","false","","","","","84","original","1",""
"html-keyboard-response","217","1126772","0.0-4.0-2.0-1.42","pilot_wm_v1","null","5","null","null","false","","","","","","","null","<div style=""font-size:60px;"">+</div>","null","fixation","","","","","","","","","","","85","","",""
"revaluation","218","1132778","0.0-4.0-2.0-0.43","pilot_wm_v1","null","5","null","null","false","","false","","","","","[525.0999999940395,404.90000000596046]","./assets/img/ocean/memory/18.jpg","[""ArrowUp"",""ArrowLeft""]","value training","ocean","26","{""ArrowUp,ArrowLeft"":26,""ArrowUp,ArrowRight"":10,""ArrowDown,ArrowLeft"":5,""ArrowDown,ArrowRight"":17}","true","ArrowUp,ArrowLeft","false","","","","","86","original","1",""
"html-keyboard-response","219","1133280","0.0-4.0-2.0-1.43","pilot_wm_v1","null","5","null","null","false","","","","","","","null","<div style=""font-size:60px;"">+</div>","null","fixation","","","","","","","","","","","87","","",""
"revaluation","220","1137287","0.0-4.0-2.0-0.44","pilot_wm_v1","null","5","null","null","false","","false","","","","","[681.5]","./assets/img/ocean/catch/1.jpg","[""spaceBar""]","value training","ocean","0","{""ArrowUp,ArrowLeft"":26,""ArrowUp,ArrowRight"":10,""ArrowDown,ArrowLeft"":5,""ArrowDown,ArrowRight"":17}","true","spaceBar","true","","","","","88","original","1",""
"html-keyboard-response","221","1137788","0.0-4.0-2.0-1.44","pilot_wm_v1","null","5","null","null","false","","","","","","","null","<div style=""font-size:60px;"">+</div>","null","fixation","","","","","","","","","","","89","","",""
"revaluation","222","1143794","0.0-4.0-2.0-0.45","pilot_wm_v1","null","5","null","null","false","","false","","","","","[674,398.90000000596046]","./assets/img/ocean/memory/10.jpg","[""ArrowUp"",""ArrowLeft""]","value training","ocean","26","{""ArrowUp,ArrowLeft"":26,""ArrowUp,ArrowRight"":10,""ArrowDown,ArrowLeft"":5,""ArrowDown,ArrowRight"":17}","true","ArrowUp,ArrowLeft","false","","","","","90","original","1",""
"html-keyboard-response","223","1144296","0.0-4.0-2.0-1.45","pilot_wm_v1","null","5","null","null","false","","","","","","","null","<div style=""font-size:60px;"">+</div>","null","fixation","","","","","","","","","","","91","","",""
"revaluation","224","1150303","0.0-4.0-2.0-0.46","pilot_wm_v1","null","5","null","null","false","","false","","","","","[780.5999999940395,837.5999999940395]","./assets/img/ocean/memory/20.jpg","[""ArrowUp"",""ArrowLeft""]","value training","ocean","26","{""ArrowUp,ArrowLeft"":26,""ArrowUp,ArrowRight"":10,""ArrowDown,ArrowLeft"":5,""ArrowDown,ArrowRight"":17}","true","ArrowUp,ArrowLeft","false","","","","","92","original","1",""
"html-keyboard-response","225","1150804","0.0-4.0-2.0-1.46","pilot_wm_v1","null","5","null","null","false","","","","","","","null","<div style=""font-size:60px;"">+</div>","null","fixation","","","","","","","","","","","93","","",""
"revaluation","226","1154809","0.0-4.0-2.0-0.47","pilot_wm_v1","null","5","null","null","false","","false","","","","","[417.5]","./assets/img/ocean/catch/7.jpg","[""ArrowUp""]","value training","ocean","-10","{""ArrowUp,ArrowLeft"":26,""ArrowUp,ArrowRight"":10,""ArrowDown,ArrowLeft"":5,""ArrowDown,ArrowRight"":17}","false","ArrowUp","true","","","","","94","original","1",""
"html-keyboard-response","227","1155311","0.0-4.0-2.0-1.47","pilot_wm_v1","null","5","null","null","false","","","","","","","null","<div style=""font-size:60px;"">+</div>","null","fixation","","","","","","","","","","","95","","",""
"revaluation","228","1161318","0.0-4.0-2.0-0.48","pilot_wm_v1","null","5","null","null","false","","false","","","","","[669.2999999821186,469.40000000596046]","./assets/img/ocean/memory/9.jpg","[""ArrowUp"",""ArrowLeft""]","value training","ocean","26","{""ArrowUp,ArrowLeft"":26,""ArrowUp,ArrowRight"":10,""ArrowDown,ArrowLeft"":5,""ArrowDown,ArrowRight"":17}","true","ArrowUp,ArrowLeft","false","","","","","96","original","1",""
"html-keyboard-response","229","1161819","0.0-4.0-2.0-1.48","pilot_wm_v1","null","5","null","null","false","","","","","","","null","<div style=""font-size:60px;"">+</div>","null","fixation","","","","","","","","","","","97","","",""
"revaluation","230","1167825","0.0-4.0-2.0-0.49","pilot_wm_v1","null","5","null","null","false","","false","","","","","[498.80000001192093,380.5]","./assets/img/ocean/memory/18.jpg","[""ArrowUp"",""ArrowLeft""]","value training","ocean","26","{""ArrowUp,ArrowLeft"":26,""ArrowUp,ArrowRight"":10,""ArrowDown,ArrowLeft"":5,""ArrowDown,ArrowRight"":17}","true","ArrowUp,ArrowLeft","false","","","","","98","original","1",""
"html-keyboard-response","231","1168327","0.0-4.0-2.0-1.49","pilot_wm_v1","null","5","null","null","false","","","","","","","null","<div style=""font-size:60px;"">+</div>","null","fixation","","","","","","","","","","","99","","",""
"learning-instructions","232","1183829","0.0-4.0-3.0-0.0","pilot_wm_v1","null","5","null","null","false","","","","","","","2052.2999999821186","<p> Now, you will travel with a friend who will choose whether you go up or down first. </p>
            <p> On these turns, you will just see the animal that they found. You will still get to choose which chest to search for treasure.</p>","","instructions","","","","","","","","","","","","","",""
"learning-instructions","233","1196510","0.0-4.0-3.0-0.1","pilot_wm_v1","null","5","null","null","false","","","","","","","1073.5999999940395","<p> In this part, you will also hear beeps from your friend and see special treasure chests that need a password. </p>
            <p> Do your best to count the high beeps <b>and</b> choose between each animals' chests at the same time.</p>
            <img src='./assets/img/instructions/beep_chest.jpg' class='instructions-image'>","","instructions","","","","","","","","","","","","","",""
"revaluation","234","1200532","0.0-4.0-4.0-0.0","pilot_wm_v1","null","5","null","null","false","","false","","","","","[827.5]","./assets/img/ocean/animals/seahorse.jpg","[""ArrowRight""]","revaluation","ocean","17","{""ArrowUp,ArrowLeft"":26,""ArrowUp,ArrowRight"":10,""ArrowDown,ArrowLeft"":5,""ArrowDown,ArrowRight"":17}","true","ArrowDown,ArrowRight","","14_4","","","","0","original","1",""
"html-keyboard-response","235","1201044","0.0-4.0-4.0-1.0","pilot_wm_v1","null","5","null","null","false","","","","","","","null","<div style=""font-size:60px;"">+</div>","null","fixation","","","","","","","","","","","","","",""
"revaluation","236","1205075","0.0-4.0-4.0-0.1","pilot_wm_v1","null","5","null","null","false","","false","","","","","[1148.8999999761581]","./assets/img/ocean/animals/seahorse.jpg","[""ArrowRight""]","revaluation","ocean","17","{""ArrowUp,ArrowLeft"":26,""ArrowUp,ArrowRight"":10,""ArrowDown,ArrowLeft"":5,""ArrowDown,ArrowRight"":17}","true","ArrowDown,ArrowRight","","12_2","","","","1","original","1",""
"html-keyboard-response","237","1205591","0.0-4.0-4.0-1.1","pilot_wm_v1","null","5","null","null","false","","","","","","","null","<div style=""font-size:60px;"">+</div>","null","fixation","","","","","","","","","","","","","",""
"revaluation","238","1209624","0.0-4.0-4.0-0.2","pilot_wm_v1","null","5","null","null","false","","false","","","","","[1167.5999999940395]","./assets/img/ocean/animals/octopus.jpg","[""ArrowLeft""]","revaluation","ocean","26","{""ArrowUp,ArrowLeft"":26,""ArrowUp,ArrowRight"":10,""ArrowDown,ArrowLeft"":5,""ArrowDown,ArrowRight"":17}","true","ArrowUp,ArrowLeft","","6_3","","","","2","original","1",""
"html-keyboard-response","239","1210126","0.0-4.0-4.0-1.2","pilot_wm_v1","null","5","null","null","false","","","","","","","null","<div style=""font-size:60px;"">+</div>","null","fixation","","","","","","","","","","","","","",""
"revaluation","240","1214149","0.0-4.0-4.0-0.3","pilot_wm_v1","null","5","null","null","false","","false","","","","","[999.5]","./assets/img/ocean/animals/octopus.jpg","[""ArrowLeft""]","revaluation","ocean","26","{""ArrowUp,ArrowLeft"":26,""ArrowUp,ArrowRight"":10,""ArrowDown,ArrowLeft"":5,""ArrowDown,ArrowRight"":17}","true","ArrowUp,ArrowLeft","","9_2","","","","3","original","1",""
"html-keyboard-response","241","1214660","0.0-4.0-4.0-1.3","pilot_wm_v1","null","5","null","null","false","","","","","","","null","<div style=""font-size:60px;"">+</div>","null","fixation","","","","","","","","","","","","","",""
"html-slider-response","242","1226128","0.0-4.0-4.0-2.3-0.3","pilot_wm_v1","null","5","null","null","false","","","","","","","11465","<div style=""width:500px;"">
        <p>What is the password?</p>
        <img src='./assets/img/instructions/beep_chest.jpg' class='instructions-image'>","11","","","","","true","","","","50","11","0","","","",""
"revaluation","243","1230131","0.0-4.0-4.0-0.4","pilot_wm_v1","null","5","null","null","false","","false","","","","","[1310.5999999940395]","./assets/img/ocean/animals/octopus.jpg","[""ArrowLeft""]","revaluation","ocean","26","{""ArrowUp,ArrowLeft"":26,""ArrowUp,ArrowRight"":10,""ArrowDown,ArrowLeft"":5,""ArrowDown,ArrowRight"":17}","true","ArrowUp,ArrowLeft","","8_2","","","","4","original","1",""
"html-keyboard-response","244","1230633","0.0-4.0-4.0-1.4","pilot_wm_v1","null","5","null","null","false","","","","","","","null","<div style=""font-size:60px;"">+</div>","null","fixation","","","","","","","","","","","","","",""
"revaluation","245","1234638","0.0-4.0-4.0-0.5","pilot_wm_v1","null","5","null","null","false","","false","","","","","[701.6999999880791]","./assets/img/ocean/animals/octopus.jpg","[""ArrowLeft""]","revaluation","ocean","26","{""ArrowUp,ArrowLeft"":26,""ArrowUp,ArrowRight"":10,""ArrowDown,ArrowLeft"":5,""ArrowDown,ArrowRight"":17}","true","ArrowUp,ArrowLeft","","3_0","","","","5","original","1",""
"html-keyboard-response","246","1235141","0.0-4.0-4.0-1.5","pilot_wm_v1","null","5","null","null","false","","","","","","","null","<div style=""font-size:60px;"">+</div>","null","fixation","","","","","","","","","","","","","",""
"revaluation","247","1239145","0.0-4.0-4.0-0.6","pilot_wm_v1","null","5","null","null","false","","false","","","","","[841.5999999940395]","./assets/img/ocean/animals/seahorse.jpg","[""ArrowRight""]","revaluation","ocean","17","{""ArrowUp,ArrowLeft"":26,""ArrowUp,ArrowRight"":10,""ArrowDown,ArrowLeft"":5,""ArrowDown,ArrowRight"":17}","true","ArrowDown,ArrowRight","","10_3","","","","6","original","1",""
"html-keyboard-response","248","1239646","0.0-4.0-4.0-1.6","pilot_wm_v1","null","5","null","null","false","","","","","","","null","<div style=""font-size:60px;"">+</div>","null","fixation","","","","","","","","","","","","","",""
"revaluation","249","1243652","0.0-4.0-4.0-0.7","pilot_wm_v1","null","5","null","null","false","","false","","","","","[893.1999999880791]","./assets/img/ocean/animals/octopus.jpg","[""ArrowLeft""]","revaluation","ocean","26","{""ArrowUp,ArrowLeft"":26,""ArrowUp,ArrowRight"":10,""ArrowDown,ArrowLeft"":5,""ArrowDown,ArrowRight"":17}","true","ArrowUp,ArrowLeft","","5_4","","","","7","original","1",""
"html-keyboard-response","250","1244153","0.0-4.0-4.0-1.7","pilot_wm_v1","null","5","null","null","false","","","","","","","null","<div style=""font-size:60px;"">+</div>","null","fixation","","","","","","","","","","","","","",""
"html-slider-response","251","1246734","0.0-4.0-4.0-2.7-0.7","pilot_wm_v1","null","5","null","null","false","","","","","","","2579","<div style=""width:500px;"">
        <p>What is the password?</p>
        <img src='./assets/img/instructions/beep_chest.jpg' class='instructions-image'>","9","","","","","true","","","","50","9","0","","","",""
"revaluation","252","1250739","0.0-4.0-4.0-0.8","pilot_wm_v1","null","5","null","null","false","","false","","","","","[1399.7999999821186]","./assets/img/ocean/animals/octopus.jpg","[""ArrowLeft""]","revaluation","ocean","26","{""ArrowUp,ArrowLeft"":26,""ArrowUp,ArrowRight"":10,""ArrowDown,ArrowLeft"":5,""ArrowDown,ArrowRight"":17}","true","ArrowUp,ArrowLeft","","4_0","","","","8","original","1",""
"html-keyboard-response","253","1251240","0.0-4.0-4.0-1.8","pilot_wm_v1","null","5","null","null","false","","","","","","","null","<div style=""font-size:60px;"">+</div>","null","fixation","","","","","","","","","","","","","",""
"revaluation","254","1255244","0.0-4.0-4.0-0.9","pilot_wm_v1","null","5","null","null","false","","false","","","","","[887.0999999940395]","./assets/img/ocean/animals/seahorse.jpg","[""ArrowRight""]","revaluation","ocean","17","{""ArrowUp,ArrowLeft"":26,""ArrowUp,ArrowRight"":10,""ArrowDown,ArrowLeft"":5,""ArrowDown,ArrowRight"":17}","true","ArrowDown,ArrowRight","","13_2","","","","9","original","1",""
"html-keyboard-response","255","1255745","0.0-4.0-4.0-1.9","pilot_wm_v1","null","5","null","null","false","","","","","","","null","<div style=""font-size:60px;"">+</div>","null","fixation","","","","","","","","","","","","","",""
"revaluation","256","1259750","0.0-4.0-4.0-0.10","pilot_wm_v1","null","5","null","null","false","","false","","","","","[766.8000000119209]","./assets/img/ocean/animals/seahorse.jpg","[""ArrowRight""]","revaluation","ocean","17","{""ArrowUp,ArrowLeft"":26,""ArrowUp,ArrowRight"":10,""ArrowDown,ArrowLeft"":5,""ArrowDown,ArrowRight"":17}","true","ArrowDown,ArrowRight","","15_0","","","","10","original","1",""
"html-keyboard-response","257","1260252","0.0-4.0-4.0-1.10","pilot_wm_v1","null","5","null","null","false","","","","","","","null","<div style=""font-size:60px;"">+</div>","null","fixation","","","","","","","","","","","","","",""
"revaluation","258","1264256","0.0-4.0-4.0-0.11","pilot_wm_v1","null","5","null","null","false","","false","","","","","[686.8999999761581]","./assets/img/ocean/animals/seahorse.jpg","[""ArrowRight""]","revaluation","ocean","17","{""ArrowUp,ArrowLeft"":26,""ArrowUp,ArrowRight"":10,""ArrowDown,ArrowLeft"":5,""ArrowDown,ArrowRight"":17}","true","ArrowDown,ArrowRight","","16_0","","","","11","original","1",""
"html-keyboard-response","259","1264758","0.0-4.0-4.0-1.11","pilot_wm_v1","null","5","null","null","false","","","","","","","null","<div style=""font-size:60px;"">+</div>","null","fixation","","","","","","","","","","","","","",""
"html-slider-response","260","1267979","0.0-4.0-4.0-2.11-0.11","pilot_wm_v1","null","5","null","null","false","","","","","","","3220","<div style=""width:500px;"">
        <p>What is the password?</p>
        <img src='./assets/img/instructions/beep_chest.jpg' class='instructions-image'>","2","","","","","true","","","","50","2","0","","","",""
"revaluation","261","1271982","0.0-4.0-4.0-0.12","pilot_wm_v1","null","5","null","null","false","","false","","","","","[967.3000000119209]","./assets/img/ocean/animals/octopus.jpg","[""ArrowLeft""]","revaluation","ocean","26","{""ArrowUp,ArrowLeft"":26,""ArrowUp,ArrowRight"":10,""ArrowDown,ArrowLeft"":5,""ArrowDown,ArrowRight"":17}","true","ArrowUp,ArrowLeft","","7_4","","","","12","original","1",""
"html-keyboard-response","262","1272484","0.0-4.0-4.0-1.12","pilot_wm_v1","null","5","null","null","false","","","","","","","null","<div style=""font-size:60px;"">+</div>","null","fixation","","","","","","","","","","","","","",""
"revaluation","263","1276489","0.0-4.0-4.0-0.13","pilot_wm_v1","null","5","null","null","false","","false","","","","","[922.5999999940395]","./assets/img/ocean/animals/seahorse.jpg","[""ArrowRight""]","revaluation","ocean","17","{""ArrowUp,ArrowLeft"":26,""ArrowUp,ArrowRight"":10,""ArrowDown,ArrowLeft"":5,""ArrowDown,ArrowRight"":17}","true","ArrowDown,ArrowRight","","11_4","","","","13","original","1",""
"html-keyboard-response","264","1276990","0.0-4.0-4.0-1.13","pilot_wm_v1","null","5","null","null","false","","","","","","","null","<div style=""font-size:60px;"">+</div>","null","fixation","","","","","","","","","","","","","",""
"revaluation","265","1280994","0.0-4.0-4.0-0.14","pilot_wm_v1","null","5","null","null","false","","false","","","","","[1088.5]","./assets/img/ocean/animals/seahorse.jpg","[""ArrowRight""]","revaluation","ocean","17","{""ArrowUp,ArrowLeft"":26,""ArrowUp,ArrowRight"":10,""ArrowDown,ArrowLeft"":5,""ArrowDown,ArrowRight"":17}","true","ArrowDown,ArrowRight","","17_1","","","","14","original","1",""
"html-keyboard-response","266","1281496","0.0-4.0-4.0-1.14","pilot_wm_v1","null","5","null","null","false","","","","","","","null","<div style=""font-size:60px;"">+</div>","null","fixation","","","","","","","","","","","","","",""
"revaluation","267","1285500","0.0-4.0-4.0-0.15","pilot_wm_v1","null","5","null","null","false","","false","","","","","[676.5999999940395]","./assets/img/ocean/animals/octopus.jpg","[""ArrowLeft""]","revaluation","ocean","26","{""ArrowUp,ArrowLeft"":26,""ArrowUp,ArrowRight"":10,""ArrowDown,ArrowLeft"":5,""ArrowDown,ArrowRight"":17}","true","ArrowUp,ArrowLeft","","1_4","","","","15","original","1",""
"html-keyboard-response","268","1286003","0.0-4.0-4.0-1.15","pilot_wm_v1","null","5","null","null","false","","","","","","","null","<div style=""font-size:60px;"">+</div>","null","fixation","","","","","","","","","","","","","",""
"html-slider-response","269","1289308","0.0-4.0-4.0-2.15-0.15","pilot_wm_v1","null","5","null","null","false","","","","","","","3303","<div style=""width:500px;"">
        <p>What is the password?</p>
        <img src='./assets/img/instructions/beep_chest.jpg' class='instructions-image'>","13","","","","","true","","","","50","13","0","","","",""
"revaluation","270","1293312","0.0-4.0-4.0-0.16","pilot_wm_v1","null","5","null","null","false","","false","","","","","[932.0999999940395]","./assets/img/ocean/animals/octopus.jpg","[""ArrowLeft""]","revaluation","ocean","26","{""ArrowUp,ArrowLeft"":26,""ArrowUp,ArrowRight"":10,""ArrowDown,ArrowLeft"":5,""ArrowDown,ArrowRight"":17}","true","ArrowUp,ArrowLeft","","2_1","","","","16","original","1",""
"html-keyboard-response","271","1293814","0.0-4.0-4.0-1.16","pilot_wm_v1","null","5","null","null","false","","","","","","","null","<div style=""font-size:60px;"">+</div>","null","fixation","","","","","","","","","","","","","",""
"revaluation","272","1297820","0.0-4.0-4.0-0.17","pilot_wm_v1","null","5","null","null","false","","false","","","","","[519.2999999821186]","./assets/img/ocean/animals/seahorse.jpg","[""ArrowRight""]","revaluation","ocean","17","{""ArrowUp,ArrowLeft"":26,""ArrowUp,ArrowRight"":10,""ArrowDown,ArrowLeft"":5,""ArrowDown,ArrowRight"":17}","true","ArrowDown,ArrowRight","","18_0","","","","17","original","1",""
"html-keyboard-response","273","1298321","0.0-4.0-4.0-1.17","pilot_wm_v1","null","5","null","null","false","","","","","","","null","<div style=""font-size:60px;"">+</div>","null","fixation","","","","","","","","","","","","","",""
"learning-instructions","274","1306797","0.0-4.0-6.0-0.0","pilot_wm_v1","null","5","null","null","false","","","","","","","null","<p> You have almost finished this part of the game! </p>
            <p> We are going to ask you to make a few more choices. </p>","","instructions","","","","","","","","","","","","","",""
"learning-instructions","275","1322783","0.0-4.0-6.0-0.1","pilot_wm_v1","null","5","null","null","false","","","","","","","null","<p> First, you need to decide whether to go up or down. When you see each picture, use the arrow keys to make your choice. </p>
            <p><b>You will not see which animal you found, but try to get to the one that will give you the most treasure.</b></p>","","instructions","","","","","","","","","","","","","",""
"html-keyboard-response","276","1323790","0.0-4.0-7.0-0.0","pilot_wm_v1","null","5","null","null","false","","","","","","","null","<div style=""font-size:100px;color:red;"">Starting in...</div>","null","","","","","","","","","","","","","","",""
"html-keyboard-response","277","1324808","0.0-4.0-7.0-1.0","pilot_wm_v1","null","5","null","null","false","","","","","","","null","<div style=""font-size:200px;color:red;"">3</div>","null","","","","","","","","","","","","","","",""
"html-keyboard-response","278","1325820","0.0-4.0-7.0-2.0","pilot_wm_v1","null","5","null","null","false","","","","","","","null","<div style=""font-size:200px;color:red;"">2</div>","null","","","","","","","","","","","","","","",""
"html-keyboard-response","279","1326834","0.0-4.0-7.0-3.0","pilot_wm_v1","null","5","null","null","false","","","","","","","null","<div style=""font-size:200px;color:red;"">1</div>","null","","","","","","","","","","","","","","",""
"revaluation","280","1327439","0.0-4.0-8.0-0.0","pilot_wm_v1","null","5","null","null","false","","false","","","","","[601.7000000178814]","./assets/img/ocean/test/3.jpg","[""ArrowUp""]","first stage test","ocean","0","{""ArrowUp,ArrowLeft"":26,""ArrowUp,ArrowRight"":10,""ArrowDown,ArrowLeft"":5,""ArrowDown,ArrowRight"":17}","true","ArrowUp","false","","","","","","original","1",""
"html-keyboard-response","281","1327944","0.0-4.0-8.0-1.0","pilot_wm_v1","null","5","null","null","false","","","","","","","null","<div style=""font-size:60px;"">+</div>","null","fixation","","","","","","","","","","","","","",""
"revaluation","282","1329124","0.0-4.0-8.0-0.1","pilot_wm_v1","null","5","null","null","false","","false","","","","","[1177.699999988079]","./assets/img/ocean/test/0.jpg","[""ArrowUp""]","first stage test","ocean","0","{""ArrowUp,ArrowLeft"":26,""ArrowUp,ArrowRight"":10,""ArrowDown,ArrowLeft"":5,""ArrowDown,ArrowRight"":17}","true","ArrowUp","false","","","","","","original","1",""
"html-keyboard-response","283","1329629","0.0-4.0-8.0-1.1","pilot_wm_v1","null","5","null","null","false","","","","","","","null","<div style=""font-size:60px;"">+</div>","null","fixation","","","","","","","","","","","","","",""
"revaluation","284","1330754","0.0-4.0-8.0-0.2","pilot_wm_v1","null","5","null","null","false","","false","","","","","[1121.9000000059605]","./assets/img/ocean/test/2.jpg","[""ArrowUp""]","first stage test","ocean","0","{""ArrowUp,ArrowLeft"":26,""ArrowUp,ArrowRight"":10,""ArrowDown,ArrowLeft"":5,""ArrowDown,ArrowRight"":17}","true","ArrowUp","false","","","","","","original","1",""
"html-keyboard-response","285","1331263","0.0-4.0-8.0-1.2","pilot_wm_v1","null","5","null","null","false","","","","","","","null","<div style=""font-size:60px;"">+</div>","null","fixation","","","","","","","","","","","","","",""
"revaluation","286","1332162","0.0-4.0-8.0-0.3","pilot_wm_v1","null","5","null","null","false","","false","","","","","[896.7999999821186]","./assets/img/ocean/test/1.jpg","[""ArrowUp""]","first stage test","ocean","0","{""ArrowUp,ArrowLeft"":26,""ArrowUp,ArrowRight"":10,""ArrowDown,ArrowLeft"":5,""ArrowDown,ArrowRight"":17}","true","ArrowUp","false","","","","","","original","1",""
"html-keyboard-response","287","1332674","0.0-4.0-8.0-1.3","pilot_wm_v1","null","5","null","null","false","","","","","","","null","<div style=""font-size:60px;"">+</div>","null","fixation","","","","","","","","","","","","","",""
"learning-instructions","288","1346026","0.0-4.0-9.0-0.0","pilot_wm_v1","null","5","null","null","false","","","","","","","null","<p> Now you will see the animals again and can search their chests for treasure. </p>
            <p> This time, you will not see how much treasure you earned, but you will earn more bonus money for making better choices. </p>","","instructions","","","","","","","","","","","","","",""
"html-keyboard-response","289","1347032","0.0-4.0-10.0-0.0","pilot_wm_v1","null","5","null","null","false","","","","","","","null","<div style=""font-size:100px;color:red;"">Starting in...</div>","null","","","","","","","","","","","","","","",""
"html-keyboard-response","290","1348042","0.0-4.0-10.0-1.0","pilot_wm_v1","null","5","null","null","false","","","","","","","null","<div style=""font-size:200px;color:red;"">3</div>","null","","","","","","","","","","","","","","",""
"html-keyboard-response","291","1349053","0.0-4.0-10.0-2.0","pilot_wm_v1","null","5","null","null","false","","","","","","","null","<div style=""font-size:200px;color:red;"">2</div>","null","","","","","","","","","","","","","","",""
"html-keyboard-response","292","1350070","0.0-4.0-10.0-3.0","pilot_wm_v1","null","5","null","null","false","","","","","","","null","<div style=""font-size:200px;color:red;"">1</div>","null","","","","","","","","","","","","","","",""
"revaluation","293","1350968","0.0-4.0-11.0-0.0","pilot_wm_v1","null","5","null","null","false","","false","","","","","[894.9000000059605]","./assets/img/ocean/animals/octopus.jpg","[""ArrowLeft""]","second stage test","ocean","0","{""ArrowUp,ArrowLeft"":26,""ArrowUp,ArrowRight"":10,""ArrowDown,ArrowLeft"":5,""ArrowDown,ArrowRight"":17}","true","ArrowUp,ArrowLeft","","","","","","","original","1",""
"html-keyboard-response","294","1351480","0.0-4.0-11.0-1.0","pilot_wm_v1","null","5","null","null","false","","","","","","","null","<div style=""font-size:60px;"">+</div>","null","fixation","","","","","","","","","","","","","",""
"revaluation","295","1352049","0.0-4.0-11.0-0.1","pilot_wm_v1","null","5","null","null","false","","false","","","","","[566]","./assets/img/ocean/animals/octopus.jpg","[""ArrowLeft""]","second stage test","ocean","0","{""ArrowUp,ArrowLeft"":26,""ArrowUp,ArrowRight"":10,""ArrowDown,ArrowLeft"":5,""ArrowDown,ArrowRight"":17}","true","ArrowUp,ArrowLeft","","","","","","","original","1",""
"html-keyboard-response","296","1352562","0.0-4.0-11.0-1.1","pilot_wm_v1","null","5","null","null","false","","","","","","","null","<div style=""font-size:60px;"">+</div>","null","fixation","","","","","","","","","","","","","",""
"revaluation","297","1353060","0.0-4.0-11.0-0.2","pilot_wm_v1","null","5","null","null","false","","false","","","","","[494.2000000178814]","./assets/img/ocean/animals/octopus.jpg","[""ArrowLeft""]","second stage test","ocean","0","{""ArrowUp,ArrowLeft"":26,""ArrowUp,ArrowRight"":10,""ArrowDown,ArrowLeft"":5,""ArrowDown,ArrowRight"":17}","true","ArrowUp,ArrowLeft","","","","","","","original","1",""
"html-keyboard-response","298","1353564","0.0-4.0-11.0-1.2","pilot_wm_v1","null","5","null","null","false","","","","","","","null","<div style=""font-size:60px;"">+</div>","null","fixation","","","","","","","","","","","","","",""
"revaluation","299","1354055","0.0-4.0-11.0-0.3","pilot_wm_v1","null","5","null","null","false","","false","","","","","[487.5]","./assets/img/ocean/animals/octopus.jpg","[""ArrowLeft""]","second stage test","ocean","0","{""ArrowUp,ArrowLeft"":26,""ArrowUp,ArrowRight"":10,""ArrowDown,ArrowLeft"":5,""ArrowDown,ArrowRight"":17}","true","ArrowUp,ArrowLeft","","","","","","","original","1",""
"html-keyboard-response","300","1354563","0.0-4.0-11.0-1.3","pilot_wm_v1","null","5","null","null","false","","","","","","","null","<div style=""font-size:60px;"">+</div>","null","fixation","","","","","","","","","","","","","",""
"revaluation","301","1355192","0.0-4.0-11.0-0.4","pilot_wm_v1","null","5","null","null","false","","false","","","","","[626.7000000178814]","./assets/img/ocean/animals/seahorse.jpg","[""ArrowRight""]","second stage test","ocean","0","{""ArrowUp,ArrowLeft"":26,""ArrowUp,ArrowRight"":10,""ArrowDown,ArrowLeft"":5,""ArrowDown,ArrowRight"":17}","true","ArrowDown,ArrowRight","","","","","","","original","1",""
"html-keyboard-response","302","1355708","0.0-4.0-11.0-1.4","pilot_wm_v1","null","5","null","null","false","","","","","","","null","<div style=""font-size:60px;"">+</div>","null","fixation","","","","","","","","","","","","","",""
"revaluation","303","1356264","0.0-4.0-11.0-0.5","pilot_wm_v1","null","5","null","null","false","","false","","","","","[552.2000000178814]","./assets/img/ocean/animals/seahorse.jpg","[""ArrowRight""]","second stage test","ocean","0","{""ArrowUp,ArrowLeft"":26,""ArrowUp,ArrowRight"":10,""ArrowDown,ArrowLeft"":5,""ArrowDown,ArrowRight"":17}","true","ArrowDown,ArrowRight","","","","","","","original","1",""
